PE UV       SUBTECH     SPECTRUM    ASCII       PEDS        4.00        
   -1
CICIMAUCR0013-3.Sample.ASC
24/04/04
14:19:19.00
24/04/04
14:19:19.00
Vinicio Soto Monge
C. resplendens
250,000000
1
Lambda 1050
1050L1511233
PerkinElmer UV WinLab 6.3.2.0749 / 2.02.05 Lambda 900 UV/VIS/NIR, Aug  7 2015 09:38:08

0
0
3350/servo 860,8/2
0
0
UV/VIS
1
1
1
DoubleDePol,CommonBeamDepol,RBeamAtt,SBeamAtt,60mm sphere, WB InGaAs Detector
0
0
0
0
Program
Program
3350/servo 860,8/2
3350/0,2 860,8/0,2
3350/0,2 860,8/0,2
0
15.00
 
 
 
0
 
860,8
319,2
860,8
Front
100
on
S:100 R:100
0
0
0
0
 
0
 
 
 
0
 
 
0
0
0
0
0
 
 
 
 
0
0


0
0
#HDR
-1
-1
#GR
nm
%R
1.0
0.0
2500,000000
-1,000000
2251
8
70,616200
5,151800
#DATA
2500.000000	6.912521
2499.000000	6.826636
2498.000000	6.859380
2497.000000	6.738495
2496.000000	6.786699
2495.000000	6.854871
2494.000000	6.855944
2493.000000	6.811713
2492.000000	6.837693
2491.000000	6.817295
2490.000000	6.750841
2489.000000	6.696304
2488.000000	6.787235
2487.000000	6.795073
2486.000000	6.835439
2485.000000	6.709509
2484.000000	6.775104
2483.000000	6.773494
2482.000000	6.817618
2481.000000	6.790993
2480.000000	6.736563
2479.000000	6.728189
2478.000000	6.849073
2477.000000	6.839518
2476.000000	6.816222
2475.000000	6.786484
2474.000000	6.824274
2473.000000	6.847892
2472.000000	6.778969
2471.000000	6.874087
2470.000000	6.878489
2469.000000	6.871833
2468.000000	6.826421
2467.000000	6.845530
2466.000000	6.899424
2465.000000	6.867646
2464.000000	6.916816
2463.000000	6.945480
2462.000000	6.996582
2461.000000	7.005171
2460.000000	7.031795
2459.000000	7.057668
2458.000000	7.081931
2457.000000	7.153324
2456.000000	7.192294
2455.000000	7.229870
2454.000000	7.305986
2453.000000	7.344957
2452.000000	7.416027
2451.000000	7.442652
2450.000000	7.488815
2449.000000	7.547969
2448.000000	7.656293
2447.000000	7.686782
2446.000000	7.752377
2445.000000	7.819476
2444.000000	7.853508
2443.000000	7.931127
2442.000000	7.968810
2441.000000	8.025924
2440.000000	8.083467
2439.000000	8.132422
2438.000000	8.183202
2437.000000	8.223354
2436.000000	8.287768
2435.000000	8.329745
2434.000000	8.367857
2433.000000	8.411337
2432.000000	8.444832
2431.000000	8.480260
2430.000000	8.544138
2429.000000	8.564321
2428.000000	8.588047
2427.000000	8.619502
2426.000000	8.641940
2425.000000	8.673932
2424.000000	8.704851
2423.000000	8.721277
2422.000000	8.738884
2421.000000	8.764542
2420.000000	8.805230
2419.000000	8.855152
2418.000000	8.907327
2417.000000	8.919459
2416.000000	8.921391
2415.000000	8.948445
2414.000000	8.985483
2413.000000	8.991173
2412.000000	9.016188
2411.000000	9.051508
2410.000000	9.079958
2409.000000	9.091123
2408.000000	9.122686
2407.000000	9.147163
2406.000000	9.161442
2405.000000	9.189677
2404.000000	9.213403
2403.000000	9.244537
2402.000000	9.249690
2401.000000	9.267189
2400.000000	9.297893
2399.000000	9.345130
2398.000000	9.362737
2397.000000	9.375942
2396.000000	9.400849
2395.000000	9.426937
2394.000000	9.449589
2393.000000	9.467732
2392.000000	9.483192
2391.000000	9.504449
2390.000000	9.518834
2389.000000	9.513896
2388.000000	9.537515
2387.000000	9.546855
2386.000000	9.535045
2385.000000	9.530751
2384.000000	9.534831
2383.000000	9.532039
2382.000000	9.511427
2381.000000	9.507884
2380.000000	9.497148
2379.000000	9.477931
2378.000000	9.453991
2377.000000	9.440893
2376.000000	9.440893
2375.000000	9.412658
2374.000000	9.371111
2373.000000	9.341373
2372.000000	9.321726
2371.000000	9.285762
2370.000000	9.239061
2369.000000	9.197943
2368.000000	9.157792
2367.000000	9.105294
2366.000000	9.035619
2365.000000	8.990207
2364.000000	8.933200
2363.000000	8.850750
2362.000000	8.786550
2361.000000	8.736522
2360.000000	8.681662
2359.000000	8.609840
2358.000000	8.540809
2357.000000	8.490029
2356.000000	8.463297
2355.000000	8.437317
2354.000000	8.417993
2353.000000	8.406720
2352.000000	8.392442
2351.000000	8.403499
2350.000000	8.431734
2349.000000	8.459003
2348.000000	8.469739
2347.000000	8.502376
2346.000000	8.539736
2345.000000	8.575056
2344.000000	8.616604
2343.000000	8.643443
2342.000000	8.672859
2341.000000	8.708394
2340.000000	8.714299
2339.000000	8.717734
2338.000000	8.716553
2337.000000	8.713869
2336.000000	8.700772
2335.000000	8.683702
2334.000000	8.645161
2333.000000	8.605116
2332.000000	8.568508
2331.000000	8.509998
2330.000000	8.464264
2329.000000	8.405432
2328.000000	8.335435
2327.000000	8.264579
2326.000000	8.189000
2325.000000	8.112883
2324.000000	8.034298
2323.000000	7.936388
2322.000000	7.841055
2321.000000	7.759570
2320.000000	7.664881
2319.000000	7.551512
2318.000000	7.446839
2317.000000	7.339267
2316.000000	7.232553
2315.000000	7.151928
2314.000000	7.061533
2313.000000	6.978976
2312.000000	6.903396
2311.000000	6.825347
2310.000000	6.784659
2309.000000	6.728833
2308.000000	6.705537
2307.000000	6.690184
2306.000000	6.672148
2305.000000	6.676335
2304.000000	6.699417
2303.000000	6.733342
2302.000000	6.780579
2301.000000	6.841451
2300.000000	6.872692
2299.000000	6.927229
2298.000000	6.990463
2297.000000	7.040277
2296.000000	7.089876
2295.000000	7.120687
2294.000000	7.164382
2293.000000	7.199810
2292.000000	7.194656
2291.000000	7.210438
2290.000000	7.215698
2289.000000	7.213981
2288.000000	7.176298
2287.000000	7.151284
2286.000000	7.124015
2285.000000	7.078818
2284.000000	7.026213
2283.000000	6.976721
2282.000000	6.924223
2281.000000	6.860560
2280.000000	6.834687
2279.000000	6.763509
2278.000000	6.700813
2277.000000	6.655079
2276.000000	6.614498
2275.000000	6.565006
2274.000000	6.523136
2273.000000	6.509395
2272.000000	6.479442
2271.000000	6.458937
2270.000000	6.488675
2269.000000	6.490070
2268.000000	6.500591
2267.000000	6.525713
2266.000000	6.560712
2265.000000	6.646812
2264.000000	6.706073
2263.000000	6.788094
2262.000000	6.903074
2261.000000	7.012900
2260.000000	7.131530
2259.000000	7.260681
2258.000000	7.405399
2257.000000	7.551834
2256.000000	7.696874
2255.000000	7.835043
2254.000000	7.993502
2253.000000	8.147882
2252.000000	8.261036
2251.000000	8.395126
2250.000000	8.551867
2249.000000	8.676080
2248.000000	8.778606
2247.000000	8.869752
2246.000000	8.978290
2245.000000	9.070618
2244.000000	9.179263
2243.000000	9.270839
2242.000000	9.317647
2241.000000	9.404606
2240.000000	9.472027
2239.000000	9.543204
2238.000000	9.603217
2237.000000	9.647663
2236.000000	9.685453
2235.000000	9.756738
2234.000000	9.763716
2233.000000	9.819220
2232.000000	9.822548
2231.000000	9.826091
2230.000000	9.818791
2229.000000	9.831244
2228.000000	9.808270
2227.000000	9.784758
2226.000000	9.752659
2225.000000	9.732475
2224.000000	9.671711
2223.000000	9.629305
2222.000000	9.565964
2221.000000	9.534079
2220.000000	9.485661
2219.000000	9.413839
2218.000000	9.374117
2217.000000	9.301221
2216.000000	9.254843
2215.000000	9.204278
2214.000000	9.167669
2213.000000	9.152853
2212.000000	9.127302
2211.000000	9.113775
2210.000000	9.126873
2209.000000	9.145446
2208.000000	9.177331
2207.000000	9.224139
2206.000000	9.302187
2205.000000	9.374976
2204.000000	9.482762
2203.000000	9.608156
2202.000000	9.720022
2201.000000	9.846489
2200.000000	9.987986
2199.000000	10.143224
2198.000000	10.289123
2197.000000	10.430405
2196.000000	10.582101
2195.000000	10.719626
2194.000000	10.880340
2193.000000	10.997788
2192.000000	11.124685
2191.000000	11.226782
2190.000000	11.333602
2189.000000	11.427754
2188.000000	11.497215
2187.000000	11.568285
2186.000000	11.639463
2185.000000	11.705166
2184.000000	11.762172
2183.000000	11.775377
2182.000000	11.803505
2181.000000	11.838074
2180.000000	11.881768
2179.000000	11.918592
2178.000000	11.933944
2177.000000	11.955630
2176.000000	11.980537
2175.000000	11.991488
2174.000000	12.025090
2173.000000	12.051822
2172.000000	12.082204
2171.000000	12.092296
2170.000000	12.129442
2169.000000	12.145867
2168.000000	12.170452
2167.000000	12.197721
2166.000000	12.233686
2165.000000	12.267503
2164.000000	12.293484
2163.000000	12.321611
2162.000000	12.345874
2161.000000	12.375612
2160.000000	12.417803
2159.000000	12.445072
2158.000000	12.490699
2157.000000	12.535574
2156.000000	12.560696
2155.000000	12.613408
2154.000000	12.646904
2153.000000	12.680077
2152.000000	12.734293
2151.000000	12.772512
2150.000000	12.817602
2149.000000	12.858398
2148.000000	12.898227
2147.000000	12.942458
2146.000000	12.974880
2145.000000	13.021259
2144.000000	13.048850
2143.000000	13.087069
2142.000000	13.127972
2141.000000	13.162434
2140.000000	13.197217
2139.000000	13.226741
2138.000000	13.244669
2137.000000	13.269147
2136.000000	13.294805
2135.000000	13.311016
2134.000000	13.334205
2133.000000	13.351704
2132.000000	13.364480
2131.000000	13.381228
2130.000000	13.393896
2129.000000	13.393037
2128.000000	13.401948
2127.000000	13.401733
2126.000000	13.386488
2125.000000	13.389280
2124.000000	13.398083
2123.000000	13.394647
2122.000000	13.375538
2121.000000	13.365124
2120.000000	13.348054
2119.000000	13.331521
2118.000000	13.326476
2117.000000	13.296845
2116.000000	13.282352
2115.000000	13.265389
2114.000000	13.222446
2113.000000	13.199901
2112.000000	13.173813
2111.000000	13.149121
2110.000000	13.140425
2109.000000	13.114982
2108.000000	13.079339
2107.000000	13.060444
2106.000000	13.047991
2105.000000	13.030814
2104.000000	13.006229
2103.000000	12.965755
2102.000000	12.951154
2101.000000	12.957381
2100.000000	12.932582
2099.000000	12.889853
2098.000000	12.860652
2097.000000	12.849594
2096.000000	12.834672
2095.000000	12.830592
2094.000000	12.805471
2093.000000	12.774015
2092.000000	12.772619
2091.000000	12.763923
2090.000000	12.756623
2089.000000	12.758877
2088.000000	12.727529
2087.000000	12.718296
2086.000000	12.700475
2085.000000	12.675676
2084.000000	12.668268
2083.000000	12.660001
2082.000000	12.641536
2081.000000	12.626291
2080.000000	12.633162
2079.000000	12.618991
2078.000000	12.600418
2077.000000	12.591615
2076.000000	12.564239
2075.000000	12.562628
2074.000000	12.563487
2073.000000	12.551248
2072.000000	12.518505
2071.000000	12.491558
2070.000000	12.493598
2069.000000	12.483506
2068.000000	12.469335
2067.000000	12.453017
2066.000000	12.442818
2065.000000	12.436698
2064.000000	12.434122
2063.000000	12.449259
2062.000000	12.458707
2061.000000	12.451406
2060.000000	12.457740
2059.000000	12.477601
2058.000000	12.504548
2057.000000	12.523550
2056.000000	12.563165
2055.000000	12.603746
2054.000000	12.663222
2053.000000	12.711640
2052.000000	12.807510
2051.000000	12.884056
2050.000000	12.982503
2049.000000	13.072898
2048.000000	13.155670
2047.000000	13.273870
2046.000000	13.403451
2045.000000	13.539902
2044.000000	13.680540
2043.000000	13.820963
2042.000000	13.943243
2041.000000	14.085277
2040.000000	14.234289
2039.000000	14.372350
2038.000000	14.515458
2037.000000	14.646433
2036.000000	14.769250
2035.000000	14.924274
2034.000000	15.033886
2033.000000	15.167224
2032.000000	15.281452
2031.000000	15.397398
2030.000000	15.501320
2029.000000	15.609214
2028.000000	15.717537
2027.000000	15.799880
2026.000000	15.916578
2025.000000	15.992909
2024.000000	16.092751
2023.000000	16.189480
2022.000000	16.266133
2021.000000	16.341390
2020.000000	16.443058
2019.000000	16.515846
2018.000000	16.597438
2017.000000	16.663140
2016.000000	16.731956
2015.000000	16.814192
2014.000000	16.870447
2013.000000	16.929816
2012.000000	16.967176
2011.000000	17.013447
2010.000000	17.040394
2009.000000	17.071957
2008.000000	17.112108
2007.000000	17.142598
2006.000000	17.146141
2005.000000	17.173946
2004.000000	17.189728
2003.000000	17.200463
2002.000000	17.194344
2001.000000	17.177167
2000.000000	17.160312
1999.000000	17.160312
1998.000000	17.134009
1997.000000	17.132184
1996.000000	17.089671
1995.000000	17.057356
1994.000000	17.030302
1993.000000	17.000564
1992.000000	16.940873
1991.000000	16.892241
1990.000000	16.865938
1989.000000	16.787353
1988.000000	16.736573
1987.000000	16.682464
1986.000000	16.628464
1985.000000	16.545584
1984.000000	16.484390
1983.000000	16.437046
1982.000000	16.368659
1981.000000	16.298877
1980.000000	16.226303
1979.000000	16.160171
1978.000000	16.085558
1977.000000	16.004288
1976.000000	15.948248
1975.000000	15.877070
1974.000000	15.787641
1973.000000	15.717967
1972.000000	15.663107
1971.000000	15.604812
1970.000000	15.536640
1969.000000	15.459235
1968.000000	15.381509
1967.000000	15.355850
1966.000000	15.278768
1965.000000	15.195351
1964.000000	15.142102
1963.000000	15.094757
1962.000000	15.031739
1961.000000	14.973873
1960.000000	14.911177
1959.000000	14.831195
1958.000000	14.771934
1957.000000	14.713532
1956.000000	14.659209
1955.000000	14.586957
1954.000000	14.533171
1953.000000	14.480244
1952.000000	14.429357
1951.000000	14.366446
1950.000000	14.296878
1949.000000	14.263275
1948.000000	14.225700
1947.000000	14.192419
1946.000000	14.147759
1945.000000	14.113619
1944.000000	14.062732
1943.000000	14.070998
1942.000000	14.058115
1941.000000	14.052748
1940.000000	14.046521
1939.000000	14.071320
1938.000000	14.084203
1937.000000	14.105245
1936.000000	14.111687
1935.000000	14.152483
1934.000000	14.207449
1933.000000	14.266925
1932.000000	14.322107
1931.000000	14.388454
1930.000000	14.486471
1929.000000	14.575685
1928.000000	14.666509
1927.000000	14.784817
1926.000000	14.873387
1925.000000	15.016494
1924.000000	15.120631
1923.000000	15.223157
1922.000000	15.384622
1921.000000	15.557789
1920.000000	15.746202
1919.000000	15.936761
1918.000000	16.056464
1917.000000	16.244017
1916.000000	16.399256
1915.000000	16.592929
1914.000000	16.812474
1913.000000	17.047587
1912.000000	17.302238
1911.000000	17.485926
1910.000000	17.702359
1909.000000	17.879606
1908.000000	18.091958
1907.000000	18.328252
1906.000000	18.587734
1905.000000	18.908089
1904.000000	19.184641
1903.000000	19.399356
1902.000000	19.640802
1901.000000	19.890300
1900.000000	20.162129
1899.000000	20.471533
1898.000000	20.728654
1897.000000	20.992645
1896.000000	21.200167
1895.000000	21.446552
1894.000000	21.691863
1893.000000	21.934920
1892.000000	22.219095
1891.000000	22.492856
1890.000000	22.750513
1889.000000	22.989598
1888.000000	23.273129
1887.000000	23.540663
1886.000000	23.847061
1885.000000	24.186739
1884.000000	24.592979
1883.000000	25.015538
1882.000000	25.439169
1881.000000	25.892539
1880.000000	26.321754
1879.000000	26.755048
1878.000000	27.178680
1877.000000	27.555826
1876.000000	27.905703
1875.000000	28.235290
1874.000000	28.517103
1873.000000	28.778947
1872.000000	29.023722
1871.000000	29.216428
1870.000000	29.367802
1869.000000	29.519928
1868.000000	29.643818
1867.000000	29.709198
1866.000000	29.748491
1865.000000	29.795728
1864.000000	29.841141
1863.000000	29.886231
1862.000000	29.927563
1861.000000	29.938406
1860.000000	29.939802
1859.000000	29.914251
1858.000000	29.877964
1857.000000	29.857996
1856.000000	29.814623
1855.000000	29.754503
1854.000000	29.683325
1853.000000	29.582195
1852.000000	29.496309
1851.000000	29.444992
1850.000000	29.406236
1849.000000	29.356315
1848.000000	29.249065
1847.000000	29.117767
1846.000000	28.995809
1845.000000	28.907991
1844.000000	28.865155
1843.000000	28.864511
1842.000000	28.834129
1841.000000	28.772184
1840.000000	28.699074
1839.000000	28.644107
1838.000000	28.574324
1837.000000	28.494343
1836.000000	28.421233
1835.000000	28.315701
1834.000000	28.219616
1833.000000	28.147687
1832.000000	28.065344
1831.000000	27.983537
1830.000000	27.887667
1829.000000	27.775479
1828.000000	27.654702
1827.000000	27.558724
1826.000000	27.470692
1825.000000	27.392535
1824.000000	27.349163
1823.000000	27.333489
1822.000000	27.319103
1821.000000	27.294411
1820.000000	27.239229
1819.000000	27.166226
1818.000000	27.137884
1817.000000	27.139709
1816.000000	27.146795
1815.000000	27.131335
1814.000000	27.102563
1813.000000	27.104925
1812.000000	27.093438
1811.000000	27.042980
1810.000000	26.980391
1809.000000	26.929181
1808.000000	26.897189
1807.000000	26.868739
1806.000000	26.825152
1805.000000	26.738622
1804.000000	26.663365
1803.000000	26.624931
1802.000000	26.581129
1801.000000	26.527450
1800.000000	26.449080
1799.000000	26.369420
1798.000000	26.315956
1797.000000	26.267968
1796.000000	26.215577
1795.000000	26.160825
1794.000000	26.106824
1793.000000	26.043376
1792.000000	25.973594
1791.000000	25.899303
1790.000000	25.822972
1789.000000	25.760705
1788.000000	25.678362
1787.000000	25.595482
1786.000000	25.517862
1785.000000	25.423281
1784.000000	25.322579
1783.000000	25.219516
1782.000000	25.132772
1781.000000	25.031534
1780.000000	24.922029
1779.000000	24.815209
1778.000000	24.715259
1777.000000	24.600387
1776.000000	24.473598
1775.000000	24.330920
1774.000000	24.196509
1773.000000	24.016900
1772.000000	23.840297
1771.000000	23.688494
1770.000000	23.544743
1769.000000	23.395301
1768.000000	23.241351
1767.000000	23.117246
1766.000000	23.003555
1765.000000	22.916703
1764.000000	22.862916
1763.000000	22.836399
1762.000000	22.850785
1761.000000	22.882670
1760.000000	22.946440
1759.000000	23.033400
1758.000000	23.099961
1757.000000	23.167167
1756.000000	23.212257
1755.000000	23.260675
1754.000000	23.270123
1753.000000	23.281181
1752.000000	23.249510
1751.000000	23.197979
1750.000000	23.155143
1749.000000	23.073981
1748.000000	22.982513
1747.000000	22.885247
1746.000000	22.750835
1745.000000	22.591303
1744.000000	22.406111
1743.000000	22.192470
1742.000000	21.957895
1741.000000	21.675760
1740.000000	21.414667
1739.000000	21.130385
1738.000000	20.877021
1737.000000	20.696554
1736.000000	20.535947
1735.000000	20.443620
1734.000000	20.402824
1733.000000	20.425584
1732.000000	20.493326
1731.000000	20.566007
1730.000000	20.696017
1729.000000	20.821303
1728.000000	20.964517
1727.000000	21.094742
1726.000000	21.234521
1725.000000	21.315361
1724.000000	21.390726
1723.000000	21.414559
1722.000000	21.457717
1721.000000	21.458361
1720.000000	21.476504
1719.000000	21.495936
1718.000000	21.525245
1717.000000	21.566255
1716.000000	21.623906
1715.000000	21.683489
1714.000000	21.763148
1713.000000	21.825094
1712.000000	21.874478
1711.000000	21.918602
1710.000000	21.925043
1709.000000	21.928157
1708.000000	21.914737
1707.000000	21.912912
1706.000000	21.832179
1705.000000	21.822946
1704.000000	21.750480
1703.000000	21.661052
1702.000000	21.539416
1701.000000	21.404682
1700.000000	21.232803
1699.000000	21.043210
1698.000000	20.888186
1697.000000	20.743684
1696.000000	20.667030
1695.000000	20.623551
1694.000000	20.694192
1693.000000	20.805521
1692.000000	20.951098
1691.000000	21.169248
1690.000000	21.340483
1689.000000	21.478007
1688.000000	21.559492
1687.000000	21.552513
1686.000000	21.541992
1685.000000	21.560780
1684.000000	21.630347
1683.000000	21.818115
1682.000000	22.143408
1681.000000	22.618357
1680.000000	23.211506
1679.000000	23.838794
1678.000000	24.460608
1677.000000	25.016289
1676.000000	25.539226
1675.000000	25.985081
1674.000000	26.372319
1673.000000	26.693103
1672.000000	27.011632
1671.000000	27.238263
1670.000000	27.462318
1669.000000	27.635914
1668.000000	27.778807
1667.000000	27.912359
1666.000000	28.017033
1665.000000	28.115479
1664.000000	28.212423
1663.000000	28.286178
1662.000000	28.334488
1661.000000	28.398903
1660.000000	28.429500
1659.000000	28.456017
1658.000000	28.480065
1657.000000	28.497993
1656.000000	28.501644
1655.000000	28.491230
1654.000000	28.488546
1653.000000	28.466538
1652.000000	28.447965
1651.000000	28.415006
1650.000000	28.397507
1649.000000	28.336421
1648.000000	28.279199
1647.000000	28.226380
1646.000000	28.175385
1645.000000	28.091109
1644.000000	28.046663
1643.000000	27.995025
1642.000000	27.913111
1641.000000	27.844295
1640.000000	27.772366
1639.000000	27.687016
1638.000000	27.609397
1637.000000	27.541118
1636.000000	27.467793
1635.000000	27.394146
1634.000000	27.319747
1633.000000	27.228816
1632.000000	27.126611
1631.000000	27.034069
1630.000000	26.949472
1629.000000	26.865304
1628.000000	26.792086
1627.000000	26.710172
1626.000000	26.602386
1625.000000	26.507589
1624.000000	26.438129
1623.000000	26.351277
1622.000000	26.232218
1621.000000	26.167481
1620.000000	26.090721
1619.000000	25.998716
1618.000000	25.923888
1617.000000	25.863338
1616.000000	25.763818
1615.000000	25.697042
1614.000000	25.626401
1613.000000	25.543628
1612.000000	25.472772
1611.000000	25.414907
1610.000000	25.356290
1609.000000	25.289621
1608.000000	25.217584
1607.000000	25.127619
1606.000000	25.064170
1605.000000	25.005231
1604.000000	24.952304
1603.000000	24.887138
1602.000000	24.811129
1601.000000	24.746715
1600.000000	24.685414
1599.000000	24.633131
1598.000000	24.572474
1597.000000	24.520620
1596.000000	24.470914
1595.000000	24.420349
1594.000000	24.373541
1593.000000	24.339616
1592.000000	24.301290
1591.000000	24.262963
1590.000000	24.223563
1589.000000	24.198227
1588.000000	24.157860
1587.000000	24.145836
1586.000000	24.128337
1585.000000	24.106758
1584.000000	24.080348
1583.000000	24.064996
1582.000000	24.052113
1581.000000	24.037727
1580.000000	24.027206
1579.000000	24.021516
1578.000000	24.022483
1577.000000	24.020228
1576.000000	24.032896
1575.000000	24.051684
1574.000000	24.068432
1573.000000	24.081207
1572.000000	24.091191
1571.000000	24.118889
1570.000000	24.151633
1569.000000	24.182123
1568.000000	24.213471
1567.000000	24.235802
1566.000000	24.257380
1565.000000	24.279281
1564.000000	24.312562
1563.000000	24.350567
1562.000000	24.376225
1561.000000	24.404030
1560.000000	24.427971
1559.000000	24.442679
1558.000000	24.457924
1557.000000	24.482723
1556.000000	24.483904
1555.000000	24.470699
1554.000000	24.471880
1553.000000	24.477033
1552.000000	24.465761
1551.000000	24.459105
1550.000000	24.445470
1549.000000	24.427649
1548.000000	24.419919
1547.000000	24.385136
1546.000000	24.374937
1545.000000	24.378587
1544.000000	24.359692
1543.000000	24.339938
1542.000000	24.334892
1541.000000	24.330383
1540.000000	24.321258
1539.000000	24.309663
1538.000000	24.291949
1537.000000	24.282395
1536.000000	24.287226
1535.000000	24.282395
1534.000000	24.255341
1533.000000	24.229897
1532.000000	24.217443
1531.000000	24.205312
1530.000000	24.190282
1529.000000	24.162584
1528.000000	24.145192
1527.000000	24.116850
1526.000000	24.085287
1525.000000	24.068217
1524.000000	24.051362
1523.000000	24.035151
1522.000000	24.011210
1521.000000	23.989631
1520.000000	23.961718
1519.000000	23.930692
1518.000000	23.896445
1517.000000	23.880664
1516.000000	23.865956
1515.000000	23.834822
1514.000000	23.808305
1513.000000	23.768690
1512.000000	23.752157
1511.000000	23.733477
1510.000000	23.715978
1509.000000	23.695580
1508.000000	23.663158
1507.000000	23.637821
1506.000000	23.640935
1505.000000	23.627515
1504.000000	23.603360
1503.000000	23.593376
1502.000000	23.574695
1501.000000	23.584465
1500.000000	23.584143
1499.000000	23.580278
1498.000000	23.597240
1497.000000	23.590692
1496.000000	23.596059
1495.000000	23.609157
1494.000000	23.647054
1493.000000	23.652315
1492.000000	23.698478
1491.000000	23.715226
1490.000000	23.754304
1489.000000	23.793167
1488.000000	23.836110
1487.000000	23.877658
1486.000000	23.902779
1485.000000	23.930585
1484.000000	23.970951
1483.000000	24.012498
1482.000000	24.077557
1481.000000	24.134456
1480.000000	24.184055
1479.000000	24.239881
1478.000000	24.296351
1477.000000	24.351425
1476.000000	24.419812
1475.000000	24.478751
1474.000000	24.540159
1473.000000	24.607150
1472.000000	24.665445
1471.000000	24.747359
1470.000000	24.777849
1469.000000	24.817571
1468.000000	24.878335
1467.000000	24.959390
1466.000000	25.020905
1465.000000	25.080596
1464.000000	25.123539
1463.000000	25.205131
1462.000000	25.283394
1461.000000	25.360262
1460.000000	25.448510
1459.000000	25.538046
1458.000000	25.606325
1457.000000	25.722593
1456.000000	25.813310
1455.000000	25.911434
1454.000000	26.026736
1453.000000	26.133556
1452.000000	26.269041
1451.000000	26.406566
1450.000000	26.490412
1449.000000	26.571252
1448.000000	26.695357
1447.000000	26.833741
1446.000000	26.989194
1445.000000	27.116842
1444.000000	27.206807
1443.000000	27.299242
1442.000000	27.440846
1441.000000	27.588999
1440.000000	27.701617
1439.000000	27.808223
1438.000000	27.957020
1437.000000	28.040437
1436.000000	28.142963
1435.000000	28.256547
1434.000000	28.374210
1433.000000	28.478347
1432.000000	28.607283
1431.000000	28.724088
1430.000000	28.824467
1429.000000	28.966501
1428.000000	29.138916
1427.000000	29.289539
1426.000000	29.456479
1425.000000	29.652406
1424.000000	29.868839
1423.000000	30.031056
1422.000000	30.206370
1421.000000	30.423232
1420.000000	30.648038
1419.000000	30.845361
1418.000000	30.988897
1417.000000	31.100656
1416.000000	31.305709
1415.000000	31.479950
1414.000000	31.649252
1413.000000	31.759723
1412.000000	31.882539
1411.000000	32.076105
1410.000000	32.283519
1409.000000	32.539351
1408.000000	32.784233
1407.000000	33.065617
1406.000000	33.353656
1405.000000	33.673474
1404.000000	33.909660
1403.000000	34.227760
1402.000000	34.534479
1401.000000	34.878667
1400.000000	35.066113
1399.000000	35.173792
1398.000000	35.243145
1397.000000	35.408582
1396.000000	35.480834
1395.000000	35.460436
1394.000000	35.377556
1393.000000	35.334399
1392.000000	35.310995
1391.000000	35.274171
1390.000000	35.244111
1389.000000	35.303372
1388.000000	35.414380
1387.000000	35.476647
1386.000000	35.610521
1385.000000	35.860986
1384.000000	36.166847
1383.000000	36.469272
1382.000000	36.771805
1381.000000	37.062851
1380.000000	37.253088
1379.000000	37.589116
1378.000000	37.888321
1377.000000	38.269117
1376.000000	38.726567
1375.000000	39.280316
1374.000000	39.841902
1373.000000	40.474666
1372.000000	41.157029
1371.000000	41.731390
1370.000000	42.239298
1369.000000	42.688051
1368.000000	43.095687
1367.000000	43.416578
1366.000000	43.702041
1365.000000	43.968501
1364.000000	44.184934
1363.000000	44.368300
1362.000000	44.557356
1361.000000	44.677060
1360.000000	44.723653
1359.000000	44.778083
1358.000000	44.877388
1357.000000	45.060003
1356.000000	45.367796
1355.000000	45.799051
1354.000000	46.330040
1353.000000	46.892055
1352.000000	47.493793
1351.000000	48.098644
1350.000000	48.651427
1349.000000	49.148598
1348.000000	49.595312
1347.000000	50.004987
1346.000000	50.389219
1345.000000	50.735017
1344.000000	51.101213
1343.000000	51.427794
1342.000000	51.730971
1341.000000	52.033074
1340.000000	52.309948
1339.000000	52.565459
1338.000000	52.816997
1337.000000	53.049211
1336.000000	53.289154
1335.000000	53.499145
1334.000000	53.683370
1333.000000	53.887993
1332.000000	54.080163
1331.000000	54.256551
1330.000000	54.410823
1329.000000	54.570356
1328.000000	54.718617
1327.000000	54.854316
1326.000000	54.981642
1325.000000	55.110149
1324.000000	55.219116
1323.000000	55.325185
1322.000000	55.419982
1321.000000	55.522508
1320.000000	55.611829
1319.000000	55.706196
1318.000000	55.797880
1317.000000	55.877646
1316.000000	55.953440
1315.000000	56.037394
1314.000000	56.116087
1313.000000	56.176421
1312.000000	56.236541
1311.000000	56.306538
1310.000000	56.363545
1309.000000	56.410782
1308.000000	56.446103
1307.000000	56.480672
1306.000000	56.527050
1305.000000	56.563444
1304.000000	56.582232
1303.000000	56.591143
1302.000000	56.597155
1301.000000	56.596296
1300.000000	56.603703
1299.000000	56.610682
1298.000000	56.600912
1297.000000	56.568920
1296.000000	56.556359
1295.000000	56.550669
1294.000000	56.540148
1293.000000	56.521360
1292.000000	56.482819
1291.000000	56.462314
1290.000000	56.424953
1289.000000	56.361935
1288.000000	56.303747
1287.000000	56.243520
1286.000000	56.180823
1285.000000	56.115979
1284.000000	56.037072
1283.000000	55.943134
1282.000000	55.849304
1281.000000	55.763418
1280.000000	55.679786
1279.000000	55.600986
1278.000000	55.523904
1277.000000	55.446714
1276.000000	55.367806
1275.000000	55.302962
1274.000000	55.244882
1273.000000	55.168444
1272.000000	55.101775
1271.000000	55.043909
1270.000000	54.983897
1269.000000	54.923454
1268.000000	54.853457
1267.000000	54.781099
1266.000000	54.708632
1265.000000	54.636166
1264.000000	54.577120
1263.000000	54.514208
1262.000000	54.441313
1261.000000	54.370886
1260.000000	54.301748
1259.000000	54.230248
1258.000000	54.161647
1257.000000	54.084994
1256.000000	54.001363
1255.000000	53.927286
1254.000000	53.836247
1253.000000	53.750898
1252.000000	53.665012
1251.000000	53.571719
1250.000000	53.461141
1249.000000	53.378368
1248.000000	53.275627
1247.000000	53.157212
1246.000000	53.053827
1245.000000	52.924462
1244.000000	52.793486
1243.000000	52.672387
1242.000000	52.522086
1241.000000	52.374900
1240.000000	52.240703
1239.000000	52.084069
1238.000000	51.946007
1237.000000	51.797317
1236.000000	51.638751
1235.000000	51.484586
1234.000000	51.331923
1233.000000	51.176685
1232.000000	51.005450
1231.000000	50.818326
1230.000000	50.654284
1229.000000	50.484982
1228.000000	50.309667
1227.000000	50.115565
1226.000000	49.947766
1225.000000	49.772988
1224.000000	49.597352
1223.000000	49.436423
1222.000000	49.269160
1221.000000	49.094275
1220.000000	48.926047
1219.000000	48.772526
1218.000000	48.644234
1217.000000	48.497154
1216.000000	48.359522
1215.000000	48.231445
1214.000000	48.118290
1213.000000	47.983020
1212.000000	47.886184
1211.000000	47.766373
1210.000000	47.671147
1209.000000	47.582470
1208.000000	47.495940
1207.000000	47.437216
1206.000000	47.377525
1205.000000	47.341668
1204.000000	47.309568
1203.000000	47.281870
1202.000000	47.254386
1201.000000	47.208222
1200.000000	47.144989
1199.000000	47.060499
1198.000000	46.962696
1197.000000	46.796722
1196.000000	46.582007
1195.000000	46.300409
1194.000000	45.949244
1193.000000	45.520029
1192.000000	45.040464
1191.000000	44.497558
1190.000000	43.962919
1189.000000	43.517493
1188.000000	43.188336
1187.000000	43.005399
1186.000000	42.923700
1185.000000	43.004004
1184.000000	43.200789
1183.000000	43.560758
1182.000000	44.040646
1181.000000	44.584732
1180.000000	45.130429
1179.000000	45.673121
1178.000000	46.146459
1177.000000	46.529510
1176.000000	46.878314
1175.000000	47.179021
1174.000000	47.507105
1173.000000	47.862673
1172.000000	48.209007
1171.000000	48.555234
1170.000000	48.940862
1169.000000	49.305018
1168.000000	49.696872
1167.000000	50.076165
1166.000000	50.452775
1165.000000	50.852358
1164.000000	51.259887
1163.000000	51.633490
1162.000000	52.049070
1161.000000	52.427183
1160.000000	52.785756
1159.000000	53.135741
1158.000000	53.486477
1157.000000	53.757339
1156.000000	54.004261
1155.000000	54.203946
1154.000000	54.340075
1153.000000	54.387527
1152.000000	54.403630
1151.000000	54.392680
1150.000000	54.365411
1149.000000	54.332238
1148.000000	54.305935
1147.000000	54.328588
1146.000000	54.378831
1145.000000	54.584527
1144.000000	54.792586
1143.000000	55.087282
1142.000000	55.409139
1141.000000	55.718542
1140.000000	56.060798
1139.000000	56.418512
1138.000000	56.760016
1137.000000	57.131472
1136.000000	57.529445
1135.000000	57.889414
1134.000000	58.205474
1133.000000	58.461736
1132.000000	58.733887
1131.000000	59.013123
1130.000000	59.228267
1129.000000	59.421081
1128.000000	59.562578
1127.000000	59.699566
1126.000000	59.798656
1125.000000	59.892809
1124.000000	59.958833
1123.000000	60.033554
1122.000000	60.092386
1121.000000	60.121694
1120.000000	60.172152
1119.000000	60.193946
1118.000000	60.209191
1117.000000	60.224328
1116.000000	60.234742
1115.000000	60.211230
1114.000000	60.210586
1113.000000	60.202642
1112.000000	60.206721
1111.000000	60.196415
1110.000000	60.184391
1109.000000	60.174729
1108.000000	60.153150
1107.000000	60.154975
1106.000000	60.138657
1105.000000	60.123305
1104.000000	60.108490
1103.000000	60.079181
1102.000000	60.059642
1101.000000	60.045363
1100.000000	60.008969
1099.000000	59.982774
1098.000000	59.955076
1097.000000	59.910201
1096.000000	59.885079
1095.000000	59.833870
1094.000000	59.799837
1093.000000	59.743260
1092.000000	59.691299
1091.000000	59.653402
1090.000000	59.602729
1089.000000	59.545830
1088.000000	59.476907
1087.000000	59.420115
1086.000000	59.370193
1085.000000	59.306745
1084.000000	59.253603
1083.000000	59.204541
1082.000000	59.147427
1081.000000	59.088810
1080.000000	59.034809
1079.000000	58.981345
1078.000000	58.925734
1077.000000	58.869050
1076.000000	58.810325
1075.000000	58.758364
1074.000000	58.714240
1073.000000	58.650900
1072.000000	58.609030
1071.000000	58.567912
1070.000000	58.510798
1069.000000	58.450893
1068.000000	58.407199
1067.000000	58.346649
1066.000000	58.302096
1065.000000	58.243801
1064.000000	58.185506
1063.000000	58.123024
1062.000000	58.074713
1061.000000	58.025651
1060.000000	57.970684
1059.000000	57.912496
1058.000000	57.866332
1057.000000	57.801811
1056.000000	57.743301
1055.000000	57.685650
1054.000000	57.633689
1053.000000	57.582695
1052.000000	57.534921
1051.000000	57.499063
1050.000000	57.451182
1049.000000	57.409420
1048.000000	57.376246
1047.000000	57.350159
1046.000000	57.328795
1045.000000	57.297017
1044.000000	57.260301
1043.000000	57.229274
1042.000000	57.208340
1041.000000	57.186439
1040.000000	57.173556
1039.000000	57.161961
1038.000000	57.138235
1037.000000	57.108927
1036.000000	57.080692
1035.000000	57.054926
1034.000000	57.037319
1033.000000	57.020035
1032.000000	56.982460
1031.000000	56.944348
1030.000000	56.921159
1029.000000	56.892709
1028.000000	56.863615
1027.000000	56.825504
1026.000000	56.777622
1025.000000	56.732425
1024.000000	56.683148
1023.000000	56.643748
1022.000000	56.619914
1021.000000	56.589747
1020.000000	56.541221
1019.000000	56.497849
1018.000000	56.477881
1017.000000	56.457375
1016.000000	56.428711
1015.000000	56.394786
1014.000000	56.382011
1013.000000	56.383621
1012.000000	56.381044
1011.000000	56.390170
1010.000000	56.411319
1009.000000	56.439232
1008.000000	56.467682
1007.000000	56.500426
1006.000000	56.526406
1005.000000	56.550347
1004.000000	56.574073
1003.000000	56.596832
1002.000000	56.626356
1001.000000	56.646002
1000.000000	56.672949
999.000000	56.710202
998.000000	56.734357
997.000000	56.757654
996.000000	56.799523
995.000000	56.825289
994.000000	56.869520
993.000000	56.923735
992.000000	56.962814
991.000000	57.003502
990.000000	57.055463
989.000000	57.094111
988.000000	57.142422
987.000000	57.205656
986.000000	57.260301
985.000000	57.313013
984.000000	57.378072
983.000000	57.451611
982.000000	57.489079
981.000000	57.549628
980.000000	57.624457
979.000000	57.679531
978.000000	57.747273
977.000000	57.809433
976.000000	57.851517
975.000000	57.905411
974.000000	57.974978
973.000000	58.042184
972.000000	58.103914
971.000000	58.152118
970.000000	58.225443
969.000000	58.276437
968.000000	58.337846
967.000000	58.393349
966.000000	58.474512
965.000000	58.524111
964.000000	58.575642
963.000000	58.665500
962.000000	58.726694
961.000000	58.802810
960.000000	58.861857
959.000000	58.907484
958.000000	58.981345
957.000000	59.029763
956.000000	59.063152
955.000000	59.106309
954.000000	59.147749
953.000000	59.153332
952.000000	59.200676
951.000000	59.215170
950.000000	59.221074
949.000000	59.243512
948.000000	59.240398
947.000000	59.246518
946.000000	59.277544
945.000000	59.321024
944.000000	59.315334
943.000000	59.338416
942.000000	59.367402
941.000000	59.423121
940.000000	59.449853
939.000000	59.476477
938.000000	59.515126
937.000000	59.578359
936.000000	59.598650
935.000000	59.677772
934.000000	59.695486
933.000000	59.743904
932.000000	59.811432
931.000000	59.859206
930.000000	59.894312
929.000000	59.962054
928.000000	59.982345
927.000000	60.026469
926.000000	60.090454
925.000000	60.161202
924.000000	60.202964
923.000000	60.239895
922.000000	60.320842
921.000000	60.358847
920.000000	60.486602
919.000000	60.512475
918.000000	60.518809
917.000000	60.546829
916.000000	60.634648
915.000000	60.627455
914.000000	60.634648
913.000000	60.661380
912.000000	60.655260
911.000000	60.691762
910.000000	60.695734
909.000000	60.708617
908.000000	60.716347
907.000000	60.748339
906.000000	60.757142
905.000000	60.793536
904.000000	60.831219
903.000000	60.860742
902.000000	60.931061
901.000000	60.999126
900.000000	61.044860
899.000000	61.085011
898.000000	61.148567
897.000000	61.174011
896.000000	61.251201
895.000000	61.293821
894.000000	61.327746
893.000000	61.364785
892.000000	61.386149
891.000000	61.374125
890.000000	61.411270
889.000000	61.458293
888.000000	61.480194
887.000000	61.511327
886.000000	61.545360
885.000000	61.544715
884.000000	61.581110
883.000000	61.660017
882.000000	61.693942
881.000000	61.705322
880.000000	61.776822
879.000000	61.874517
878.000000	61.926263
877.000000	61.965127
876.000000	62.048758
875.000000	62.081072
874.000000	62.159980
873.000000	62.238888
872.000000	62.304698
871.000000	62.372870
870.000000	62.415061
869.000000	62.506315
868.000000	62.561711
867.000000	62.606801
866.000000	62.636432
865.000000	62.701920
864.000000	62.690325
863.000000	62.710508
862.000000	62.635358
861.000000	62.548613
860.000000	62.425904
859.000000	62.369864
858.000000	63.220133
857.000000	63.128600
856.000000	63.417200
855.000000	63.114600
854.000000	64.051800
853.000000	64.049400
852.000000	64.206000
851.000000	64.059000
850.000000	64.102700
849.000000	64.418200
848.000000	64.905700
847.000000	65.233000
846.000000	65.045500
845.000000	65.297300
844.000000	65.780100
843.000000	65.997400
842.000000	66.170800
841.000000	66.439300
840.000000	66.569500
839.000000	66.782000
838.000000	66.835400
837.000000	67.102500
836.000000	67.225400
835.000000	67.516100
834.000000	67.549900
833.000000	67.914500
832.000000	68.105700
831.000000	68.133500
830.000000	68.359800
829.000000	68.563900
828.000000	68.901100
827.000000	68.808200
826.000000	69.001800
825.000000	69.156600
824.000000	69.203100
823.000000	69.166800
822.000000	69.197100
821.000000	69.116000
820.000000	69.244000
819.000000	69.278200
818.000000	69.334400
817.000000	69.173800
816.000000	69.297700
815.000000	69.407500
814.000000	69.373800
813.000000	69.328300
812.000000	69.437100
811.000000	69.544700
810.000000	69.540800
809.000000	69.588700
808.000000	69.501200
807.000000	69.643000
806.000000	69.710100
805.000000	69.721300
804.000000	69.770800
803.000000	69.935500
802.000000	69.959300
801.000000	69.977200
800.000000	70.031900
799.000000	70.106600
798.000000	70.185700
797.000000	70.202500
796.000000	70.094000
795.000000	70.274900
794.000000	70.454600
793.000000	70.519500
792.000000	70.599200
791.000000	70.575900
790.000000	70.571100
789.000000	70.616200
788.000000	70.591200
787.000000	70.586000
786.000000	70.590700
785.000000	70.572100
784.000000	70.448300
783.000000	70.376300
782.000000	70.347100
781.000000	70.340400
780.000000	70.173500
779.000000	70.090100
778.000000	70.007900
777.000000	69.869100
776.000000	69.755300
775.000000	69.597100
774.000000	69.480400
773.000000	69.374000
772.000000	69.233800
771.000000	69.077200
770.000000	68.937300
769.000000	68.761500
768.000000	68.593100
767.000000	68.487400
766.000000	68.330100
765.000000	68.148000
764.000000	68.038700
763.000000	67.850800
762.000000	67.663000
761.000000	67.425100
760.000000	67.156800
759.000000	66.943600
758.000000	66.761900
757.000000	66.603400
756.000000	66.317500
755.000000	66.039900
754.000000	65.775900
753.000000	65.561800
752.000000	65.347300
751.000000	65.052300
750.000000	64.746700
749.000000	64.450900
748.000000	64.124900
747.000000	63.804200
746.000000	63.463000
745.000000	63.088300
744.000000	62.727600
743.000000	62.430700
742.000000	62.079000
741.000000	61.687900
740.000000	61.338000
739.000000	61.019500
738.000000	60.655500
737.000000	60.309400
736.000000	60.009000
735.000000	59.669800
734.000000	59.330200
733.000000	59.078600
732.000000	58.779600
731.000000	58.479500
730.000000	58.267500
729.000000	58.041700
728.000000	57.817500
727.000000	57.669400
726.000000	57.522000
725.000000	57.350300
724.000000	57.149300
723.000000	57.004400
722.000000	56.928000
721.000000	56.844500
720.000000	56.736900
719.000000	56.649900
718.000000	56.602100
717.000000	56.555200
716.000000	56.441000
715.000000	56.434400
714.000000	56.462800
713.000000	56.454400
712.000000	56.425800
711.000000	56.456000
710.000000	56.523600
709.000000	56.638700
708.000000	56.695300
707.000000	56.753700
706.000000	56.819800
705.000000	56.901400
704.000000	57.001400
703.000000	57.080800
702.000000	57.141100
701.000000	57.257100
700.000000	57.297800
699.000000	57.361600
698.000000	57.476900
697.000000	57.543700
696.000000	57.594500
695.000000	57.584700
694.000000	57.621900
693.000000	57.636400
692.000000	57.616600
691.000000	57.633100
690.000000	57.615500
689.000000	57.563500
688.000000	57.420500
687.000000	57.341400
686.000000	57.277500
685.000000	57.150400
684.000000	57.022700
683.000000	56.846000
682.000000	56.667100
681.000000	56.486500
680.000000	56.304900
679.000000	56.106500
678.000000	55.830200
677.000000	55.529000
676.000000	55.211900
675.000000	54.941400
674.000000	54.602300
673.000000	54.262500
672.000000	53.914000
671.000000	53.534800
670.000000	53.149600
669.000000	52.774200
668.000000	52.397000
667.000000	51.951500
666.000000	51.547100
665.000000	51.130600
664.000000	50.750600
663.000000	50.287700
662.000000	49.820800
661.000000	49.356700
660.000000	48.874700
659.000000	48.376400
658.000000	47.892700
657.000000	47.450600
656.000000	46.903000
655.000000	46.437000
654.000000	46.018000
653.000000	45.565700
652.000000	45.147900
651.000000	44.779000
650.000000	44.428900
649.000000	44.127800
648.000000	43.921300
647.000000	43.721800
646.000000	43.613000
645.000000	43.613400
644.000000	43.659400
643.000000	43.684400
642.000000	43.794900
641.000000	44.009200
640.000000	44.229300
639.000000	44.561500
638.000000	44.886100
637.000000	45.221700
636.000000	45.620600
635.000000	45.979800
634.000000	46.422500
633.000000	46.861700
632.000000	47.306700
631.000000	47.804500
630.000000	48.300500
629.000000	48.838600
628.000000	49.331400
627.000000	49.859000
626.000000	50.428600
625.000000	50.968200
624.000000	51.564900
623.000000	52.127500
622.000000	52.758900
621.000000	53.379000
620.000000	54.015100
619.000000	54.600800
618.000000	55.217100
617.000000	55.769800
616.000000	56.307100
615.000000	56.887200
614.000000	57.379700
613.000000	57.881900
612.000000	58.305400
611.000000	58.742300
610.000000	59.160900
609.000000	59.558200
608.000000	59.908700
607.000000	60.223600
606.000000	60.655200
605.000000	60.977500
604.000000	61.301500
603.000000	61.626600
602.000000	61.947600
601.000000	62.258500
600.000000	62.580700
599.000000	62.892100
598.000000	63.207500
597.000000	63.500800
596.000000	63.839200
595.000000	64.142500
594.000000	64.418300
593.000000	64.720400
592.000000	64.942800
591.000000	65.253700
590.000000	65.539900
589.000000	65.769200
588.000000	65.998100
587.000000	66.240900
586.000000	66.486500
585.000000	66.686200
584.000000	66.852800
583.000000	67.082600
582.000000	67.301600
581.000000	67.480500
580.000000	67.615600
579.000000	67.787600
578.000000	67.911200
577.000000	67.997300
576.000000	68.091600
575.000000	68.189300
574.000000	68.254300
573.000000	68.309300
572.000000	68.357900
571.000000	68.371600
570.000000	68.339700
569.000000	68.352400
568.000000	68.318700
567.000000	68.280800
566.000000	68.245900
565.000000	68.153900
564.000000	68.146100
563.000000	68.055100
562.000000	67.928300
561.000000	67.867000
560.000000	67.759200
559.000000	67.586600
558.000000	67.451800
557.000000	67.295000
556.000000	67.128400
555.000000	66.942200
554.000000	66.746100
553.000000	66.487300
552.000000	66.250800
551.000000	65.971100
550.000000	65.686600
549.000000	65.371800
548.000000	65.030100
547.000000	64.695900
546.000000	64.344300
545.000000	63.955100
544.000000	63.553600
543.000000	63.124500
542.000000	62.682300
541.000000	62.228700
540.000000	61.717400
539.000000	61.180300
538.000000	60.657000
537.000000	60.051400
536.000000	59.450100
535.000000	58.806300
534.000000	58.119400
533.000000	57.378400
532.000000	56.586100
531.000000	55.809500
530.000000	54.984500
529.000000	54.134800
528.000000	53.259600
527.000000	52.370700
526.000000	51.476000
525.000000	50.542800
524.000000	49.595700
523.000000	48.633700
522.000000	47.674500
521.000000	46.688000
520.000000	45.719700
519.000000	44.761200
518.000000	43.818100
517.000000	42.861000
516.000000	41.913100
515.000000	40.971200
514.000000	40.036700
513.000000	39.117300
512.000000	38.198800
511.000000	37.313300
510.000000	36.433500
509.000000	35.616300
508.000000	34.813500
507.000000	34.025800
506.000000	33.265800
505.000000	32.527600
504.000000	31.833200
503.000000	31.159500
502.000000	30.505600
501.000000	29.878400
500.000000	29.295000
499.000000	28.743600
498.000000	28.201400
497.000000	27.727800
496.000000	27.275200
495.000000	26.855900
494.000000	26.455700
493.000000	26.115900
492.000000	25.792300
491.000000	25.518500
490.000000	25.270800
489.000000	25.067900
488.000000	24.886200
487.000000	24.731200
486.000000	24.607800
485.000000	24.509700
484.000000	24.425600
483.000000	24.354400
482.000000	24.290900
481.000000	24.225600
480.000000	24.146800
479.000000	24.045400
478.000000	23.932500
477.000000	23.818900
476.000000	23.673100
475.000000	23.489500
474.000000	23.296300
473.000000	23.078300
472.000000	22.830800
471.000000	22.570200
470.000000	22.301000
469.000000	21.995700
468.000000	21.672500
467.000000	21.337300
466.000000	20.976400
465.000000	20.595700
464.000000	20.219200
463.000000	19.832200
462.000000	19.424500
461.000000	19.014400
460.000000	18.629900
459.000000	18.263700
458.000000	17.911900
457.000000	17.577000
456.000000	17.263400
455.000000	16.988800
454.000000	16.741000
453.000000	16.533600
452.000000	16.375100
451.000000	16.248700
450.000000	16.161800
449.000000	16.120400
448.000000	16.105300
447.000000	16.122500
446.000000	16.182100
445.000000	16.268200
444.000000	16.369700
443.000000	16.477300
442.000000	16.605400
441.000000	16.739400
440.000000	16.864100
439.000000	16.994800
438.000000	17.130300
437.000000	17.242800
436.000000	17.346600
435.000000	17.467800
434.000000	17.563200
433.000000	17.626700
432.000000	17.698700
431.000000	17.750400
430.000000	17.765600
429.000000	17.772400
428.000000	17.776500
427.000000	17.754100
426.000000	17.729400
425.000000	17.686900
424.000000	17.599000
423.000000	17.534100
422.000000	17.470100
421.000000	17.373200
420.000000	17.259000
419.000000	17.132600
418.000000	16.991700
417.000000	16.861500
416.000000	16.714100
415.000000	16.547900
414.000000	16.372200
413.000000	16.191000
412.000000	16.000300
411.000000	15.799400
410.000000	15.600700
409.000000	15.379200
408.000000	15.152100
407.000000	14.936500
406.000000	14.691900
405.000000	14.449600
404.000000	14.217500
403.000000	13.949600
402.000000	13.667500
401.000000	13.374700
400.000000	13.112400
399.000000	12.829300
398.000000	12.522500
397.000000	12.217200
396.000000	11.931900
395.000000	11.655000
394.000000	11.336900
393.000000	11.026900
392.000000	10.730500
391.000000	10.437500
390.000000	10.169300
389.000000	9.874500
388.000000	9.601300
387.000000	9.334000
386.000000	9.070500
385.000000	8.796400
384.000000	8.557900
383.000000	8.350700
382.000000	8.139600
381.000000	7.927800
380.000000	7.712900
379.000000	7.530900
378.000000	7.369500
377.000000	7.220300
376.000000	7.167900
375.000000	6.871600
374.000000	6.587500
373.000000	6.474300
372.000000	6.529000
371.000000	6.430200
370.000000	6.289700
369.000000	6.148600
368.000000	6.125800
367.000000	6.121400
366.000000	6.068600
365.000000	5.996500
364.000000	5.944800
363.000000	5.957400
362.000000	5.938800
361.000000	5.839600
360.000000	5.841700
359.000000	5.786300
358.000000	5.730500
357.000000	5.667800
356.000000	5.669200
355.000000	5.642300
354.000000	5.611800
353.000000	5.587700
352.000000	5.513800
351.000000	5.433600
350.000000	5.548400
349.000000	5.333500
348.000000	5.344600
347.000000	5.443500
346.000000	5.407000
345.000000	5.471100
344.000000	5.452000
343.000000	5.402300
342.000000	5.304800
341.000000	5.276200
340.000000	5.441100
339.000000	5.404600
338.000000	5.504200
337.000000	5.260000
336.000000	5.370200
335.000000	5.151800
334.000000	5.277900
333.000000	5.439200
332.000000	5.516500
331.000000	5.431200
330.000000	5.460000
329.000000	5.633000
328.000000	5.473600
327.000000	5.385500
326.000000	5.379700
325.000000	5.391400
324.000000	5.362800
323.000000	5.545100
322.000000	5.168300
321.000000	5.683300
320.000000	5.313000
319.000000	5.691900
318.000000	6.046700
317.000000	5.749000
316.000000	5.320400
315.000000	5.167200
314.000000	5.190100
313.000000	5.249400
312.000000	5.220400
311.000000	5.214800
310.000000	5.179100
309.000000	5.174900
308.000000	5.196500
307.000000	5.267100
306.000000	5.253700
305.000000	5.216300
304.000000	5.218000
303.000000	5.237400
302.000000	5.181100
301.000000	5.228300
300.000000	5.205700
299.000000	5.202500
298.000000	5.207600
297.000000	5.261800
296.000000	5.180600
295.000000	5.220500
294.000000	5.250700
293.000000	5.182100
292.000000	5.188000
291.000000	5.277500
290.000000	5.243400
289.000000	5.230900
288.000000	5.253100
287.000000	5.198900
286.000000	5.316000
285.000000	5.268100
284.000000	5.273300
283.000000	5.279200
282.000000	5.254700
281.000000	5.311400
280.000000	5.249700
279.000000	5.273700
278.000000	5.299500
277.000000	5.329200
276.000000	5.324400
275.000000	5.329900
274.000000	5.306300
273.000000	5.340400
272.000000	5.353200
271.000000	5.364800
270.000000	5.353000
269.000000	5.354200
268.000000	5.373900
267.000000	5.364100
266.000000	5.406600
265.000000	5.387000
264.000000	5.400200
263.000000	5.448100
262.000000	5.518100
261.000000	5.464900
260.000000	5.516500
259.000000	5.482800
258.000000	5.535700
257.000000	5.534300
256.000000	5.540600
255.000000	5.522800
254.000000	5.567000
253.000000	5.537400
252.000000	5.590900
251.000000	5.566700
250.000000	5.564200
