PE UV       SUBTECH     SPECTRUM    ASCII       PEDS        4.00        
   -1
CICIMAUCR0108-1.Sample.ASC
24/04/04
13:42:06.00
24/04/04
13:42:06.00
Vinicio Soto Monge
C. resplendens
250,000000
1
Lambda 1050
1050L1511233
PerkinElmer UV WinLab 6.3.2.0749 / 2.02.05 Lambda 900 UV/VIS/NIR, Aug  7 2015 09:38:08

0
0
3350/servo 860,8/2
0
0
UV/VIS
1
1
1
DoubleDePol,CommonBeamDepol,RBeamAtt,SBeamAtt,60mm sphere, WB InGaAs Detector
0
0
0
0
Program
Program
3350/servo 860,8/2
3350/0,2 860,8/0,2
3350/0,2 860,8/0,2
0
15.00
 
 
 
0
 
860,8
319,2
860,8
Front
100
on
S:100 R:100
0
0
0
0
 
0
 
 
 
0
 
 
0
0
0
0
0
 
 
 
 
0
0


0
0
#HDR
-1
-1
#GR
nm
%R
1.0
0.0
2500,000000
-1,000000
2251
8
63,019200
4,896500
#DATA
2500.000000	4.999180
2499.000000	5.006327
2498.000000	4.949836
2497.000000	4.990662
2496.000000	4.970886
2495.000000	4.994480
2494.000000	4.954536
2493.000000	4.956690
2492.000000	4.960312
2491.000000	4.868478
2490.000000	4.958158
2489.000000	4.962074
2488.000000	4.893541
2487.000000	4.960508
2486.000000	4.965501
2485.000000	4.921836
2484.000000	4.967753
2483.000000	4.886590
2482.000000	4.976858
2481.000000	4.927318
2480.000000	4.966480
2479.000000	4.945724
2478.000000	4.901961
2477.000000	4.904996
2476.000000	4.936032
2475.000000	4.865149
2474.000000	4.905779
2473.000000	4.962172
2472.000000	4.923696
2471.000000	4.926829
2470.000000	4.938479
2469.000000	4.907737
2468.000000	4.935934
2467.000000	4.945431
2466.000000	4.954536
2465.000000	4.975879
2464.000000	4.951207
2463.000000	4.987236
2462.000000	4.997418
2461.000000	5.025712
2460.000000	4.996047
2459.000000	5.032565
2458.000000	5.067811
2457.000000	5.082398
2456.000000	5.086217
2455.000000	5.085923
2454.000000	5.118819
2453.000000	5.154064
2452.000000	5.196261
2451.000000	5.183631
2450.000000	5.208695
2449.000000	5.231213
2448.000000	5.242570
2447.000000	5.291326
2446.000000	5.309144
2445.000000	5.319228
2444.000000	5.334599
2443.000000	5.358488
2442.000000	5.372880
2441.000000	5.388936
2440.000000	5.417622
2439.000000	5.452574
2438.000000	5.480183
2437.000000	5.493889
2436.000000	5.500449
2435.000000	5.510533
2434.000000	5.529429
2433.000000	5.536967
2432.000000	5.568786
2431.000000	5.572702
2430.000000	5.588954
2429.000000	5.601584
2428.000000	5.606577
2427.000000	5.614899
2426.000000	5.635655
2425.000000	5.660131
2424.000000	5.669040
2423.000000	5.663949
2422.000000	5.674131
2421.000000	5.684313
2420.000000	5.698509
2419.000000	5.699390
2418.000000	5.704971
2417.000000	5.727880
2416.000000	5.739825
2415.000000	5.737377
2414.000000	5.754412
2413.000000	5.772818
2412.000000	5.780063
2411.000000	5.782804
2410.000000	5.793868
2409.000000	5.798371
2408.000000	5.808553
2407.000000	5.828330
2406.000000	5.832931
2405.000000	5.850848
2404.000000	5.847225
2403.000000	5.854862
2402.000000	5.873366
2401.000000	5.898625
2400.000000	5.908709
2399.000000	5.914583
2398.000000	5.916835
2397.000000	5.927311
2396.000000	5.930835
2395.000000	5.939745
2394.000000	5.944248
2393.000000	5.958738
2392.000000	5.965200
2391.000000	5.966570
2390.000000	5.973130
2389.000000	5.962948
2388.000000	5.966766
2387.000000	5.974892
2386.000000	5.979690
2385.000000	5.982137
2384.000000	5.973620
2383.000000	5.969703
2382.000000	5.966864
2381.000000	5.969018
2380.000000	5.970487
2379.000000	5.967354
2378.000000	5.960011
2377.000000	5.955997
2376.000000	5.940528
2375.000000	5.936318
2374.000000	5.941017
2373.000000	5.919185
2372.000000	5.904989
2371.000000	5.902541
2370.000000	5.879044
2369.000000	5.861421
2368.000000	5.851533
2367.000000	5.836945
2366.000000	5.813644
2365.000000	5.798077
2364.000000	5.770371
2363.000000	5.742762
2362.000000	5.721810
2361.000000	5.694397
2360.000000	5.682453
2359.000000	5.664536
2358.000000	5.636829
2357.000000	5.608633
2356.000000	5.579751
2355.000000	5.577304
2354.000000	5.580730
2353.000000	5.569961
2352.000000	5.563989
2351.000000	5.581611
2350.000000	5.593947
2349.000000	5.600996
2348.000000	5.606577
2347.000000	5.622144
2346.000000	5.643389
2345.000000	5.649361
2344.000000	5.678243
2343.000000	5.703698
2342.000000	5.711824
2341.000000	5.722593
2340.000000	5.733559
2339.000000	5.733754
2338.000000	5.740706
2337.000000	5.752454
2336.000000	5.761853
2335.000000	5.749811
2334.000000	5.728174
2333.000000	5.711628
2332.000000	5.704971
2331.000000	5.695768
2330.000000	5.664536
2329.000000	5.639962
2328.000000	5.620871
2327.000000	5.608731
2326.000000	5.585919
2325.000000	5.550674
2324.000000	5.506519
2323.000000	5.450322
2322.000000	5.409986
2321.000000	5.354866
2320.000000	5.310613
2319.000000	5.257059
2318.000000	5.202918
2317.000000	5.133406
2316.000000	5.096888
2315.000000	5.033936
2314.000000	4.984788
2313.000000	4.950717
2312.000000	4.907640
2311.000000	4.864562
2310.000000	4.854282
2309.000000	4.837638
2308.000000	4.820015
2307.000000	4.793875
2306.000000	4.799749
2305.000000	4.801218
2304.000000	4.819036
2303.000000	4.824029
2302.000000	4.834701
2301.000000	4.848505
2300.000000	4.875919
2299.000000	4.899318
2298.000000	4.906367
2297.000000	4.939263
2296.000000	4.944745
2295.000000	4.952773
2294.000000	4.959333
2293.000000	4.978914
2292.000000	4.983711
2291.000000	4.984984
2290.000000	4.988802
2289.000000	4.971669
2288.000000	4.963934
2287.000000	4.957179
2286.000000	4.954144
2285.000000	4.956592
2284.000000	4.965892
2283.000000	4.906171
2282.000000	4.901863
2281.000000	4.895499
2280.000000	4.874940
2279.000000	4.868772
2278.000000	4.868576
2277.000000	4.845666
2276.000000	4.854282
2275.000000	4.860450
2274.000000	4.860156
2273.000000	4.855163
2272.000000	4.835680
2271.000000	4.843512
2270.000000	4.857904
2269.000000	4.880814
2268.000000	4.894716
2267.000000	4.897751
2266.000000	4.911752
2265.000000	4.949934
2264.000000	4.991935
2263.000000	5.018859
2262.000000	5.029432
2261.000000	5.080734
2260.000000	5.126945
2259.000000	5.169631
2258.000000	5.213198
2257.000000	5.263815
2256.000000	5.316291
2255.000000	5.354082
2254.000000	5.410475
2253.000000	5.451889
2252.000000	5.501918
2251.000000	5.529037
2250.000000	5.612060
2249.000000	5.626549
2248.000000	5.666396
2247.000000	5.703796
2246.000000	5.735027
2245.000000	5.767727
2244.000000	5.797392
2243.000000	5.819029
2242.000000	5.843309
2241.000000	5.866806
2240.000000	5.884625
2239.000000	5.913604
2238.000000	5.946500
2237.000000	5.951199
2236.000000	5.980864
2235.000000	5.960207
2234.000000	6.000935
2233.000000	6.011215
2232.000000	5.996823
2231.000000	6.021593
2230.000000	5.990557
2229.000000	5.970193
2228.000000	5.984879
2227.000000	5.949633
2226.000000	5.938961
2225.000000	5.923003
2224.000000	5.892849
2223.000000	5.866610
2222.000000	5.834987
2221.000000	5.796707
2220.000000	5.779671
2219.000000	5.748440
2218.000000	5.692243
2217.000000	5.667669
2216.000000	5.653865
2215.000000	5.651809
2214.000000	5.636046
2213.000000	5.618228
2212.000000	5.624787
2211.000000	5.625277
2210.000000	5.635850
2209.000000	5.651025
2208.000000	5.691166
2207.000000	5.733950
2206.000000	5.787504
2205.000000	5.836260
2204.000000	5.905478
2203.000000	5.983802
2202.000000	6.079943
2201.000000	6.177652
2200.000000	6.266842
2199.000000	6.338117
2198.000000	6.443951
2197.000000	6.566625
2196.000000	6.650039
2195.000000	6.734922
2194.000000	6.835861
2193.000000	6.931122
2192.000000	6.989766
2191.000000	7.073279
2190.000000	7.135839
2189.000000	7.210736
2188.000000	7.250877
2187.000000	7.310794
2186.000000	7.333312
2185.000000	7.374921
2184.000000	7.417705
2183.000000	7.475664
2182.000000	7.501511
2181.000000	7.513553
2180.000000	7.532155
2179.000000	7.561624
2178.000000	7.581793
2177.000000	7.629961
2176.000000	7.646409
2175.000000	7.671864
2174.000000	7.707795
2173.000000	7.713082
2172.000000	7.728942
2171.000000	7.765461
2170.000000	7.790524
2169.000000	7.821756
2168.000000	7.837714
2167.000000	7.882162
2166.000000	7.902918
2165.000000	7.921814
2164.000000	7.956374
2163.000000	7.970766
2162.000000	8.007480
2161.000000	8.026571
2160.000000	8.044683
2159.000000	8.095202
2158.000000	8.118013
2157.000000	8.146797
2156.000000	8.188015
2155.000000	8.215624
2154.000000	8.243037
2153.000000	8.241960
2152.000000	8.282590
2151.000000	8.305696
2150.000000	8.322241
2149.000000	8.364830
2148.000000	8.392243
2147.000000	8.406047
2146.000000	8.430915
2145.000000	8.464202
2144.000000	8.484762
2143.000000	8.500818
2142.000000	8.513252
2141.000000	8.525294
2140.000000	8.534497
2139.000000	8.557505
2138.000000	8.576009
2137.000000	8.597156
2136.000000	8.608709
2135.000000	8.637884
2134.000000	8.639353
2133.000000	8.648360
2132.000000	8.654626
2131.000000	8.653647
2130.000000	8.679493
2129.000000	8.683410
2128.000000	8.681941
2127.000000	8.672151
2126.000000	8.694473
2125.000000	8.695452
2124.000000	8.693004
2123.000000	8.694277
2122.000000	8.694375
2121.000000	8.701620
2120.000000	8.698487
2119.000000	8.697606
2118.000000	8.686836
2117.000000	8.675871
2116.000000	8.680472
2115.000000	8.680668
2114.000000	8.674109
2113.000000	8.667843
2112.000000	8.667060
2111.000000	8.652864
2110.000000	8.651787
2109.000000	8.653843
2108.000000	8.636611
2107.000000	8.631031
2106.000000	8.641898
2105.000000	8.642584
2104.000000	8.632402
2103.000000	8.620751
2102.000000	8.605184
2101.000000	8.596569
2100.000000	8.602737
2099.000000	8.595981
2098.000000	8.589520
2097.000000	8.589520
2096.000000	8.593142
2095.000000	8.588638
2094.000000	8.583352
2093.000000	8.582764
2092.000000	8.579240
2091.000000	8.582666
2090.000000	8.589617
2089.000000	8.588443
2088.000000	8.587757
2087.000000	8.581883
2086.000000	8.564162
2085.000000	8.562009
2084.000000	8.582568
2083.000000	8.581589
2082.000000	8.560050
2081.000000	8.546246
2080.000000	8.547812
2079.000000	8.560736
2078.000000	8.551631
2077.000000	8.537630
2076.000000	8.535281
2075.000000	8.528427
2074.000000	8.519616
2073.000000	8.506007
2072.000000	8.489559
2071.000000	8.471643
2070.000000	8.454412
2069.000000	8.444426
2068.000000	8.425922
2067.000000	8.419362
2066.000000	8.389501
2065.000000	8.363067
2064.000000	8.352690
2063.000000	8.326843
2062.000000	8.310297
2061.000000	8.287387
2060.000000	8.269471
2059.000000	8.244114
2058.000000	8.203582
2057.000000	8.193791
2056.000000	8.191637
2055.000000	8.191246
2054.000000	8.181259
2053.000000	8.180085
2052.000000	8.187329
2051.000000	8.176560
2050.000000	8.198099
2049.000000	8.235890
2048.000000	8.274562
2047.000000	8.297961
2046.000000	8.353277
2045.000000	8.426411
2044.000000	8.471741
2043.000000	8.545071
2042.000000	8.625744
2041.000000	8.706711
2040.000000	8.755075
2039.000000	8.828797
2038.000000	8.927093
2037.000000	9.010214
2036.000000	9.086089
2035.000000	9.145713
2034.000000	9.213854
2033.000000	9.296877
2032.000000	9.345144
2031.000000	9.393704
2030.000000	9.448922
2029.000000	9.504825
2028.000000	9.556029
2027.000000	9.607233
2026.000000	9.644632
2025.000000	9.705822
2024.000000	9.761726
2023.000000	9.792859
2022.000000	9.850622
2021.000000	9.885085
2020.000000	9.920722
2019.000000	9.946960
2018.000000	9.995423
2017.000000	10.016472
2016.000000	10.051913
2015.000000	10.100376
2014.000000	10.132195
2013.000000	10.154419
2012.000000	10.192308
2011.000000	10.216196
2010.000000	10.249484
2009.000000	10.280715
2008.000000	10.315373
2007.000000	10.354339
2006.000000	10.382144
2005.000000	10.389780
2004.000000	10.443040
2003.000000	10.455572
2002.000000	10.477894
2001.000000	10.507265
2000.000000	10.527727
1999.000000	10.544763
1998.000000	10.528902
1997.000000	10.568847
1996.000000	10.559644
1995.000000	10.550049
1994.000000	10.567574
1993.000000	10.551616
1992.000000	10.568358
1991.000000	10.533210
1990.000000	10.530664
1989.000000	10.534581
1988.000000	10.507070
1987.000000	10.496398
1986.000000	10.504622
1985.000000	10.485531
1984.000000	10.452341
1983.000000	10.441865
1982.000000	10.426592
1981.000000	10.421893
1980.000000	10.409263
1979.000000	10.365794
1978.000000	10.355122
1977.000000	10.318506
1976.000000	10.307247
1975.000000	10.279638
1974.000000	10.252617
1973.000000	10.246547
1972.000000	10.212476
1971.000000	10.198084
1970.000000	10.178797
1969.000000	10.165776
1968.000000	10.148153
1967.000000	10.104194
1966.000000	10.089215
1965.000000	10.072473
1964.000000	10.050053
1963.000000	10.051326
1962.000000	9.996793
1961.000000	9.988667
1960.000000	9.957925
1959.000000	9.938540
1958.000000	9.929827
1957.000000	9.888120
1956.000000	9.861979
1955.000000	9.848958
1954.000000	9.835839
1953.000000	9.835154
1952.000000	9.777586
1951.000000	9.761530
1950.000000	9.739110
1949.000000	9.724326
1948.000000	9.709347
1947.000000	9.700340
1946.000000	9.694465
1945.000000	9.667738
1944.000000	9.657262
1943.000000	9.657066
1942.000000	9.638073
1941.000000	9.634254
1940.000000	9.641499
1939.000000	9.648157
1938.000000	9.668912
1937.000000	9.660786
1936.000000	9.671164
1935.000000	9.700144
1934.000000	9.693486
1933.000000	9.696815
1932.000000	9.745473
1931.000000	9.755949
1930.000000	9.783852
1929.000000	9.815769
1928.000000	9.861784
1927.000000	9.921505
1926.000000	9.970555
1925.000000	9.988863
1924.000000	10.028710
1923.000000	10.058081
1922.000000	10.119467
1921.000000	10.202881
1920.000000	10.267792
1919.000000	10.339849
1918.000000	10.431977
1917.000000	10.482496
1916.000000	10.518329
1915.000000	10.560917
1914.000000	10.628471
1913.000000	10.748697
1912.000000	10.862070
1911.000000	10.934127
1910.000000	11.006283
1909.000000	11.019108
1908.000000	11.083529
1907.000000	11.158230
1906.000000	11.250553
1905.000000	11.385074
1904.000000	11.503538
1903.000000	11.571581
1902.000000	11.647652
1901.000000	11.704045
1900.000000	11.805572
1899.000000	11.925406
1898.000000	12.030458
1897.000000	12.146866
1896.000000	12.198951
1895.000000	12.239091
1894.000000	12.301456
1893.000000	12.382619
1892.000000	12.486397
1891.000000	12.593015
1890.000000	12.696401
1889.000000	12.814376
1888.000000	12.915707
1887.000000	13.009303
1886.000000	13.129235
1885.000000	13.276385
1884.000000	13.472389
1883.000000	13.662225
1882.000000	13.851376
1881.000000	14.054625
1880.000000	14.237216
1879.000000	14.422940
1878.000000	14.602105
1877.000000	14.783815
1876.000000	14.935958
1875.000000	15.091234
1874.000000	15.247783
1873.000000	15.402177
1872.000000	15.544138
1871.000000	15.659763
1870.000000	15.766576
1869.000000	15.851264
1868.000000	15.904230
1867.000000	15.917055
1866.000000	15.900999
1865.000000	15.898943
1864.000000	15.900999
1863.000000	15.868103
1862.000000	15.852634
1861.000000	15.842256
1860.000000	15.834816
1859.000000	15.829039
1858.000000	15.815724
1857.000000	15.786451
1856.000000	15.716450
1855.000000	15.673078
1854.000000	15.642532
1853.000000	15.581734
1852.000000	15.517606
1851.000000	15.451913
1850.000000	15.381618
1849.000000	15.324246
1848.000000	15.298105
1847.000000	15.291839
1846.000000	15.240831
1845.000000	15.145375
1844.000000	15.051779
1843.000000	15.013106
1842.000000	15.003414
1841.000000	14.995777
1840.000000	14.975413
1839.000000	14.939972
1838.000000	14.898852
1837.000000	14.889747
1836.000000	14.854698
1835.000000	14.802319
1834.000000	14.751800
1833.000000	14.683659
1832.000000	14.611210
1831.000000	14.543950
1830.000000	14.505082
1829.000000	14.468662
1828.000000	14.401304
1827.000000	14.325722
1826.000000	14.287539
1825.000000	14.246517
1824.000000	14.190712
1823.000000	14.156739
1822.000000	14.131186
1821.000000	14.130697
1820.000000	14.144207
1819.000000	14.123158
1818.000000	14.086542
1817.000000	14.063926
1816.000000	14.059814
1815.000000	14.054919
1814.000000	14.045324
1813.000000	14.043072
1812.000000	14.032793
1811.000000	14.028876
1810.000000	14.001463
1809.000000	13.966805
1808.000000	13.938707
1807.000000	13.904440
1806.000000	13.874971
1805.000000	13.844817
1804.000000	13.815250
1803.000000	13.775892
1802.000000	13.738297
1801.000000	13.700702
1800.000000	13.670058
1799.000000	13.642057
1798.000000	13.611413
1797.000000	13.573524
1796.000000	13.537300
1795.000000	13.524768
1794.000000	13.502544
1793.000000	13.472879
1792.000000	13.432151
1791.000000	13.403563
1790.000000	13.365870
1789.000000	13.321519
1788.000000	13.289309
1787.000000	13.243000
1786.000000	13.205601
1785.000000	13.147837
1784.000000	13.083710
1783.000000	13.027317
1782.000000	12.974645
1781.000000	12.908462
1780.000000	12.854419
1779.000000	12.803313
1778.000000	12.716570
1777.000000	12.639225
1776.000000	12.565601
1775.000000	12.490803
1774.000000	12.401514
1773.000000	12.310855
1772.000000	12.190433
1771.000000	12.104277
1770.000000	11.995897
1769.000000	11.891434
1768.000000	11.783837
1767.000000	11.666940
1766.000000	11.577945
1765.000000	11.522531
1764.000000	11.469467
1763.000000	11.461145
1762.000000	11.484055
1761.000000	11.517146
1760.000000	11.535944
1759.000000	11.578141
1758.000000	11.623960
1757.000000	11.638645
1756.000000	11.693863
1755.000000	11.727444
1754.000000	11.711192
1753.000000	11.741836
1752.000000	11.739389
1751.000000	11.745165
1750.000000	11.731067
1749.000000	11.698954
1748.000000	11.663317
1747.000000	11.622491
1746.000000	11.580980
1745.000000	11.512643
1744.000000	11.423158
1743.000000	11.317814
1742.000000	11.218049
1741.000000	11.099781
1740.000000	10.951554
1739.000000	10.795887
1738.000000	10.655590
1737.000000	10.517937
1736.000000	10.386354
1735.000000	10.296869
1734.000000	10.225302
1733.000000	10.170475
1732.000000	10.141398
1731.000000	10.165972
1730.000000	10.217959
1729.000000	10.275428
1728.000000	10.346409
1727.000000	10.433739
1726.000000	10.497083
1725.000000	10.550539
1724.000000	10.601743
1723.000000	10.643156
1722.000000	10.693675
1721.000000	10.712766
1720.000000	10.748207
1719.000000	10.767690
1718.000000	10.808027
1717.000000	10.848657
1716.000000	10.905833
1715.000000	10.936477
1714.000000	10.990814
1713.000000	11.039374
1712.000000	11.110159
1711.000000	11.140020
1710.000000	11.163908
1709.000000	11.204147
1708.000000	11.247518
1707.000000	11.285016
1706.000000	11.315464
1705.000000	11.352276
1704.000000	11.380962
1703.000000	11.410235
1702.000000	11.417088
1701.000000	11.414739
1700.000000	11.379199
1699.000000	11.381549
1698.000000	11.369311
1697.000000	11.367745
1696.000000	11.407885
1695.000000	11.406221
1694.000000	11.498838
1693.000000	11.575987
1692.000000	11.678003
1691.000000	11.774047
1690.000000	11.883601
1689.000000	11.977589
1688.000000	12.016555
1687.000000	12.052290
1686.000000	12.080584
1685.000000	12.095368
1684.000000	12.114753
1683.000000	12.230867
1682.000000	12.359220
1681.000000	12.543965
1680.000000	12.788333
1679.000000	13.082437
1678.000000	13.359604
1677.000000	13.618071
1676.000000	13.870370
1675.000000	14.083605
1674.000000	14.240349
1673.000000	14.401010
1672.000000	14.550509
1671.000000	14.647043
1670.000000	14.777745
1669.000000	14.842166
1668.000000	14.913832
1667.000000	14.960532
1666.000000	15.019764
1665.000000	15.034156
1664.000000	15.094661
1663.000000	15.131570
1662.000000	15.158298
1661.000000	15.165641
1660.000000	15.179446
1659.000000	15.208719
1658.000000	15.193837
1657.000000	15.207054
1656.000000	15.198439
1655.000000	15.190998
1654.000000	15.177390
1653.000000	15.171026
1652.000000	15.155557
1651.000000	15.138815
1650.000000	15.111794
1649.000000	15.095737
1648.000000	15.057163
1647.000000	15.045708
1646.000000	15.019666
1645.000000	14.966504
1644.000000	14.922741
1643.000000	14.887691
1642.000000	14.848432
1641.000000	14.824249
1640.000000	14.794193
1639.000000	14.752779
1638.000000	14.696289
1637.000000	14.659281
1636.000000	14.617868
1635.000000	14.582426
1634.000000	14.524075
1633.000000	14.475417
1632.000000	14.428619
1631.000000	14.368506
1630.000000	14.327484
1629.000000	14.280098
1628.000000	14.225762
1627.000000	14.191201
1626.000000	14.136571
1625.000000	14.093004
1624.000000	14.045031
1623.000000	13.995002
1622.000000	13.958875
1621.000000	13.903167
1620.000000	13.854020
1619.000000	13.814075
1618.000000	13.773347
1617.000000	13.739472
1616.000000	13.709219
1615.000000	13.654883
1614.000000	13.621008
1613.000000	13.578126
1612.000000	13.544055
1611.000000	13.525453
1610.000000	13.477970
1609.000000	13.449088
1608.000000	13.415605
1607.000000	13.378010
1606.000000	13.353044
1605.000000	13.322890
1604.000000	13.291463
1603.000000	13.262287
1602.000000	13.233993
1601.000000	13.212650
1600.000000	13.192971
1599.000000	13.158019
1598.000000	13.139222
1597.000000	13.127179
1596.000000	13.125221
1595.000000	13.112102
1594.000000	13.107109
1593.000000	13.086941
1592.000000	13.061877
1591.000000	13.057765
1590.000000	13.047486
1589.000000	13.041905
1588.000000	13.034171
1587.000000	13.025065
1586.000000	13.020953
1585.000000	13.006562
1584.000000	13.000198
1583.000000	12.991876
1582.000000	12.990016
1581.000000	12.998142
1580.000000	13.002939
1579.000000	12.994911
1578.000000	12.984239
1577.000000	12.988058
1576.000000	12.996477
1575.000000	12.999512
1574.000000	13.002352
1573.000000	12.999219
1572.000000	13.018800
1571.000000	13.041415
1570.000000	13.052479
1569.000000	13.070983
1568.000000	13.086353
1567.000000	13.094675
1566.000000	13.109655
1565.000000	13.132760
1564.000000	13.154984
1563.000000	13.182299
1562.000000	13.198160
1561.000000	13.216566
1560.000000	13.235559
1559.000000	13.236832
1558.000000	13.248972
1557.000000	13.273840
1556.000000	13.284218
1555.000000	13.281574
1554.000000	13.273840
1553.000000	13.280008
1552.000000	13.298707
1551.000000	13.292246
1550.000000	13.271392
1549.000000	13.265812
1548.000000	13.259840
1547.000000	13.250147
1546.000000	13.230566
1545.000000	13.217937
1544.000000	13.199726
1543.000000	13.184355
1542.000000	13.167516
1541.000000	13.150970
1540.000000	13.156844
1539.000000	13.144900
1538.000000	13.132466
1537.000000	13.123851
1536.000000	13.116410
1535.000000	13.122970
1534.000000	13.125123
1533.000000	13.122578
1532.000000	13.123557
1531.000000	13.113962
1530.000000	13.113081
1529.000000	13.123851
1528.000000	13.125515
1527.000000	13.136774
1526.000000	13.132956
1525.000000	13.136578
1524.000000	13.131194
1523.000000	13.128061
1522.000000	13.146173
1521.000000	13.145292
1520.000000	13.130117
1519.000000	13.126690
1518.000000	13.127767
1517.000000	13.139417
1516.000000	13.146564
1515.000000	13.153320
1514.000000	13.153026
1513.000000	13.162621
1512.000000	13.160956
1511.000000	13.161838
1510.000000	13.158998
1509.000000	13.181223
1508.000000	13.189349
1507.000000	13.182789
1506.000000	13.181810
1505.000000	13.202370
1504.000000	13.198356
1503.000000	13.203447
1502.000000	13.221755
1501.000000	13.244860
1500.000000	13.235853
1499.000000	13.250441
1498.000000	13.268357
1497.000000	13.279812
1496.000000	13.282847
1495.000000	13.299001
1494.000000	13.320246
1493.000000	13.336596
1492.000000	13.350205
1491.000000	13.365282
1490.000000	13.379380
1489.000000	13.411395
1488.000000	13.414724
1487.000000	13.455256
1486.000000	13.461130
1485.000000	13.473075
1484.000000	13.510572
1483.000000	13.531817
1482.000000	13.525160
1481.000000	13.555510
1480.000000	13.588014
1479.000000	13.599175
1478.000000	13.632463
1477.000000	13.679457
1476.000000	13.688366
1475.000000	13.701681
1474.000000	13.737514
1473.000000	13.765123
1472.000000	13.801935
1471.000000	13.838355
1470.000000	13.860188
1469.000000	13.887405
1468.000000	13.883978
1467.000000	13.914818
1466.000000	13.953980
1465.000000	13.987071
1464.000000	14.014484
1463.000000	14.052863
1462.000000	14.067744
1461.000000	14.121200
1460.000000	14.153215
1459.000000	14.183369
1458.000000	14.237314
1457.000000	14.267273
1456.000000	14.313679
1455.000000	14.374869
1454.000000	14.394157
1453.000000	14.462983
1452.000000	14.523586
1451.000000	14.583797
1450.000000	14.646358
1449.000000	14.696974
1448.000000	14.753465
1447.000000	14.815732
1446.000000	14.893076
1445.000000	14.958770
1444.000000	14.989903
1443.000000	15.062450
1442.000000	15.104940
1441.000000	15.183949
1440.000000	15.248174
1439.000000	15.314357
1438.000000	15.380638
1437.000000	15.412359
1436.000000	15.475703
1435.000000	15.526222
1434.000000	15.591818
1433.000000	15.648602
1432.000000	15.715666
1431.000000	15.785570
1430.000000	15.835991
1429.000000	15.898258
1428.000000	15.988133
1427.000000	16.087408
1426.000000	16.185312
1425.000000	16.274503
1424.000000	16.384841
1423.000000	16.493417
1422.000000	16.585153
1421.000000	16.683253
1420.000000	16.775674
1419.000000	16.906670
1418.000000	16.987930
1417.000000	17.052449
1416.000000	17.115695
1415.000000	17.226131
1414.000000	17.319434
1413.000000	17.409114
1412.000000	17.441031
1411.000000	17.548431
1410.000000	17.660434
1409.000000	17.831081
1408.000000	17.966384
1407.000000	18.133506
1406.000000	18.303566
1405.000000	18.521402
1404.000000	18.701742
1403.000000	18.852808
1402.000000	19.004266
1401.000000	19.202423
1400.000000	19.378259
1399.000000	19.460890
1398.000000	19.460107
1397.000000	19.506220
1396.000000	19.530500
1395.000000	19.554976
1394.000000	19.477240
1393.000000	19.416442
1392.000000	19.418694
1391.000000	19.410176
1390.000000	19.399113
1389.000000	19.429169
1388.000000	19.526486
1387.000000	19.623803
1386.000000	19.741973
1385.000000	19.924271
1384.000000	20.151016
1383.000000	20.389413
1382.000000	20.614495
1381.000000	20.827632
1380.000000	20.957453
1379.000000	21.159918
1378.000000	21.308733
1377.000000	21.529213
1376.000000	21.807750
1375.000000	22.133085
1374.000000	22.518827
1373.000000	22.967816
1372.000000	23.433937
1371.000000	23.870492
1370.000000	24.294319
1369.000000	24.627193
1368.000000	24.932458
1367.000000	25.202771
1366.000000	25.440580
1365.000000	25.656556
1364.000000	25.846882
1363.000000	26.004508
1362.000000	26.138734
1361.000000	26.269632
1360.000000	26.325437
1359.000000	26.354809
1358.000000	26.440181
1357.000000	26.585960
1356.000000	26.846875
1355.000000	27.247107
1354.000000	27.779020
1353.000000	28.343535
1352.000000	28.912260
1351.000000	29.478146
1350.000000	30.022395
1349.000000	30.481271
1348.000000	30.923308
1347.000000	31.332058
1346.000000	31.682457
1345.000000	32.036576
1344.000000	32.396863
1343.000000	32.712800
1342.000000	32.995253
1341.000000	33.303553
1340.000000	33.585223
1339.000000	33.844865
1338.000000	34.089821
1337.000000	34.331742
1336.000000	34.571411
1335.000000	34.785234
1334.000000	34.978007
1333.000000	35.185858
1332.000000	35.375400
1331.000000	35.551236
1330.000000	35.727169
1329.000000	35.874711
1328.000000	36.026756
1327.000000	36.170871
1326.000000	36.285419
1325.000000	36.422582
1324.000000	36.541634
1323.000000	36.649916
1322.000000	36.748016
1321.000000	36.848465
1320.000000	36.936677
1319.000000	37.020287
1318.000000	37.106834
1317.000000	37.182318
1316.000000	37.251830
1315.000000	37.316643
1314.000000	37.383120
1313.000000	37.445485
1312.000000	37.490325
1311.000000	37.537416
1310.000000	37.584215
1309.000000	37.617600
1308.000000	37.634929
1307.000000	37.656076
1306.000000	37.671447
1305.000000	37.673797
1304.000000	37.674972
1303.000000	37.671545
1302.000000	37.661363
1301.000000	37.645111
1300.000000	37.629838
1299.000000	37.613194
1298.000000	37.590970
1297.000000	37.572956
1296.000000	37.543389
1295.000000	37.511080
1294.000000	37.486115
1293.000000	37.452632
1292.000000	37.409260
1291.000000	37.365497
1290.000000	37.319482
1289.000000	37.252124
1288.000000	37.176150
1287.000000	37.100960
1286.000000	37.021364
1285.000000	36.950481
1284.000000	36.870787
1283.000000	36.773079
1282.000000	36.681245
1281.000000	36.604684
1280.000000	36.513927
1279.000000	36.423855
1278.000000	36.332608
1277.000000	36.245572
1276.000000	36.174591
1275.000000	36.109289
1274.000000	36.031455
1273.000000	35.962139
1272.000000	35.899579
1271.000000	35.841326
1270.000000	35.778471
1269.000000	35.718064
1268.000000	35.653056
1267.000000	35.580313
1266.000000	35.519025
1265.000000	35.461556
1264.000000	35.402324
1263.000000	35.336434
1262.000000	35.280825
1261.000000	35.224334
1260.000000	35.162556
1259.000000	35.102150
1258.000000	35.028917
1257.000000	34.962147
1256.000000	34.902817
1255.000000	34.837906
1254.000000	34.750772
1253.000000	34.682728
1252.000000	34.600880
1251.000000	34.517956
1250.000000	34.436108
1249.000000	34.334385
1248.000000	34.239908
1247.000000	34.136717
1246.000000	34.033428
1245.000000	33.895579
1244.000000	33.747940
1243.000000	33.602552
1242.000000	33.452465
1241.000000	33.295035
1240.000000	33.128990
1239.000000	32.974693
1238.000000	32.795627
1237.000000	32.619007
1236.000000	32.457955
1235.000000	32.272133
1234.000000	32.074563
1233.000000	31.879831
1232.000000	31.672862
1231.000000	31.474900
1230.000000	31.262938
1229.000000	31.052933
1228.000000	30.851545
1227.000000	30.619903
1226.000000	30.402850
1225.000000	30.194510
1224.000000	29.981764
1223.000000	29.750711
1222.000000	29.557350
1221.000000	29.340884
1220.000000	29.155258
1219.000000	28.980891
1218.000000	28.801041
1217.000000	28.640968
1216.000000	28.489901
1215.000000	28.361843
1214.000000	28.225462
1213.000000	28.111502
1212.000000	28.000870
1211.000000	27.913638
1210.000000	27.808978
1209.000000	27.756502
1208.000000	27.707648
1207.000000	27.654877
1206.000000	27.638723
1205.000000	27.624919
1204.000000	27.634905
1203.000000	27.617380
1202.000000	27.631380
1201.000000	27.655073
1200.000000	27.618751
1199.000000	27.590163
1198.000000	27.510371
1197.000000	27.402970
1196.000000	27.228211
1195.000000	27.028976
1194.000000	26.747208
1193.000000	26.395830
1192.000000	26.006466
1191.000000	25.546806
1190.000000	25.154112
1189.000000	24.794706
1188.000000	24.548869
1187.000000	24.389286
1186.000000	24.351397
1185.000000	24.454490
1184.000000	24.679082
1183.000000	24.977983
1182.000000	25.408565
1181.000000	25.919527
1180.000000	26.406208
1179.000000	26.887994
1178.000000	27.332087
1177.000000	27.709801
1176.000000	28.034549
1175.000000	28.358318
1174.000000	28.686787
1173.000000	28.976289
1172.000000	29.307401
1171.000000	29.654471
1170.000000	30.024059
1169.000000	30.390612
1168.000000	30.750410
1167.000000	31.148292
1166.000000	31.513964
1165.000000	31.919189
1164.000000	32.304833
1163.000000	32.712506
1162.000000	33.103437
1161.000000	33.513851
1160.000000	33.858571
1159.000000	34.239125
1158.000000	34.587076
1157.000000	34.904187
1156.000000	35.183312
1155.000000	35.393904
1154.000000	35.541935
1153.000000	35.630832
1152.000000	35.631615
1151.000000	35.632888
1150.000000	35.618594
1149.000000	35.584523
1148.000000	35.562593
1147.000000	35.570621
1146.000000	35.674497
1145.000000	35.880879
1144.000000	36.169109
1143.000000	36.514123
1142.000000	36.872843
1141.000000	37.263285
1140.000000	37.633167
1139.000000	38.047693
1138.000000	38.486499
1137.000000	38.888004
1136.000000	39.324656
1135.000000	39.725476
1134.000000	40.112588
1133.000000	40.408455
1132.000000	40.711174
1131.000000	41.004201
1130.000000	41.246808
1129.000000	41.447413
1128.000000	41.642242
1127.000000	41.779895
1126.000000	41.876135
1125.000000	41.963466
1124.000000	42.046488
1123.000000	42.125791
1122.000000	42.186981
1121.000000	42.230744
1120.000000	42.288899
1119.000000	42.302312
1118.000000	42.315137
1117.000000	42.306228
1116.000000	42.334229
1115.000000	42.317976
1114.000000	42.310927
1113.000000	42.285962
1112.000000	42.282241
1111.000000	42.274703
1110.000000	42.247681
1109.000000	42.227513
1108.000000	42.226142
1107.000000	42.213121
1106.000000	42.190407
1105.000000	42.180127
1104.000000	42.166127
1103.000000	42.144392
1102.000000	42.117175
1101.000000	42.097888
1100.000000	42.073118
1099.000000	42.045314
1098.000000	42.014376
1097.000000	41.986669
1096.000000	41.977858
1095.000000	41.946430
1094.000000	41.904038
1093.000000	41.870848
1092.000000	41.836386
1091.000000	41.801924
1090.000000	41.790469
1089.000000	41.758357
1088.000000	41.720957
1087.000000	41.696187
1086.000000	41.648508
1085.000000	41.612871
1084.000000	41.582814
1083.000000	41.550996
1082.000000	41.523974
1081.000000	41.500477
1080.000000	41.487945
1079.000000	41.454364
1078.000000	41.437819
1077.000000	41.427343
1076.000000	41.411874
1075.000000	41.373300
1074.000000	41.356852
1073.000000	41.335607
1072.000000	41.320138
1071.000000	41.310152
1070.000000	41.288123
1069.000000	41.268249
1068.000000	41.239073
1067.000000	41.218905
1066.000000	41.185813
1065.000000	41.151155
1064.000000	41.130302
1063.000000	41.104749
1062.000000	41.057363
1061.000000	41.009586
1060.000000	40.969445
1059.000000	40.925584
1058.000000	40.881234
1057.000000	40.822393
1056.000000	40.765315
1055.000000	40.719398
1054.000000	40.666628
1053.000000	40.603969
1052.000000	40.557661
1051.000000	40.521926
1050.000000	40.475029
1049.000000	40.434595
1048.000000	40.398860
1047.000000	40.366062
1046.000000	40.321320
1045.000000	40.282060
1044.000000	40.252200
1043.000000	40.233206
1042.000000	40.208730
1041.000000	40.166534
1040.000000	40.140687
1039.000000	40.125708
1038.000000	40.107008
1037.000000	40.076070
1036.000000	40.045132
1035.000000	40.016349
1034.000000	39.992656
1033.000000	39.978558
1032.000000	39.957117
1031.000000	39.934599
1030.000000	39.926766
1029.000000	39.922361
1028.000000	39.907088
1027.000000	39.881828
1026.000000	39.866457
1025.000000	39.874192
1024.000000	39.864597
1023.000000	39.843352
1022.000000	39.838163
1021.000000	39.843940
1020.000000	39.846289
1019.000000	39.849618
1018.000000	39.861464
1017.000000	39.881633
1016.000000	39.907479
1015.000000	39.937732
1014.000000	39.976306
1013.000000	40.037594
1012.000000	40.093987
1011.000000	40.156841
1010.000000	40.231836
1009.000000	40.299096
1008.000000	40.363419
1007.000000	40.438805
1006.000000	40.510862
1005.000000	40.581060
1004.000000	40.653900
1003.000000	40.726545
1002.000000	40.786365
1001.000000	40.847359
1000.000000	40.902479
999.000000	40.946438
998.000000	40.998229
997.000000	41.063825
996.000000	41.111308
995.000000	41.162414
994.000000	41.214206
993.000000	41.256206
992.000000	41.306627
991.000000	41.365761
990.000000	41.401692
989.000000	41.443203
988.000000	41.484127
987.000000	41.545807
986.000000	41.608563
985.000000	41.653501
984.000000	41.714887
983.000000	41.779112
982.000000	41.852638
981.000000	41.910402
980.000000	41.989019
979.000000	42.064405
978.000000	42.127553
977.000000	42.210282
976.000000	42.285766
975.000000	42.355082
974.000000	42.440552
973.000000	42.523184
972.000000	42.630389
971.000000	42.721146
970.000000	42.825903
969.000000	42.922730
968.000000	43.047754
967.000000	43.166218
966.000000	43.270290
965.000000	43.381117
964.000000	43.524253
963.000000	43.665333
962.000000	43.819336
961.000000	43.953269
960.000000	44.107762
959.000000	44.262744
958.000000	44.422915
957.000000	44.590527
956.000000	44.734152
955.000000	44.877680
954.000000	45.021011
953.000000	45.165518
952.000000	45.295339
951.000000	45.431327
950.000000	45.559778
949.000000	45.691459
948.000000	45.802776
947.000000	45.913701
946.000000	46.046165
945.000000	46.153272
944.000000	46.260086
943.000000	46.379137
942.000000	46.498286
941.000000	46.608526
940.000000	46.738739
939.000000	46.855441
938.000000	46.964506
937.000000	47.098341
936.000000	47.229826
935.000000	47.313338
934.000000	47.421914
933.000000	47.530979
932.000000	47.638478
931.000000	47.747934
930.000000	47.847111
929.000000	47.933365
928.000000	48.024024
927.000000	48.113411
926.000000	48.192125
925.000000	48.313820
924.000000	48.413193
923.000000	48.536258
922.000000	48.638470
921.000000	48.753899
920.000000	48.860223
919.000000	48.997485
918.000000	49.129851
917.000000	49.247434
916.000000	49.370891
915.000000	49.503355
914.000000	49.646981
913.000000	49.785809
912.000000	49.927378
911.000000	50.089311
910.000000	50.252811
909.000000	50.437458
908.000000	50.632288
907.000000	50.850516
906.000000	51.056408
905.000000	51.270916
904.000000	51.513033
903.000000	51.747807
902.000000	51.999421
901.000000	52.259943
900.000000	52.517040
899.000000	52.766499
898.000000	53.006462
897.000000	53.278930
896.000000	53.502445
895.000000	53.766786
894.000000	53.988245
893.000000	54.239565
892.000000	54.456814
891.000000	54.668776
890.000000	54.882795
889.000000	55.083890
888.000000	55.287628
887.000000	55.471982
886.000000	55.645859
885.000000	55.862325
884.000000	56.037867
883.000000	56.215955
882.000000	56.402071
881.000000	56.556661
880.000000	56.741015
879.000000	56.908920
878.000000	57.074085
877.000000	57.251193
876.000000	57.427910
875.000000	57.595620
874.000000	57.770770
873.000000	57.922228
872.000000	58.101197
871.000000	58.260585
870.000000	58.418504
869.000000	58.577794
868.000000	58.693712
867.000000	58.815505
866.000000	58.936025
865.000000	59.055958
864.000000	59.171387
863.000000	59.263710
862.000000	59.331558
861.000000	59.385601
860.000000	59.390398
859.000000	59.458637
858.000000	59.326467
857.000000	59.339300
856.000000	59.504200
855.000000	59.135900
854.000000	59.373100
853.000000	59.829400
852.000000	59.837400
851.000000	59.989700
850.000000	60.097300
849.000000	60.252800
848.000000	60.387000
847.000000	60.401600
846.000000	60.228200
845.000000	60.473500
844.000000	60.697000
843.000000	60.948900
842.000000	61.073600
841.000000	61.043600
840.000000	61.129100
839.000000	61.182700
838.000000	61.441200
837.000000	61.524200
836.000000	61.620500
835.000000	61.652800
834.000000	61.759400
833.000000	61.932100
832.000000	62.048600
831.000000	62.307000
830.000000	62.315200
829.000000	62.450300
828.000000	62.548900
827.000000	62.526500
826.000000	62.576800
825.000000	62.578300
824.000000	62.696900
823.000000	62.642300
822.000000	62.825400
821.000000	62.758900
820.000000	62.804700
819.000000	62.858000
818.000000	62.908200
817.000000	62.910200
816.000000	62.946400
815.000000	62.782500
814.000000	62.806800
813.000000	62.687300
812.000000	62.542100
811.000000	62.508900
810.000000	62.498000
809.000000	62.427300
808.000000	62.431200
807.000000	62.338700
806.000000	62.263100
805.000000	62.054400
804.000000	61.847400
803.000000	61.692900
802.000000	61.692600
801.000000	61.620000
800.000000	61.541300
799.000000	61.470400
798.000000	61.278600
797.000000	61.194500
796.000000	61.063600
795.000000	60.920200
794.000000	60.907500
793.000000	60.765500
792.000000	60.715200
791.000000	60.743400
790.000000	60.563600
789.000000	60.464300
788.000000	60.489300
787.000000	60.497500
786.000000	60.391600
785.000000	60.385500
784.000000	60.341600
783.000000	60.346900
782.000000	60.336200
781.000000	60.326100
780.000000	60.212100
779.000000	60.163300
778.000000	60.133000
777.000000	60.083800
776.000000	60.130900
775.000000	60.121100
774.000000	60.127500
773.000000	60.127000
772.000000	60.088900
771.000000	60.026800
770.000000	59.959800
769.000000	59.976700
768.000000	59.983600
767.000000	59.944000
766.000000	59.896600
765.000000	59.782800
764.000000	59.732700
763.000000	59.690000
762.000000	59.601300
761.000000	59.535600
760.000000	59.453700
759.000000	59.394300
758.000000	59.367600
757.000000	59.243000
756.000000	59.078200
755.000000	58.961900
754.000000	58.882300
753.000000	58.826700
752.000000	58.734100
751.000000	58.588700
750.000000	58.479100
749.000000	58.367800
748.000000	58.275000
747.000000	58.223100
746.000000	58.106300
745.000000	57.973800
744.000000	57.841600
743.000000	57.642900
742.000000	57.502000
741.000000	57.403200
740.000000	57.180500
739.000000	56.936700
738.000000	56.717100
737.000000	56.442700
736.000000	56.258500
735.000000	56.022600
734.000000	55.700900
733.000000	55.449400
732.000000	55.153300
731.000000	54.827700
730.000000	54.534700
729.000000	54.214400
728.000000	53.891200
727.000000	53.618800
726.000000	53.319900
725.000000	52.973600
724.000000	52.573700
723.000000	52.227400
722.000000	51.954000
721.000000	51.656100
720.000000	51.317700
719.000000	50.980500
718.000000	50.682100
717.000000	50.391700
716.000000	50.113100
715.000000	49.872400
714.000000	49.638500
713.000000	49.426300
712.000000	49.272800
711.000000	49.067400
710.000000	48.893000
709.000000	48.877200
708.000000	48.826800
707.000000	48.746500
706.000000	48.731900
705.000000	48.691100
704.000000	48.762000
703.000000	48.811800
702.000000	48.839400
701.000000	48.905700
700.000000	48.949500
699.000000	48.997900
698.000000	49.134200
697.000000	49.215600
696.000000	49.269600
695.000000	49.327600
694.000000	49.400400
693.000000	49.481300
692.000000	49.517300
691.000000	49.582300
690.000000	49.669700
689.000000	49.720500
688.000000	49.798400
687.000000	49.832100
686.000000	49.860000
685.000000	49.893300
684.000000	49.935400
683.000000	49.931100
682.000000	49.927800
681.000000	49.912000
680.000000	49.855100
679.000000	49.807800
678.000000	49.703600
677.000000	49.540500
676.000000	49.391800
675.000000	49.196600
674.000000	48.971400
673.000000	48.703500
672.000000	48.444000
671.000000	48.114500
670.000000	47.809600
669.000000	47.422100
668.000000	47.027200
667.000000	46.625800
666.000000	46.221000
665.000000	45.777200
664.000000	45.333100
663.000000	44.844600
662.000000	44.321000
661.000000	43.814900
660.000000	43.298400
659.000000	42.729600
658.000000	42.192100
657.000000	41.576300
656.000000	40.944900
655.000000	40.364000
654.000000	39.783100
653.000000	39.196300
652.000000	38.607300
651.000000	38.061000
650.000000	37.596300
649.000000	37.157100
648.000000	36.803800
647.000000	36.517900
646.000000	36.348800
645.000000	36.253100
644.000000	36.253200
643.000000	36.396200
642.000000	36.618500
641.000000	36.936100
640.000000	37.341900
639.000000	37.860500
638.000000	38.428400
637.000000	39.034700
636.000000	39.747700
635.000000	40.515300
634.000000	41.275100
633.000000	42.113200
632.000000	42.933300
631.000000	43.783700
630.000000	44.659600
629.000000	45.583400
628.000000	46.486800
627.000000	47.354100
626.000000	48.265400
625.000000	49.104900
624.000000	49.974900
623.000000	50.810500
622.000000	51.652400
621.000000	52.441300
620.000000	53.188900
619.000000	53.861900
618.000000	54.526800
617.000000	55.137400
616.000000	55.716600
615.000000	56.248600
614.000000	56.766300
613.000000	57.286200
612.000000	57.778600
611.000000	58.198000
610.000000	58.639200
609.000000	59.032700
608.000000	59.442000
607.000000	59.810200
606.000000	60.114400
605.000000	60.427000
604.000000	60.759700
603.000000	61.009100
602.000000	61.246700
601.000000	61.511500
600.000000	61.690900
599.000000	61.860000
598.000000	62.016000
597.000000	62.180800
596.000000	62.293500
595.000000	62.402500
594.000000	62.555600
593.000000	62.622900
592.000000	62.673700
591.000000	62.761100
590.000000	62.847600
589.000000	62.872600
588.000000	62.933400
587.000000	62.962300
586.000000	62.997800
585.000000	63.005200
584.000000	63.010300
583.000000	63.019200
582.000000	62.954900
581.000000	62.956100
580.000000	62.902700
579.000000	62.876500
578.000000	62.814700
577.000000	62.753600
576.000000	62.674500
575.000000	62.632600
574.000000	62.522500
573.000000	62.420800
572.000000	62.306400
571.000000	62.192000
570.000000	62.076400
569.000000	61.959900
568.000000	61.772300
567.000000	61.654400
566.000000	61.459700
565.000000	61.336800
564.000000	61.149500
563.000000	60.948700
562.000000	60.775000
561.000000	60.563900
560.000000	60.330000
559.000000	60.090600
558.000000	59.869700
557.000000	59.614000
556.000000	59.338400
555.000000	59.059700
554.000000	58.751200
553.000000	58.466600
552.000000	58.148600
551.000000	57.784300
550.000000	57.408500
549.000000	56.996300
548.000000	56.585300
547.000000	56.105100
546.000000	55.648300
545.000000	55.142900
544.000000	54.606700
543.000000	54.026400
542.000000	53.370500
541.000000	52.700200
540.000000	51.985900
539.000000	51.231900
538.000000	50.456700
537.000000	49.633500
536.000000	48.784300
535.000000	47.911700
534.000000	46.962100
533.000000	45.968300
532.000000	44.972400
531.000000	43.964300
530.000000	42.950200
529.000000	41.894500
528.000000	40.856000
527.000000	39.814800
526.000000	38.767500
525.000000	37.752800
524.000000	36.725900
523.000000	35.737800
522.000000	34.746700
521.000000	33.803000
520.000000	32.919900
519.000000	32.087100
518.000000	31.298500
517.000000	30.570800
516.000000	29.912300
515.000000	29.280100
514.000000	28.706200
513.000000	28.183800
512.000000	27.706100
511.000000	27.250000
510.000000	26.831300
509.000000	26.444200
508.000000	26.082100
507.000000	25.755500
506.000000	25.449200
505.000000	25.124300
504.000000	24.833000
503.000000	24.551300
502.000000	24.253400
501.000000	23.961400
500.000000	23.678000
499.000000	23.381400
498.000000	23.071300
497.000000	22.786600
496.000000	22.503900
495.000000	22.228900
494.000000	21.972600
493.000000	21.733400
492.000000	21.503700
491.000000	21.291500
490.000000	21.094500
489.000000	20.918900
488.000000	20.752300
487.000000	20.604100
486.000000	20.473300
485.000000	20.368900
484.000000	20.287700
483.000000	20.221600
482.000000	20.180800
481.000000	20.128100
480.000000	20.101500
479.000000	20.070700
478.000000	20.072600
477.000000	20.065000
476.000000	20.063700
475.000000	20.074900
474.000000	20.085900
473.000000	20.106400
472.000000	20.119800
471.000000	20.148400
470.000000	20.147200
469.000000	20.151000
468.000000	20.170000
467.000000	20.182900
466.000000	20.184900
465.000000	20.178400
464.000000	20.168800
463.000000	20.165300
462.000000	20.139900
461.000000	20.100200
460.000000	20.055100
459.000000	20.009000
458.000000	19.958400
457.000000	19.876000
456.000000	19.810500
455.000000	19.731400
454.000000	19.609600
453.000000	19.507200
452.000000	19.403700
451.000000	19.280300
450.000000	19.141800
449.000000	18.988400
448.000000	18.840800
447.000000	18.662400
446.000000	18.475000
445.000000	18.292900
444.000000	18.097500
443.000000	17.886700
442.000000	17.655200
441.000000	17.409900
440.000000	17.167200
439.000000	16.929100
438.000000	16.676400
437.000000	16.400300
436.000000	16.121700
435.000000	15.840400
434.000000	15.548300
433.000000	15.235200
432.000000	14.921000
431.000000	14.606600
430.000000	14.278300
429.000000	13.953000
428.000000	13.619000
427.000000	13.281600
426.000000	12.956100
425.000000	12.647700
424.000000	12.311100
423.000000	11.967100
422.000000	11.649900
421.000000	11.345300
420.000000	11.025500
419.000000	10.714400
418.000000	10.413300
417.000000	10.115500
416.000000	9.848100
415.000000	9.584300
414.000000	9.343000
413.000000	9.097700
412.000000	8.846300
411.000000	8.634500
410.000000	8.434100
409.000000	8.248200
408.000000	8.068800
407.000000	7.903600
406.000000	7.749200
405.000000	7.614200
404.000000	7.484300
403.000000	7.354500
402.000000	7.236600
401.000000	7.124200
400.000000	7.031200
399.000000	6.948100
398.000000	6.867800
397.000000	6.781400
396.000000	6.702900
395.000000	6.640400
394.000000	6.569900
393.000000	6.513800
392.000000	6.464200
391.000000	6.418300
390.000000	6.372600
389.000000	6.325100
388.000000	6.267800
387.000000	6.235700
386.000000	6.197000
385.000000	6.160600
384.000000	6.134600
383.000000	6.098700
382.000000	6.034400
381.000000	6.002500
380.000000	5.993000
379.000000	5.975100
378.000000	5.939000
377.000000	5.898000
376.000000	5.926700
375.000000	5.877200
374.000000	5.786400
373.000000	5.797200
372.000000	5.769700
371.000000	5.786700
370.000000	5.770600
369.000000	5.772100
368.000000	5.764900
367.000000	5.760900
366.000000	5.763500
365.000000	5.689600
364.000000	5.673500
363.000000	5.681500
362.000000	5.648500
361.000000	5.670000
360.000000	5.677600
359.000000	5.624900
358.000000	5.691700
357.000000	5.546800
356.000000	5.436100
355.000000	5.404900
354.000000	5.419600
353.000000	5.447800
352.000000	5.375300
351.000000	5.437700
350.000000	5.485600
349.000000	5.404000
348.000000	5.397800
347.000000	5.434800
346.000000	5.458100
345.000000	5.337000
344.000000	5.357300
343.000000	5.493700
342.000000	5.347900
341.000000	5.456100
340.000000	5.312700
339.000000	5.321900
338.000000	5.386900
337.000000	5.307300
336.000000	5.388200
335.000000	5.385700
334.000000	5.260600
333.000000	5.309600
332.000000	5.363900
331.000000	5.481900
330.000000	5.440500
329.000000	5.280400
328.000000	5.347000
327.000000	5.249400
326.000000	5.260800
325.000000	5.384200
324.000000	5.390000
323.000000	5.657300
322.000000	5.583100
321.000000	5.339500
320.000000	5.334700
319.000000	5.513100
318.000000	5.617800
317.000000	5.587200
316.000000	5.302200
315.000000	5.300000
314.000000	5.274400
313.000000	5.287700
312.000000	5.273600
311.000000	5.285600
310.000000	5.345100
309.000000	5.263900
308.000000	5.270100
307.000000	5.333300
306.000000	5.366300
305.000000	5.323000
304.000000	5.314800
303.000000	5.274100
302.000000	5.315700
301.000000	5.332200
300.000000	5.342000
299.000000	5.329700
298.000000	5.387300
297.000000	5.363000
296.000000	5.392600
295.000000	5.367800
294.000000	5.394500
293.000000	5.335600
292.000000	5.391600
291.000000	5.378200
290.000000	5.368800
289.000000	5.367000
288.000000	5.368600
287.000000	5.425400
286.000000	5.370400
285.000000	5.365700
284.000000	5.395600
283.000000	5.405500
282.000000	5.487800
281.000000	5.432100
280.000000	5.486300
279.000000	5.407300
278.000000	5.470100
277.000000	5.451500
276.000000	5.460600
275.000000	5.448200
274.000000	5.468000
273.000000	5.528500
272.000000	5.477300
271.000000	5.532200
270.000000	5.511400
269.000000	5.550700
268.000000	5.600500
267.000000	5.628000
266.000000	5.620800
265.000000	5.633200
264.000000	5.635400
263.000000	5.637400
262.000000	5.692500
261.000000	5.730700
260.000000	5.794300
259.000000	5.765600
258.000000	5.776700
257.000000	5.819600
256.000000	5.819000
255.000000	5.829900
254.000000	5.805200
253.000000	5.845900
252.000000	5.878000
251.000000	5.845200
250.000000	5.874100
