PE UV       SUBTECH     SPECTRUM    ASCII       PEDS        4.00        
   -1
CICIMAUCR0104-2.Sample.ASC
24/04/04
10:52:55.00
24/04/04
10:52:55.00
Vinicio Soto Monge
C. resplendens
250,000000
1
Lambda 1050
1050L1511233
PerkinElmer UV WinLab 6.3.2.0749 / 2.02.05 Lambda 900 UV/VIS/NIR, Aug  7 2015 09:38:08

0
0
3350/servo 860,8/2
0
0
UV/VIS
1
1
1
DoubleDePol,CommonBeamDepol,RBeamAtt,SBeamAtt,60mm sphere, WB InGaAs Detector
0
0
0
0
Program
Program
3350/servo 860,8/2
3350/0,2 860,8/0,2
3350/0,2 860,8/0,2
0
15.00
 
 
 
0
 
860,8
319,2
860,8
Front
100
on
S:100 R:100
0
0
0
0
 
0
 
 
 
0
 
 
0
0
0
0
0
 
 
 
 
0
0


0
0
#HDR
-1
-1
#GR
nm
%R
1.0
0.0
2500,000000
-1,000000
2251
8
74,605500
5,229500
#DATA
2500.000000	6.135578
2499.000000	6.303497
2498.000000	6.195964
2497.000000	6.235286
2496.000000	6.241505
2495.000000	6.120832
2494.000000	6.138788
2493.000000	6.201782
2492.000000	6.217431
2491.000000	6.077097
2490.000000	6.111202
2489.000000	6.197369
2488.000000	6.242910
2487.000000	6.181620
2486.000000	6.163564
2485.000000	6.162361
2484.000000	6.092444
2483.000000	6.150925
2482.000000	6.201281
2481.000000	6.155640
2480.000000	6.184930
2479.000000	6.145408
2478.000000	6.198171
2477.000000	6.213118
2476.000000	6.218936
2475.000000	6.196867
2474.000000	6.196165
2473.000000	6.258558
2472.000000	6.271197
2471.000000	6.216227
2470.000000	6.258157
2469.000000	6.300889
2468.000000	6.304300
2467.000000	6.322255
2466.000000	6.363784
2465.000000	6.378730
2464.000000	6.396585
2463.000000	6.442928
2462.000000	6.493786
2461.000000	6.500607
2460.000000	6.566511
2459.000000	6.584867
2458.000000	6.608440
2457.000000	6.673843
2456.000000	6.719684
2455.000000	6.781074
2454.000000	6.854401
2453.000000	6.920405
2452.000000	6.996139
2451.000000	7.053918
2450.000000	7.106481
2449.000000	7.159745
2448.000000	7.235279
2447.000000	7.302286
2446.000000	7.383437
2445.000000	7.442219
2444.000000	7.498594
2443.000000	7.575632
2442.000000	7.652670
2441.000000	7.713258
2440.000000	7.780465
2439.000000	7.839648
2438.000000	7.909063
2437.000000	7.983493
2436.000000	8.045385
2435.000000	8.095139
2434.000000	8.165055
2433.000000	8.234470
2432.000000	8.300674
2431.000000	8.335984
2430.000000	8.405800
2429.000000	8.457158
2428.000000	8.504706
2427.000000	8.543225
2426.000000	8.579838
2425.000000	8.651861
2424.000000	8.681753
2423.000000	8.729200
2422.000000	8.792395
2421.000000	8.840344
2420.000000	8.881672
2419.000000	8.919589
2418.000000	8.958710
2417.000000	8.977267
2416.000000	9.008865
2415.000000	9.056111
2414.000000	9.100950
2413.000000	9.141375
2412.000000	9.166151
2411.000000	9.214702
2410.000000	9.224632
2409.000000	9.250713
2408.000000	9.301269
2407.000000	9.344603
2406.000000	9.355638
2405.000000	9.381518
2404.000000	9.426757
2403.000000	9.460462
2402.000000	9.482430
2401.000000	9.525362
2400.000000	9.549136
2399.000000	9.577223
2398.000000	9.624268
2397.000000	9.649346
2396.000000	9.669508
2395.000000	9.716754
2394.000000	9.732403
2393.000000	9.750559
2392.000000	9.775737
2391.000000	9.804125
2390.000000	9.820877
2389.000000	9.836224
2388.000000	9.858894
2387.000000	9.867721
2386.000000	9.869728
2385.000000	9.877351
2384.000000	9.889288
2383.000000	9.880661
2382.000000	9.868323
2381.000000	9.853778
2380.000000	9.846054
2379.000000	9.853578
2378.000000	9.841641
2377.000000	9.818870
2376.000000	9.808237
2375.000000	9.789379
2374.000000	9.761794
2373.000000	9.734509
2372.000000	9.719864
2371.000000	9.693884
2370.000000	9.658173
2369.000000	9.625171
2368.000000	9.592470
2367.000000	9.546227
2366.000000	9.491558
2365.000000	9.453340
2364.000000	9.409504
2363.000000	9.348315
2362.000000	9.292041
2361.000000	9.236369
2360.000000	9.190126
2359.000000	9.140873
2358.000000	9.090217
2357.000000	9.037754
2356.000000	8.991912
2355.000000	8.958409
2354.000000	8.940654
2353.000000	8.924303
2352.000000	8.910962
2351.000000	8.905746
2350.000000	8.899226
2349.000000	8.912366
2348.000000	8.940052
2347.000000	8.967537
2346.000000	8.990709
2345.000000	9.013880
2344.000000	9.029629
2343.000000	9.067546
2342.000000	9.102655
2341.000000	9.115896
2340.000000	9.127432
2339.000000	9.130441
2338.000000	9.118103
2337.000000	9.111783
2336.000000	9.108373
2335.000000	9.094430
2334.000000	9.055008
2333.000000	9.031033
2332.000000	9.011172
2331.000000	8.974358
2330.000000	8.920692
2329.000000	8.867427
2328.000000	8.829911
2327.000000	8.776045
2326.000000	8.704423
2325.000000	8.648450
2324.000000	8.578333
2323.000000	8.497082
2322.000000	8.417837
2321.000000	8.335582
2320.000000	8.249717
2319.000000	8.160240
2318.000000	8.071867
2317.000000	7.984396
2316.000000	7.880274
2315.000000	7.792001
2314.000000	7.709045
2313.000000	7.619167
2312.000000	7.530091
2311.000000	7.453253
2310.000000	7.392867
2309.000000	7.331075
2308.000000	7.287039
2307.000000	7.262965
2306.000000	7.247316
2305.000000	7.244307
2304.000000	7.254137
2303.000000	7.269084
2302.000000	7.298575
2301.000000	7.322950
2300.000000	7.375112
2299.000000	7.431185
2298.000000	7.471911
2297.000000	7.515145
2296.000000	7.562090
2295.000000	7.600609
2294.000000	7.628194
2293.000000	7.666212
2292.000000	7.678350
2291.000000	7.667416
2290.000000	7.665008
2289.000000	7.667015
2288.000000	7.627392
2287.000000	7.608233
2286.000000	7.578039
2285.000000	7.526179
2284.000000	7.471911
2283.000000	7.423361
2282.000000	7.358360
2281.000000	7.314324
2280.000000	7.279717
2279.000000	7.215719
2278.000000	7.169476
2277.000000	7.125339
2276.000000	7.078193
2275.000000	7.007876
2274.000000	6.979087
2273.000000	6.966548
2272.000000	6.935452
2271.000000	6.928229
2270.000000	6.904857
2269.000000	6.921408
2268.000000	6.929333
2267.000000	6.961231
2266.000000	6.998246
2265.000000	7.080400
2264.000000	7.136373
2263.000000	7.209198
2262.000000	7.316330
2261.000000	7.439812
2260.000000	7.537614
2259.000000	7.688882
2258.000000	7.828012
2257.000000	7.954805
2256.000000	8.141181
2255.000000	8.247610
2254.000000	8.398979
2253.000000	8.540215
2252.000000	8.709138
2251.000000	8.798715
2250.000000	8.948779
2249.000000	9.069252
2248.000000	9.184408
2247.000000	9.327250
2246.000000	9.413115
2245.000000	9.507307
2244.000000	9.592771
2243.000000	9.663590
2242.000000	9.734008
2241.000000	9.826895
2240.000000	9.859396
2239.000000	9.933625
2238.000000	9.994313
2237.000000	10.045572
2236.000000	10.078072
2235.000000	10.111776
2234.000000	10.118698
2233.000000	10.136352
2232.000000	10.147487
2231.000000	10.169154
2230.000000	10.176075
2229.000000	10.144979
2228.000000	10.120905
2227.000000	10.075865
2226.000000	10.036945
2225.000000	10.004946
2224.000000	9.927406
2223.000000	9.875546
2222.000000	9.810043
2221.000000	9.757581
2220.000000	9.701909
2219.000000	9.628381
2218.000000	9.554152
2217.000000	9.473803
2216.000000	9.436387
2215.000000	9.376201
2214.000000	9.340290
2213.000000	9.294649
2212.000000	9.262249
2211.000000	9.270775
2210.000000	9.285521
2209.000000	9.288028
2208.000000	9.345506
2207.000000	9.385329
2206.000000	9.492661
2205.000000	9.565888
2204.000000	9.658474
2203.000000	9.787172
2202.000000	9.907745
2201.000000	10.047578
2200.000000	10.192325
2199.000000	10.344396
2198.000000	10.501883
2197.000000	10.651847
2196.000000	10.811139
2195.000000	10.947060
2194.000000	11.089400
2193.000000	11.219101
2192.000000	11.350708
2191.000000	11.468372
2190.000000	11.570789
2189.000000	11.671902
2188.000000	11.754658
2187.000000	11.832900
2186.000000	11.902816
2185.000000	11.955379
2184.000000	12.024894
2183.000000	12.067526
2182.000000	12.095412
2181.000000	12.145467
2180.000000	12.180274
2179.000000	12.219997
2178.000000	12.233037
2177.000000	12.264635
2176.000000	12.305261
2175.000000	12.328433
2174.000000	12.354212
2173.000000	12.381396
2172.000000	12.413696
2171.000000	12.434360
2170.000000	12.495349
2169.000000	12.513505
2168.000000	12.546908
2167.000000	12.592951
2166.000000	12.604988
2165.000000	12.653037
2164.000000	12.679418
2163.000000	12.715931
2162.000000	12.757660
2161.000000	12.797985
2160.000000	12.848742
2159.000000	12.897192
2158.000000	12.941730
2157.000000	12.981051
2156.000000	13.034216
2155.000000	13.091292
2154.000000	13.153886
2153.000000	13.222699
2152.000000	13.265832
2151.000000	13.329027
2150.000000	13.384599
2149.000000	13.440873
2148.000000	13.501160
2147.000000	13.561647
2146.000000	13.614410
2145.000000	13.666271
2144.000000	13.724049
2143.000000	13.778317
2142.000000	13.837600
2141.000000	13.882941
2140.000000	13.928582
2139.000000	13.973822
2138.000000	14.020466
2137.000000	14.047851
2136.000000	14.064603
2135.000000	14.110344
2134.000000	14.148261
2133.000000	14.175746
2132.000000	14.208648
2131.000000	14.226403
2130.000000	14.245562
2129.000000	14.258302
2128.000000	14.283981
2127.000000	14.306451
2126.000000	14.312369
2125.000000	14.303341
2124.000000	14.298927
2123.000000	14.302940
2122.000000	14.302238
2121.000000	14.276558
2120.000000	14.280872
2119.000000	14.285386
2118.000000	14.260107
2117.000000	14.243656
2116.000000	14.240447
2115.000000	14.225099
2114.000000	14.195407
2113.000000	14.184273
2112.000000	14.169126
2111.000000	14.135622
2110.000000	14.102921
2109.000000	14.081756
2108.000000	14.064101
2107.000000	14.043136
2106.000000	14.011639
2105.000000	13.998598
2104.000000	13.991476
2103.000000	13.952656
2102.000000	13.917347
2101.000000	13.888458
2100.000000	13.865988
2099.000000	13.864785
2098.000000	13.842917
2097.000000	13.815131
2096.000000	13.797978
2095.000000	13.783132
2094.000000	13.770794
2093.000000	13.763471
2092.000000	13.759760
2091.000000	13.744713
2090.000000	13.719636
2089.000000	13.700677
2088.000000	13.695661
2087.000000	13.684126
2086.000000	13.669480
2085.000000	13.653030
2084.000000	13.639989
2083.000000	13.611000
2082.000000	13.592944
2081.000000	13.595552
2080.000000	13.574085
2079.000000	13.541786
2078.000000	13.518915
2077.000000	13.487919
2076.000000	13.459431
2075.000000	13.427432
2074.000000	13.391420
2073.000000	13.357616
2072.000000	13.324714
2071.000000	13.299135
2070.000000	13.268942
2069.000000	13.217282
2068.000000	13.182173
2067.000000	13.158701
2066.000000	13.115467
2065.000000	13.093098
2064.000000	13.066816
2063.000000	13.045852
2062.000000	13.024586
2061.000000	13.003019
2060.000000	12.997703
2059.000000	12.997402
2058.000000	12.986267
2057.000000	13.012849
2056.000000	13.041739
2055.000000	13.060397
2054.000000	13.101423
2053.000000	13.173847
2052.000000	13.246472
2051.000000	13.316890
2050.000000	13.407771
2049.000000	13.493837
2048.000000	13.609194
2047.000000	13.739698
2046.000000	13.858264
2045.000000	14.008930
2044.000000	14.148161
2043.000000	14.281574
2042.000000	14.423513
2041.000000	14.564148
2040.000000	14.699667
2039.000000	14.849932
2038.000000	14.963583
2037.000000	15.097497
2036.000000	15.238333
2035.000000	15.350981
2034.000000	15.457812
2033.000000	15.574874
2032.000000	15.687221
2031.000000	15.792648
2030.000000	15.895666
2029.000000	15.995475
2028.000000	16.090569
2027.000000	16.173325
2026.000000	16.251366
2025.000000	16.300017
2024.000000	16.388491
2023.000000	16.464626
2022.000000	16.550793
2021.000000	16.614389
2020.000000	16.685509
2019.000000	16.747702
2018.000000	16.824539
2017.000000	16.887434
2016.000000	16.914718
2015.000000	16.967481
2014.000000	17.017637
2013.000000	17.051742
2012.000000	17.100794
2011.000000	17.134699
2010.000000	17.151952
2009.000000	17.187863
2008.000000	17.192778
2007.000000	17.197493
2006.000000	17.197693
2005.000000	17.209530
2004.000000	17.219360
2003.000000	17.215448
2002.000000	17.208627
2001.000000	17.184252
2000.000000	17.154560
1999.000000	17.138711
1998.000000	17.108116
1997.000000	17.090963
1996.000000	17.049936
1995.000000	17.048031
1994.000000	16.992459
1993.000000	16.930467
1992.000000	16.899270
1991.000000	16.873691
1990.000000	16.793844
1989.000000	16.741482
1988.000000	16.686011
1987.000000	16.633649
1986.000000	16.548485
1985.000000	16.511672
1984.000000	16.436639
1983.000000	16.383174
1982.000000	16.333119
1981.000000	16.242740
1980.000000	16.191281
1979.000000	16.119559
1978.000000	16.052953
1977.000000	15.990058
1976.000000	15.913220
1975.000000	15.869084
1974.000000	15.797462
1973.000000	15.724637
1972.000000	15.651411
1971.000000	15.591525
1970.000000	15.543978
1969.000000	15.484595
1968.000000	15.421399
1967.000000	15.351383
1966.000000	15.318280
1965.000000	15.254082
1964.000000	15.181658
1963.000000	15.130600
1962.000000	15.073824
1961.000000	15.012735
1960.000000	14.942418
1959.000000	14.884037
1958.000000	14.815024
1957.000000	14.778009
1956.000000	14.695053
1955.000000	14.665160
1954.000000	14.576586
1953.000000	14.525227
1952.000000	14.461029
1951.000000	14.418898
1950.000000	14.370950
1949.000000	14.304846
1948.000000	14.282477
1947.000000	14.230616
1946.000000	14.190191
1945.000000	14.160499
1944.000000	14.120375
1943.000000	14.094395
1942.000000	14.085768
1941.000000	14.073430
1940.000000	14.080351
1939.000000	14.062897
1938.000000	14.061092
1937.000000	14.075938
1936.000000	14.078746
1935.000000	14.101116
1934.000000	14.137027
1933.000000	14.192799
1932.000000	14.240848
1931.000000	14.298727
1930.000000	14.371151
1929.000000	14.439362
1928.000000	14.525328
1927.000000	14.607281
1926.000000	14.701472
1925.000000	14.818033
1924.000000	14.939208
1923.000000	15.043932
1922.000000	15.181557
1921.000000	15.345765
1920.000000	15.473561
1919.000000	15.619211
1918.000000	15.801675
1917.000000	15.970297
1916.000000	16.144837
1915.000000	16.323891
1914.000000	16.532035
1913.000000	16.745796
1912.000000	16.967281
1911.000000	17.177330
1910.000000	17.383869
1909.000000	17.588703
1908.000000	17.823730
1907.000000	18.064876
1906.000000	18.357180
1905.000000	18.620093
1904.000000	18.885614
1903.000000	19.155850
1902.000000	19.412243
1901.000000	19.691407
1900.000000	19.988425
1899.000000	20.281833
1898.000000	20.550765
1897.000000	20.854705
1896.000000	21.126847
1895.000000	21.393772
1894.000000	21.688383
1893.000000	22.007370
1892.000000	22.323046
1891.000000	22.637519
1890.000000	22.927817
1889.000000	23.218215
1888.000000	23.557364
1887.000000	23.902030
1886.000000	24.259737
1885.000000	24.667197
1884.000000	25.128725
1883.000000	25.577111
1882.000000	26.031116
1881.000000	26.506185
1880.000000	26.951763
1879.000000	27.399749
1878.000000	27.833190
1877.000000	28.222594
1876.000000	28.616011
1875.000000	28.982745
1874.000000	29.300127
1873.000000	29.579190
1872.000000	29.841000
1871.000000	30.061382
1870.000000	30.217665
1869.000000	30.374249
1868.000000	30.526621
1867.000000	30.617702
1866.000000	30.688622
1865.000000	30.776594
1864.000000	30.847312
1863.000000	30.938795
1862.000000	31.017539
1861.000000	31.071606
1860.000000	31.116144
1859.000000	31.121160
1858.000000	31.107016
1857.000000	31.107016
1856.000000	31.110226
1855.000000	31.093173
1854.000000	31.026868
1853.000000	30.952137
1852.000000	30.912815
1851.000000	30.906295
1850.000000	30.900276
1849.000000	30.862660
1848.000000	30.771679
1847.000000	30.654316
1846.000000	30.552200
1845.000000	30.498132
1844.000000	30.491111
1843.000000	30.504552
1842.000000	30.484791
1841.000000	30.415276
1840.000000	30.344658
1839.000000	30.295606
1838.000000	30.248561
1837.000000	30.175234
1836.000000	30.074221
1835.000000	29.966287
1834.000000	29.889751
1833.000000	29.824449
1832.000000	29.757040
1831.000000	29.679500
1830.000000	29.594638
1829.000000	29.507067
1828.000000	29.405252
1827.000000	29.327110
1826.000000	29.239439
1825.000000	29.171830
1824.000000	29.160194
1823.000000	29.190087
1822.000000	29.194901
1821.000000	29.146050
1820.000000	29.079043
1819.000000	29.023371
1818.000000	29.015145
1817.000000	29.028788
1816.000000	29.026982
1815.000000	29.003610
1814.000000	29.002406
1813.000000	28.998594
1812.000000	28.963385
1811.000000	28.920152
1810.000000	28.881633
1809.000000	28.843515
1808.000000	28.801485
1807.000000	28.757649
1806.000000	28.716121
1805.000000	28.659847
1804.000000	28.607284
1803.000000	28.569166
1802.000000	28.537067
1801.000000	28.477382
1800.000000	28.407867
1799.000000	28.345976
1798.000000	28.294517
1797.000000	28.250681
1796.000000	28.212162
1795.000000	28.152076
1794.000000	28.101219
1793.000000	28.037823
1792.000000	27.985561
1791.000000	27.928284
1790.000000	27.859270
1789.000000	27.797981
1788.000000	27.729870
1787.000000	27.678812
1786.000000	27.611303
1785.000000	27.521124
1784.000000	27.433955
1783.000000	27.352703
1782.000000	27.267440
1781.000000	27.171543
1780.000000	27.084975
1779.000000	26.983562
1778.000000	26.866399
1777.000000	26.740610
1776.000000	26.625855
1775.000000	26.487527
1774.000000	26.330442
1773.000000	26.189305
1772.000000	26.041648
1771.000000	25.902317
1770.000000	25.740316
1769.000000	25.611317
1768.000000	25.483823
1767.000000	25.353018
1766.000000	25.266350
1765.000000	25.186704
1764.000000	25.148084
1763.000000	25.123910
1762.000000	25.137452
1761.000000	25.174968
1760.000000	25.222615
1759.000000	25.291829
1758.000000	25.334260
1757.000000	25.395550
1756.000000	25.430358
1755.000000	25.454031
1754.000000	25.452125
1753.000000	25.432263
1752.000000	25.398760
1751.000000	25.343589
1750.000000	25.280494
1749.000000	25.187406
1748.000000	25.101340
1747.000000	24.960404
1746.000000	24.829298
1745.000000	24.672112
1744.000000	24.481422
1743.000000	24.268163
1742.000000	24.025713
1741.000000	23.781457
1740.000000	23.519748
1739.000000	23.292846
1738.000000	23.058220
1737.000000	22.872245
1736.000000	22.753979
1735.000000	22.651563
1734.000000	22.618360
1733.000000	22.623074
1732.000000	22.684364
1731.000000	22.747359
1730.000000	22.860509
1729.000000	22.950086
1728.000000	23.069054
1727.000000	23.158832
1726.000000	23.242089
1725.000000	23.306789
1724.000000	23.346211
1723.000000	23.373596
1722.000000	23.396065
1721.000000	23.420742
1720.000000	23.467085
1719.000000	23.509617
1718.000000	23.569502
1717.000000	23.662088
1716.000000	23.749759
1715.000000	23.827299
1714.000000	23.910055
1713.000000	23.991507
1712.000000	24.046477
1711.000000	24.096131
1710.000000	24.118199
1709.000000	24.117396
1708.000000	24.108369
1707.000000	24.087203
1706.000000	24.038452
1705.000000	24.010767
1704.000000	23.942556
1703.000000	23.868226
1702.000000	23.729597
1701.000000	23.581439
1700.000000	23.411313
1699.000000	23.266966
1698.000000	23.112789
1697.000000	23.013582
1696.000000	22.958211
1695.000000	22.965032
1694.000000	23.028428
1693.000000	23.187219
1692.000000	23.320833
1691.000000	23.482232
1690.000000	23.614140
1689.000000	23.720770
1688.000000	23.768317
1687.000000	23.793595
1686.000000	23.798911
1685.000000	23.875749
1684.000000	24.040358
1683.000000	24.301265
1682.000000	24.695284
1681.000000	25.211982
1680.000000	25.808126
1679.000000	26.378891
1678.000000	26.958384
1677.000000	27.495646
1676.000000	27.979944
1675.000000	28.376069
1674.000000	28.737286
1673.000000	29.050154
1672.000000	29.338445
1671.000000	29.565749
1670.000000	29.774394
1669.000000	29.970500
1668.000000	30.154971
1667.000000	30.314765
1666.000000	30.456704
1665.000000	30.552802
1664.000000	30.659833
1663.000000	30.750714
1662.000000	30.840391
1661.000000	30.908101
1660.000000	30.970493
1659.000000	31.010116
1658.000000	31.056259
1657.000000	31.077926
1656.000000	31.094979
1655.000000	31.108520
1654.000000	31.108621
1653.000000	31.102602
1652.000000	31.079330
1651.000000	31.056660
1650.000000	31.044623
1649.000000	30.985941
1648.000000	30.951535
1647.000000	30.907800
1646.000000	30.848416
1645.000000	30.791640
1644.000000	30.744093
1643.000000	30.687217
1642.000000	30.617502
1641.000000	30.556513
1640.000000	30.499136
1639.000000	30.429520
1638.000000	30.368030
1637.000000	30.286879
1636.000000	30.219270
1635.000000	30.147548
1634.000000	30.062585
1633.000000	29.977622
1632.000000	29.899581
1631.000000	29.817126
1630.000000	29.729656
1629.000000	29.625734
1628.000000	29.545386
1627.000000	29.458116
1626.000000	29.360614
1625.000000	29.264818
1624.000000	29.188783
1623.000000	29.105826
1622.000000	29.011735
1621.000000	28.934998
1620.000000	28.852843
1619.000000	28.764771
1618.000000	28.682416
1617.000000	28.599460
1616.000000	28.525431
1615.000000	28.447791
1614.000000	28.366840
1613.000000	28.284486
1612.000000	28.209052
1611.000000	28.134722
1610.000000	28.070524
1609.000000	27.984056
1608.000000	27.899695
1607.000000	27.831183
1606.000000	27.751738
1605.000000	27.677909
1604.000000	27.598664
1603.000000	27.514404
1602.000000	27.444989
1601.000000	27.360427
1600.000000	27.282486
1599.000000	27.216181
1598.000000	27.164822
1597.000000	27.092298
1596.000000	27.024990
1595.000000	26.959387
1594.000000	26.911138
1593.000000	26.862287
1592.000000	26.820357
1591.000000	26.760271
1590.000000	26.713727
1589.000000	26.667283
1588.000000	26.618432
1587.000000	26.587136
1586.000000	26.571086
1585.000000	26.545306
1584.000000	26.512003
1583.000000	26.474286
1582.000000	26.441385
1581.000000	26.435767
1580.000000	26.425235
1579.000000	26.405574
1578.000000	26.405975
1577.000000	26.412596
1576.000000	26.426238
1575.000000	26.438476
1574.000000	26.444896
1573.000000	26.462751
1572.000000	26.486223
1571.000000	26.508693
1570.000000	26.544102
1569.000000	26.574496
1568.000000	26.613016
1567.000000	26.659158
1566.000000	26.687546
1565.000000	26.723357
1564.000000	26.772609
1563.000000	26.804006
1562.000000	26.829084
1561.000000	26.860080
1560.000000	26.885157
1559.000000	26.894185
1558.000000	26.901909
1557.000000	26.909031
1556.000000	26.913144
1555.000000	26.910435
1554.000000	26.914749
1553.000000	26.913645
1552.000000	26.893985
1551.000000	26.881245
1550.000000	26.866801
1549.000000	26.848544
1548.000000	26.822162
1547.000000	26.807617
1546.000000	26.790364
1545.000000	26.782339
1544.000000	26.773211
1543.000000	26.758365
1542.000000	26.757262
1541.000000	26.756560
1540.000000	26.754252
1539.000000	26.760472
1538.000000	26.751745
1537.000000	26.751042
1536.000000	26.739206
1535.000000	26.733789
1534.000000	26.741513
1533.000000	26.728573
1532.000000	26.709012
1531.000000	26.697477
1530.000000	26.672098
1529.000000	26.657152
1528.000000	26.630971
1527.000000	26.601781
1526.000000	26.574095
1525.000000	26.543300
1524.000000	26.518323
1523.000000	26.499565
1522.000000	26.460042
1521.000000	26.439880
1520.000000	26.406376
1519.000000	26.365350
1518.000000	26.340774
1517.000000	26.311684
1516.000000	26.283095
1515.000000	26.255209
1514.000000	26.212276
1513.000000	26.193117
1512.000000	26.161118
1511.000000	26.127012
1510.000000	26.076456
1509.000000	26.050877
1508.000000	26.000521
1507.000000	25.974340
1506.000000	25.955783
1505.000000	25.927395
1504.000000	25.879748
1503.000000	25.852664
1502.000000	25.811135
1501.000000	25.800603
1500.000000	25.785757
1499.000000	25.776629
1498.000000	25.744830
1497.000000	25.746235
1496.000000	25.727978
1495.000000	25.743426
1494.000000	25.733395
1493.000000	25.733295
1492.000000	25.747840
1491.000000	25.750046
1490.000000	25.768002
1489.000000	25.789769
1488.000000	25.792979
1487.000000	25.806822
1486.000000	25.814947
1485.000000	25.829893
1484.000000	25.844940
1483.000000	25.882957
1482.000000	25.916260
1481.000000	25.936523
1480.000000	25.982164
1479.000000	26.002628
1478.000000	26.054990
1477.000000	26.101233
1476.000000	26.137244
1475.000000	26.185794
1474.000000	26.227523
1473.000000	26.309075
1472.000000	26.359933
1471.000000	26.409185
1470.000000	26.467666
1469.000000	26.494148
1468.000000	26.546610
1467.000000	26.612815
1466.000000	26.670594
1465.000000	26.710216
1464.000000	26.786151
1463.000000	26.856469
1462.000000	26.945343
1461.000000	26.999511
1460.000000	27.084775
1459.000000	27.195317
1458.000000	27.279477
1457.000000	27.373267
1456.000000	27.473979
1455.000000	27.562954
1454.000000	27.670085
1453.000000	27.784940
1452.000000	27.923669
1451.000000	28.033309
1450.000000	28.127199
1449.000000	28.211159
1448.000000	28.352997
1447.000000	28.500754
1446.000000	28.643295
1445.000000	28.734277
1444.000000	28.838198
1443.000000	28.983147
1442.000000	29.109437
1441.000000	29.221985
1440.000000	29.360915
1439.000000	29.497538
1438.000000	29.623026
1437.000000	29.730659
1436.000000	29.844410
1435.000000	29.991465
1434.000000	30.119963
1433.000000	30.265112
1432.000000	30.377158
1431.000000	30.529128
1430.000000	30.660936
1429.000000	30.822736
1428.000000	31.009815
1427.000000	31.193584
1426.000000	31.390493
1425.000000	31.599940
1424.000000	31.827845
1423.000000	32.007902
1422.000000	32.200799
1421.000000	32.455386
1420.000000	32.685297
1419.000000	32.891034
1418.000000	33.074602
1417.000000	33.231186
1416.000000	33.486375
1415.000000	33.764536
1414.000000	33.918010
1413.000000	34.081115
1412.000000	34.236495
1411.000000	34.509741
1410.000000	34.802245
1409.000000	35.076494
1408.000000	35.380634
1407.000000	35.674844
1406.000000	35.990521
1405.000000	36.279414
1404.000000	36.533300
1403.000000	36.835735
1402.000000	37.156327
1401.000000	37.507513
1400.000000	37.623070
1399.000000	37.705826
1398.000000	37.816970
1397.000000	37.988400
1396.000000	38.095431
1395.000000	38.054906
1394.000000	38.033139
1393.000000	38.050693
1392.000000	38.048386
1391.000000	38.036449
1390.000000	38.096735
1389.000000	38.209986
1388.000000	38.325643
1387.000000	38.457150
1386.000000	38.680742
1385.000000	39.000631
1384.000000	39.395151
1383.000000	39.711530
1382.000000	40.070942
1381.000000	40.420523
1380.000000	40.741716
1379.000000	41.092501
1378.000000	41.484313
1377.000000	41.973025
1376.000000	42.493836
1375.000000	43.064300
1374.000000	43.706888
1373.000000	44.352786
1372.000000	44.984941
1371.000000	45.560622
1370.000000	46.014826
1369.000000	46.432217
1368.000000	46.802262
1367.000000	47.093864
1366.000000	47.350759
1365.000000	47.580870
1364.000000	47.790719
1363.000000	48.007791
1362.000000	48.206505
1361.000000	48.278729
1360.000000	48.281337
1359.000000	48.428291
1358.000000	48.557190
1357.000000	48.755403
1356.000000	49.086026
1355.000000	49.509135
1354.000000	49.964543
1353.000000	50.443525
1352.000000	51.021312
1351.000000	51.542123
1350.000000	52.031336
1349.000000	52.475510
1348.000000	52.907947
1347.000000	53.300461
1346.000000	53.652550
1345.000000	54.003636
1344.000000	54.345594
1343.000000	54.641710
1342.000000	54.939832
1341.000000	55.240362
1340.000000	55.512704
1339.000000	55.753749
1338.000000	55.999510
1337.000000	56.244668
1336.000000	56.485513
1335.000000	56.701080
1334.000000	56.908120
1333.000000	57.101217
1332.000000	57.293813
1331.000000	57.478183
1330.000000	57.639382
1329.000000	57.800982
1328.000000	57.946532
1327.000000	58.080546
1326.000000	58.215965
1325.000000	58.345466
1324.000000	58.462026
1323.000000	58.579891
1322.000000	58.675587
1321.000000	58.762456
1320.000000	58.872496
1319.000000	58.960869
1318.000000	59.038108
1317.000000	59.112137
1316.000000	59.192987
1315.000000	59.271731
1314.000000	59.340343
1313.000000	59.407952
1312.000000	59.458910
1311.000000	59.529027
1310.000000	59.591119
1309.000000	59.629638
1308.000000	59.671367
1307.000000	59.706476
1306.000000	59.723929
1305.000000	59.748907
1304.000000	59.771878
1303.000000	59.770975
1302.000000	59.772781
1301.000000	59.773382
1300.000000	59.773382
1299.000000	59.772881
1298.000000	59.758537
1297.000000	59.740079
1296.000000	59.723428
1295.000000	59.717309
1294.000000	59.693535
1293.000000	59.661035
1292.000000	59.632146
1291.000000	59.599645
1290.000000	59.562631
1289.000000	59.506958
1288.000000	59.447575
1287.000000	59.381370
1286.000000	59.314965
1285.000000	59.250164
1284.000000	59.183157
1283.000000	59.101605
1282.000000	59.021055
1281.000000	58.950738
1280.000000	58.891555
1279.000000	58.824849
1278.000000	58.752425
1277.000000	58.687123
1276.000000	58.634259
1275.000000	58.587615
1274.000000	58.547390
1273.000000	58.508470
1272.000000	58.466039
1271.000000	58.437952
1270.000000	58.402542
1269.000000	58.346469
1268.000000	58.292502
1267.000000	58.246660
1266.000000	58.203326
1265.000000	58.147654
1264.000000	58.088270
1263.000000	58.040824
1262.000000	57.979534
1261.000000	57.925768
1260.000000	57.873305
1259.000000	57.802185
1258.000000	57.745209
1257.000000	57.687731
1256.000000	57.596650
1255.000000	57.522219
1254.000000	57.461732
1253.000000	57.387202
1252.000000	57.299832
1251.000000	57.218179
1250.000000	57.126796
1249.000000	57.012142
1248.000000	56.906515
1247.000000	56.794569
1246.000000	56.684729
1245.000000	56.576294
1244.000000	56.457526
1243.000000	56.330233
1242.000000	56.199629
1241.000000	56.079256
1240.000000	55.945743
1239.000000	55.828882
1238.000000	55.697977
1237.000000	55.578307
1236.000000	55.443289
1235.000000	55.299946
1234.000000	55.160113
1233.000000	55.019278
1232.000000	54.865903
1231.000000	54.708517
1230.000000	54.544208
1229.000000	54.381605
1228.000000	54.228131
1227.000000	54.055296
1226.000000	53.894398
1225.000000	53.709727
1224.000000	53.558760
1223.000000	53.400170
1222.000000	53.232150
1221.000000	53.064833
1220.000000	52.927107
1219.000000	52.783563
1218.000000	52.644833
1217.000000	52.504499
1216.000000	52.377908
1215.000000	52.264958
1214.000000	52.144486
1213.000000	52.013280
1212.000000	51.905246
1211.000000	51.765413
1210.000000	51.669617
1209.000000	51.571012
1208.000000	51.471003
1207.000000	51.368987
1206.000000	51.315823
1205.000000	51.223738
1204.000000	51.208491
1203.000000	51.164856
1202.000000	51.118914
1201.000000	51.075881
1200.000000	51.001751
1199.000000	50.889604
1198.000000	50.770937
1197.000000	50.604021
1196.000000	50.404203
1195.000000	50.119823
1194.000000	49.804950
1193.000000	49.400499
1192.000000	48.992035
1191.000000	48.537028
1190.000000	48.138395
1189.000000	47.792625
1188.000000	47.550276
1187.000000	47.419471
1186.000000	47.420875
1185.000000	47.554489
1184.000000	47.810781
1183.000000	48.143812
1182.000000	48.585277
1181.000000	49.063456
1180.000000	49.555378
1179.000000	49.997244
1178.000000	50.388053
1177.000000	50.743553
1176.000000	51.058126
1175.000000	51.326456
1174.000000	51.632502
1173.000000	51.930022
1172.000000	52.243492
1171.000000	52.552949
1170.000000	52.903734
1169.000000	53.232250
1168.000000	53.570998
1167.000000	53.904028
1166.000000	54.246187
1165.000000	54.619943
1164.000000	54.971530
1163.000000	55.293727
1162.000000	55.621541
1161.000000	55.972727
1160.000000	56.299136
1159.000000	56.603779
1158.000000	56.886955
1157.000000	57.125894
1156.000000	57.362124
1155.000000	57.524727
1154.000000	57.653626
1153.000000	57.705687
1152.000000	57.717423
1151.000000	57.723442
1150.000000	57.720031
1149.000000	57.732971
1148.000000	57.748219
1147.000000	57.807101
1146.000000	57.892063
1145.000000	58.065901
1144.000000	58.284878
1143.000000	58.559528
1142.000000	58.827657
1141.000000	59.144437
1140.000000	59.417281
1139.000000	59.720519
1138.000000	60.053348
1137.000000	60.424496
1136.000000	60.739772
1135.000000	61.068990
1134.000000	61.346247
1133.000000	61.576760
1132.000000	61.838971
1131.000000	62.082826
1130.000000	62.298493
1129.000000	62.464707
1128.000000	62.624000
1127.000000	62.713577
1126.000000	62.809874
1125.000000	62.881998
1124.000000	62.949506
1123.000000	62.999260
1122.000000	63.022633
1121.000000	63.057541
1120.000000	63.085928
1119.000000	63.099169
1118.000000	63.108197
1117.000000	63.097966
1116.000000	63.087634
1115.000000	63.072888
1114.000000	63.052625
1113.000000	63.051020
1112.000000	63.022031
1111.000000	63.002370
1110.000000	62.988627
1109.000000	62.968264
1108.000000	62.947099
1107.000000	62.920015
1106.000000	62.905069
1105.000000	62.878386
1104.000000	62.852406
1103.000000	62.814088
1102.000000	62.783694
1101.000000	62.755005
1100.000000	62.715683
1099.000000	62.693113
1098.000000	62.652989
1097.000000	62.606245
1096.000000	62.576753
1095.000000	62.521482
1094.000000	62.478449
1093.000000	62.418965
1092.000000	62.364898
1091.000000	62.317652
1090.000000	62.248237
1089.000000	62.184340
1088.000000	62.118035
1087.000000	62.046614
1086.000000	61.980309
1085.000000	61.922731
1084.000000	61.855623
1083.000000	61.784302
1082.000000	61.722712
1081.000000	61.657510
1080.000000	61.602139
1079.000000	61.528311
1078.000000	61.472337
1077.000000	61.405932
1076.000000	61.353570
1075.000000	61.274726
1074.000000	61.202603
1073.000000	61.149539
1072.000000	61.091760
1071.000000	61.031173
1070.000000	60.955037
1069.000000	60.900067
1068.000000	60.852019
1067.000000	60.780297
1066.000000	60.715898
1065.000000	60.658621
1064.000000	60.597331
1063.000000	60.548480
1062.000000	60.486288
1061.000000	60.419381
1060.000000	60.358593
1059.000000	60.313453
1058.000000	60.263799
1057.000000	60.206823
1056.000000	60.144530
1055.000000	60.101096
1054.000000	60.051643
1053.000000	60.009212
1052.000000	59.968687
1051.000000	59.921240
1050.000000	59.886031
1049.000000	59.846208
1048.000000	59.805983
1047.000000	59.767665
1046.000000	59.731252
1045.000000	59.703767
1044.000000	59.675379
1043.000000	59.623519
1042.000000	59.590517
1041.000000	59.571358
1040.000000	59.535346
1039.000000	59.488903
1038.000000	59.461117
1037.000000	59.419588
1036.000000	59.358700
1035.000000	59.314463
1034.000000	59.281461
1033.000000	59.232510
1032.000000	59.188172
1031.000000	59.140525
1030.000000	59.086458
1029.000000	59.030284
1028.000000	58.983238
1027.000000	58.938199
1026.000000	58.886640
1025.000000	58.836886
1024.000000	58.772487
1023.000000	58.707987
1022.000000	58.667562
1021.000000	58.614699
1020.000000	58.569057
1019.000000	58.518702
1018.000000	58.475267
1017.000000	58.445375
1016.000000	58.420598
1015.000000	58.399633
1014.000000	58.394016
1013.000000	58.391107
1012.000000	58.385791
1011.000000	58.382079
1010.000000	58.406354
1009.000000	58.428623
1008.000000	58.440961
1007.000000	58.466841
1006.000000	58.482189
1005.000000	58.509975
1004.000000	58.527629
1003.000000	58.541171
1002.000000	58.562136
1001.000000	58.568255
1000.000000	58.591326
999.000000	58.624629
998.000000	58.640177
997.000000	58.664452
996.000000	58.690633
995.000000	58.713003
994.000000	58.767571
993.000000	58.796260
992.000000	58.827858
991.000000	58.876809
990.000000	58.931679
989.000000	58.977220
988.000000	58.993771
987.000000	59.035901
986.000000	59.100802
985.000000	59.125679
984.000000	59.173026
983.000000	59.229901
982.000000	59.274239
981.000000	59.313661
980.000000	59.381470
979.000000	59.420190
978.000000	59.479774
977.000000	59.520099
976.000000	59.577477
975.000000	59.619406
974.000000	59.690326
973.000000	59.730550
972.000000	59.794548
971.000000	59.846208
970.000000	59.889943
969.000000	59.948324
968.000000	59.992861
967.000000	60.031581
966.000000	60.075216
965.000000	60.116644
964.000000	60.168103
963.000000	60.229995
962.000000	60.268815
961.000000	60.310243
960.000000	60.331810
959.000000	60.386479
958.000000	60.442452
957.000000	60.446765
956.000000	60.471743
955.000000	60.509760
954.000000	60.514876
953.000000	60.513472
952.000000	60.523101
951.000000	60.536443
950.000000	60.530424
949.000000	60.541759
948.000000	60.516581
947.000000	60.516682
946.000000	60.528318
945.000000	60.542361
944.000000	60.529622
943.000000	60.533634
942.000000	60.570548
941.000000	60.574059
940.000000	60.606760
939.000000	60.656514
938.000000	60.665542
937.000000	60.700951
936.000000	60.756323
935.000000	60.795644
934.000000	60.848708
933.000000	60.919628
932.000000	60.937884
931.000000	60.989745
930.000000	61.062771
929.000000	61.093265
928.000000	61.140812
927.000000	61.217148
926.000000	61.253460
925.000000	61.315552
924.000000	61.364905
923.000000	61.397205
922.000000	61.462306
921.000000	61.544761
920.000000	61.583180
919.000000	61.605549
918.000000	61.668344
917.000000	61.707465
916.000000	61.730034
915.000000	61.738260
914.000000	61.765043
913.000000	61.791926
912.000000	61.809280
911.000000	61.803562
910.000000	61.871572
909.000000	61.854720
908.000000	61.875886
907.000000	61.891735
906.000000	61.910392
905.000000	61.939181
904.000000	61.933363
903.000000	61.966566
902.000000	61.995054
901.000000	62.013712
900.000000	62.032069
899.000000	62.048219
898.000000	62.067077
897.000000	62.094863
896.000000	62.107602
895.000000	62.121746
894.000000	62.114624
893.000000	62.112919
892.000000	62.115727
891.000000	62.138498
890.000000	62.154146
889.000000	62.180227
888.000000	62.210922
887.000000	62.202797
886.000000	62.230181
885.000000	62.250645
884.000000	62.294781
883.000000	62.316047
882.000000	62.373725
881.000000	62.410840
880.000000	62.468820
879.000000	62.516266
878.000000	62.582973
877.000000	62.646971
876.000000	62.691308
875.000000	62.764835
874.000000	62.811479
873.000000	62.886110
872.000000	62.943688
871.000000	63.009191
870.000000	63.067371
869.000000	63.136184
868.000000	63.187141
867.000000	63.221748
866.000000	63.244218
865.000000	63.253446
864.000000	63.239503
863.000000	63.213222
862.000000	63.126654
861.000000	63.083822
860.000000	63.078104
859.000000	63.116924
858.000000	63.184533
857.000000	63.175800
856.000000	63.381000
855.000000	62.996800
854.000000	62.928200
853.000000	62.798200
852.000000	63.082000
851.000000	63.519100
850.000000	63.109200
849.000000	63.157200
848.000000	63.162000
847.000000	63.396300
846.000000	63.334100
845.000000	63.083800
844.000000	63.229300
843.000000	63.489000
842.000000	63.571100
841.000000	63.458800
840.000000	63.359700
839.000000	63.478000
838.000000	63.671300
837.000000	63.754400
836.000000	63.706400
835.000000	63.847500
834.000000	64.286500
833.000000	64.498000
832.000000	64.686400
831.000000	64.933700
830.000000	64.910300
829.000000	65.158000
828.000000	65.447700
827.000000	65.807600
826.000000	66.056000
825.000000	66.381700
824.000000	66.655000
823.000000	66.951300
822.000000	67.103900
821.000000	67.349000
820.000000	67.603100
819.000000	67.904700
818.000000	68.136800
817.000000	68.610800
816.000000	68.778600
815.000000	68.979700
814.000000	69.280400
813.000000	69.385000
812.000000	69.625500
811.000000	69.839600
810.000000	69.947900
809.000000	70.159500
808.000000	70.444500
807.000000	70.669400
806.000000	70.886500
805.000000	71.014700
804.000000	71.204100
803.000000	71.264600
802.000000	71.350700
801.000000	71.411400
800.000000	71.607600
799.000000	71.773100
798.000000	71.744900
797.000000	71.800900
796.000000	71.942600
795.000000	72.024300
794.000000	72.057800
793.000000	72.114800
792.000000	72.211300
791.000000	72.166400
790.000000	72.112000
789.000000	72.102600
788.000000	72.151100
787.000000	72.210400
786.000000	72.281400
785.000000	72.266500
784.000000	72.310100
783.000000	72.358600
782.000000	72.329800
781.000000	72.315300
780.000000	72.377800
779.000000	72.524100
778.000000	72.609600
777.000000	72.605100
776.000000	72.516100
775.000000	72.673200
774.000000	72.829400
773.000000	72.832800
772.000000	72.827300
771.000000	72.943700
770.000000	73.079000
769.000000	73.116000
768.000000	73.104000
767.000000	73.124000
766.000000	73.147600
765.000000	73.195000
764.000000	73.280500
763.000000	73.364700
762.000000	73.336500
761.000000	73.285800
760.000000	73.318900
759.000000	73.295400
758.000000	73.242300
757.000000	73.207200
756.000000	73.149400
755.000000	73.208800
754.000000	73.211900
753.000000	73.096200
752.000000	72.953700
751.000000	72.943600
750.000000	72.959000
749.000000	72.867400
748.000000	72.782500
747.000000	72.703600
746.000000	72.626600
745.000000	72.519900
744.000000	72.424800
743.000000	72.328400
742.000000	72.259600
741.000000	72.130800
740.000000	71.928100
739.000000	71.824400
738.000000	71.734000
737.000000	71.535200
736.000000	71.365900
735.000000	71.262200
734.000000	71.126100
733.000000	70.981600
732.000000	70.804100
731.000000	70.583600
730.000000	70.362300
729.000000	70.125100
728.000000	69.847200
727.000000	69.622700
726.000000	69.398400
725.000000	69.134200
724.000000	68.824600
723.000000	68.490000
722.000000	68.090200
721.000000	67.750900
720.000000	67.484500
719.000000	67.136000
718.000000	66.777800
717.000000	66.394500
716.000000	66.028900
715.000000	65.670600
714.000000	65.367500
713.000000	64.994000
712.000000	64.660500
711.000000	64.343500
710.000000	64.052500
709.000000	63.812000
708.000000	63.526400
707.000000	63.219200
706.000000	62.997900
705.000000	62.817800
704.000000	62.652200
703.000000	62.519900
702.000000	62.370500
701.000000	62.251000
700.000000	62.131900
699.000000	62.025500
698.000000	61.930800
697.000000	61.834400
696.000000	61.777000
695.000000	61.750700
694.000000	61.699300
693.000000	61.616800
692.000000	61.595300
691.000000	61.577900
690.000000	61.447400
689.000000	61.410500
688.000000	61.340600
687.000000	61.307800
686.000000	61.288700
685.000000	61.253900
684.000000	61.191100
683.000000	61.145200
682.000000	61.065300
681.000000	60.985200
680.000000	60.869300
679.000000	60.738100
678.000000	60.608900
677.000000	60.443900
676.000000	60.239200
675.000000	60.109300
674.000000	59.929000
673.000000	59.707200
672.000000	59.488000
671.000000	59.232500
670.000000	58.961900
669.000000	58.675100
668.000000	58.356400
667.000000	58.070100
666.000000	57.783200
665.000000	57.360100
664.000000	56.984900
663.000000	56.559400
662.000000	56.074700
661.000000	55.524500
660.000000	55.022600
659.000000	54.496100
658.000000	53.950700
657.000000	53.340600
656.000000	52.766900
655.000000	52.170600
654.000000	51.572500
653.000000	50.983800
652.000000	50.426900
651.000000	49.892300
650.000000	49.374000
649.000000	48.901400
648.000000	48.506100
647.000000	48.197000
646.000000	47.906800
645.000000	47.714000
644.000000	47.621800
643.000000	47.590600
642.000000	47.668800
641.000000	47.870100
640.000000	48.151500
639.000000	48.570500
638.000000	49.069100
637.000000	49.664500
636.000000	50.339300
635.000000	51.150900
634.000000	52.000100
633.000000	52.987800
632.000000	53.971300
631.000000	55.018200
630.000000	56.108900
629.000000	57.132500
628.000000	58.157500
627.000000	59.138400
626.000000	60.092400
625.000000	60.961700
624.000000	61.874800
623.000000	62.700800
622.000000	63.468800
621.000000	64.211500
620.000000	64.898900
619.000000	65.573800
618.000000	66.229100
617.000000	66.839200
616.000000	67.421900
615.000000	68.013200
614.000000	68.551700
613.000000	69.071800
612.000000	69.576700
611.000000	70.049600
610.000000	70.502600
609.000000	70.871700
608.000000	71.328600
607.000000	71.710400
606.000000	72.033900
605.000000	72.372700
604.000000	72.673900
603.000000	72.975900
602.000000	73.262400
601.000000	73.415600
600.000000	73.676600
599.000000	73.830700
598.000000	74.032700
597.000000	74.120800
596.000000	74.222000
595.000000	74.312800
594.000000	74.395800
593.000000	74.478100
592.000000	74.544100
591.000000	74.537900
590.000000	74.535600
589.000000	74.581700
588.000000	74.586600
587.000000	74.605500
586.000000	74.563300
585.000000	74.560400
584.000000	74.487800
583.000000	74.487400
582.000000	74.357500
581.000000	74.311000
580.000000	74.238300
579.000000	74.100200
578.000000	74.005100
577.000000	73.868900
576.000000	73.705700
575.000000	73.538600
574.000000	73.363400
573.000000	73.206200
572.000000	72.998800
571.000000	72.812800
570.000000	72.561500
569.000000	72.360800
568.000000	72.140100
567.000000	71.915600
566.000000	71.642200
565.000000	71.406400
564.000000	71.121200
563.000000	70.845900
562.000000	70.535500
561.000000	70.192400
560.000000	69.859900
559.000000	69.364600
558.000000	68.997000
557.000000	68.642000
556.000000	68.219900
555.000000	67.796000
554.000000	67.338300
553.000000	66.871700
552.000000	66.358900
551.000000	65.808100
550.000000	65.264600
549.000000	64.666400
548.000000	64.040200
547.000000	63.413100
546.000000	62.753400
545.000000	62.034300
544.000000	61.306200
543.000000	60.524700
542.000000	59.702400
541.000000	58.872400
540.000000	58.023000
539.000000	57.137300
538.000000	56.203900
537.000000	55.268500
536.000000	54.305700
535.000000	53.276300
534.000000	52.205500
533.000000	51.156200
532.000000	50.063600
531.000000	48.948100
530.000000	47.808100
529.000000	46.645900
528.000000	45.505100
527.000000	44.375800
526.000000	43.217000
525.000000	42.091000
524.000000	40.959300
523.000000	39.847000
522.000000	38.763800
521.000000	37.733500
520.000000	36.730100
519.000000	35.791200
518.000000	34.917100
517.000000	34.101600
516.000000	33.310500
515.000000	32.602900
514.000000	31.954900
513.000000	31.358200
512.000000	30.846700
511.000000	30.411600
510.000000	30.047200
509.000000	29.748300
508.000000	29.501200
507.000000	29.315400
506.000000	29.190400
505.000000	29.104100
504.000000	29.054200
503.000000	29.039200
502.000000	29.051500
501.000000	29.088600
500.000000	29.122700
499.000000	29.164300
498.000000	29.196900
497.000000	29.259300
496.000000	29.289400
495.000000	29.300700
494.000000	29.265900
493.000000	29.220800
492.000000	29.155500
491.000000	29.036700
490.000000	28.882100
489.000000	28.718400
488.000000	28.483600
487.000000	28.227700
486.000000	27.940900
485.000000	27.610000
484.000000	27.260000
483.000000	26.864100
482.000000	26.460900
481.000000	26.045700
480.000000	25.588200
479.000000	25.127400
478.000000	24.667900
477.000000	24.204500
476.000000	23.759300
475.000000	23.333800
474.000000	22.912800
473.000000	22.545500
472.000000	22.225500
471.000000	21.951400
470.000000	21.729100
469.000000	21.540500
468.000000	21.402500
467.000000	21.312600
466.000000	21.293000
465.000000	21.310800
464.000000	21.348100
463.000000	21.449300
462.000000	21.575500
461.000000	21.713000
460.000000	21.898900
459.000000	22.081200
458.000000	22.260200
457.000000	22.447500
456.000000	22.634700
455.000000	22.799000
454.000000	22.944100
453.000000	23.082200
452.000000	23.223000
451.000000	23.329900
450.000000	23.422000
449.000000	23.486500
448.000000	23.529700
447.000000	23.554500
446.000000	23.566500
445.000000	23.544400
444.000000	23.505800
443.000000	23.466100
442.000000	23.382500
441.000000	23.264200
440.000000	23.148400
439.000000	23.033200
438.000000	22.911500
437.000000	22.763700
436.000000	22.574400
435.000000	22.383200
434.000000	22.199500
433.000000	21.996100
432.000000	21.776400
431.000000	21.534500
430.000000	21.273100
429.000000	21.020500
428.000000	20.754200
427.000000	20.463800
426.000000	20.151500
425.000000	19.839800
424.000000	19.528500
423.000000	19.181800
422.000000	18.828400
421.000000	18.483800
420.000000	18.116000
419.000000	17.708900
418.000000	17.304600
417.000000	16.917900
416.000000	16.506400
415.000000	16.073600
414.000000	15.635700
413.000000	15.218600
412.000000	14.776800
411.000000	14.322500
410.000000	13.881000
409.000000	13.456400
408.000000	13.040900
407.000000	12.600200
406.000000	12.181800
405.000000	11.772800
404.000000	11.366400
403.000000	10.986000
402.000000	10.628000
401.000000	10.257500
400.000000	9.917200
399.000000	9.599100
398.000000	9.286700
397.000000	9.016800
396.000000	8.745900
395.000000	8.479800
394.000000	8.233500
393.000000	8.010200
392.000000	7.820400
391.000000	7.624200
390.000000	7.454200
389.000000	7.293100
388.000000	7.136900
387.000000	7.012700
386.000000	6.887600
385.000000	6.770400
384.000000	6.657400
383.000000	6.545300
382.000000	6.473000
381.000000	6.406800
380.000000	6.319100
379.000000	6.246300
378.000000	6.185700
377.000000	6.126200
376.000000	5.982900
375.000000	5.914900
374.000000	5.973100
373.000000	5.918100
372.000000	5.819200
371.000000	5.757900
370.000000	5.768300
369.000000	5.820500
368.000000	5.801800
367.000000	5.742400
366.000000	5.755200
365.000000	5.762900
364.000000	5.727600
363.000000	5.737100
362.000000	5.641500
361.000000	5.709900
360.000000	5.739600
359.000000	5.584000
358.000000	5.683900
357.000000	5.580700
356.000000	5.534100
355.000000	5.550600
354.000000	5.541800
353.000000	5.472000
352.000000	5.524000
351.000000	5.423000
350.000000	5.428100
349.000000	5.459500
348.000000	5.440600
347.000000	5.394300
346.000000	5.378800
345.000000	5.434000
344.000000	5.454900
343.000000	5.381300
342.000000	5.287600
341.000000	5.310400
340.000000	5.335300
339.000000	5.326800
338.000000	5.404500
337.000000	5.337900
336.000000	5.409400
335.000000	5.444100
334.000000	5.326500
333.000000	5.246300
332.000000	5.231700
331.000000	5.340900
330.000000	5.280000
329.000000	5.287900
328.000000	5.431800
327.000000	5.229500
326.000000	5.409400
325.000000	5.612200
324.000000	5.660500
323.000000	5.424800
322.000000	5.546000
321.000000	5.645900
320.000000	5.310400
319.000000	5.412800
318.000000	5.408700
317.000000	5.517300
316.000000	5.304200
315.000000	5.302400
314.000000	5.269500
313.000000	5.294200
312.000000	5.340500
311.000000	5.369400
310.000000	5.340900
309.000000	5.367000
308.000000	5.332100
307.000000	5.327400
306.000000	5.388500
305.000000	5.425000
304.000000	5.417300
303.000000	5.370600
302.000000	5.335400
301.000000	5.382600
300.000000	5.386700
299.000000	5.386700
298.000000	5.398700
297.000000	5.384400
296.000000	5.374800
295.000000	5.439600
294.000000	5.419000
293.000000	5.393600
292.000000	5.425600
291.000000	5.440200
290.000000	5.439300
289.000000	5.454400
288.000000	5.518800
287.000000	5.494400
286.000000	5.521500
285.000000	5.486100
284.000000	5.511100
283.000000	5.497200
282.000000	5.516600
281.000000	5.521000
280.000000	5.521200
279.000000	5.537600
278.000000	5.530100
277.000000	5.538700
276.000000	5.556100
275.000000	5.534400
274.000000	5.528300
273.000000	5.557900
272.000000	5.577300
271.000000	5.586400
270.000000	5.602600
269.000000	5.546500
268.000000	5.635900
267.000000	5.635900
266.000000	5.625700
265.000000	5.631400
264.000000	5.660400
263.000000	5.659400
262.000000	5.692100
261.000000	5.726300
260.000000	5.761900
259.000000	5.776700
258.000000	5.769600
257.000000	5.736100
256.000000	5.800700
255.000000	5.811400
254.000000	5.772500
253.000000	5.814900
252.000000	5.781000
251.000000	5.822600
250.000000	5.811300
