PE UV       SUBTECH     SPECTRUM    ASCII       PEDS        4.00        
   -1
CICIMAUCR0100-2.Sample.ASC
24/04/18
16:04:25.00
24/04/18
16:04:25.00
Vinicio Soto Monge
C. cupreomarginata
250,000000
1
Lambda 1050
1050L1511233
PerkinElmer UV WinLab 6.3.2.0749 / 2.02.05 Lambda 900 UV/VIS/NIR, Aug  7 2015 09:38:08

0
0
3350/servo 860,8/2
0
0
UV/VIS
1
1
1
DoubleDePol,CommonBeamDepol,RBeamAtt,SBeamAtt,60mm sphere, WB InGaAs Detector
0
0
0
0
Program
Program
3350/servo 860,8/2
3350/0,2 860,8/0,2
3350/0,2 860,8/0,2
0
15.00
 
 
 
0
 
860,8
319,2
860,8
Front
100
on
S:100 R:100
0
0
0
0
 
0
 
 
 
0
 
 
0
0
0
0
0
 
 
 
 
0
0


0
0
#HDR
-1
-1
#GR
nm
%R
1.0
0.0
2500,000000
-1,000000
2251
8
65,493400
4,757100
#DATA
2482.000000	10.885872
2481.000000	10.888548
2480.000000	10.873110
2479.000000	10.914691
2478.000000	10.868581
2477.000000	10.903061
2476.000000	10.906869
2475.000000	10.876609
2474.000000	10.877330
2473.000000	10.958227
2472.000000	10.909236
2471.000000	10.930541
2470.000000	10.950508
2469.000000	10.956581
2468.000000	10.991060
2467.000000	11.004852
2466.000000	11.061151
2465.000000	11.068767
2464.000000	11.107981
2463.000000	11.182085
2462.000000	11.196597
2461.000000	11.246824
2460.000000	11.330603
2459.000000	11.362407
2458.000000	11.452567
2457.000000	11.542316
2456.000000	11.617141
2455.000000	11.694745
2454.000000	11.790155
2453.000000	11.873008
2452.000000	11.987356
2451.000000	12.064445
2450.000000	12.155532
2449.000000	12.274306
2448.000000	12.371671
2447.000000	12.478711
2446.000000	12.583487
2445.000000	12.671795
2444.000000	12.786348
2443.000000	12.877538
2442.000000	12.990857
2441.000000	13.091721
2440.000000	13.178485
2439.000000	13.279968
2438.000000	13.381141
2437.000000	13.469038
2436.000000	13.564344
2435.000000	13.648947
2434.000000	13.740034
2433.000000	13.812492
2432.000000	13.899359
2431.000000	13.977684
2430.000000	14.055391
2429.000000	14.118688
2428.000000	14.192381
2427.000000	14.274102
2426.000000	14.319491
2425.000000	14.383304
2424.000000	14.448248
2423.000000	14.491991
2422.000000	14.549525
2421.000000	14.609117
2420.000000	14.673547
2419.000000	14.722847
2418.000000	14.778632
2417.000000	14.820213
2416.000000	14.858294
2415.000000	14.891024
2414.000000	14.928385
2413.000000	14.964099
2412.000000	15.002078
2411.000000	15.031102
2410.000000	15.075874
2409.000000	15.121366
2408.000000	15.143185
2407.000000	15.177356
2406.000000	15.202984
2405.000000	15.226553
2404.000000	15.264017
2403.000000	15.290571
2402.000000	15.340283
2401.000000	15.371160
2400.000000	15.391024
2399.000000	15.424783
2398.000000	15.453807
2397.000000	15.478612
2396.000000	15.520810
2395.000000	15.539440
2394.000000	15.558583
2393.000000	15.578242
2392.000000	15.620440
2391.000000	15.644421
2390.000000	15.645656
2389.000000	15.657287
2388.000000	15.675092
2387.000000	15.689913
2386.000000	15.690839
2385.000000	15.691663
2384.000000	15.686311
2383.000000	15.685590
2382.000000	15.688163
2381.000000	15.677048
2380.000000	15.661712
2379.000000	15.651523
2378.000000	15.627645
2377.000000	15.589769
2376.000000	15.564450
2375.000000	15.547776
2374.000000	15.526677
2373.000000	15.482832
2372.000000	15.450926
2371.000000	15.424269
2370.000000	15.386187
2369.000000	15.348929
2368.000000	15.293968
2367.000000	15.230464
2366.000000	15.176533
2365.000000	15.119719
2364.000000	15.050143
2363.000000	14.997755
2362.000000	14.937854
2361.000000	14.854589
2360.000000	14.778426
2359.000000	14.713893
2358.000000	14.650184
2357.000000	14.593782
2356.000000	14.538306
2355.000000	14.498063
2354.000000	14.469553
2353.000000	14.437956
2352.000000	14.420871
2351.000000	14.423341
2350.000000	14.430031
2349.000000	14.442690
2348.000000	14.473259
2347.000000	14.511855
2346.000000	14.546231
2345.000000	14.596252
2344.000000	14.637421
2343.000000	14.681266
2342.000000	14.727685
2341.000000	14.750534
2340.000000	14.776676
2339.000000	14.806112
2338.000000	14.817125
2337.000000	14.827006
2336.000000	14.817640
2335.000000	14.789541
2334.000000	14.767928
2333.000000	14.756503
2332.000000	14.717084
2331.000000	14.677973
2330.000000	14.626717
2329.000000	14.579887
2328.000000	14.515354
2327.000000	14.440838
2326.000000	14.390508
2325.000000	14.313213
2324.000000	14.226037
2323.000000	14.126922
2322.000000	14.045201
2321.000000	13.931060
2320.000000	13.821343
2319.000000	13.720273
2318.000000	13.584003
2317.000000	13.428486
2316.000000	13.322372
2315.000000	13.194850
2314.000000	13.067946
2313.000000	12.949070
2312.000000	12.817328
2311.000000	12.680337
2310.000000	12.581840
2309.000000	12.504956
2308.000000	12.449378
2307.000000	12.398946
2306.000000	12.368069
2305.000000	12.364260
2304.000000	12.399872
2303.000000	12.425397
2302.000000	12.474285
2301.000000	12.541700
2300.000000	12.622392
2299.000000	12.712861
2298.000000	12.817122
2297.000000	12.932396
2296.000000	13.034187
2295.000000	13.124863
2294.000000	13.218111
2293.000000	13.303434
2292.000000	13.353146
2291.000000	13.407181
2290.000000	13.432809
2289.000000	13.476242
2288.000000	13.491269
2287.000000	13.469346
2286.000000	13.456275
2285.000000	13.458436
2284.000000	13.421487
2283.000000	13.389890
2282.000000	13.333797
2281.000000	13.297156
2280.000000	13.256810
2279.000000	13.189807
2278.000000	13.143389
2277.000000	13.099955
2276.000000	13.070313
2275.000000	13.021939
2274.000000	13.010927
2273.000000	12.970992
2272.000000	12.975933
2271.000000	12.995385
2270.000000	13.021219
2269.000000	13.056007
2268.000000	13.127127
2267.000000	13.229947
2266.000000	13.329680
2265.000000	13.467597
2264.000000	13.617247
2263.000000	13.801685
2262.000000	14.022455
2261.000000	14.256194
2260.000000	14.493020
2259.000000	14.752695
2258.000000	15.057245
2257.000000	15.296335
2256.000000	15.575874
2255.000000	15.883512
2254.000000	16.168917
2253.000000	16.449280
2252.000000	16.713484
2251.000000	16.973982
2250.000000	17.227688
2249.000000	17.444341
2248.000000	17.680653
2247.000000	17.886705
2246.000000	18.052926
2245.000000	18.250538
2244.000000	18.394939
2243.000000	18.566718
2242.000000	18.705458
2241.000000	18.822173
2240.000000	18.944652
2239.000000	19.061675
2238.000000	19.150395
2237.000000	19.257641
2236.000000	19.332672
2235.000000	19.404821
2234.000000	19.469354
2233.000000	19.529564
2232.000000	19.584937
2231.000000	19.612726
2230.000000	19.658012
2229.000000	19.686625
2228.000000	19.686213
2227.000000	19.696608
2226.000000	19.700211
2225.000000	19.698152
2224.000000	19.691874
2223.000000	19.682096
2222.000000	19.643191
2221.000000	19.632178
2220.000000	19.604492
2219.000000	19.562705
2218.000000	19.519786
2217.000000	19.473677
2216.000000	19.457930
2215.000000	19.404512
2214.000000	19.345743
2213.000000	19.313631
2212.000000	19.281931
2211.000000	19.226867
2210.000000	19.219560
2209.000000	19.159967
2208.000000	19.117769
2207.000000	19.104697
2206.000000	19.072585
2205.000000	19.035018
2204.000000	19.015154
2203.000000	18.987365
2202.000000	18.946299
2201.000000	18.923861
2200.000000	18.932610
2199.000000	18.897204
2198.000000	18.874047
2197.000000	18.864578
2196.000000	18.864578
2195.000000	18.829481
2194.000000	18.809411
2193.000000	18.784195
2192.000000	18.774829
2191.000000	18.760728
2190.000000	18.742820
2189.000000	18.738085
2188.000000	18.702268
2187.000000	18.695475
2186.000000	18.677463
2185.000000	18.670053
2184.000000	18.653276
2183.000000	18.625178
2182.000000	18.595845
2181.000000	18.594096
2180.000000	18.583700
2179.000000	18.555602
2178.000000	18.542016
2177.000000	18.544075
2176.000000	18.532136
2175.000000	18.540061
2174.000000	18.538826
2173.000000	18.516183
2172.000000	18.530592
2171.000000	18.541914
2170.000000	18.552515
2169.000000	18.570629
2168.000000	18.605417
2167.000000	18.623840
2166.000000	18.659040
2165.000000	18.668097
2164.000000	18.699798
2163.000000	18.741173
2162.000000	18.772256
2161.000000	18.804470
2160.000000	18.859329
2159.000000	18.886603
2158.000000	18.958341
2157.000000	18.993849
2156.000000	19.055397
2155.000000	19.125282
2154.000000	19.190124
2153.000000	19.246320
2152.000000	19.315896
2151.000000	19.385678
2150.000000	19.439609
2149.000000	19.503010
2148.000000	19.590803
2147.000000	19.648749
2146.000000	19.711326
2145.000000	19.777815
2144.000000	19.847700
2143.000000	19.915629
2142.000000	19.958959
2141.000000	20.010524
2140.000000	20.073616
2139.000000	20.129606
2138.000000	20.172319
2137.000000	20.224089
2136.000000	20.279256
2135.000000	20.319808
2134.000000	20.342966
2133.000000	20.380430
2132.000000	20.420673
2131.000000	20.447433
2130.000000	20.477486
2129.000000	20.488499
2128.000000	20.507951
2127.000000	20.524419
2126.000000	20.520508
2125.000000	20.522258
2124.000000	20.527198
2123.000000	20.530800
2122.000000	20.553341
2121.000000	20.559310
2120.000000	20.526375
2119.000000	20.513509
2118.000000	20.511142
2117.000000	20.497762
2116.000000	20.492616
2115.000000	20.472237
2114.000000	20.461739
2113.000000	20.461533
2112.000000	20.438787
2111.000000	20.416659
2110.000000	20.410895
2109.000000	20.383517
2108.000000	20.348421
2107.000000	20.340393
2106.000000	20.319911
2105.000000	20.287387
2104.000000	20.258363
2103.000000	20.234793
2102.000000	20.221311
2101.000000	20.200520
2100.000000	20.172113
2099.000000	20.143192
2098.000000	20.125695
2097.000000	20.101714
2096.000000	20.071352
2095.000000	20.053443
2094.000000	20.050870
2093.000000	20.053134
2092.000000	20.049635
2091.000000	20.034402
2090.000000	20.032652
2089.000000	20.023698
2088.000000	20.017523
2087.000000	20.021125
2086.000000	20.007436
2085.000000	19.994777
2084.000000	19.987057
2083.000000	19.975118
2082.000000	19.935493
2081.000000	19.902352
2080.000000	19.873533
2079.000000	19.831541
2078.000000	19.810956
2077.000000	19.786563
2076.000000	19.732014
2075.000000	19.660174
2074.000000	19.626312
2073.000000	19.582055
2072.000000	19.515875
2071.000000	19.456900
2070.000000	19.398543
2069.000000	19.334525
2068.000000	19.278020
2067.000000	19.217295
2066.000000	19.146381
2065.000000	19.080099
2064.000000	19.019168
2063.000000	18.969559
2062.000000	18.910584
2061.000000	18.852741
2060.000000	18.806426
2059.000000	18.779048
2058.000000	18.738497
2057.000000	18.725734
2056.000000	18.722235
2055.000000	18.750127
2054.000000	18.767830
2053.000000	18.805809
2052.000000	18.854285
2051.000000	18.917789
2050.000000	19.001774
2049.000000	19.090803
2048.000000	19.200930
2047.000000	19.315484
2046.000000	19.444447
2045.000000	19.568366
2044.000000	19.722133
2043.000000	19.861697
2042.000000	20.002702
2041.000000	20.148956
2040.000000	20.294077
2039.000000	20.428907
2038.000000	20.586482
2037.000000	20.709887
2036.000000	20.835968
2035.000000	20.956182
2034.000000	21.066001
2033.000000	21.180348
2032.000000	21.295931
2031.000000	21.395664
2030.000000	21.494058
2029.000000	21.591115
2028.000000	21.667587
2027.000000	21.755895
2026.000000	21.841938
2025.000000	21.931687
2024.000000	21.982737
2023.000000	22.055916
2022.000000	22.114685
2021.000000	22.180864
2020.000000	22.252705
2019.000000	22.304578
2018.000000	22.363965
2017.000000	22.402972
2016.000000	22.428394
2015.000000	22.470799
2014.000000	22.511351
2013.000000	22.520614
2012.000000	22.529568
2011.000000	22.567958
2010.000000	22.577118
2009.000000	22.573310
2008.000000	22.580103
2007.000000	22.556019
2006.000000	22.548815
2005.000000	22.547168
2004.000000	22.525657
2003.000000	22.510836
2002.000000	22.474710
2001.000000	22.426851
2000.000000	22.389592
1999.000000	22.347291
1998.000000	22.288316
1997.000000	22.233870
1996.000000	22.192392
1995.000000	22.117669
1994.000000	22.052725
1993.000000	21.988295
1992.000000	21.909147
1991.000000	21.814458
1990.000000	21.735516
1989.000000	21.670777
1988.000000	21.571559
1987.000000	21.477488
1986.000000	21.420056
1985.000000	21.318677
1984.000000	21.218121
1983.000000	21.129916
1982.000000	21.032139
1981.000000	20.962769
1980.000000	20.870550
1979.000000	20.756305
1978.000000	20.652456
1977.000000	20.556222
1976.000000	20.477075
1975.000000	20.385164
1974.000000	20.297371
1973.000000	20.200623
1972.000000	20.126827
1971.000000	20.013817
1970.000000	19.943624
1969.000000	19.843480
1968.000000	19.763200
1967.000000	19.672936
1966.000000	19.595023
1965.000000	19.518757
1964.000000	19.421186
1963.000000	19.351404
1962.000000	19.273080
1961.000000	19.179831
1960.000000	19.077320
1959.000000	19.011346
1958.000000	18.923244
1957.000000	18.845743
1956.000000	18.733042
1955.000000	18.667789
1954.000000	18.573820
1953.000000	18.502082
1952.000000	18.404511
1951.000000	18.314248
1950.000000	18.278019
1949.000000	18.213795
1948.000000	18.138146
1947.000000	18.081230
1946.000000	18.021431
1945.000000	17.975733
1944.000000	17.917582
1943.000000	17.896688
1942.000000	17.862930
1941.000000	17.828965
1940.000000	17.838846
1939.000000	17.837816
1938.000000	17.836581
1937.000000	17.843477
1936.000000	17.838948
1935.000000	17.847079
1934.000000	17.879603
1933.000000	17.930756
1932.000000	17.991789
1931.000000	18.067644
1930.000000	18.130530
1929.000000	18.232527
1928.000000	18.340493
1927.000000	18.444651
1926.000000	18.553235
1925.000000	18.662437
1924.000000	18.813013
1923.000000	18.952886
1922.000000	19.126826
1921.000000	19.308588
1920.000000	19.487983
1919.000000	19.704328
1918.000000	19.888251
1917.000000	20.072587
1916.000000	20.271846
1915.000000	20.495086
1914.000000	20.770817
1913.000000	21.058282
1912.000000	21.325882
1911.000000	21.563120
1910.000000	21.851922
1909.000000	22.082881
1908.000000	22.365714
1907.000000	22.684982
1906.000000	23.038523
1905.000000	23.418206
1904.000000	23.768145
1903.000000	24.111188
1902.000000	24.466067
1901.000000	24.805405
1900.000000	25.186632
1899.000000	25.626525
1898.000000	26.022162
1897.000000	26.440030
1896.000000	26.797276
1895.000000	27.156272
1894.000000	27.566730
1893.000000	27.990876
1892.000000	28.453927
1891.000000	28.897320
1890.000000	29.326921
1889.000000	29.725543
1888.000000	30.163892
1887.000000	30.580731
1886.000000	31.010950
1885.000000	31.479147
1884.000000	31.982236
1883.000000	32.468856
1882.000000	32.931187
1881.000000	33.432114
1880.000000	33.883020
1879.000000	34.318282
1878.000000	34.751383
1877.000000	35.143932
1876.000000	35.515278
1875.000000	35.853381
1874.000000	36.167605
1873.000000	36.467009
1872.000000	36.732550
1871.000000	36.961657
1870.000000	37.141876
1869.000000	37.301201
1868.000000	37.431296
1867.000000	37.516928
1866.000000	37.580020
1865.000000	37.656389
1864.000000	37.736257
1863.000000	37.805318
1862.000000	37.886628
1861.000000	37.962276
1860.000000	38.022898
1859.000000	38.066331
1858.000000	38.081770
1857.000000	38.088254
1856.000000	38.093709
1855.000000	38.094327
1854.000000	38.081358
1853.000000	38.029382
1852.000000	37.983684
1851.000000	37.977303
1850.000000	38.000358
1849.000000	38.027941
1848.000000	37.984405
1847.000000	37.893832
1846.000000	37.792556
1845.000000	37.719480
1844.000000	37.680576
1843.000000	37.696529
1842.000000	37.722362
1841.000000	37.687163
1840.000000	37.627776
1839.000000	37.575594
1838.000000	37.533498
1837.000000	37.484198
1836.000000	37.399595
1835.000000	37.299039
1834.000000	37.212069
1833.000000	37.145581
1832.000000	37.086812
1831.000000	37.036791
1830.000000	36.968141
1829.000000	36.894551
1828.000000	36.807273
1827.000000	36.727919
1826.000000	36.663489
1825.000000	36.598956
1824.000000	36.555831
1823.000000	36.559331
1822.000000	36.580739
1821.000000	36.575593
1820.000000	36.523719
1819.000000	36.438396
1818.000000	36.412562
1817.000000	36.419355
1816.000000	36.413180
1815.000000	36.382406
1814.000000	36.367379
1813.000000	36.382509
1812.000000	36.372731
1811.000000	36.332488
1810.000000	36.284835
1809.000000	36.237593
1808.000000	36.199306
1807.000000	36.194983
1806.000000	36.152887
1805.000000	36.096177
1804.000000	36.047288
1803.000000	36.022381
1802.000000	35.999223
1801.000000	35.972669
1800.000000	35.918634
1799.000000	35.845765
1798.000000	35.803772
1797.000000	35.782673
1796.000000	35.749531
1795.000000	35.704451
1794.000000	35.674500
1793.000000	35.636522
1792.000000	35.591544
1791.000000	35.540597
1790.000000	35.488312
1789.000000	35.448481
1788.000000	35.392079
1787.000000	35.355747
1786.000000	35.305315
1785.000000	35.232651
1784.000000	35.165443
1783.000000	35.106056
1782.000000	35.052742
1781.000000	34.999633
1780.000000	34.929440
1779.000000	34.834133
1778.000000	34.743561
1777.000000	34.643211
1776.000000	34.543375
1775.000000	34.426043
1774.000000	34.299447
1773.000000	34.181086
1772.000000	34.053770
1771.000000	33.933144
1770.000000	33.798726
1769.000000	33.677791
1768.000000	33.550064
1767.000000	33.429952
1766.000000	33.332587
1765.000000	33.252822
1764.000000	33.175424
1763.000000	33.136210
1762.000000	33.116037
1761.000000	33.134151
1760.000000	33.150104
1759.000000	33.178511
1758.000000	33.219269
1757.000000	33.251895
1756.000000	33.261261
1755.000000	33.278553
1754.000000	33.263114
1753.000000	33.246029
1752.000000	33.227091
1751.000000	33.193538
1750.000000	33.124065
1749.000000	33.048931
1748.000000	32.981208
1747.000000	32.898457
1746.000000	32.786271
1745.000000	32.644546
1744.000000	32.504879
1743.000000	32.343496
1742.000000	32.144134
1741.000000	31.932627
1740.000000	31.710518
1739.000000	31.500041
1738.000000	31.292239
1737.000000	31.120563
1736.000000	30.967928
1735.000000	30.837730
1734.000000	30.785445
1733.000000	30.762802
1732.000000	30.754877
1731.000000	30.791518
1730.000000	30.836701
1729.000000	30.923362
1728.000000	30.985425
1727.000000	31.058397
1726.000000	31.130958
1725.000000	31.179538
1724.000000	31.217928
1723.000000	31.241909
1722.000000	31.289769
1721.000000	31.330835
1720.000000	31.393206
1719.000000	31.455166
1718.000000	31.536270
1717.000000	31.631473
1716.000000	31.754261
1715.000000	31.866035
1714.000000	31.977398
1713.000000	32.067147
1712.000000	32.148045
1711.000000	32.246233
1710.000000	32.304179
1709.000000	32.337320
1708.000000	32.367168
1707.000000	32.375608
1706.000000	32.367168
1705.000000	32.345966
1704.000000	32.325690
1703.000000	32.275566
1702.000000	32.185920
1701.000000	32.098024
1700.000000	31.961136
1699.000000	31.830733
1698.000000	31.735220
1697.000000	31.620049
1696.000000	31.564265
1695.000000	31.537505
1694.000000	31.576204
1693.000000	31.636620
1692.000000	31.735014
1691.000000	31.854405
1690.000000	31.965768
1689.000000	32.033285
1688.000000	32.108419
1687.000000	32.104817
1686.000000	32.139605
1685.000000	32.204961
1684.000000	32.301194
1683.000000	32.555312
1682.000000	32.852142
1681.000000	33.271657
1680.000000	33.758792
1679.000000	34.252926
1678.000000	34.761366
1677.000000	35.237386
1676.000000	35.635801
1675.000000	36.028041
1674.000000	36.370158
1673.000000	36.665856
1672.000000	36.935000
1671.000000	37.168739
1670.000000	37.377467
1669.000000	37.599369
1668.000000	37.784425
1667.000000	38.012400
1666.000000	38.152684
1665.000000	38.281853
1664.000000	38.448794
1663.000000	38.605958
1662.000000	38.707028
1661.000000	38.832491
1660.000000	38.957337
1659.000000	39.058511
1658.000000	39.132306
1657.000000	39.197766
1656.000000	39.260137
1655.000000	39.304497
1654.000000	39.337124
1653.000000	39.340932
1652.000000	39.364810
1651.000000	39.378396
1650.000000	39.375617
1649.000000	39.353077
1648.000000	39.335477
1647.000000	39.320141
1646.000000	39.282574
1645.000000	39.253962
1644.000000	39.213410
1643.000000	39.174608
1642.000000	39.140952
1641.000000	39.098651
1640.000000	39.061804
1639.000000	39.017959
1638.000000	38.968659
1637.000000	38.919050
1636.000000	38.886217
1635.000000	38.826522
1634.000000	38.760342
1633.000000	38.711763
1632.000000	38.646303
1631.000000	38.578580
1630.000000	38.512092
1629.000000	38.427798
1628.000000	38.363265
1627.000000	38.307377
1626.000000	38.238316
1625.000000	38.164520
1624.000000	38.083108
1623.000000	38.011062
1622.000000	37.941074
1621.000000	37.876438
1620.000000	37.802642
1619.000000	37.740271
1618.000000	37.663181
1617.000000	37.595767
1616.000000	37.528249
1615.000000	37.471642
1614.000000	37.402889
1613.000000	37.338459
1612.000000	37.271559
1611.000000	37.208570
1610.000000	37.131583
1609.000000	37.069727
1608.000000	36.999945
1607.000000	36.922135
1606.000000	36.858220
1605.000000	36.789467
1604.000000	36.703732
1603.000000	36.622526
1602.000000	36.552847
1601.000000	36.483373
1600.000000	36.399079
1599.000000	36.311492
1598.000000	36.248400
1597.000000	36.202290
1596.000000	36.136008
1595.000000	36.062212
1594.000000	35.996032
1593.000000	35.943130
1592.000000	35.881273
1591.000000	35.824768
1590.000000	35.770116
1589.000000	35.733270
1588.000000	35.674500
1587.000000	35.619951
1586.000000	35.593912
1585.000000	35.552845
1584.000000	35.500766
1583.000000	35.460317
1582.000000	35.432219
1581.000000	35.405974
1580.000000	35.378391
1579.000000	35.346176
1578.000000	35.333310
1577.000000	35.320548
1576.000000	35.299757
1575.000000	35.295743
1574.000000	35.300169
1573.000000	35.313755
1572.000000	35.316637
1571.000000	35.323841
1570.000000	35.341441
1569.000000	35.355747
1568.000000	35.387345
1567.000000	35.414311
1566.000000	35.436233
1565.000000	35.452495
1564.000000	35.476476
1563.000000	35.499840
1562.000000	35.512294
1561.000000	35.525365
1560.000000	35.526497
1559.000000	35.521865
1558.000000	35.527423
1557.000000	35.522071
1556.000000	35.504574
1555.000000	35.497267
1554.000000	35.476991
1553.000000	35.453730
1552.000000	35.426147
1551.000000	35.401342
1550.000000	35.369745
1549.000000	35.329399
1548.000000	35.283701
1547.000000	35.247266
1546.000000	35.199922
1545.000000	35.172956
1544.000000	35.162046
1543.000000	35.134874
1542.000000	35.115422
1541.000000	35.106571
1540.000000	35.094837
1539.000000	35.084442
1538.000000	35.074973
1537.000000	35.075282
1536.000000	35.061902
1535.000000	35.050375
1534.000000	35.020321
1533.000000	34.994178
1532.000000	34.980490
1531.000000	34.967418
1530.000000	34.938291
1529.000000	34.909370
1528.000000	34.880345
1527.000000	34.858629
1526.000000	34.838867
1525.000000	34.802021
1524.000000	34.770424
1523.000000	34.746031
1522.000000	34.709905
1521.000000	34.658546
1520.000000	34.625919
1519.000000	34.590205
1518.000000	34.558916
1517.000000	34.522893
1516.000000	34.480180
1515.000000	34.457331
1514.000000	34.425837
1513.000000	34.393313
1512.000000	34.343190
1511.000000	34.306652
1510.000000	34.261160
1509.000000	34.218035
1508.000000	34.191172
1507.000000	34.157825
1506.000000	34.117685
1505.000000	34.070855
1504.000000	34.044301
1503.000000	34.011674
1502.000000	33.980283
1501.000000	33.941686
1500.000000	33.914206
1499.000000	33.897224
1498.000000	33.874992
1497.000000	33.860892
1496.000000	33.858216
1495.000000	33.846380
1494.000000	33.852967
1493.000000	33.858010
1492.000000	33.864288
1491.000000	33.894239
1490.000000	33.903914
1489.000000	33.917499
1488.000000	33.940143
1487.000000	33.958463
1486.000000	33.973387
1485.000000	33.981312
1484.000000	34.005087
1483.000000	34.060151
1482.000000	34.092469
1481.000000	34.124066
1480.000000	34.143313
1479.000000	34.197347
1478.000000	34.229871
1477.000000	34.254984
1476.000000	34.286582
1475.000000	34.328780
1474.000000	34.377669
1473.000000	34.433659
1472.000000	34.488826
1471.000000	34.564886
1470.000000	34.589279
1469.000000	34.616142
1468.000000	34.674602
1467.000000	34.723079
1466.000000	34.804182
1465.000000	34.840103
1464.000000	34.891358
1463.000000	34.953730
1462.000000	35.037715
1461.000000	35.105850
1460.000000	35.189321
1459.000000	35.250457
1458.000000	35.336089
1457.000000	35.451878
1456.000000	35.551301
1455.000000	35.645785
1454.000000	35.741606
1453.000000	35.844324
1452.000000	35.994180
1451.000000	36.132611
1450.000000	36.209598
1449.000000	36.289569
1448.000000	36.387758
1447.000000	36.514559
1446.000000	36.665445
1445.000000	36.773617
1444.000000	36.900624
1443.000000	37.002106
1442.000000	37.132716
1441.000000	37.271662
1440.000000	37.404844
1439.000000	37.526294
1438.000000	37.664828
1437.000000	37.810156
1436.000000	37.921519
1435.000000	38.031543
1434.000000	38.215261
1433.000000	38.337946
1432.000000	38.508078
1431.000000	38.638790
1430.000000	38.745418
1429.000000	38.937061
1428.000000	39.156185
1427.000000	39.314480
1426.000000	39.495625
1425.000000	39.722571
1424.000000	39.964234
1423.000000	40.170081
1422.000000	40.365840
1421.000000	40.605651
1420.000000	40.898262
1419.000000	41.141263
1418.000000	41.340214
1417.000000	41.529489
1416.000000	41.809749
1415.000000	42.084863
1414.000000	42.362652
1413.000000	42.562941
1412.000000	42.800282
1411.000000	43.091966
1410.000000	43.421834
1409.000000	43.786800
1408.000000	44.081263
1407.000000	44.457241
1406.000000	44.815517
1405.000000	45.179453
1404.000000	45.490796
1403.000000	45.880565
1402.000000	46.219697
1401.000000	46.643844
1400.000000	46.989151
1399.000000	47.203951
1398.000000	47.382317
1397.000000	47.683367
1396.000000	47.990902
1395.000000	48.184500
1394.000000	48.336106
1393.000000	48.486477
1392.000000	48.697366
1391.000000	48.843105
1390.000000	49.040821
1389.000000	49.313979
1388.000000	49.620793
1387.000000	49.839607
1386.000000	50.119970
1385.000000	50.462807
1384.000000	50.865854
1383.000000	51.168963
1382.000000	51.436048
1381.000000	51.609268
1380.000000	51.686872
1379.000000	51.812438
1378.000000	51.905172
1377.000000	52.001508
1376.000000	52.139425
1375.000000	52.299676
1374.000000	52.489158
1373.000000	52.734115
1372.000000	53.028887
1371.000000	53.262934
1370.000000	53.490394
1369.000000	53.712914
1368.000000	53.979794
1367.000000	54.146529
1366.000000	54.324895
1365.000000	54.539490
1364.000000	54.717650
1363.000000	54.833644
1362.000000	55.010157
1361.000000	55.121211
1360.000000	55.147045
1359.000000	55.203138
1358.000000	55.293916
1357.000000	55.438421
1356.000000	55.638915
1355.000000	55.916293
1354.000000	56.256351
1353.000000	56.584984
1352.000000	56.939246
1351.000000	57.305241
1350.000000	57.651165
1349.000000	57.970845
1348.000000	58.289598
1347.000000	58.569034
1346.000000	58.821607
1345.000000	59.074489
1344.000000	59.356087
1343.000000	59.596516
1342.000000	59.822226
1341.000000	60.035586
1340.000000	60.243182
1339.000000	60.431119
1338.000000	60.608971
1337.000000	60.798452
1336.000000	60.968172
1335.000000	61.093944
1334.000000	61.241330
1333.000000	61.399935
1332.000000	61.529721
1331.000000	61.633776
1330.000000	61.744625
1329.000000	61.849297
1328.000000	61.949853
1327.000000	62.047939
1326.000000	62.137379
1325.000000	62.231966
1324.000000	62.319142
1323.000000	62.380690
1322.000000	62.435754
1321.000000	62.494008
1320.000000	62.558335
1319.000000	62.613193
1318.000000	62.673300
1317.000000	62.740303
1316.000000	62.796087
1315.000000	62.842815
1314.000000	62.895717
1313.000000	62.954177
1312.000000	62.995450
1311.000000	63.020975
1310.000000	63.051028
1309.000000	63.075524
1308.000000	63.090859
1307.000000	63.112782
1306.000000	63.134808
1305.000000	63.149834
1304.000000	63.154569
1303.000000	63.168463
1302.000000	63.171757
1301.000000	63.164552
1300.000000	63.161979
1299.000000	63.155804
1298.000000	63.150040
1297.000000	63.144894
1296.000000	63.128015
1295.000000	63.120501
1294.000000	63.116899
1293.000000	63.100122
1292.000000	63.075936
1291.000000	63.060600
1290.000000	63.039809
1289.000000	63.005742
1288.000000	62.967352
1287.000000	62.925976
1286.000000	62.894791
1285.000000	62.857224
1284.000000	62.809365
1283.000000	62.761711
1282.000000	62.716219
1281.000000	62.668772
1280.000000	62.626985
1279.000000	62.582522
1278.000000	62.545161
1277.000000	62.516445
1276.000000	62.494111
1275.000000	62.476820
1274.000000	62.456441
1273.000000	62.432769
1272.000000	62.418154
1271.000000	62.410846
1270.000000	62.400245
1269.000000	62.389747
1268.000000	62.371838
1267.000000	62.359282
1266.000000	62.348063
1265.000000	62.325935
1264.000000	62.301851
1263.000000	62.295675
1262.000000	62.281060
1261.000000	62.254197
1260.000000	62.233921
1259.000000	62.207779
1258.000000	62.190179
1257.000000	62.173711
1256.000000	62.135630
1255.000000	62.086947
1254.000000	62.059878
1253.000000	62.029310
1252.000000	61.982686
1251.000000	61.920726
1250.000000	61.844975
1249.000000	61.794131
1248.000000	61.748124
1247.000000	61.663109
1246.000000	61.583344
1245.000000	61.508931
1244.000000	61.432253
1243.000000	61.344357
1242.000000	61.272310
1241.000000	61.173504
1240.000000	61.088901
1239.000000	60.995550
1238.000000	60.902302
1237.000000	60.814405
1236.000000	60.727435
1235.000000	60.637686
1234.000000	60.527661
1233.000000	60.423297
1232.000000	60.319242
1231.000000	60.216731
1230.000000	60.112572
1229.000000	60.014281
1228.000000	59.894993
1227.000000	59.790114
1226.000000	59.693778
1225.000000	59.581695
1224.000000	59.461583
1223.000000	59.349191
1222.000000	59.234432
1221.000000	59.128627
1220.000000	59.009648
1219.000000	58.909504
1218.000000	58.827165
1217.000000	58.732373
1216.000000	58.623686
1215.000000	58.527659
1214.000000	58.425765
1213.000000	58.330870
1212.000000	58.235769
1211.000000	58.145093
1210.000000	58.044846
1209.000000	57.960346
1208.000000	57.880478
1207.000000	57.820062
1206.000000	57.727123
1205.000000	57.681528
1204.000000	57.649004
1203.000000	57.608452
1202.000000	57.526319
1201.000000	57.472388
1200.000000	57.421235
1199.000000	57.339617
1198.000000	57.251000
1197.000000	57.105673
1196.000000	56.979695
1195.000000	56.790419
1194.000000	56.575824
1193.000000	56.322427
1192.000000	56.034346
1191.000000	55.700360
1190.000000	55.390253
1189.000000	55.118432
1188.000000	54.907337
1187.000000	54.788770
1186.000000	54.743689
1185.000000	54.782491
1184.000000	54.906925
1183.000000	55.100730
1182.000000	55.373064
1181.000000	55.668042
1180.000000	55.985766
1179.000000	56.286507
1178.000000	56.564914
1177.000000	56.808636
1176.000000	57.019011
1175.000000	57.239267
1174.000000	57.444701
1173.000000	57.671544
1172.000000	57.872553
1171.000000	58.125229
1170.000000	58.368540
1169.000000	58.618334
1168.000000	58.863291
1167.000000	59.119364
1166.000000	59.369879
1165.000000	59.632127
1164.000000	59.890155
1163.000000	60.173812
1162.000000	60.420518
1161.000000	60.674121
1160.000000	60.914035
1159.000000	61.154978
1158.000000	61.373175
1157.000000	61.575522
1156.000000	61.757387
1155.000000	61.892113
1154.000000	62.017062
1153.000000	62.090858
1152.000000	62.140467
1151.000000	62.180298
1150.000000	62.216321
1149.000000	62.230834
1148.000000	62.252242
1147.000000	62.319965
1146.000000	62.399010
1145.000000	62.505844
1144.000000	62.628426
1143.000000	62.781678
1142.000000	62.966322
1141.000000	63.152613
1140.000000	63.344771
1139.000000	63.536517
1138.000000	63.762845
1137.000000	63.993084
1136.000000	64.248745
1135.000000	64.481145
1134.000000	64.676185
1133.000000	64.838391
1132.000000	64.980014
1131.000000	65.161776
1130.000000	65.342303
1129.000000	65.482793
1128.000000	65.579747
1127.000000	65.681641
1126.000000	65.757495
1125.000000	65.836437
1124.000000	65.886046
1123.000000	65.932465
1122.000000	65.978059
1121.000000	65.991748
1120.000000	66.012745
1119.000000	66.038887
1118.000000	66.055355
1117.000000	66.048150
1116.000000	66.042695
1115.000000	66.043313
1114.000000	66.024787
1113.000000	66.020876
1112.000000	66.017891
1111.000000	65.992160
1110.000000	65.982279
1109.000000	65.992263
1108.000000	65.965503
1107.000000	65.947903
1106.000000	65.946668
1105.000000	65.934729
1104.000000	65.917026
1103.000000	65.902720
1102.000000	65.881518
1101.000000	65.863712
1100.000000	65.845494
1099.000000	65.838702
1098.000000	65.820587
1097.000000	65.798767
1096.000000	65.757598
1095.000000	65.721987
1094.000000	65.695638
1093.000000	65.669084
1092.000000	65.631414
1091.000000	65.589216
1090.000000	65.557104
1089.000000	65.536519
1088.000000	65.490204
1087.000000	65.464267
1086.000000	65.404880
1085.000000	65.355066
1084.000000	65.312044
1083.000000	65.275712
1082.000000	65.227956
1081.000000	65.179376
1080.000000	65.134604
1079.000000	65.094464
1078.000000	65.045679
1077.000000	65.011611
1076.000000	64.968075
1075.000000	64.924950
1074.000000	64.879972
1073.000000	64.844979
1072.000000	64.795061
1071.000000	64.745143
1070.000000	64.695122
1069.000000	64.654571
1068.000000	64.626987
1067.000000	64.577173
1066.000000	64.528696
1065.000000	64.482380
1064.000000	64.439256
1063.000000	64.383471
1062.000000	64.337567
1061.000000	64.310293
1060.000000	64.271491
1059.000000	64.222808
1058.000000	64.183594
1057.000000	64.139543
1056.000000	64.102800
1055.000000	64.058646
1054.000000	64.017065
1053.000000	63.961177
1052.000000	63.933285
1051.000000	63.908275
1050.000000	63.868341
1049.000000	63.834170
1048.000000	63.798250
1047.000000	63.770461
1046.000000	63.744113
1045.000000	63.707987
1044.000000	63.673816
1043.000000	63.636970
1042.000000	63.613194
1041.000000	63.584890
1040.000000	63.549176
1039.000000	63.516858
1038.000000	63.488349
1037.000000	63.453252
1036.000000	63.405701
1035.000000	63.371016
1034.000000	63.329126
1033.000000	63.284149
1032.000000	63.249876
1031.000000	63.210147
1030.000000	63.167125
1029.000000	63.117722
1028.000000	63.083449
1027.000000	63.045573
1026.000000	62.993700
1025.000000	62.947385
1024.000000	62.897570
1023.000000	62.867619
1022.000000	62.832419
1021.000000	62.770460
1020.000000	62.722086
1019.000000	62.687298
1018.000000	62.648187
1017.000000	62.621015
1016.000000	62.596314
1015.000000	62.566054
1014.000000	62.553806
1013.000000	62.547734
1012.000000	62.535589
1011.000000	62.532398
1010.000000	62.526223
1009.000000	62.533531
1008.000000	62.544646
1007.000000	62.556997
1006.000000	62.574494
1005.000000	62.601151
1004.000000	62.609076
1003.000000	62.618648
1002.000000	62.643864
1001.000000	62.668257
1000.000000	62.678858
999.000000	62.691723
998.000000	62.733510
997.000000	62.761608
996.000000	62.790324
995.000000	62.820172
994.000000	62.845388
993.000000	62.871530
992.000000	62.913934
991.000000	62.950061
990.000000	62.985054
989.000000	63.025297
988.000000	63.074186
987.000000	63.107224
986.000000	63.150966
985.000000	63.196047
984.000000	63.223321
983.000000	63.259242
982.000000	63.298661
981.000000	63.328818
980.000000	63.375030
979.000000	63.422066
978.000000	63.433182
977.000000	63.459015
976.000000	63.512536
975.000000	63.533738
974.000000	63.545471
973.000000	63.556175
972.000000	63.593433
971.000000	63.617517
970.000000	63.636249
969.000000	63.652717
968.000000	63.672787
967.000000	63.672272
966.000000	63.693886
965.000000	63.700370
964.000000	63.717353
963.000000	63.753684
962.000000	63.751523
961.000000	63.785282
960.000000	63.804940
959.000000	63.831700
958.000000	63.857637
957.000000	63.883779
956.000000	63.892219
955.000000	63.934932
954.000000	63.940799
953.000000	63.959839
952.000000	63.966632
951.000000	63.999053
950.000000	64.034150
949.000000	64.040120
948.000000	64.077584
947.000000	64.132956
946.000000	64.162701
945.000000	64.182874
944.000000	64.223014
943.000000	64.253582
942.000000	64.295060
941.000000	64.358358
940.000000	64.376678
939.000000	64.437300
938.000000	64.482072
937.000000	64.547737
936.000000	64.591993
935.000000	64.641088
934.000000	64.687815
933.000000	64.738968
932.000000	64.809161
931.000000	64.848581
930.000000	64.879458
929.000000	64.962105
928.000000	64.993394
927.000000	65.033534
926.000000	65.101051
925.000000	65.144588
924.000000	65.201401
923.000000	65.216737
922.000000	65.277359
921.000000	65.317499
920.000000	65.392118
919.000000	65.405807
918.000000	65.425774
917.000000	65.448211
916.000000	65.500805
915.000000	65.495453
914.000000	65.498541
913.000000	65.512229
912.000000	65.528388
911.000000	65.566161
910.000000	65.564823
909.000000	65.571101
908.000000	65.615255
907.000000	65.634914
906.000000	65.647264
905.000000	65.681332
904.000000	65.692551
903.000000	65.725795
902.000000	65.734440
901.000000	65.771390
900.000000	65.811118
899.000000	65.826968
898.000000	65.863300
897.000000	65.913218
896.000000	65.932053
895.000000	65.938846
894.000000	65.960871
893.000000	65.973428
892.000000	65.993395
891.000000	66.022522
890.000000	66.034667
889.000000	66.057825
888.000000	66.069558
887.000000	66.082938
886.000000	66.114536
885.000000	66.092201
884.000000	66.088393
883.000000	66.102391
882.000000	66.101361
881.000000	66.067500
880.000000	66.070279
879.000000	66.059060
878.000000	66.016553
877.000000	65.988352
876.000000	66.000805
875.000000	65.968796
874.000000	65.933597
873.000000	65.922996
872.000000	65.881003
871.000000	65.840966
870.000000	65.791563
869.000000	65.740925
868.000000	65.716532
867.000000	65.677421
866.000000	65.612682
865.000000	65.564720
864.000000	65.491953
863.000000	65.429067
862.000000	65.303604
861.000000	65.168981
860.000000	65.024991
859.000000	64.893970
858.000000	65.086333
857.000000	64.784500
856.000000	64.981100
855.000000	65.493400
854.000000	65.114700
853.000000	65.009000
852.000000	64.885500
851.000000	65.131200
850.000000	65.035000
849.000000	65.138400
848.000000	65.032600
847.000000	65.314800
846.000000	65.273400
845.000000	65.132400
844.000000	64.977500
843.000000	65.006200
842.000000	64.784900
841.000000	65.081100
840.000000	64.923200
839.000000	64.759300
838.000000	64.614000
837.000000	64.625600
836.000000	64.492800
835.000000	64.538100
834.000000	64.380200
833.000000	64.373600
832.000000	64.446000
831.000000	64.373800
830.000000	64.326900
829.000000	64.252800
828.000000	64.194100
827.000000	64.334300
826.000000	64.163100
825.000000	63.958200
824.000000	63.868700
823.000000	63.957300
822.000000	63.802600
821.000000	63.747600
820.000000	63.663600
819.000000	63.668700
818.000000	63.454400
817.000000	63.399900
816.000000	63.495400
815.000000	63.468400
814.000000	63.286000
813.000000	63.209700
812.000000	63.133500
811.000000	63.031800
810.000000	63.015700
809.000000	62.884600
808.000000	62.833200
807.000000	62.780200
806.000000	62.684100
805.000000	62.539200
804.000000	62.376900
803.000000	62.244400
802.000000	62.217700
801.000000	62.105100
800.000000	61.895400
799.000000	61.813800
798.000000	61.782000
797.000000	61.595600
796.000000	61.407300
795.000000	61.305500
794.000000	61.234200
793.000000	61.043100
792.000000	60.900300
791.000000	60.720800
790.000000	60.615500
789.000000	60.471400
788.000000	60.318800
787.000000	60.154700
786.000000	59.949200
785.000000	59.672300
784.000000	59.539400
783.000000	59.464200
782.000000	59.316000
781.000000	59.160800
780.000000	58.952900
779.000000	58.818000
778.000000	58.624100
777.000000	58.500600
776.000000	58.355700
775.000000	58.092400
774.000000	57.884700
773.000000	57.805000
772.000000	57.668800
771.000000	57.502500
770.000000	57.364000
769.000000	57.227100
768.000000	57.039000
767.000000	56.877500
766.000000	56.786000
765.000000	56.629100
764.000000	56.409600
763.000000	56.253500
762.000000	56.171500
761.000000	56.045400
760.000000	55.916900
759.000000	55.766200
758.000000	55.593800
757.000000	55.469900
756.000000	55.348300
755.000000	55.257000
754.000000	55.149900
753.000000	55.031100
752.000000	54.896100
751.000000	54.785400
750.000000	54.744600
749.000000	54.676400
748.000000	54.581700
747.000000	54.496100
746.000000	54.375100
745.000000	54.310600
744.000000	54.335000
743.000000	54.284400
742.000000	54.204000
741.000000	54.142500
740.000000	54.100800
739.000000	54.033400
738.000000	53.948700
737.000000	53.963400
736.000000	53.928500
735.000000	53.885200
734.000000	53.902300
733.000000	53.848500
732.000000	53.786500
731.000000	53.743300
730.000000	53.716100
729.000000	53.709700
728.000000	53.636100
727.000000	53.607400
726.000000	53.592700
725.000000	53.544600
724.000000	53.497300
723.000000	53.406300
722.000000	53.376300
721.000000	53.308800
720.000000	53.231100
719.000000	53.221200
718.000000	53.185300
717.000000	53.101900
716.000000	53.004800
715.000000	52.953900
714.000000	52.903300
713.000000	52.830900
712.000000	52.727900
711.000000	52.658600
710.000000	52.613900
709.000000	52.537400
708.000000	52.455300
707.000000	52.369700
706.000000	52.270400
705.000000	52.132600
704.000000	51.985500
703.000000	51.960700
702.000000	51.850800
701.000000	51.733500
700.000000	51.637700
699.000000	51.512000
698.000000	51.420800
697.000000	51.277500
696.000000	51.147000
695.000000	51.095600
694.000000	51.025900
693.000000	50.936000
692.000000	50.806000
691.000000	50.737400
690.000000	50.667500
689.000000	50.563700
688.000000	50.496200
687.000000	50.461800
686.000000	50.449400
685.000000	50.450800
684.000000	50.418000
683.000000	50.394800
682.000000	50.368700
681.000000	50.378700
680.000000	50.382800
679.000000	50.447300
678.000000	50.436800
677.000000	50.486200
676.000000	50.551700
675.000000	50.609000
674.000000	50.634400
673.000000	50.705200
672.000000	50.799700
671.000000	50.881400
670.000000	50.939800
669.000000	51.008000
668.000000	51.071100
667.000000	51.176200
666.000000	51.196700
665.000000	51.234900
664.000000	51.285200
663.000000	51.269200
662.000000	51.293700
661.000000	51.298700
660.000000	51.280700
659.000000	51.251900
658.000000	51.245000
657.000000	51.161400
656.000000	51.045500
655.000000	50.944700
654.000000	50.877400
653.000000	50.709200
652.000000	50.561800
651.000000	50.402500
650.000000	50.182100
649.000000	49.992700
648.000000	49.768600
647.000000	49.523000
646.000000	49.252100
645.000000	48.987300
644.000000	48.646100
643.000000	48.342400
642.000000	47.975600
641.000000	47.654400
640.000000	47.292000
639.000000	46.932400
638.000000	46.665700
637.000000	46.381900
636.000000	46.152800
635.000000	45.937600
634.000000	45.790800
633.000000	45.707800
632.000000	45.640100
631.000000	45.668600
630.000000	45.735900
629.000000	45.866000
628.000000	46.091300
627.000000	46.358000
626.000000	46.687900
625.000000	47.049900
624.000000	47.487800
623.000000	48.010700
622.000000	48.513200
621.000000	49.071700
620.000000	49.684700
619.000000	50.268800
618.000000	50.888700
617.000000	51.461400
616.000000	52.075600
615.000000	52.600800
614.000000	53.137700
613.000000	53.718800
612.000000	54.241500
611.000000	54.780000
610.000000	55.262300
609.000000	55.786900
608.000000	56.300100
607.000000	56.746900
606.000000	57.172300
605.000000	57.612800
604.000000	58.013900
603.000000	58.401700
602.000000	58.775500
601.000000	59.137000
600.000000	59.458600
599.000000	59.720000
598.000000	60.003800
597.000000	60.223900
596.000000	60.420100
595.000000	60.522200
594.000000	60.668200
593.000000	60.804200
592.000000	60.897700
591.000000	61.050600
590.000000	61.126000
589.000000	61.276600
588.000000	61.406300
587.000000	61.535600
586.000000	61.681700
585.000000	61.878600
584.000000	62.063500
583.000000	62.240600
582.000000	62.462400
581.000000	62.651000
580.000000	62.883800
579.000000	63.042100
578.000000	63.242300
577.000000	63.354400
576.000000	63.457600
575.000000	63.558100
574.000000	63.590500
573.000000	63.563400
572.000000	63.572900
571.000000	63.519900
570.000000	63.435400
569.000000	63.360400
568.000000	63.286800
567.000000	63.208800
566.000000	63.140700
565.000000	63.058000
564.000000	63.039300
563.000000	62.964700
562.000000	62.971600
561.000000	62.971000
560.000000	62.929400
559.000000	62.997400
558.000000	62.958800
557.000000	62.884500
556.000000	62.753500
555.000000	62.604400
554.000000	62.397300
553.000000	62.178700
552.000000	61.914900
551.000000	61.564300
550.000000	61.256600
549.000000	60.884800
548.000000	60.481300
547.000000	60.064900
546.000000	59.606600
545.000000	59.165000
544.000000	58.678000
543.000000	58.146000
542.000000	57.579600
541.000000	56.959900
540.000000	56.296200
539.000000	55.553500
538.000000	54.779100
537.000000	53.988000
536.000000	53.091000
535.000000	52.150900
534.000000	51.195600
533.000000	50.155600
532.000000	49.128100
531.000000	48.040900
530.000000	46.952000
529.000000	45.879700
528.000000	44.814300
527.000000	43.765500
526.000000	42.731200
525.000000	41.733500
524.000000	40.763600
523.000000	39.840600
522.000000	38.955500
521.000000	38.136100
520.000000	37.374200
519.000000	36.650900
518.000000	35.966800
517.000000	35.310700
516.000000	34.708700
515.000000	34.121800
514.000000	33.585400
513.000000	33.058500
512.000000	32.553000
511.000000	32.074000
510.000000	31.627000
509.000000	31.195200
508.000000	30.772500
507.000000	30.359800
506.000000	29.960600
505.000000	29.587600
504.000000	29.199100
503.000000	28.834700
502.000000	28.465100
501.000000	28.093600
500.000000	27.734600
499.000000	27.384200
498.000000	27.026200
497.000000	26.693600
496.000000	26.358300
495.000000	26.008700
494.000000	25.698600
493.000000	25.365000
492.000000	25.036100
491.000000	24.715500
490.000000	24.411300
489.000000	24.123000
488.000000	23.838800
487.000000	23.561900
486.000000	23.300100
485.000000	23.049900
484.000000	22.795800
483.000000	22.551800
482.000000	22.323700
481.000000	22.073500
480.000000	21.849600
479.000000	21.631700
478.000000	21.415400
477.000000	21.214000
476.000000	21.011400
475.000000	20.808800
474.000000	20.588400
473.000000	20.372000
472.000000	20.169200
471.000000	19.954400
470.000000	19.731800
469.000000	19.525500
468.000000	19.306300
467.000000	19.104200
466.000000	18.906400
465.000000	18.699400
464.000000	18.518400
463.000000	18.344500
462.000000	18.177700
461.000000	18.016700
460.000000	17.869400
459.000000	17.728800
458.000000	17.601600
457.000000	17.486700
456.000000	17.391400
455.000000	17.305300
454.000000	17.214100
453.000000	17.114800
452.000000	17.036300
451.000000	16.966700
450.000000	16.893700
449.000000	16.805800
448.000000	16.731700
447.000000	16.683400
446.000000	16.622700
445.000000	16.542400
444.000000	16.469800
443.000000	16.393600
442.000000	16.302300
441.000000	16.206600
440.000000	16.107100
439.000000	15.996500
438.000000	15.865900
437.000000	15.747200
436.000000	15.632300
435.000000	15.494800
434.000000	15.354400
433.000000	15.214800
432.000000	15.067300
431.000000	14.904000
430.000000	14.767900
429.000000	14.615200
428.000000	14.461700
427.000000	14.318700
426.000000	14.146100
425.000000	13.977800
424.000000	13.800200
423.000000	13.623000
422.000000	13.444400
421.000000	13.245300
420.000000	13.052300
419.000000	12.864600
418.000000	12.681000
417.000000	12.495700
416.000000	12.290500
415.000000	12.104300
414.000000	11.901800
413.000000	11.671100
412.000000	11.472900
411.000000	11.273800
410.000000	11.054800
409.000000	10.836900
408.000000	10.621800
407.000000	10.405500
406.000000	10.168100
405.000000	9.943100
404.000000	9.721300
403.000000	9.492600
402.000000	9.254800
401.000000	9.033600
400.000000	8.804800
399.000000	8.585100
398.000000	8.378900
397.000000	8.159600
396.000000	7.969000
395.000000	7.783900
394.000000	7.580200
393.000000	7.403500
392.000000	7.225600
391.000000	7.061400
390.000000	6.890600
389.000000	6.732300
388.000000	6.583700
387.000000	6.452000
386.000000	6.351000
385.000000	6.232600
384.000000	6.121100
383.000000	6.039400
382.000000	5.952200
381.000000	5.858700
380.000000	5.774200
379.000000	5.717100
378.000000	5.651700
377.000000	5.593600
376.000000	5.495800
375.000000	5.415100
374.000000	5.314900
373.000000	5.294200
372.000000	5.304000
371.000000	5.314900
370.000000	5.241900
369.000000	5.220000
368.000000	5.271500
367.000000	5.266300
366.000000	5.286500
365.000000	5.236800
364.000000	5.128400
363.000000	5.152400
362.000000	5.223200
361.000000	5.212300
360.000000	5.133200
359.000000	5.151700
358.000000	5.137300
357.000000	5.096000
356.000000	5.096200
355.000000	5.105300
354.000000	5.062200
353.000000	5.110900
352.000000	5.132200
351.000000	4.939000
350.000000	4.964600
349.000000	4.920100
348.000000	5.010000
347.000000	5.073900
346.000000	4.979800
345.000000	5.077300
344.000000	4.981000
343.000000	4.997500
342.000000	5.018000
341.000000	4.958200
340.000000	5.008400
339.000000	5.084800
338.000000	4.975200
337.000000	5.015900
336.000000	5.023100
335.000000	5.014900
334.000000	4.821300
333.000000	4.846900
332.000000	4.960700
331.000000	5.033700
330.000000	4.955200
329.000000	5.187600
328.000000	4.973000
327.000000	5.047600
326.000000	5.006800
325.000000	5.013600
324.000000	4.933600
323.000000	5.045500
322.000000	5.064700
321.000000	4.988600
320.000000	4.985500
319.000000	5.189600
318.000000	5.237600
317.000000	5.088700
316.000000	4.901800
315.000000	4.827900
314.000000	4.864200
313.000000	4.846800
312.000000	4.787100
311.000000	4.816700
310.000000	4.807700
309.000000	4.799800
308.000000	4.833900
307.000000	4.844200
306.000000	4.777200
305.000000	4.757100
304.000000	4.813500
303.000000	4.864600
302.000000	4.831300
301.000000	4.828000
300.000000	4.772000
299.000000	4.864500
298.000000	4.881800
297.000000	4.835900
296.000000	4.845600
295.000000	4.838300
294.000000	4.875700
293.000000	4.838900
292.000000	4.878400
291.000000	4.838900
290.000000	4.874400
289.000000	4.874800
288.000000	4.918300
287.000000	4.857400
286.000000	4.882400
285.000000	4.826700
284.000000	4.911600
283.000000	4.888500
282.000000	4.873600
281.000000	4.910600
280.000000	4.910600
279.000000	4.960500
278.000000	4.910100
277.000000	4.884500
276.000000	4.973000
275.000000	4.995600
274.000000	4.955600
273.000000	4.998800
272.000000	4.996500
271.000000	5.030200
270.000000	4.983100
269.000000	5.017000
268.000000	4.997700
267.000000	5.041700
266.000000	5.082300
265.000000	5.074400
264.000000	5.131200
263.000000	5.057900
262.000000	5.139600
261.000000	5.164400
260.000000	5.194600
259.000000	5.194100
258.000000	5.193200
257.000000	5.182100
256.000000	5.229200
255.000000	5.228700
254.000000	5.268500
253.000000	5.251600
252.000000	5.234500
251.000000	5.226000
250.000000	5.222500
