PE UV       SUBTECH     SPECTRUM    ASCII       PEDS        4.00        
   -1
CICIMAUCR0141-2.Sample.ASC
24/04/19
15:59:52.00
24/04/19
15:59:52.00
Vinicio Soto Monge
C. kalinini
250,000000
1
Lambda 1050
1050L1511233
PerkinElmer UV WinLab 6.3.2.0749 / 2.02.05 Lambda 900 UV/VIS/NIR, Aug  7 2015 09:38:08

0
0
3350/servo 860,8/2
0
0
UV/VIS
1
1
1
DoubleDePol,CommonBeamDepol,RBeamAtt,SBeamAtt,60mm sphere, WB InGaAs Detector
0
0
0
0
Program
Program
3350/servo 860,8/2
3350/0,2 860,8/0,2
3350/0,2 860,8/0,2
0
15.00
 
 
 
0
 
860,8
319,2
860,8
Front
100
on
S:100 R:100
0
0
0
0
 
0
 
 
 
0
 
 
0
0
0
0
0
 
 
 
 
0
0


0
0
#HDR
-1
-1
#GR
nm
%R
1.0
0.0
2500,000000
-1,000000
2251
8
99,178200
5,799400
#DATA
2482.000000	11.121372
2481.000000	11.098809
2480.000000	11.126167
2479.000000	11.143607
2478.000000	11.130309
2477.000000	11.150146
2476.000000	11.171401
2475.000000	11.233310
2474.000000	11.283230
2473.000000	11.303939
2472.000000	11.276145
2471.000000	11.349608
2470.000000	11.358110
2469.000000	11.442037
2468.000000	11.461438
2467.000000	11.495118
2466.000000	11.582423
2465.000000	11.585257
2464.000000	11.644878
2463.000000	11.690547
2462.000000	11.771313
2461.000000	11.827990
2460.000000	11.914206
2459.000000	11.972192
2458.000000	12.020804
2457.000000	12.089253
2456.000000	12.181899
2455.000000	12.251548
2454.000000	12.358036
2453.000000	12.460056
2452.000000	12.536353
2451.000000	12.631942
2450.000000	12.720665
2449.000000	12.826936
2448.000000	12.915004
2447.000000	13.019749
2446.000000	13.132341
2445.000000	13.217358
2444.000000	13.343902
2443.000000	13.438292
2442.000000	13.542928
2441.000000	13.641460
2440.000000	13.750892
2439.000000	13.873621
2438.000000	13.985668
2437.000000	14.088233
2436.000000	14.176193
2435.000000	14.308295
2434.000000	14.408463
2433.000000	14.515605
2432.000000	14.628743
2431.000000	14.706675
2430.000000	14.791909
2429.000000	14.894365
2428.000000	14.990499
2427.000000	15.075080
2426.000000	15.176882
2425.000000	15.276068
2424.000000	15.351275
2423.000000	15.420269
2422.000000	15.510191
2421.000000	15.589212
2420.000000	15.655918
2419.000000	15.732433
2418.000000	15.790854
2417.000000	15.858323
2416.000000	15.900395
2415.000000	15.966446
2414.000000	16.018764
2413.000000	16.083399
2412.000000	16.116315
2411.000000	16.158170
2410.000000	16.207327
2409.000000	16.227600
2408.000000	16.259863
2407.000000	16.304442
2406.000000	16.338667
2405.000000	16.362319
2404.000000	16.392619
2403.000000	16.424991
2402.000000	16.452785
2401.000000	16.467717
2400.000000	16.490279
2399.000000	16.507392
2398.000000	16.516765
2397.000000	16.537584
2396.000000	16.561672
2395.000000	16.584561
2394.000000	16.585651
2393.000000	16.596441
2392.000000	16.600583
2391.000000	16.622818
2390.000000	16.640258
2389.000000	16.653119
2388.000000	16.657697
2387.000000	16.657152
2386.000000	16.658678
2385.000000	16.658351
2384.000000	16.648759
2383.000000	16.644835
2382.000000	16.635353
2381.000000	16.615516
2380.000000	16.599929
2379.000000	16.592408
2378.000000	16.576386
2377.000000	16.547720
2376.000000	16.526357
2375.000000	16.511643
2374.000000	16.487010
2373.000000	16.469570
2372.000000	16.465755
2371.000000	16.454420
2370.000000	16.426844
2369.000000	16.408860
2368.000000	16.408751
2367.000000	16.407552
2366.000000	16.388369
2365.000000	16.379540
2364.000000	16.389023
2363.000000	16.385644
2362.000000	16.361447
2361.000000	16.357959
2360.000000	16.349893
2359.000000	16.329511
2358.000000	16.319483
2357.000000	16.309892
2356.000000	16.285586
2355.000000	16.268146
2354.000000	16.252342
2353.000000	16.215610
2352.000000	16.193702
2351.000000	16.169178
2350.000000	16.131466
2349.000000	16.116642
2348.000000	16.097350
2347.000000	16.072281
2346.000000	16.045904
2345.000000	16.026939
2344.000000	16.007320
2343.000000	15.977673
2342.000000	15.948135
2341.000000	15.928298
2340.000000	15.920668
2339.000000	15.893201
2338.000000	15.880013
2337.000000	15.880449
2336.000000	15.858868
2335.000000	15.852764
2334.000000	15.864971
2333.000000	15.878487
2332.000000	15.884700
2331.000000	15.894509
2330.000000	15.904864
2329.000000	15.935710
2328.000000	15.957618
2327.000000	15.970370
2326.000000	15.992714
2325.000000	16.023778
2324.000000	16.045141
2323.000000	16.070428
2322.000000	16.083617
2321.000000	16.087759
2320.000000	16.092118
2319.000000	16.099748
2318.000000	16.087323
2317.000000	16.061491
2316.000000	16.045795
2315.000000	16.039255
2314.000000	16.024759
2313.000000	15.986938
2312.000000	15.963612
2311.000000	15.925246
2310.000000	15.888514
2309.000000	15.859740
2308.000000	15.813634
2307.000000	15.788674
2306.000000	15.767856
2305.000000	15.730035
2304.000000	15.708454
2303.000000	15.690796
2302.000000	15.679788
2301.000000	15.656245
2300.000000	15.659515
2299.000000	15.670414
2298.000000	15.676627
2297.000000	15.682186
2296.000000	15.706165
2295.000000	15.712269
2294.000000	15.728291
2293.000000	15.741588
2292.000000	15.755976
2291.000000	15.808730
2290.000000	15.840447
2289.000000	15.868350
2288.000000	15.895708
2287.000000	15.939851
2286.000000	15.966119
2285.000000	16.009500
2284.000000	16.076423
2283.000000	16.075333
2282.000000	16.110212
2281.000000	16.165036
2280.000000	16.197081
2279.000000	16.221932
2278.000000	16.275449
2277.000000	16.309783
2276.000000	16.359049
2275.000000	16.369185
2274.000000	16.394690
2273.000000	16.420631
2272.000000	16.423029
2271.000000	16.460524
2270.000000	16.484939
2269.000000	16.527229
2268.000000	16.560037
2267.000000	16.604289
2266.000000	16.667615
2265.000000	16.746855
2264.000000	16.818901
2263.000000	16.902392
2262.000000	17.001796
2261.000000	17.115806
2260.000000	17.242132
2259.000000	17.361918
2258.000000	17.486391
2257.000000	17.647377
2256.000000	17.792342
2255.000000	17.975127
2254.000000	18.126958
2253.000000	18.284675
2252.000000	18.460158
2251.000000	18.644906
2250.000000	18.787908
2249.000000	18.931128
2248.000000	19.092006
2247.000000	19.218332
2246.000000	19.384223
2245.000000	19.491148
2244.000000	19.596111
2243.000000	19.690610
2242.000000	19.795028
2241.000000	19.897375
2240.000000	19.973781
2239.000000	20.012910
2238.000000	20.068934
2237.000000	20.093785
2236.000000	20.139563
2235.000000	20.143596
2234.000000	20.170082
2233.000000	20.154168
2232.000000	20.150572
2231.000000	20.122887
2230.000000	20.114058
2229.000000	20.076346
2228.000000	20.023701
2227.000000	19.985007
2226.000000	19.928765
2225.000000	19.883968
2224.000000	19.834593
2223.000000	19.747833
2222.000000	19.658129
2221.000000	19.584339
2220.000000	19.522212
2219.000000	19.443190
2218.000000	19.335938
2217.000000	19.231520
2216.000000	19.147812
2215.000000	19.076092
2214.000000	18.990095
2213.000000	18.904097
2212.000000	18.841752
2211.000000	18.758152
2210.000000	18.653080
2209.000000	18.587792
2208.000000	18.559889
2207.000000	18.483810
2206.000000	18.389420
2205.000000	18.333505
2204.000000	18.277263
2203.000000	18.202383
2202.000000	18.154643
2201.000000	18.111045
2200.000000	18.067011
2199.000000	18.006627
2198.000000	17.945480
2197.000000	17.915180
2196.000000	17.882699
2195.000000	17.844441
2194.000000	17.801497
2193.000000	17.756264
2192.000000	17.728361
2191.000000	17.686834
2190.000000	17.651955
2189.000000	17.617077
2188.000000	17.597784
2187.000000	17.571298
2186.000000	17.526174
2185.000000	17.504920
2184.000000	17.467644
2183.000000	17.445626
2182.000000	17.401701
2181.000000	17.365188
2180.000000	17.333034
2179.000000	17.303278
2178.000000	17.290635
2177.000000	17.266002
2176.000000	17.230469
2175.000000	17.220768
2174.000000	17.220550
2173.000000	17.207362
2172.000000	17.210959
2171.000000	17.209978
2170.000000	17.207035
2169.000000	17.219242
2168.000000	17.254993
2167.000000	17.268399
2166.000000	17.282569
2165.000000	17.309709
2164.000000	17.336086
2163.000000	17.370310
2162.000000	17.439305
2161.000000	17.497617
2160.000000	17.515711
2159.000000	17.576203
2158.000000	17.653045
2157.000000	17.736536
2156.000000	17.809781
2155.000000	17.884225
2154.000000	17.977852
2153.000000	18.071152
2152.000000	18.170665
2151.000000	18.263094
2150.000000	18.369801
2149.000000	18.472038
2148.000000	18.564685
2147.000000	18.676732
2146.000000	18.787690
2145.000000	18.893961
2144.000000	18.989441
2143.000000	19.087755
2142.000000	19.201764
2141.000000	19.290487
2140.000000	19.377247
2139.000000	19.484608
2138.000000	19.583140
2137.000000	19.670991
2136.000000	19.754263
2135.000000	19.839171
2134.000000	19.935196
2133.000000	20.028605
2132.000000	20.111660
2131.000000	20.176077
2130.000000	20.238422
2129.000000	20.305890
2128.000000	20.361805
2127.000000	20.434287
2126.000000	20.492818
2125.000000	20.540449
2124.000000	20.586554
2123.000000	20.647265
2122.000000	20.706340
2121.000000	20.743835
2120.000000	20.785907
2119.000000	20.815227
2118.000000	20.844656
2117.000000	20.883785
2116.000000	20.912342
2115.000000	20.948093
2114.000000	20.964442
2113.000000	20.983189
2112.000000	21.003027
2111.000000	21.010983
2110.000000	21.030384
2109.000000	21.049786
2108.000000	21.057524
2107.000000	21.059595
2106.000000	21.077144
2105.000000	21.088043
2104.000000	21.097635
2103.000000	21.107444
2102.000000	21.108534
2101.000000	21.129462
2100.000000	21.142868
2099.000000	21.157909
2098.000000	21.179818
2097.000000	21.185376
2096.000000	21.196712
2095.000000	21.226468
2094.000000	21.265488
2093.000000	21.290230
2092.000000	21.318351
2091.000000	21.357153
2090.000000	21.382004
2089.000000	21.395847
2088.000000	21.423641
2087.000000	21.446748
2086.000000	21.462334
2085.000000	21.489256
2084.000000	21.486640
2083.000000	21.487839
2082.000000	21.476504
2081.000000	21.453942
2080.000000	21.418409
2079.000000	21.374048
2078.000000	21.345055
2077.000000	21.305381
2076.000000	21.260147
2075.000000	21.180144
2074.000000	21.103957
2073.000000	21.028423
2072.000000	20.945259
2071.000000	20.836590
2070.000000	20.743944
2069.000000	20.644104
2068.000000	20.534454
2067.000000	20.428510
2066.000000	20.311776
2065.000000	20.191663
2064.000000	20.060432
2063.000000	19.940428
2062.000000	19.835574
2061.000000	19.724072
2060.000000	19.627392
2059.000000	19.538888
2058.000000	19.469894
2057.000000	19.396867
2056.000000	19.330706
2055.000000	19.294629
2054.000000	19.271522
2053.000000	19.256044
2052.000000	19.272503
2051.000000	19.339862
2050.000000	19.389891
2049.000000	19.450928
2048.000000	19.556872
2047.000000	19.669247
2046.000000	19.787071
2045.000000	19.917648
2044.000000	20.048225
2043.000000	20.194715
2042.000000	20.347636
2041.000000	20.500884
2040.000000	20.613040
2039.000000	20.738058
2038.000000	20.876483
2037.000000	21.003027
2036.000000	21.122377
2035.000000	21.260365
2034.000000	21.356390
2033.000000	21.455686
2032.000000	21.555199
2031.000000	21.639234
2030.000000	21.732316
2029.000000	21.828996
2028.000000	21.910960
2027.000000	21.972652
2026.000000	22.049603
2025.000000	22.105518
2024.000000	22.161323
2023.000000	22.234132
2022.000000	22.277077
2021.000000	22.336261
2020.000000	22.375500
2019.000000	22.424548
2018.000000	22.466729
2017.000000	22.506622
2016.000000	22.519701
2015.000000	22.529947
2014.000000	22.541609
2013.000000	22.550547
2012.000000	22.570493
2011.000000	22.562754
2010.000000	22.557850
2009.000000	22.550983
2008.000000	22.522317
2007.000000	22.483842
2006.000000	22.454522
2005.000000	22.412013
2004.000000	22.380841
2003.000000	22.318713
2002.000000	22.228574
2001.000000	22.184866
2000.000000	22.127426
1999.000000	22.063227
1998.000000	21.993688
1997.000000	21.911723
1996.000000	21.824418
1995.000000	21.740382
1994.000000	21.650679
1993.000000	21.565444
1992.000000	21.479992
1991.000000	21.359660
1990.000000	21.256877
1989.000000	21.152242
1988.000000	21.041502
1987.000000	20.938174
1986.000000	20.835391
1985.000000	20.725088
1984.000000	20.622087
1983.000000	20.502083
1982.000000	20.405948
1981.000000	20.286489
1980.000000	20.185341
1979.000000	20.066209
1978.000000	19.958194
1977.000000	19.868382
1976.000000	19.756443
1975.000000	19.654532
1974.000000	19.545646
1973.000000	19.441446
1972.000000	19.331687
1971.000000	19.235880
1970.000000	19.127211
1969.000000	19.035001
1968.000000	18.949766
1967.000000	18.846548
1966.000000	18.772757
1965.000000	18.663217
1964.000000	18.566429
1963.000000	18.485445
1962.000000	18.374814
1961.000000	18.281514
1960.000000	18.172409
1959.000000	18.090445
1958.000000	17.999978
1957.000000	17.899702
1956.000000	17.819481
1955.000000	17.713756
1954.000000	17.606940
1953.000000	17.511460
1952.000000	17.439850
1951.000000	17.357231
1950.000000	17.248453
1949.000000	17.187961
1948.000000	17.125288
1947.000000	17.055204
1946.000000	17.002014
1945.000000	16.928660
1944.000000	16.872745
1943.000000	16.810618
1942.000000	16.790999
1941.000000	16.779881
1940.000000	16.755684
1939.000000	16.736065
1938.000000	16.691376
1937.000000	16.650394
1936.000000	16.666089
1935.000000	16.681567
1934.000000	16.712413
1933.000000	16.738354
1932.000000	16.794050
1931.000000	16.847022
1930.000000	16.910022
1929.000000	16.971277
1928.000000	17.051389
1927.000000	17.134662
1926.000000	17.233303
1925.000000	17.352217
1924.000000	17.491950
1923.000000	17.637786
1922.000000	17.782314
1921.000000	17.946788
1920.000000	18.100908
1919.000000	18.291106
1918.000000	18.495582
1917.000000	18.728396
1916.000000	18.969822
1915.000000	19.240131
1914.000000	19.518615
1913.000000	19.837863
1912.000000	20.134222
1911.000000	20.437775
1910.000000	20.786779
1909.000000	21.154749
1908.000000	21.558795
1907.000000	21.992707
1906.000000	22.510981
1905.000000	23.024460
1904.000000	23.515812
1903.000000	24.042043
1902.000000	24.607077
1901.000000	25.201648
1900.000000	25.839055
1899.000000	26.467851
1898.000000	27.114740
1897.000000	27.800214
1896.000000	28.433914
1895.000000	29.074809
1894.000000	29.757884
1893.000000	30.471697
1892.000000	31.216464
1891.000000	31.935727
1890.000000	32.597548
1889.000000	33.226780
1888.000000	33.891654
1887.000000	34.511185
1886.000000	35.111969
1885.000000	35.701091
1884.000000	36.297079
1883.000000	36.840858
1882.000000	37.310193
1881.000000	37.801110
1880.000000	38.248210
1879.000000	38.674601
1878.000000	39.088130
1877.000000	39.478989
1876.000000	39.838784
1875.000000	40.183319
1874.000000	40.524693
1873.000000	40.843723
1872.000000	41.119373
1871.000000	41.367339
1870.000000	41.562223
1869.000000	41.772693
1868.000000	41.944907
1867.000000	42.082786
1866.000000	42.204861
1865.000000	42.331623
1864.000000	42.475933
1863.000000	42.610216
1862.000000	42.756488
1861.000000	42.881179
1860.000000	42.997696
1859.000000	43.088598
1858.000000	43.159227
1857.000000	43.233017
1856.000000	43.297325
1855.000000	43.344956
1854.000000	43.378635
1853.000000	43.376346
1852.000000	43.385393
1851.000000	43.448393
1850.000000	43.503544
1849.000000	43.554772
1848.000000	43.556516
1847.000000	43.481418
1846.000000	43.403595
1845.000000	43.383540
1844.000000	43.400435
1843.000000	43.428991
1842.000000	43.438147
1841.000000	43.391497
1840.000000	43.330677
1839.000000	43.280975
1838.000000	43.238467
1837.000000	43.198357
1836.000000	43.120534
1835.000000	43.039114
1834.000000	42.980256
1833.000000	42.945160
1832.000000	42.928047
1831.000000	42.904395
1830.000000	42.868972
1829.000000	42.834420
1828.000000	42.788642
1827.000000	42.755507
1826.000000	42.731419
1825.000000	42.703298
1824.000000	42.704061
1823.000000	42.745698
1822.000000	42.797253
1821.000000	42.816109
1820.000000	42.800740
1819.000000	42.769895
1818.000000	42.745044
1817.000000	42.749730
1816.000000	42.762592
1815.000000	42.741556
1814.000000	42.734253
1813.000000	42.743082
1812.000000	42.726078
1811.000000	42.686404
1810.000000	42.625366
1809.000000	42.605093
1808.000000	42.598009
1807.000000	42.591469
1806.000000	42.557680
1805.000000	42.516916
1804.000000	42.491084
1803.000000	42.507433
1802.000000	42.511030
1801.000000	42.482364
1800.000000	42.443017
1799.000000	42.407157
1798.000000	42.386775
1797.000000	42.389173
1796.000000	42.374022
1795.000000	42.342959
1794.000000	42.331841
1793.000000	42.312985
1792.000000	42.298597
1791.000000	42.301758
1790.000000	42.305355
1789.000000	42.313421
1788.000000	42.303829
1787.000000	42.322468
1786.000000	42.340888
1785.000000	42.358436
1784.000000	42.354294
1783.000000	42.350370
1782.000000	42.355384
1781.000000	42.336310
1780.000000	42.306009
1779.000000	42.279087
1778.000000	42.251729
1777.000000	42.213690
1776.000000	42.177285
1775.000000	42.129981
1774.000000	42.061968
1773.000000	42.028942
1772.000000	41.967469
1771.000000	41.922889
1770.000000	41.882452
1769.000000	41.837982
1768.000000	41.802667
1767.000000	41.765936
1766.000000	41.720702
1765.000000	41.688985
1764.000000	41.680701
1763.000000	41.659338
1762.000000	41.658357
1761.000000	41.653234
1760.000000	41.658575
1759.000000	41.674270
1758.000000	41.673507
1757.000000	41.680156
1756.000000	41.696287
1755.000000	41.698358
1754.000000	41.698249
1753.000000	41.710675
1752.000000	41.714272
1751.000000	41.705443
1750.000000	41.674270
1749.000000	41.630454
1748.000000	41.587619
1747.000000	41.521240
1746.000000	41.418349
1745.000000	41.351861
1744.000000	41.261940
1743.000000	41.140301
1742.000000	41.012013
1741.000000	40.899529
1740.000000	40.802741
1739.000000	40.683064
1738.000000	40.562079
1737.000000	40.480441
1736.000000	40.381800
1735.000000	40.284140
1734.000000	40.212966
1733.000000	40.115523
1732.000000	40.012087
1731.000000	39.901892
1730.000000	39.810990
1729.000000	39.714855
1728.000000	39.644880
1727.000000	39.562371
1726.000000	39.480406
1725.000000	39.453048
1724.000000	39.441167
1723.000000	39.503513
1722.000000	39.588965
1721.000000	39.763141
1720.000000	39.969905
1719.000000	40.237926
1718.000000	40.522404
1717.000000	40.803068
1716.000000	41.101389
1715.000000	41.368538
1714.000000	41.631435
1713.000000	41.860653
1712.000000	42.067527
1711.000000	42.238541
1710.000000	42.427539
1709.000000	42.578171
1708.000000	42.706895
1707.000000	42.818834
1706.000000	42.910826
1705.000000	42.992028
1704.000000	43.065164
1703.000000	43.127400
1702.000000	43.127400
1701.000000	43.164241
1700.000000	43.162606
1699.000000	43.164132
1698.000000	43.170999
1697.000000	43.135357
1696.000000	43.082058
1695.000000	43.002382
1694.000000	42.915622
1693.000000	42.795182
1692.000000	42.665259
1691.000000	42.540350
1690.000000	42.452063
1689.000000	42.386993
1688.000000	42.375657
1687.000000	42.437567
1686.000000	42.582531
1685.000000	42.775671
1684.000000	43.003690
1683.000000	43.265825
1682.000000	43.564255
1681.000000	43.860069
1680.000000	44.138008
1679.000000	44.388916
1678.000000	44.609959
1677.000000	44.852802
1676.000000	45.058367
1675.000000	45.251617
1674.000000	45.425465
1673.000000	45.639314
1672.000000	45.855126
1671.000000	46.077368
1670.000000	46.307567
1669.000000	46.508882
1668.000000	46.732868
1667.000000	47.014076
1666.000000	47.191848
1665.000000	47.384771
1664.000000	47.565158
1663.000000	47.763313
1662.000000	47.945880
1661.000000	48.101417
1660.000000	48.238643
1659.000000	48.375977
1658.000000	48.489769
1657.000000	48.595385
1656.000000	48.691847
1655.000000	48.754519
1654.000000	48.820679
1653.000000	48.875722
1652.000000	48.930329
1651.000000	48.956379
1650.000000	48.974690
1649.000000	48.997688
1648.000000	49.014692
1647.000000	49.004337
1646.000000	48.996053
1645.000000	49.005863
1644.000000	49.007062
1643.000000	48.996271
1642.000000	49.004010
1641.000000	48.993002
1640.000000	49.002920
1639.000000	48.999868
1638.000000	48.993982
1637.000000	48.956488
1636.000000	48.944607
1635.000000	48.924334
1634.000000	48.893162
1633.000000	48.844004
1632.000000	48.809453
1631.000000	48.770432
1630.000000	48.703182
1629.000000	48.665252
1628.000000	48.611735
1627.000000	48.575766
1626.000000	48.509824
1625.000000	48.457070
1624.000000	48.396250
1623.000000	48.341970
1622.000000	48.298372
1621.000000	48.249651
1620.000000	48.209105
1619.000000	48.158640
1618.000000	48.097711
1617.000000	48.056402
1616.000000	48.017708
1615.000000	47.950131
1614.000000	47.882445
1613.000000	47.816720
1612.000000	47.756337
1611.000000	47.676443
1610.000000	47.606250
1609.000000	47.535621
1608.000000	47.448533
1607.000000	47.346186
1606.000000	47.248308
1605.000000	47.140293
1604.000000	47.036857
1603.000000	46.947044
1602.000000	46.853526
1601.000000	46.743440
1600.000000	46.632483
1599.000000	46.541689
1598.000000	46.448498
1597.000000	46.366642
1596.000000	46.279010
1595.000000	46.178080
1594.000000	46.087286
1593.000000	46.011316
1592.000000	45.942104
1591.000000	45.878996
1590.000000	45.812835
1589.000000	45.725421
1588.000000	45.672776
1587.000000	45.628960
1586.000000	45.552663
1585.000000	45.483450
1584.000000	45.423721
1583.000000	45.385572
1582.000000	45.330857
1581.000000	45.275705
1580.000000	45.238101
1579.000000	45.207473
1578.000000	45.186219
1577.000000	45.161150
1576.000000	45.143929
1575.000000	45.150142
1574.000000	45.146218
1573.000000	45.144474
1572.000000	45.151450
1571.000000	45.151123
1570.000000	45.178045
1569.000000	45.206819
1568.000000	45.240172
1567.000000	45.274615
1566.000000	45.304044
1565.000000	45.327260
1564.000000	45.343173
1563.000000	45.356580
1562.000000	45.373147
1561.000000	45.385572
1560.000000	45.383501
1559.000000	45.370967
1558.000000	45.349822
1557.000000	45.316905
1556.000000	45.271672
1555.000000	45.227856
1554.000000	45.176519
1553.000000	45.118315
1552.000000	45.050302
1551.000000	44.966811
1550.000000	44.896618
1549.000000	44.818359
1548.000000	44.731489
1547.000000	44.651051
1546.000000	44.573882
1545.000000	44.513062
1544.000000	44.460744
1543.000000	44.420852
1542.000000	44.367553
1541.000000	44.326135
1540.000000	44.285261
1539.000000	44.239701
1538.000000	44.199373
1537.000000	44.163731
1536.000000	44.122422
1535.000000	44.062147
1534.000000	44.007540
1533.000000	43.955767
1532.000000	43.882740
1531.000000	43.809059
1530.000000	43.731345
1529.000000	43.662569
1528.000000	43.600006
1527.000000	43.500820
1526.000000	43.421689
1525.000000	43.345065
1524.000000	43.259285
1523.000000	43.169364
1522.000000	43.085982
1521.000000	42.995298
1520.000000	42.907011
1519.000000	42.818943
1518.000000	42.726623
1517.000000	42.619263
1516.000000	42.526616
1515.000000	42.422090
1514.000000	42.311786
1513.000000	42.207150
1512.000000	42.097282
1511.000000	41.979785
1510.000000	41.859018
1509.000000	41.762666
1508.000000	41.633724
1507.000000	41.527671
1506.000000	41.409738
1505.000000	41.321233
1504.000000	41.226843
1503.000000	41.114469
1502.000000	41.009070
1501.000000	40.921764
1500.000000	40.855168
1499.000000	40.804158
1498.000000	40.753911
1497.000000	40.689495
1496.000000	40.632272
1495.000000	40.606985
1494.000000	40.601099
1493.000000	40.579409
1492.000000	40.557392
1491.000000	40.557828
1490.000000	40.570362
1489.000000	40.572978
1488.000000	40.593360
1487.000000	40.597938
1486.000000	40.594886
1485.000000	40.607857
1484.000000	40.622026
1483.000000	40.654071
1482.000000	40.675325
1481.000000	40.707697
1480.000000	40.730041
1479.000000	40.762849
1478.000000	40.787264
1477.000000	40.841435
1476.000000	40.908467
1475.000000	40.967761
1474.000000	41.060516
1473.000000	41.151309
1472.000000	41.220194
1471.000000	41.349136
1470.000000	41.437968
1469.000000	41.486253
1468.000000	41.604949
1467.000000	41.740976
1466.000000	41.841579
1465.000000	41.951446
1464.000000	42.048779
1463.000000	42.183062
1462.000000	42.308952
1461.000000	42.443453
1460.000000	42.557135
1459.000000	42.666567
1458.000000	42.805972
1457.000000	42.948975
1456.000000	43.074320
1455.000000	43.193016
1454.000000	43.322721
1453.000000	43.453733
1452.000000	43.591940
1451.000000	43.723280
1450.000000	43.851895
1449.000000	43.915984
1448.000000	44.049177
1447.000000	44.203732
1446.000000	44.372349
1445.000000	44.447992
1444.000000	44.561674
1443.000000	44.709690
1442.000000	44.834926
1441.000000	44.952206
1440.000000	45.072646
1439.000000	45.213686
1438.000000	45.394401
1437.000000	45.512879
1436.000000	45.664165
1435.000000	45.819375
1434.000000	46.009899
1433.000000	46.196500
1432.000000	46.366860
1431.000000	46.517056
1430.000000	46.734067
1429.000000	46.943556
1428.000000	47.174518
1427.000000	47.398068
1426.000000	47.632736
1425.000000	47.903481
1424.000000	48.202129
1423.000000	48.439304
1422.000000	48.684871
1421.000000	49.041178
1420.000000	49.414379
1419.000000	49.762620
1418.000000	50.074020
1417.000000	50.337245
1416.000000	50.779331
1415.000000	51.233625
1414.000000	51.684540
1413.000000	52.076271
1412.000000	52.471707
1411.000000	52.983877
1410.000000	53.540845
1409.000000	54.057703
1408.000000	54.574887
1407.000000	55.055231
1406.000000	55.578410
1405.000000	56.148130
1404.000000	56.603405
1403.000000	57.145658
1402.000000	57.670582
1401.000000	58.336872
1400.000000	58.862013
1399.000000	59.216685
1398.000000	59.580621
1397.000000	60.093555
1396.000000	60.757556
1395.000000	61.180133
1394.000000	61.480961
1393.000000	61.851219
1392.000000	62.344424
1391.000000	62.735719
1390.000000	63.107612
1389.000000	63.554603
1388.000000	64.043339
1387.000000	64.382861
1386.000000	64.741457
1385.000000	65.154441
1384.000000	65.532329
1383.000000	65.837408
1382.000000	66.117745
1381.000000	66.311212
1380.000000	66.491709
1379.000000	66.652041
1378.000000	66.798859
1377.000000	66.963115
1376.000000	67.119524
1375.000000	67.257948
1374.000000	67.439426
1373.000000	67.651423
1372.000000	67.820584
1371.000000	67.985930
1370.000000	68.121521
1369.000000	68.298312
1368.000000	68.458535
1367.000000	68.550637
1366.000000	68.696691
1365.000000	68.851029
1364.000000	68.952504
1363.000000	69.069347
1362.000000	69.221614
1361.000000	69.265321
1360.000000	69.230007
1359.000000	69.364180
1358.000000	69.446254
1357.000000	69.548056
1356.000000	69.671221
1355.000000	69.826649
1354.000000	69.992758
1353.000000	70.131619
1352.000000	70.325740
1351.000000	70.559536
1350.000000	70.794966
1349.000000	71.025928
1348.000000	71.276509
1347.000000	71.469104
1346.000000	71.695052
1345.000000	71.957296
1344.000000	72.153161
1343.000000	72.325483
1342.000000	72.521784
1341.000000	72.712527
1340.000000	72.873513
1339.000000	73.043547
1338.000000	73.191890
1337.000000	73.338816
1336.000000	73.464379
1335.000000	73.570868
1334.000000	73.703079
1333.000000	73.833438
1332.000000	73.948755
1331.000000	74.050339
1330.000000	74.137645
1329.000000	74.236504
1328.000000	74.305934
1327.000000	74.375800
1326.000000	74.449591
1325.000000	74.521637
1324.000000	74.582129
1323.000000	74.659407
1322.000000	74.724151
1321.000000	74.768403
1320.000000	74.825953
1319.000000	74.872821
1318.000000	74.910751
1317.000000	74.976149
1316.000000	75.039475
1315.000000	75.077296
1314.000000	75.120786
1313.000000	75.161877
1312.000000	75.214086
1311.000000	75.265750
1310.000000	75.290928
1309.000000	75.322755
1308.000000	75.362538
1307.000000	75.403520
1306.000000	75.435565
1305.000000	75.454094
1304.000000	75.477420
1303.000000	75.503469
1302.000000	75.511971
1301.000000	75.512298
1300.000000	75.513279
1299.000000	75.516876
1298.000000	75.517312
1297.000000	75.508374
1296.000000	75.509573
1295.000000	75.506303
1294.000000	75.490390
1293.000000	75.481779
1292.000000	75.466629
1291.000000	75.431641
1290.000000	75.395019
1289.000000	75.363846
1288.000000	75.340957
1287.000000	75.307277
1286.000000	75.266840
1285.000000	75.216593
1284.000000	75.171142
1283.000000	75.118715
1282.000000	75.073373
1281.000000	75.032826
1280.000000	74.995223
1279.000000	74.965249
1278.000000	74.927645
1277.000000	74.904974
1276.000000	74.885791
1275.000000	74.858760
1274.000000	74.822247
1273.000000	74.795543
1272.000000	74.781591
1271.000000	74.752816
1270.000000	74.740500
1269.000000	74.731235
1268.000000	74.722516
1267.000000	74.691888
1266.000000	74.672596
1265.000000	74.661696
1264.000000	74.639134
1263.000000	74.601312
1262.000000	74.584418
1261.000000	74.569377
1260.000000	74.546161
1259.000000	74.535915
1258.000000	74.524253
1257.000000	74.483924
1256.000000	74.470300
1255.000000	74.431170
1254.000000	74.398690
1253.000000	74.379179
1252.000000	74.335036
1251.000000	74.280865
1250.000000	74.234324
1249.000000	74.184404
1248.000000	74.127181
1247.000000	74.050012
1246.000000	73.966522
1245.000000	73.898182
1244.000000	73.825045
1243.000000	73.759975
1242.000000	73.695232
1241.000000	73.605855
1240.000000	73.558551
1239.000000	73.491737
1238.000000	73.424159
1237.000000	73.371406
1236.000000	73.315600
1235.000000	73.260557
1234.000000	73.201917
1233.000000	73.149708
1232.000000	73.124203
1231.000000	73.069815
1230.000000	73.018369
1229.000000	72.976732
1228.000000	72.913079
1227.000000	72.868609
1226.000000	72.819996
1225.000000	72.772801
1224.000000	72.727677
1223.000000	72.671217
1222.000000	72.630998
1221.000000	72.596010
1220.000000	72.522111
1219.000000	72.481238
1218.000000	72.418457
1217.000000	72.371806
1216.000000	72.310442
1215.000000	72.265536
1214.000000	72.195560
1213.000000	72.124931
1212.000000	72.069125
1211.000000	72.007216
1210.000000	71.915006
1209.000000	71.817890
1208.000000	71.768733
1207.000000	71.662790
1206.000000	71.581152
1205.000000	71.503656
1204.000000	71.413517
1203.000000	71.325012
1202.000000	71.252203
1201.000000	71.143534
1200.000000	71.054812
1199.000000	70.958242
1198.000000	70.860691
1197.000000	70.734474
1196.000000	70.640301
1195.000000	70.524875
1194.000000	70.405089
1193.000000	70.291951
1192.000000	70.187642
1191.000000	70.051398
1190.000000	69.977499
1189.000000	69.884853
1188.000000	69.820654
1187.000000	69.755584
1186.000000	69.739561
1185.000000	69.710677
1184.000000	69.697053
1183.000000	69.725283
1182.000000	69.770080
1181.000000	69.784795
1180.000000	69.825668
1179.000000	69.838311
1178.000000	69.897605
1177.000000	69.935862
1176.000000	69.981205
1175.000000	70.028727
1174.000000	70.054232
1173.000000	70.109493
1172.000000	70.162464
1171.000000	70.246936
1170.000000	70.312878
1169.000000	70.442801
1168.000000	70.516155
1167.000000	70.632563
1166.000000	70.734474
1165.000000	70.861563
1164.000000	70.999660
1163.000000	71.120863
1162.000000	71.241085
1161.000000	71.343541
1160.000000	71.477279
1159.000000	71.588019
1158.000000	71.686551
1157.000000	71.809280
1156.000000	71.901817
1155.000000	71.973645
1154.000000	72.036100
1153.000000	72.104767
1152.000000	72.131253
1151.000000	72.167331
1150.000000	72.182917
1149.000000	72.212782
1148.000000	72.228150
1147.000000	72.274255
1146.000000	72.287335
1145.000000	72.302158
1144.000000	72.298670
1143.000000	72.315347
1142.000000	72.379218
1141.000000	72.407993
1140.000000	72.430446
1139.000000	72.464671
1138.000000	72.527343
1137.000000	72.638083
1136.000000	72.709257
1135.000000	72.759722
1134.000000	72.800486
1133.000000	72.808552
1132.000000	72.846046
1131.000000	72.876347
1130.000000	72.913624
1129.000000	72.966269
1128.000000	72.961037
1127.000000	72.929428
1126.000000	72.947303
1125.000000	72.934115
1124.000000	72.930954
1123.000000	72.896620
1122.000000	72.853131
1121.000000	72.793729
1120.000000	72.765172
1119.000000	72.718958
1118.000000	72.656612
1117.000000	72.603858
1116.000000	72.534755
1115.000000	72.493773
1114.000000	72.417476
1113.000000	72.358727
1112.000000	72.297253
1111.000000	72.234254
1110.000000	72.155995
1109.000000	72.094957
1108.000000	72.016372
1107.000000	71.962201
1106.000000	71.857456
1105.000000	71.793911
1104.000000	71.717396
1103.000000	71.641862
1102.000000	71.562187
1101.000000	71.461475
1100.000000	71.400873
1099.000000	71.311824
1098.000000	71.225390
1097.000000	71.138957
1096.000000	71.046528
1095.000000	70.965108
1094.000000	70.869737
1093.000000	70.775674
1092.000000	70.683464
1091.000000	70.600300
1090.000000	70.502095
1089.000000	70.402255
1088.000000	70.311244
1087.000000	70.225137
1086.000000	70.135543
1085.000000	70.045839
1084.000000	69.961258
1083.000000	69.869375
1082.000000	69.783596
1081.000000	69.691712
1080.000000	69.602445
1079.000000	69.516011
1078.000000	69.427616
1077.000000	69.349902
1076.000000	69.277202
1075.000000	69.201014
1074.000000	69.102591
1073.000000	69.009726
1072.000000	68.940078
1071.000000	68.858222
1070.000000	68.779855
1069.000000	68.708898
1068.000000	68.632274
1067.000000	68.558920
1066.000000	68.472487
1065.000000	68.386053
1064.000000	68.313462
1063.000000	68.230516
1062.000000	68.150841
1061.000000	68.070620
1060.000000	67.992143
1059.000000	67.899279
1058.000000	67.809684
1057.000000	67.730226
1056.000000	67.641068
1055.000000	67.554089
1054.000000	67.473760
1053.000000	67.393757
1052.000000	67.305252
1051.000000	67.219691
1050.000000	67.151351
1049.000000	67.059794
1048.000000	66.987639
1047.000000	66.907527
1046.000000	66.817933
1045.000000	66.748394
1044.000000	66.677764
1043.000000	66.594710
1042.000000	66.518631
1041.000000	66.452252
1040.000000	66.372904
1039.000000	66.304999
1038.000000	66.248213
1037.000000	66.179763
1036.000000	66.107172
1035.000000	66.048641
1034.000000	65.991419
1033.000000	65.925694
1032.000000	65.865965
1031.000000	65.808197
1030.000000	65.751301
1029.000000	65.686667
1028.000000	65.644377
1027.000000	65.621052
1026.000000	65.576363
1025.000000	65.547915
1024.000000	65.514999
1023.000000	65.455378
1022.000000	65.427257
1021.000000	65.417121
1020.000000	65.387910
1019.000000	65.366656
1018.000000	65.343331
1017.000000	65.318371
1016.000000	65.296026
1015.000000	65.281966
1014.000000	65.271066
1013.000000	65.268451
1012.000000	65.262020
1011.000000	65.257551
1010.000000	65.260385
1009.000000	65.267797
1008.000000	65.265399
1007.000000	65.280876
1006.000000	65.301040
1005.000000	65.320660
1004.000000	65.336246
1003.000000	65.359571
1002.000000	65.378318
1001.000000	65.380934
1000.000000	65.396738
999.000000	65.430636
998.000000	65.457994
997.000000	65.481319
996.000000	65.519141
995.000000	65.558052
994.000000	65.592386
993.000000	65.628899
992.000000	65.644486
991.000000	65.680781
990.000000	65.739203
989.000000	65.806017
988.000000	65.832721
987.000000	65.897356
986.000000	65.949891
985.000000	66.018559
984.000000	66.074800
983.000000	66.142923
982.000000	66.240801
981.000000	66.310231
980.000000	66.370506
979.000000	66.453669
978.000000	66.538141
977.000000	66.617599
976.000000	66.680925
975.000000	66.776078
974.000000	66.859787
973.000000	66.964968
972.000000	67.037886
971.000000	67.124320
970.000000	67.248357
969.000000	67.368034
968.000000	67.455121
967.000000	67.565861
966.000000	67.709626
965.000000	67.813390
964.000000	67.938735
963.000000	68.069530
962.000000	68.183430
961.000000	68.334062
960.000000	68.432158
959.000000	68.589657
958.000000	68.703013
957.000000	68.819202
956.000000	68.943021
955.000000	69.095942
954.000000	69.259544
953.000000	69.378895
952.000000	69.481024
951.000000	69.604734
950.000000	69.768881
949.000000	69.886269
948.000000	70.021097
947.000000	70.186552
946.000000	70.297510
945.000000	70.413699
944.000000	70.584278
943.000000	70.694036
942.000000	70.804667
941.000000	70.982112
940.000000	71.078464
939.000000	71.191819
938.000000	71.347683
937.000000	71.431937
936.000000	71.532431
935.000000	71.642516
934.000000	71.752929
933.000000	71.855821
932.000000	72.025854
931.000000	72.150109
930.000000	72.244935
929.000000	72.350661
928.000000	72.425105
927.000000	72.509141
926.000000	72.665550
925.000000	72.746424
924.000000	72.842450
923.000000	72.927684
922.000000	72.998422
921.000000	73.179246
920.000000	73.224588
919.000000	73.289659
918.000000	73.354947
917.000000	73.441272
916.000000	73.509394
915.000000	73.581004
914.000000	73.656211
913.000000	73.835727
912.000000	73.930444
911.000000	73.928700
910.000000	74.019494
909.000000	74.115192
908.000000	74.301356
907.000000	74.379942
906.000000	74.453405
905.000000	74.454604
904.000000	74.553354
903.000000	74.748893
902.000000	74.824209
901.000000	74.886336
900.000000	74.885464
899.000000	74.966230
898.000000	75.067596
897.000000	75.121767
896.000000	75.196538
895.000000	75.268802
894.000000	75.344336
893.000000	75.419761
892.000000	75.498347
891.000000	75.536495
890.000000	75.547068
889.000000	75.625654
888.000000	75.717755
887.000000	75.819448
886.000000	75.912857
885.000000	76.011934
884.000000	76.074934
883.000000	76.077768
882.000000	76.174774
881.000000	76.272761
880.000000	76.321809
879.000000	76.426118
878.000000	76.539691
877.000000	76.612282
876.000000	76.662311
875.000000	76.747437
874.000000	76.790817
873.000000	76.895998
872.000000	77.007392
871.000000	77.033115
870.000000	77.130121
869.000000	77.153991
868.000000	77.225710
867.000000	77.264839
866.000000	77.347567
865.000000	77.369584
864.000000	77.441739
863.000000	77.455146
862.000000	77.490024
861.000000	77.407733
860.000000	77.299827
859.000000	77.239443
858.000000	78.350000
857.000000	77.899100
856.000000	78.378300
855.000000	78.772600
854.000000	79.177600
853.000000	79.856300
852.000000	79.689200
851.000000	80.496900
850.000000	80.424800
849.000000	80.838700
848.000000	81.385500
847.000000	82.429300
846.000000	82.219900
845.000000	82.600200
844.000000	83.287600
843.000000	84.097200
842.000000	84.102000
841.000000	84.720200
840.000000	85.044300
839.000000	85.303900
838.000000	85.786900
837.000000	86.119300
836.000000	86.580400
835.000000	87.149800
834.000000	87.595900
833.000000	87.906800
832.000000	88.340000
831.000000	88.809700
830.000000	89.306000
829.000000	89.749600
828.000000	90.051900
827.000000	90.607400
826.000000	91.014100
825.000000	91.288200
824.000000	91.723700
823.000000	92.023500
822.000000	92.574300
821.000000	92.789500
820.000000	93.215900
819.000000	93.694300
818.000000	93.835000
817.000000	94.120700
816.000000	94.406000
815.000000	94.689200
814.000000	94.978600
813.000000	95.130100
812.000000	95.499000
811.000000	95.507200
810.000000	95.791200
809.000000	96.033200
808.000000	96.207800
807.000000	96.289100
806.000000	96.495800
805.000000	96.541400
804.000000	96.579400
803.000000	96.850900
802.000000	97.013300
801.000000	97.084300
800.000000	97.183800
799.000000	97.321400
798.000000	97.238300
797.000000	97.395000
796.000000	97.503600
795.000000	97.579000
794.000000	97.569500
793.000000	97.631400
792.000000	97.645000
791.000000	97.882700
790.000000	97.980500
789.000000	98.190800
788.000000	98.274400
787.000000	98.186500
786.000000	98.225800
785.000000	98.325800
784.000000	98.431200
783.000000	98.612300
782.000000	98.578200
781.000000	98.577800
780.000000	98.728700
779.000000	98.728900
778.000000	98.783600
777.000000	98.913800
776.000000	98.935000
775.000000	98.919500
774.000000	98.999900
773.000000	99.082000
772.000000	99.065000
771.000000	99.164300
770.000000	99.178200
769.000000	99.099300
768.000000	98.992700
767.000000	98.930200
766.000000	99.008600
765.000000	99.073800
764.000000	99.005300
763.000000	98.989600
762.000000	98.833000
761.000000	98.660300
760.000000	98.531900
759.000000	98.389200
758.000000	98.236000
757.000000	98.126600
756.000000	97.953900
755.000000	97.798000
754.000000	97.640700
753.000000	97.392700
752.000000	97.162400
751.000000	96.918300
750.000000	96.600800
749.000000	96.366900
748.000000	96.073500
747.000000	95.733400
746.000000	95.465700
745.000000	95.128800
744.000000	94.848900
743.000000	94.568700
742.000000	94.184600
741.000000	93.835800
740.000000	93.554200
739.000000	93.156800
738.000000	92.761500
737.000000	92.382400
736.000000	91.931000
735.000000	91.463600
734.000000	90.953700
733.000000	90.508300
732.000000	90.019900
731.000000	89.527300
730.000000	89.052600
729.000000	88.578900
728.000000	88.120000
727.000000	87.585000
726.000000	87.073800
725.000000	86.604100
724.000000	86.152200
723.000000	85.646400
722.000000	85.212500
721.000000	84.780600
720.000000	84.282400
719.000000	83.843500
718.000000	83.433100
717.000000	82.974200
716.000000	82.498800
715.000000	82.050800
714.000000	81.641600
713.000000	81.200500
712.000000	80.798700
711.000000	80.377100
710.000000	79.915400
709.000000	79.546100
708.000000	79.155800
707.000000	78.738100
706.000000	78.372700
705.000000	78.016600
704.000000	77.691800
703.000000	77.353400
702.000000	77.001200
701.000000	76.689900
700.000000	76.427700
699.000000	76.160200
698.000000	75.795700
697.000000	75.532100
696.000000	75.250700
695.000000	74.914900
694.000000	74.612500
693.000000	74.314800
692.000000	73.978300
691.000000	73.576900
690.000000	73.202200
689.000000	72.769700
688.000000	72.351200
687.000000	71.992000
686.000000	71.583000
685.000000	71.167800
684.000000	70.761300
683.000000	70.398100
682.000000	70.045700
681.000000	69.727200
680.000000	69.458000
679.000000	69.118900
678.000000	68.795100
677.000000	68.526000
676.000000	68.266400
675.000000	67.955500
674.000000	67.675500
673.000000	67.441800
672.000000	67.145300
671.000000	66.853600
670.000000	66.469700
669.000000	66.098000
668.000000	65.774900
667.000000	65.472800
666.000000	65.161900
665.000000	64.859200
664.000000	64.608800
663.000000	64.351700
662.000000	64.139300
661.000000	63.953700
660.000000	63.788500
659.000000	63.669600
658.000000	63.647900
657.000000	63.527400
656.000000	63.464700
655.000000	63.390700
654.000000	63.307200
653.000000	63.252000
652.000000	63.089800
651.000000	62.983100
650.000000	62.829500
649.000000	62.605900
648.000000	62.400200
647.000000	62.137300
646.000000	61.901400
645.000000	61.688800
644.000000	61.454500
643.000000	61.277600
642.000000	61.116400
641.000000	60.950900
640.000000	60.891600
639.000000	60.841200
638.000000	60.798500
637.000000	60.783700
636.000000	60.844000
635.000000	60.855700
634.000000	60.865900
633.000000	60.927500
632.000000	60.966200
631.000000	61.023300
630.000000	61.012100
629.000000	61.114900
628.000000	61.166700
627.000000	61.166600
626.000000	61.202200
625.000000	61.370000
624.000000	61.461200
623.000000	61.659700
622.000000	61.840400
621.000000	62.098600
620.000000	62.399600
619.000000	62.779300
618.000000	63.188400
617.000000	63.591200
616.000000	64.048800
615.000000	64.510700
614.000000	64.938900
613.000000	65.481800
612.000000	65.992300
611.000000	66.469800
610.000000	67.033600
609.000000	67.511700
608.000000	68.062900
607.000000	68.561700
606.000000	69.060100
605.000000	69.610300
604.000000	70.086400
603.000000	70.606800
602.000000	71.068300
601.000000	71.600100
600.000000	72.036600
599.000000	72.522100
598.000000	72.943500
597.000000	73.337400
596.000000	73.740100
595.000000	74.149200
594.000000	74.557200
593.000000	74.993300
592.000000	75.335400
591.000000	75.667000
590.000000	75.997900
589.000000	76.298700
588.000000	76.543600
587.000000	76.820600
586.000000	77.029300
585.000000	77.225900
584.000000	77.373100
583.000000	77.514300
582.000000	77.674700
581.000000	77.759700
580.000000	77.845500
579.000000	77.900800
578.000000	77.940200
577.000000	77.929000
576.000000	77.904300
575.000000	77.833300
574.000000	77.778300
573.000000	77.740600
572.000000	77.571800
571.000000	77.492200
570.000000	77.357800
569.000000	77.235700
568.000000	77.055900
567.000000	76.882600
566.000000	76.664300
565.000000	76.458600
564.000000	76.172000
563.000000	75.917600
562.000000	75.647200
561.000000	75.349100
560.000000	75.043300
559.000000	74.737100
558.000000	74.432900
557.000000	74.045300
556.000000	73.642000
555.000000	73.245100
554.000000	72.838100
553.000000	72.393400
552.000000	71.929100
551.000000	71.421200
550.000000	70.905100
549.000000	70.335300
548.000000	69.765800
547.000000	69.121900
546.000000	68.496300
545.000000	67.807000
544.000000	67.084500
543.000000	66.314100
542.000000	65.515000
541.000000	64.685900
540.000000	63.823100
539.000000	62.902500
538.000000	62.012600
537.000000	61.098200
536.000000	60.164500
535.000000	59.198900
534.000000	58.235800
533.000000	57.272200
532.000000	56.300700
531.000000	55.356100
530.000000	54.438300
529.000000	53.528300
528.000000	52.636500
527.000000	51.757400
526.000000	50.924100
525.000000	50.071000
524.000000	49.260000
523.000000	48.454400
522.000000	47.658900
521.000000	46.925000
520.000000	46.202500
519.000000	45.476200
518.000000	44.767700
517.000000	44.100800
516.000000	43.439400
515.000000	42.785400
514.000000	42.129500
513.000000	41.480100
512.000000	40.805800
511.000000	40.163800
510.000000	39.491600
509.000000	38.820000
508.000000	38.143300
507.000000	37.456600
506.000000	36.762000
505.000000	36.067800
504.000000	35.375600
503.000000	34.699100
502.000000	33.987500
501.000000	33.299800
500.000000	32.643500
499.000000	32.008800
498.000000	31.399200
497.000000	30.815800
496.000000	30.268800
495.000000	29.809500
494.000000	29.381900
493.000000	28.996900
492.000000	28.659900
491.000000	28.413900
490.000000	28.220200
489.000000	28.071900
488.000000	27.983500
487.000000	27.953900
486.000000	27.975500
485.000000	28.012000
484.000000	28.084600
483.000000	28.217700
482.000000	28.349800
481.000000	28.496900
480.000000	28.659700
479.000000	28.830300
478.000000	29.007400
477.000000	29.184300
476.000000	29.369100
475.000000	29.547200
474.000000	29.693600
473.000000	29.825500
472.000000	29.947000
471.000000	30.063300
470.000000	30.146800
469.000000	30.217400
468.000000	30.254900
467.000000	30.278700
466.000000	30.284500
465.000000	30.270500
464.000000	30.238100
463.000000	30.177700
462.000000	30.123800
461.000000	30.047300
460.000000	29.928000
459.000000	29.802400
458.000000	29.653600
457.000000	29.506800
456.000000	29.343500
455.000000	29.159600
454.000000	28.943300
453.000000	28.735100
452.000000	28.522400
451.000000	28.278300
450.000000	28.043500
449.000000	27.775000
448.000000	27.499600
447.000000	27.227800
446.000000	26.921200
445.000000	26.587000
444.000000	26.251500
443.000000	25.926200
442.000000	25.573400
441.000000	25.196400
440.000000	24.814800
439.000000	24.410300
438.000000	23.980700
437.000000	23.548700
436.000000	23.122200
435.000000	22.673000
434.000000	22.185500
433.000000	21.707500
432.000000	21.224600
431.000000	20.702800
430.000000	20.175500
429.000000	19.663300
428.000000	19.167000
427.000000	18.636500
426.000000	18.092100
425.000000	17.568000
424.000000	17.031700
423.000000	16.494300
422.000000	15.966500
421.000000	15.432800
420.000000	14.922700
419.000000	14.429500
418.000000	13.941400
417.000000	13.462900
416.000000	13.004800
415.000000	12.566700
414.000000	12.148300
413.000000	11.744800
412.000000	11.365300
411.000000	10.993500
410.000000	10.648100
409.000000	10.335800
408.000000	10.024700
407.000000	9.746600
406.000000	9.500900
405.000000	9.269600
404.000000	9.036900
403.000000	8.819900
402.000000	8.614200
401.000000	8.423300
400.000000	8.260900
399.000000	8.111000
398.000000	7.977500
397.000000	7.853900
396.000000	7.725800
395.000000	7.615000
394.000000	7.513500
393.000000	7.424000
392.000000	7.345000
391.000000	7.269400
390.000000	7.183100
389.000000	7.106400
388.000000	7.043500
387.000000	6.970800
386.000000	6.925000
385.000000	6.879000
384.000000	6.844900
383.000000	6.799400
382.000000	6.741000
381.000000	6.699000
380.000000	6.669800
379.000000	6.653500
378.000000	6.619500
377.000000	6.572700
376.000000	6.551500
375.000000	6.553900
374.000000	6.558100
373.000000	6.581800
372.000000	6.470800
371.000000	6.482800
370.000000	6.465500
369.000000	6.391400
368.000000	6.365800
367.000000	6.315200
366.000000	6.338900
365.000000	6.331900
364.000000	6.269700
363.000000	6.246100
362.000000	6.233800
361.000000	6.197100
360.000000	6.201700
359.000000	6.183600
358.000000	6.178400
357.000000	6.147300
356.000000	6.125800
355.000000	6.100600
354.000000	6.060500
353.000000	6.058400
352.000000	6.029400
351.000000	5.966600
350.000000	5.979600
349.000000	5.947400
348.000000	5.990700
347.000000	6.022100
346.000000	6.022300
345.000000	5.946800
344.000000	5.921300
343.000000	5.949700
342.000000	5.939900
341.000000	5.908700
340.000000	5.899400
339.000000	5.938300
338.000000	5.990400
337.000000	5.889600
336.000000	5.932800
335.000000	5.901600
334.000000	5.899200
333.000000	5.860100
332.000000	5.914400
331.000000	5.888500
330.000000	5.904800
329.000000	5.855400
328.000000	5.924700
327.000000	5.921300
326.000000	5.888400
325.000000	5.808700
324.000000	5.881300
323.000000	5.887100
322.000000	5.824000
321.000000	5.799400
320.000000	5.837300
319.000000	5.855400
318.000000	5.937100
317.000000	5.890000
316.000000	5.903600
315.000000	5.932400
314.000000	5.842900
313.000000	5.933800
312.000000	5.863500
311.000000	5.953700
310.000000	5.943400
309.000000	5.928700
308.000000	5.918200
307.000000	5.891600
306.000000	5.979200
305.000000	5.955400
304.000000	5.924800
303.000000	5.942700
302.000000	5.937300
301.000000	5.960000
300.000000	5.948900
299.000000	5.942400
298.000000	5.976600
297.000000	5.982400
296.000000	5.968800
295.000000	5.970300
294.000000	5.978900
293.000000	5.961300
292.000000	6.040300
291.000000	5.986600
290.000000	5.999500
289.000000	6.034600
288.000000	6.019900
287.000000	6.007500
286.000000	6.035800
285.000000	6.038300
284.000000	6.032100
283.000000	5.984800
282.000000	6.050000
281.000000	6.089200
280.000000	6.040100
279.000000	6.043300
278.000000	6.092300
277.000000	6.087100
276.000000	6.062200
275.000000	6.076500
274.000000	6.105300
273.000000	6.092000
272.000000	6.094200
271.000000	6.171500
270.000000	6.155300
269.000000	6.163400
268.000000	6.231400
267.000000	6.180800
266.000000	6.212900
265.000000	6.240200
264.000000	6.274400
263.000000	6.305500
262.000000	6.293600
261.000000	6.342500
260.000000	6.339700
259.000000	6.388300
258.000000	6.400800
257.000000	6.429100
256.000000	6.436000
255.000000	6.477800
254.000000	6.483700
253.000000	6.462200
252.000000	6.468800
251.000000	6.534100
250.000000	6.523800
