PE UV       SUBTECH     SPECTRUM    ASCII       PEDS        4.00        
   -1
CICIMAUCR0253-1.ASC
24/06/26
11:50:58.00
24/06/26
11:50:58.00
Vinicio Soto Monge
C. resplendens. Sex M. Dorsal.
250,000000
1
Lambda 1050
1050L1511233
PerkinElmer UV WinLab 6.3.2.0749 / 2.02.05 Lambda 900 UV/VIS/NIR, Aug  7 2015 09:38:08

0
0
3350/servo 860,8/2
0
0
UV/VIS
1
1
1
DoubleDePol,CommonBeamDepol,RBeamAtt,SBeamAtt,60mm sphere, WB InGaAs Detector
0
0
0
0
Program
Program
3350/servo 860,8/2
3350/0,2 860,8/0,2
3350/0,2 860,8/0,2
0
15.00
 
 
 
0
 
860,8
319,2
860,8
Front
100
on
S:100 R:100
0
0
0
0
 
0
 
 
 
0
 
 
0
0
0
0
0
 
 
 
 
0
0


0
0
#HDR
-1
-1
#GR
nm
%R
1.0
0.0
2500,000000
-1,000000
2251
8
92,405500
5,523500
#DATA
2482.000000	9.759649
2481.000000	9.758444
2480.000000	9.821727
2479.000000	9.811682
2478.000000	9.748499
2477.000000	9.780744
2476.000000	9.800633
2475.000000	9.779840
2474.000000	9.850355
2473.000000	9.862509
2472.000000	9.895155
2471.000000	9.875065
2470.000000	9.918560
2469.000000	9.940458
2468.000000	9.967177
2467.000000	9.969689
2466.000000	9.967579
2465.000000	10.008462
2464.000000	10.044523
2463.000000	10.123075
2462.000000	10.149593
2461.000000	10.204439
2460.000000	10.222017
2459.000000	10.254462
2458.000000	10.332913
2457.000000	10.400315
2456.000000	10.427235
2455.000000	10.502672
2454.000000	10.591168
2453.000000	10.660277
2452.000000	10.744554
2451.000000	10.793875
2450.000000	10.852035
2449.000000	10.964438
2448.000000	11.041482
2447.000000	11.127868
2446.000000	11.232235
2445.000000	11.308074
2444.000000	11.413747
2443.000000	11.476528
2442.000000	11.565626
2441.000000	11.644680
2440.000000	11.740609
2439.000000	11.837542
2438.000000	11.890781
2437.000000	11.991431
2436.000000	12.085552
2435.000000	12.171335
2434.000000	12.213624
2433.000000	12.290368
2432.000000	12.351240
2431.000000	12.444055
2430.000000	12.521200
2429.000000	12.590209
2428.000000	12.658313
2427.000000	12.713259
2426.000000	12.779756
2425.000000	12.837515
2424.000000	12.916970
2423.000000	12.969103
2422.000000	13.020131
2421.000000	13.075579
2420.000000	13.132735
2419.000000	13.192703
2418.000000	13.240919
2417.000000	13.279491
2416.000000	13.324392
2415.000000	13.391794
2414.000000	13.419819
2413.000000	13.467432
2412.000000	13.528405
2411.000000	13.572100
2410.000000	13.623731
2409.000000	13.656879
2408.000000	13.705999
2407.000000	13.734225
2406.000000	13.774104
2405.000000	13.830556
2404.000000	13.874352
2403.000000	13.912623
2402.000000	13.933617
2401.000000	13.976810
2400.000000	14.021008
2399.000000	14.052448
2398.000000	14.100162
2397.000000	14.133009
2396.000000	14.163143
2395.000000	14.209551
2394.000000	14.234462
2393.000000	14.268716
2392.000000	14.307790
2391.000000	14.337423
2390.000000	14.369868
2389.000000	14.397692
2388.000000	14.421599
2387.000000	14.430841
2386.000000	14.457359
2385.000000	14.471523
2384.000000	14.494626
2383.000000	14.513109
2382.000000	14.515921
2381.000000	14.534504
2380.000000	14.531491
2379.000000	14.534103
2378.000000	14.539326
2377.000000	14.533199
2376.000000	14.533299
2375.000000	14.529884
2374.000000	14.516926
2373.000000	14.512707
2372.000000	14.511200
2371.000000	14.497137
2370.000000	14.489604
2369.000000	14.476545
2368.000000	14.449524
2367.000000	14.433452
2366.000000	14.398597
2365.000000	14.371977
2364.000000	14.350180
2363.000000	14.313014
2362.000000	14.269419
2361.000000	14.230444
2360.000000	14.189260
2359.000000	14.149985
2358.000000	14.116133
2357.000000	14.076355
2356.000000	14.035975
2355.000000	14.000717
2354.000000	13.966062
2353.000000	13.932211
2352.000000	13.918650
2351.000000	13.932713
2350.000000	13.906194
2349.000000	13.894643
2348.000000	13.927289
2347.000000	13.946977
2346.000000	13.973495
2345.000000	14.000215
2344.000000	14.025227
2343.000000	14.061187
2342.000000	14.108600
2341.000000	14.151391
2340.000000	14.177910
2339.000000	14.212866
2338.000000	14.250032
2337.000000	14.279062
2336.000000	14.293225
2335.000000	14.300156
2334.000000	14.290312
2333.000000	14.306485
2332.000000	14.315425
2331.000000	14.291216
2330.000000	14.263191
2329.000000	14.231750
2328.000000	14.208446
2327.000000	14.165454
2326.000000	14.117339
2325.000000	14.063397
2324.000000	14.008753
2323.000000	13.953104
2322.000000	13.869129
2321.000000	13.779026
2320.000000	13.703789
2319.000000	13.607458
2318.000000	13.496562
2317.000000	13.381749
2316.000000	13.275373
2315.000000	13.154332
2314.000000	13.042331
2313.000000	12.941982
2312.000000	12.810996
2311.000000	12.698292
2310.000000	12.609796
2309.000000	12.529939
2308.000000	12.456008
2307.000000	12.375750
2306.000000	12.316384
2305.000000	12.292477
2304.000000	12.258827
2303.000000	12.270378
2302.000000	12.285647
2301.000000	12.311562
2300.000000	12.360883
2299.000000	12.427682
2298.000000	12.511356
2297.000000	12.583278
2296.000000	12.674385
2295.000000	12.746307
2294.000000	12.824557
2293.000000	12.922997
2292.000000	13.013401
2291.000000	13.085524
2290.000000	13.149209
2289.000000	13.209177
2288.000000	13.257091
2287.000000	13.277282
2286.000000	13.291746
2285.000000	13.308019
2284.000000	13.309626
2283.000000	13.292248
2282.000000	13.269145
2281.000000	13.215003
2280.000000	13.196319
2279.000000	13.136452
2278.000000	13.087131
2277.000000	13.030578
2276.000000	12.976637
2275.000000	12.924705
2274.000000	12.886936
2273.000000	12.827570
2272.000000	12.773328
2271.000000	12.749220
2270.000000	12.760972
2269.000000	12.768807
2268.000000	12.788295
2267.000000	12.812603
2266.000000	12.875384
2265.000000	12.975733
2264.000000	13.072666
2263.000000	13.199433
2262.000000	13.359851
2261.000000	13.536541
2260.000000	13.708611
2259.000000	13.932914
2258.000000	14.148377
2257.000000	14.401208
2256.000000	14.643994
2255.000000	14.859859
2254.000000	15.112690
2253.000000	15.370744
2252.000000	15.635629
2251.000000	15.842956
2250.000000	16.055005
2249.000000	16.278705
2248.000000	16.480508
2247.000000	16.666037
2246.000000	16.824848
2245.000000	17.001337
2244.000000	17.152513
2243.000000	17.287617
2242.000000	17.413480
2241.000000	17.527992
2240.000000	17.631154
2239.000000	17.714527
2238.000000	17.792074
2237.000000	17.865703
2236.000000	17.929488
2235.000000	17.987648
2234.000000	18.040485
2233.000000	18.105174
2232.000000	18.146860
2231.000000	18.162932
2230.000000	18.166046
2229.000000	18.193770
2228.000000	18.193469
2227.000000	18.205422
2226.000000	18.178301
2225.000000	18.176593
2224.000000	18.137418
2223.000000	18.139126
2222.000000	18.111000
2221.000000	18.074436
2220.000000	18.020294
2219.000000	17.968663
2218.000000	17.953596
2217.000000	17.895034
2216.000000	17.864698
2215.000000	17.819295
2214.000000	17.765555
2213.000000	17.714527
2212.000000	17.676657
2211.000000	17.625830
2210.000000	17.574802
2209.000000	17.539243
2208.000000	17.494041
2207.000000	17.463605
2206.000000	17.414485
2205.000000	17.401828
2204.000000	17.374104
2203.000000	17.332619
2202.000000	17.303790
2201.000000	17.302383
2200.000000	17.257985
2199.000000	17.259492
2198.000000	17.205751
2197.000000	17.179735
2196.000000	17.162960
2195.000000	17.135638
2194.000000	17.139254
2193.000000	17.108516
2192.000000	17.090034
2191.000000	17.065022
2190.000000	17.078281
2189.000000	17.049452
2188.000000	17.021427
2187.000000	17.009775
2186.000000	16.977229
2185.000000	16.954628
2184.000000	16.951313
2183.000000	16.930721
2182.000000	16.892048
2181.000000	16.882606
2180.000000	16.859603
2179.000000	16.814501
2178.000000	16.825350
2177.000000	16.812292
2176.000000	16.813798
2175.000000	16.795918
2174.000000	16.776431
2173.000000	16.779746
2172.000000	16.775427
2171.000000	16.793608
2170.000000	16.788586
2169.000000	16.786878
2168.000000	16.824245
2167.000000	16.828464
2166.000000	16.842929
2165.000000	16.856791
2164.000000	16.861411
2163.000000	16.895363
2162.000000	16.937351
2161.000000	16.962564
2160.000000	16.991995
2159.000000	17.024340
2158.000000	17.063214
2157.000000	17.104298
2156.000000	17.136140
2155.000000	17.176822
2154.000000	17.212582
2153.000000	17.261902
2152.000000	17.306201
2151.000000	17.345074
2150.000000	17.393591
2149.000000	17.441104
2148.000000	17.502880
2147.000000	17.547178
2146.000000	17.580126
2145.000000	17.623319
2144.000000	17.652750
2143.000000	17.701067
2142.000000	17.739940
2141.000000	17.777207
2140.000000	17.810054
2139.000000	17.835568
2138.000000	17.846316
2137.000000	17.869520
2136.000000	17.902467
2135.000000	17.926475
2134.000000	17.945962
2133.000000	17.967659
2132.000000	17.967960
2131.000000	17.961833
2130.000000	17.980918
2129.000000	17.988854
2128.000000	17.996789
2127.000000	17.988753
2126.000000	17.981420
2125.000000	17.965851
2124.000000	17.968663
2123.000000	17.952893
2122.000000	17.935415
2121.000000	17.911809
2120.000000	17.890815
2119.000000	17.869821
2118.000000	17.843303
2117.000000	17.805534
2116.000000	17.777207
2115.000000	17.745867
2114.000000	17.708801
2113.000000	17.687807
2112.000000	17.659179
2111.000000	17.615584
2110.000000	17.570683
2109.000000	17.532312
2108.000000	17.506095
2107.000000	17.462801
2106.000000	17.425032
2105.000000	17.371091
2104.000000	17.333724
2103.000000	17.300274
2102.000000	17.260396
2101.000000	17.225841
2100.000000	17.184757
2099.000000	17.150504
2098.000000	17.116552
2097.000000	17.087623
2096.000000	17.048950
2095.000000	17.004351
2094.000000	16.980343
2093.000000	16.961861
2092.000000	16.926402
2091.000000	16.880497
2090.000000	16.849056
2089.000000	16.825149
2088.000000	16.789590
2087.000000	16.751218
2086.000000	16.711240
2085.000000	16.674877
2084.000000	16.637912
2083.000000	16.601750
2082.000000	16.564986
2081.000000	16.520587
2080.000000	16.455496
2079.000000	16.398340
2078.000000	16.339979
2077.000000	16.288449
2076.000000	16.248068
2075.000000	16.185689
2074.000000	16.112964
2073.000000	16.041444
2072.000000	15.978965
2071.000000	15.916184
2070.000000	15.842956
2069.000000	15.760789
2068.000000	15.680229
2067.000000	15.604691
2066.000000	15.533974
2065.000000	15.467477
2064.000000	15.406103
2063.000000	15.330665
2062.000000	15.250808
2061.000000	15.188831
2060.000000	15.118315
2059.000000	15.046695
2058.000000	14.999183
2057.000000	14.966737
2056.000000	14.930174
2055.000000	14.881356
2054.000000	14.854335
2053.000000	14.849312
2052.000000	14.841377
2051.000000	14.845194
2050.000000	14.861065
2049.000000	14.880552
2048.000000	14.908979
2047.000000	14.951067
2046.000000	14.989539
2045.000000	15.030925
2044.000000	15.094509
2043.000000	15.154276
2042.000000	15.215450
2041.000000	15.278231
2040.000000	15.318209
2039.000000	15.373256
2038.000000	15.426293
2037.000000	15.477221
2036.000000	15.533372
2035.000000	15.569734
2034.000000	15.608106
2033.000000	15.638241
2032.000000	15.677014
2031.000000	15.703533
2030.000000	15.722919
2029.000000	15.733868
2028.000000	15.747730
2027.000000	15.761592
2026.000000	15.752552
2025.000000	15.748233
2024.000000	15.746625
2023.000000	15.740900
2022.000000	15.748434
2021.000000	15.736078
2020.000000	15.725330
2019.000000	15.710564
2018.000000	15.683845
2017.000000	15.649089
2016.000000	15.622772
2015.000000	15.595048
2014.000000	15.563306
2013.000000	15.529052
2012.000000	15.497110
2011.000000	15.455624
2010.000000	15.401984
2009.000000	15.347742
2008.000000	15.311680
2007.000000	15.269492
2006.000000	15.208619
2005.000000	15.153975
2004.000000	15.102344
2003.000000	15.032030
2002.000000	14.971459
2001.000000	14.887885
2000.000000	14.834446
1999.000000	14.759611
1998.000000	14.697232
1997.000000	14.630032
1996.000000	14.558813
1995.000000	14.454848
1994.000000	14.383127
1993.000000	14.309297
1992.000000	14.206236
1991.000000	14.126279
1990.000000	14.043006
1989.000000	13.961140
1988.000000	13.861293
1987.000000	13.771090
1986.000000	13.677572
1985.000000	13.588272
1984.000000	13.493649
1983.000000	13.411884
1982.000000	13.317562
1981.000000	13.221934
1980.000000	13.137456
1979.000000	13.048056
1978.000000	12.957451
1977.000000	12.860317
1976.000000	12.754343
1975.000000	12.669865
1974.000000	12.569717
1973.000000	12.461433
1972.000000	12.399857
1971.000000	12.321507
1970.000000	12.238837
1969.000000	12.146826
1968.000000	12.059234
1967.000000	11.996252
1966.000000	11.896807
1965.000000	11.846583
1964.000000	11.760699
1963.000000	11.688677
1962.000000	11.610728
1961.000000	11.524743
1960.000000	11.456739
1959.000000	11.366536
1958.000000	11.304157
1957.000000	11.231733
1956.000000	11.169053
1955.000000	11.099542
1954.000000	11.031638
1953.000000	10.967953
1952.000000	10.889502
1951.000000	10.822101
1950.000000	10.773383
1949.000000	10.721752
1948.000000	10.679162
1947.000000	10.628937
1946.000000	10.600711
1945.000000	10.541245
1944.000000	10.484089
1943.000000	10.457972
1942.000000	10.418195
1941.000000	10.421911
1940.000000	10.416386
1939.000000	10.382535
1938.000000	10.374198
1937.000000	10.340949
1936.000000	10.352400
1935.000000	10.346072
1934.000000	10.362847
1933.000000	10.385348
1932.000000	10.419902
1931.000000	10.464100
1930.000000	10.498353
1929.000000	10.577306
1928.000000	10.613870
1927.000000	10.677253
1926.000000	10.750380
1925.000000	10.810147
1924.000000	10.902259
1923.000000	11.019484
1922.000000	11.107377
1921.000000	11.219980
1920.000000	11.339214
1919.000000	11.437955
1918.000000	11.569142
1917.000000	11.746535
1916.000000	11.885256
1915.000000	12.074804
1914.000000	12.252297
1913.000000	12.439736
1912.000000	12.634005
1911.000000	12.796130
1910.000000	13.008781
1909.000000	13.234289
1908.000000	13.483705
1907.000000	13.732819
1906.000000	14.001119
1905.000000	14.270825
1904.000000	14.546960
1903.000000	14.827013
1902.000000	15.146743
1901.000000	15.489676
1900.000000	15.820456
1899.000000	16.171124
1898.000000	16.539170
1897.000000	16.917462
1896.000000	17.306502
1895.000000	17.694939
1894.000000	18.118333
1893.000000	18.572866
1892.000000	19.051707
1891.000000	19.595841
1890.000000	20.108634
1889.000000	20.606159
1888.000000	21.123172
1887.000000	21.695431
1886.000000	22.258148
1885.000000	22.845073
1884.000000	23.413816
1883.000000	24.011188
1882.000000	24.630257
1881.000000	25.179614
1880.000000	25.767845
1879.000000	26.303139
1878.000000	26.828890
1877.000000	27.353034
1876.000000	27.847345
1875.000000	28.337336
1874.000000	28.815977
1873.000000	29.253735
1872.000000	29.681749
1871.000000	30.068981
1870.000000	30.418645
1869.000000	30.750228
1868.000000	31.070460
1867.000000	31.347399
1866.000000	31.588175
1865.000000	31.779431
1864.000000	31.992082
1863.000000	32.199309
1862.000000	32.391870
1861.000000	32.585034
1860.000000	32.769358
1859.000000	32.948761
1858.000000	33.070304
1857.000000	33.187830
1856.000000	33.314195
1855.000000	33.410224
1854.000000	33.494401
1853.000000	33.564113
1852.000000	33.610520
1851.000000	33.677520
1850.000000	33.772846
1849.000000	33.834924
1848.000000	33.867168
1847.000000	33.880427
1846.000000	33.849188
1845.000000	33.819153
1844.000000	33.848083
1843.000000	33.891376
1842.000000	33.956769
1841.000000	33.986301
1840.000000	33.953856
1839.000000	33.950842
1838.000000	33.946121
1837.000000	33.927538
1836.000000	33.907247
1835.000000	33.875003
1834.000000	33.824377
1833.000000	33.782489
1832.000000	33.773750
1831.000000	33.773248
1830.000000	33.742209
1829.000000	33.700925
1828.000000	33.674607
1827.000000	33.620063
1826.000000	33.563610
1825.000000	33.536791
1824.000000	33.509870
1823.000000	33.503341
1822.000000	33.528152
1821.000000	33.526746
1820.000000	33.481543
1819.000000	33.429511
1818.000000	33.388527
1817.000000	33.377478
1816.000000	33.369442
1815.000000	33.367534
1814.000000	33.358192
1813.000000	33.345636
1812.000000	33.338504
1811.000000	33.310378
1810.000000	33.268691
1809.000000	33.230420
1808.000000	33.210632
1807.000000	33.190341
1806.000000	33.162014
1805.000000	33.109881
1804.000000	33.067793
1803.000000	33.037658
1802.000000	33.002903
1801.000000	32.975982
1800.000000	32.932789
1799.000000	32.876638
1798.000000	32.836358
1797.000000	32.805219
1796.000000	32.770262
1795.000000	32.735708
1794.000000	32.706778
1793.000000	32.674635
1792.000000	32.635058
1791.000000	32.600403
1790.000000	32.566652
1789.000000	32.535613
1788.000000	32.506081
1787.000000	32.472732
1786.000000	32.446313
1785.000000	32.414772
1784.000000	32.374693
1783.000000	32.327884
1782.000000	32.284188
1781.000000	32.242301
1780.000000	32.205034
1779.000000	32.157823
1778.000000	32.108804
1777.000000	32.063300
1776.000000	32.014984
1775.000000	31.968577
1774.000000	31.894345
1773.000000	31.830459
1772.000000	31.772098
1771.000000	31.694752
1770.000000	31.630666
1769.000000	31.559447
1768.000000	31.492447
1767.000000	31.421430
1766.000000	31.352019
1765.000000	31.305009
1764.000000	31.266537
1763.000000	31.229773
1762.000000	31.217116
1761.000000	31.240822
1760.000000	31.284718
1759.000000	31.333336
1758.000000	31.389889
1757.000000	31.458194
1756.000000	31.516053
1755.000000	31.579135
1754.000000	31.642619
1753.000000	31.698971
1752.000000	31.751606
1751.000000	31.791585
1750.000000	31.816296
1749.000000	31.824432
1748.000000	31.819912
1747.000000	31.796608
1746.000000	31.777020
1745.000000	31.749296
1744.000000	31.690935
1743.000000	31.615297
1742.000000	31.529814
1741.000000	31.432077
1740.000000	31.313547
1739.000000	31.169101
1738.000000	31.030582
1737.000000	30.901906
1736.000000	30.765295
1735.000000	30.636921
1734.000000	30.544608
1733.000000	30.464651
1732.000000	30.433813
1731.000000	30.424270
1730.000000	30.448880
1729.000000	30.485845
1728.000000	30.565301
1727.000000	30.627680
1726.000000	30.712861
1725.000000	30.813310
1724.000000	30.872073
1723.000000	30.938269
1722.000000	31.010994
1721.000000	31.104412
1720.000000	31.193008
1719.000000	31.278089
1718.000000	31.379040
1717.000000	31.475471
1716.000000	31.582550
1715.000000	31.695053
1714.000000	31.811273
1713.000000	31.929100
1712.000000	32.028746
1711.000000	32.126684
1710.000000	32.218997
1709.000000	32.278965
1708.000000	32.318944
1707.000000	32.365854
1706.000000	32.380921
1705.000000	32.387551
1704.000000	32.367863
1703.000000	32.349882
1702.000000	32.317236
1701.000000	32.248127
1700.000000	32.169074
1699.000000	32.087710
1698.000000	32.002227
1697.000000	31.919156
1696.000000	31.841609
1695.000000	31.783449
1694.000000	31.765368
1693.000000	31.759642
1692.000000	31.812378
1691.000000	31.888921
1690.000000	31.974604
1689.000000	32.080377
1688.000000	32.191172
1687.000000	32.269121
1686.000000	32.366054
1685.000000	32.459271
1684.000000	32.559018
1683.000000	32.670918
1682.000000	32.858457
1681.000000	33.057145
1680.000000	33.339609
1679.000000	33.644070
1678.000000	33.982986
1677.000000	34.363890
1676.000000	34.691957
1675.000000	35.006263
1674.000000	35.299273
1673.000000	35.559437
1672.000000	35.792278
1671.000000	35.992072
1670.000000	36.156407
1669.000000	36.345352
1668.000000	36.462475
1667.000000	36.593260
1666.000000	36.695719
1665.000000	36.787730
1664.000000	36.867788
1663.000000	36.961306
1662.000000	37.020371
1661.000000	37.071198
1660.000000	37.124536
1659.000000	37.197965
1658.000000	37.224082
1657.000000	37.224483
1656.000000	37.285858
1655.000000	37.287264
1654.000000	37.281739
1653.000000	37.295401
1652.000000	37.286862
1651.000000	37.288871
1650.000000	37.259942
1649.000000	37.244071
1648.000000	37.221972
1647.000000	37.175565
1646.000000	37.151859
1645.000000	37.127952
1644.000000	37.099525
1643.000000	37.048999
1642.000000	37.013138
1641.000000	36.974264
1640.000000	36.935089
1639.000000	36.875020
1638.000000	36.821280
1637.000000	36.784817
1636.000000	36.718119
1635.000000	36.672414
1634.000000	36.617368
1633.000000	36.568952
1632.000000	36.484273
1631.000000	36.446705
1630.000000	36.386636
1629.000000	36.324860
1628.000000	36.245103
1627.000000	36.185135
1626.000000	36.124062
1625.000000	36.056660
1624.000000	35.986245
1623.000000	35.917538
1622.000000	35.847224
1621.000000	35.773092
1620.000000	35.728292
1619.000000	35.657576
1618.000000	35.604337
1617.000000	35.539447
1616.000000	35.468731
1615.000000	35.414890
1614.000000	35.336540
1613.000000	35.286918
1612.000000	35.217206
1611.000000	35.153220
1610.000000	35.084010
1609.000000	35.029667
1608.000000	34.962467
1607.000000	34.889340
1606.000000	34.832887
1605.000000	34.766390
1604.000000	34.695071
1603.000000	34.624756
1602.000000	34.562377
1601.000000	34.492163
1600.000000	34.413612
1599.000000	34.336467
1598.000000	34.287950
1597.000000	34.224165
1596.000000	34.150636
1595.000000	34.092174
1594.000000	34.026983
1593.000000	33.957472
1592.000000	33.912772
1591.000000	33.834221
1590.000000	33.767322
1589.000000	33.724430
1588.000000	33.679428
1587.000000	33.598366
1586.000000	33.538398
1585.000000	33.475516
1584.000000	33.426698
1583.000000	33.365826
1582.000000	33.301639
1581.000000	33.254327
1580.000000	33.213947
1579.000000	33.155887
1578.000000	33.109379
1577.000000	33.049511
1576.000000	33.019879
1575.000000	32.971964
1574.000000	32.931584
1573.000000	32.913704
1572.000000	32.874127
1571.000000	32.843892
1570.000000	32.802004
1569.000000	32.778499
1568.000000	32.757003
1567.000000	32.746858
1566.000000	32.727672
1565.000000	32.705673
1564.000000	32.673731
1563.000000	32.645203
1562.000000	32.613461
1561.000000	32.594074
1560.000000	32.556607
1559.000000	32.521851
1558.000000	32.476046
1557.000000	32.414772
1556.000000	32.367963
1555.000000	32.333408
1554.000000	32.276554
1553.000000	32.221106
1552.000000	32.158024
1551.000000	32.098257
1550.000000	32.036581
1549.000000	31.975006
1548.000000	31.903586
1547.000000	31.826039
1546.000000	31.759341
1545.000000	31.699574
1544.000000	31.634884
1543.000000	31.572305
1542.000000	31.526299
1541.000000	31.474768
1540.000000	31.417814
1539.000000	31.358247
1538.000000	31.302196
1537.000000	31.246246
1536.000000	31.192807
1535.000000	31.141076
1534.000000	31.082815
1533.000000	31.023751
1532.000000	30.963381
1531.000000	30.909339
1530.000000	30.840733
1529.000000	30.779860
1528.000000	30.715171
1527.000000	30.631698
1526.000000	30.567611
1525.000000	30.509451
1524.000000	30.432507
1523.000000	30.361791
1522.000000	30.296398
1521.000000	30.202277
1520.000000	30.117297
1519.000000	30.054918
1518.000000	29.976367
1517.000000	29.885259
1516.000000	29.811630
1515.000000	29.730065
1514.000000	29.644884
1513.000000	29.561813
1512.000000	29.481252
1511.000000	29.396272
1510.000000	29.307274
1509.000000	29.222294
1508.000000	29.121945
1507.000000	29.031240
1506.000000	28.953894
1505.000000	28.877151
1504.000000	28.796189
1503.000000	28.711811
1502.000000	28.622914
1501.000000	28.544664
1500.000000	28.459684
1499.000000	28.373297
1498.000000	28.301978
1497.000000	28.235883
1496.000000	28.160546
1495.000000	28.080488
1494.000000	28.019314
1493.000000	27.960250
1492.000000	27.896364
1491.000000	27.834990
1490.000000	27.777131
1489.000000	27.724295
1488.000000	27.661715
1487.000000	27.595720
1486.000000	27.544892
1485.000000	27.502101
1484.000000	27.450370
1483.000000	27.392109
1482.000000	27.337967
1481.000000	27.295477
1480.000000	27.252987
1479.000000	27.202863
1478.000000	27.158765
1477.000000	27.136365
1476.000000	27.096587
1475.000000	27.065247
1474.000000	27.044956
1473.000000	27.040838
1472.000000	27.046865
1471.000000	27.031295
1470.000000	26.991417
1469.000000	26.959374
1468.000000	26.950735
1467.000000	26.943804
1466.000000	26.936672
1465.000000	26.951840
1464.000000	26.944206
1463.000000	26.937677
1462.000000	26.951739
1461.000000	26.972432
1460.000000	26.990211
1459.000000	27.017634
1458.000000	27.029588
1457.000000	27.066955
1456.000000	27.104925
1455.000000	27.154044
1454.000000	27.204570
1453.000000	27.246156
1452.000000	27.312051
1451.000000	27.374530
1450.000000	27.433193
1449.000000	27.488339
1448.000000	27.531733
1447.000000	27.617115
1446.000000	27.699685
1445.000000	27.782656
1444.000000	27.838104
1443.000000	27.910628
1442.000000	28.001936
1441.000000	28.091738
1440.000000	28.168883
1439.000000	28.272145
1438.000000	28.384447
1437.000000	28.484595
1436.000000	28.580323
1435.000000	28.691119
1434.000000	28.811658
1433.000000	28.950177
1432.000000	29.080962
1431.000000	29.195776
1430.000000	29.346349
1429.000000	29.509177
1428.000000	29.662764
1427.000000	29.819666
1426.000000	29.990329
1425.000000	30.181484
1424.000000	30.387907
1423.000000	30.592221
1422.000000	30.784381
1421.000000	31.016720
1420.000000	31.272363
1419.000000	31.518966
1418.000000	31.777221
1417.000000	32.020208
1416.000000	32.269724
1415.000000	32.567556
1414.000000	32.890500
1413.000000	33.169347
1412.000000	33.464668
1411.000000	33.760792
1410.000000	34.125021
1409.000000	34.526718
1408.000000	34.895969
1407.000000	35.282197
1406.000000	35.644517
1405.000000	36.060477
1404.000000	36.422296
1403.000000	36.824595
1402.000000	37.256527
1401.000000	37.690467
1400.000000	38.150123
1399.000000	38.548806
1398.000000	38.874764
1397.000000	39.242810
1396.000000	39.660378
1395.000000	40.093013
1394.000000	40.491997
1393.000000	40.822274
1392.000000	41.205488
1391.000000	41.635511
1390.000000	42.032487
1389.000000	42.432275
1388.000000	42.926786
1387.000000	43.394579
1386.000000	43.871512
1385.000000	44.326245
1384.000000	44.822465
1383.000000	45.319186
1382.000000	45.800840
1381.000000	46.201834
1380.000000	46.560940
1379.000000	46.801817
1378.000000	47.075843
1377.000000	47.269308
1376.000000	47.482863
1375.000000	47.656741
1374.000000	47.846088
1373.000000	48.059844
1372.000000	48.328746
1371.000000	48.555561
1370.000000	48.806583
1369.000000	49.021947
1368.000000	49.246149
1367.000000	49.461513
1366.000000	49.642623
1365.000000	49.782850
1364.000000	49.969685
1363.000000	50.084901
1362.000000	50.279672
1361.000000	50.400110
1360.000000	50.476854
1359.000000	50.484488
1358.000000	50.609547
1357.000000	50.692116
1356.000000	50.823403
1355.000000	50.980908
1354.000000	51.185021
1353.000000	51.375272
1352.000000	51.573860
1351.000000	51.891179
1350.000000	52.181879
1349.000000	52.471876
1348.000000	52.738569
1347.000000	52.991500
1346.000000	53.240413
1345.000000	53.449950
1344.000000	53.711219
1343.000000	53.981628
1342.000000	54.198398
1341.000000	54.435659
1340.000000	54.661469
1339.000000	54.890493
1338.000000	55.128759
1337.000000	55.344222
1336.000000	55.566416
1335.000000	55.780474
1334.000000	56.000558
1333.000000	56.211501
1332.000000	56.414208
1331.000000	56.640420
1330.000000	56.847144
1329.000000	57.034181
1328.000000	57.236787
1327.000000	57.403834
1326.000000	57.587254
1325.000000	57.761835
1324.000000	57.935010
1323.000000	58.107481
1322.000000	58.262474
1321.000000	58.418271
1320.000000	58.573264
1319.000000	58.714697
1318.000000	58.864266
1317.000000	59.005799
1316.000000	59.129652
1315.000000	59.265761
1314.000000	59.395341
1313.000000	59.507241
1312.000000	59.619142
1311.000000	59.743598
1310.000000	59.841938
1309.000000	59.945702
1308.000000	60.042435
1307.000000	60.134949
1306.000000	60.215007
1305.000000	60.291549
1304.000000	60.373817
1303.000000	60.443930
1302.000000	60.494557
1301.000000	60.541969
1300.000000	60.604850
1299.000000	60.663412
1298.000000	60.703491
1297.000000	60.741059
1296.000000	60.769185
1295.000000	60.811374
1294.000000	60.835883
1293.000000	60.871744
1292.000000	60.888418
1291.000000	60.896555
1290.000000	60.909211
1289.000000	60.909613
1288.000000	60.913732
1287.000000	60.904490
1286.000000	60.894144
1285.000000	60.886711
1284.000000	60.864712
1283.000000	60.841408
1282.000000	60.807055
1281.000000	60.786663
1280.000000	60.769386
1279.000000	60.746986
1278.000000	60.721673
1277.000000	60.702688
1276.000000	60.680488
1275.000000	60.659193
1274.000000	60.636190
1273.000000	60.628757
1272.000000	60.610475
1271.000000	60.598723
1270.000000	60.596011
1269.000000	60.577227
1268.000000	60.580039
1267.000000	60.572104
1266.000000	60.560552
1265.000000	60.544982
1264.000000	60.535239
1263.000000	60.518062
1262.000000	60.500282
1261.000000	60.495963
1260.000000	60.491845
1259.000000	60.475873
1258.000000	60.443529
1257.000000	60.423037
1256.000000	60.408371
1255.000000	60.385469
1254.000000	60.352421
1253.000000	60.327108
1252.000000	60.292855
1251.000000	60.250164
1250.000000	60.205765
1249.000000	60.170809
1248.000000	60.121890
1247.000000	60.061621
1246.000000	60.018930
1245.000000	59.952432
1244.000000	59.889852
1243.000000	59.837719
1242.000000	59.757360
1241.000000	59.679110
1240.000000	59.617334
1239.000000	59.546115
1238.000000	59.466157
1237.000000	59.387807
1236.000000	59.325729
1235.000000	59.253205
1234.000000	59.166316
1233.000000	59.079629
1232.000000	58.987718
1231.000000	58.896711
1230.000000	58.805201
1229.000000	58.697520
1228.000000	58.596367
1227.000000	58.509479
1226.000000	58.400290
1225.000000	58.286381
1224.000000	58.184626
1223.000000	58.076342
1222.000000	57.960323
1221.000000	57.842395
1220.000000	57.729892
1219.000000	57.616385
1218.000000	57.507698
1217.000000	57.406546
1216.000000	57.300572
1215.000000	57.197913
1214.000000	57.106504
1213.000000	57.017104
1212.000000	56.928307
1211.000000	56.839309
1210.000000	56.735445
1209.000000	56.644538
1208.000000	56.569603
1207.000000	56.481208
1206.000000	56.419130
1205.000000	56.355345
1204.000000	56.293367
1203.000000	56.229582
1202.000000	56.185083
1201.000000	56.153643
1200.000000	56.107135
1199.000000	56.050381
1198.000000	55.995134
1197.000000	55.948123
1196.000000	55.868969
1195.000000	55.759681
1194.000000	55.648383
1193.000000	55.511169
1192.000000	55.347336
1191.000000	55.157487
1190.000000	54.948653
1189.000000	54.734495
1188.000000	54.551377
1187.000000	54.405524
1186.000000	54.300856
1185.000000	54.253143
1184.000000	54.286994
1183.000000	54.384731
1182.000000	54.543039
1181.000000	54.765836
1180.000000	55.026903
1179.000000	55.287067
1178.000000	55.567320
1177.000000	55.839437
1176.000000	56.086442
1175.000000	56.293367
1174.000000	56.493261
1173.000000	56.683211
1172.000000	56.871654
1171.000000	57.074461
1170.000000	57.276966
1169.000000	57.477564
1168.000000	57.680772
1167.000000	57.886392
1166.000000	58.132493
1165.000000	58.351372
1164.000000	58.569949
1163.000000	58.790234
1162.000000	59.051704
1161.000000	59.309758
1160.000000	59.534363
1159.000000	59.784079
1158.000000	60.031084
1157.000000	60.266437
1156.000000	60.489635
1155.000000	60.693748
1154.000000	60.898262
1153.000000	61.083491
1152.000000	61.248730
1151.000000	61.382729
1150.000000	61.498346
1149.000000	61.614968
1148.000000	61.743041
1147.000000	61.871314
1146.000000	62.012646
1145.000000	62.159503
1144.000000	62.351261
1143.000000	62.563410
1142.000000	62.779978
1141.000000	63.052999
1140.000000	63.325518
1139.000000	63.610995
1138.000000	63.903001
1137.000000	64.213088
1136.000000	64.554917
1135.000000	64.895239
1134.000000	65.256555
1133.000000	65.566440
1132.000000	65.816860
1131.000000	66.103442
1130.000000	66.341005
1129.000000	66.549939
1128.000000	66.749934
1127.000000	66.910954
1126.000000	67.046862
1125.000000	67.159967
1124.000000	67.233396
1123.000000	67.333343
1122.000000	67.402251
1121.000000	67.466338
1120.000000	67.497276
1119.000000	67.532433
1118.000000	67.556842
1117.000000	67.588383
1116.000000	67.602045
1115.000000	67.597725
1114.000000	67.595314
1113.000000	67.594812
1112.000000	67.589790
1111.000000	67.580850
1110.000000	67.584365
1109.000000	67.558249
1108.000000	67.554331
1107.000000	67.526306
1106.000000	67.534342
1105.000000	67.525301
1104.000000	67.518672
1103.000000	67.509631
1102.000000	67.476383
1101.000000	67.465032
1100.000000	67.416314
1099.000000	67.412899
1098.000000	67.391704
1097.000000	67.367797
1096.000000	67.316769
1095.000000	67.309335
1094.000000	67.286333
1093.000000	67.235304
1092.000000	67.171519
1091.000000	67.153237
1090.000000	67.107131
1089.000000	67.068458
1088.000000	67.023859
1087.000000	66.976848
1086.000000	66.935363
1085.000000	66.872281
1084.000000	66.836219
1083.000000	66.784689
1082.000000	66.739788
1081.000000	66.673994
1080.000000	66.621459
1079.000000	66.563600
1078.000000	66.524325
1077.000000	66.472493
1076.000000	66.431911
1075.000000	66.352858
1074.000000	66.318906
1073.000000	66.253513
1072.000000	66.203791
1071.000000	66.152562
1070.000000	66.100228
1069.000000	66.072303
1068.000000	66.010728
1067.000000	65.960905
1066.000000	65.888581
1065.000000	65.852721
1064.000000	65.791346
1063.000000	65.742227
1062.000000	65.670908
1061.000000	65.623697
1060.000000	65.584019
1059.000000	65.520033
1058.000000	65.456147
1057.000000	65.422195
1056.000000	65.335307
1055.000000	65.293821
1054.000000	65.218082
1053.000000	65.169164
1052.000000	65.097041
1051.000000	65.036269
1050.000000	64.972986
1049.000000	64.918945
1048.000000	64.862894
1047.000000	64.802122
1046.000000	64.744565
1045.000000	64.669730
1044.000000	64.622117
1043.000000	64.565765
1042.000000	64.486109
1041.000000	64.418205
1040.000000	64.346886
1039.000000	64.295757
1038.000000	64.219014
1037.000000	64.148499
1036.000000	64.047246
1035.000000	63.979041
1034.000000	63.897677
1033.000000	63.815208
1032.000000	63.747505
1031.000000	63.660918
1030.000000	63.567902
1029.000000	63.482119
1028.000000	63.394125
1027.000000	63.294278
1026.000000	63.224466
1025.000000	63.125524
1024.000000	63.017139
1023.000000	62.920105
1022.000000	62.838741
1021.000000	62.734877
1020.000000	62.650097
1019.000000	62.560296
1018.000000	62.468485
1017.000000	62.379286
1016.000000	62.303347
1015.000000	62.252318
1014.000000	62.173164
1013.000000	62.102850
1012.000000	62.047201
1011.000000	62.000291
1010.000000	61.934396
1009.000000	61.894418
1008.000000	61.864685
1007.000000	61.835655
1006.000000	61.803310
1005.000000	61.767148
1004.000000	61.727471
1003.000000	61.709290
1002.000000	61.703564
1001.000000	61.680561
1000.000000	61.661978
999.000000	61.646911
998.000000	61.638875
997.000000	61.640181
996.000000	61.637368
995.000000	61.629734
994.000000	61.623104
993.000000	61.645404
992.000000	61.669612
991.000000	61.673630
990.000000	61.673128
989.000000	61.674836
988.000000	61.692012
987.000000	61.710696
986.000000	61.731690
985.000000	61.747059
984.000000	61.765541
983.000000	61.792462
982.000000	61.817775
981.000000	61.851024
980.000000	61.878346
979.000000	61.903659
978.000000	61.923046
977.000000	61.959007
976.000000	61.988940
975.000000	62.024499
974.000000	62.066387
973.000000	62.094914
972.000000	62.111388
971.000000	62.151467
970.000000	62.192651
969.000000	62.229516
968.000000	62.257642
967.000000	62.292398
966.000000	62.333280
965.000000	62.371652
964.000000	62.416151
963.000000	62.461655
962.000000	62.505450
961.000000	62.561300
960.000000	62.621771
959.000000	62.664562
958.000000	62.711773
957.000000	62.770034
956.000000	62.862246
955.000000	62.963097
954.000000	63.051091
953.000000	63.131952
952.000000	63.226977
951.000000	63.340184
950.000000	63.447966
949.000000	63.552935
948.000000	63.654891
947.000000	63.763778
946.000000	63.875880
945.000000	63.982858
944.000000	64.083106
943.000000	64.177127
942.000000	64.264518
941.000000	64.348192
940.000000	64.434980
939.000000	64.532717
938.000000	64.623222
937.000000	64.709407
936.000000	64.812067
935.000000	64.916735
934.000000	65.036671
933.000000	65.158114
932.000000	65.275037
931.000000	65.399695
930.000000	65.529375
929.000000	65.658151
928.000000	65.787529
927.000000	65.918314
926.000000	66.060249
925.000000	66.175866
924.000000	66.267878
923.000000	66.385604
922.000000	66.507449
921.000000	66.616939
920.000000	66.720301
919.000000	66.817737
918.000000	66.932751
917.000000	67.019539
916.000000	67.119888
915.000000	67.210292
914.000000	67.301500
913.000000	67.426459
912.000000	67.532835
911.000000	67.637403
910.000000	67.761658
909.000000	67.892142
908.000000	68.021219
907.000000	68.130910
906.000000	68.278872
905.000000	68.396799
904.000000	68.501166
903.000000	68.612464
902.000000	68.720446
901.000000	68.848620
900.000000	68.967953
899.000000	69.092310
898.000000	69.209333
897.000000	69.329571
896.000000	69.455936
895.000000	69.590839
894.000000	69.733176
893.000000	69.883147
892.000000	70.041957
891.000000	70.191224
890.000000	70.357970
889.000000	70.523008
888.000000	70.707734
887.000000	70.881210
886.000000	71.040824
885.000000	71.204757
884.000000	71.373010
883.000000	71.540358
882.000000	71.704191
881.000000	71.841706
880.000000	72.011666
879.000000	72.137931
878.000000	72.249128
877.000000	72.326474
876.000000	72.339332
875.000000	72.341441
874.000000	72.340035
873.000000	72.267711
872.000000	72.255457
871.000000	72.380415
870.000000	72.529583
869.000000	72.716619
868.000000	72.894012
867.000000	73.028514
866.000000	73.149555
865.000000	73.271199
864.000000	73.389629
863.000000	73.486261
862.000000	73.596253
861.000000	73.670887
860.000000	73.760488
859.000000	73.863348
858.000000	73.934667
857.000000	73.627000
856.000000	74.132100
855.000000	74.044900
854.000000	73.851900
853.000000	73.567200
852.000000	73.724400
851.000000	73.968600
850.000000	73.824400
849.000000	73.952300
848.000000	73.797000
847.000000	74.136200
846.000000	73.874000
845.000000	74.256000
844.000000	73.608600
843.000000	73.806700
842.000000	74.076000
841.000000	74.083200
840.000000	74.116300
839.000000	73.951100
838.000000	74.321000
837.000000	74.508700
836.000000	74.587700
835.000000	74.435100
834.000000	74.753500
833.000000	75.041300
832.000000	75.387000
831.000000	75.753400
830.000000	75.849800
829.000000	76.069300
828.000000	76.629600
827.000000	77.134500
826.000000	77.225400
825.000000	77.643900
824.000000	77.903400
823.000000	78.215800
822.000000	78.640600
821.000000	78.854700
820.000000	79.142100
819.000000	79.461000
818.000000	79.745800
817.000000	79.983600
816.000000	80.325800
815.000000	80.386300
814.000000	80.788800
813.000000	80.778600
812.000000	80.943400
811.000000	81.228000
810.000000	81.477900
809.000000	81.680700
808.000000	82.161000
807.000000	82.198100
806.000000	82.618000
805.000000	82.679000
804.000000	82.972500
803.000000	83.340400
802.000000	83.589300
801.000000	83.963400
800.000000	84.191400
799.000000	84.450000
798.000000	84.699500
797.000000	85.070600
796.000000	85.378200
795.000000	85.642600
794.000000	85.843000
793.000000	86.214500
792.000000	86.529700
791.000000	86.966000
790.000000	87.109300
789.000000	87.482800
788.000000	87.812000
787.000000	87.929700
786.000000	88.314600
785.000000	88.870800
784.000000	88.961600
783.000000	88.980800
782.000000	89.247000
781.000000	89.393400
780.000000	89.631900
779.000000	89.698200
778.000000	89.926700
777.000000	89.980700
776.000000	90.076700
775.000000	90.043500
774.000000	90.073600
773.000000	90.107200
772.000000	90.147200
771.000000	90.216500
770.000000	90.563900
769.000000	90.505600
768.000000	90.594200
767.000000	90.806600
766.000000	90.888600
765.000000	91.142500
764.000000	91.094400
763.000000	91.151800
762.000000	91.386600
761.000000	91.536600
760.000000	91.680900
759.000000	91.695700
758.000000	91.713100
757.000000	91.873800
756.000000	91.963200
755.000000	92.074600
754.000000	92.182400
753.000000	92.153800
752.000000	92.271600
751.000000	92.125400
750.000000	92.225200
749.000000	92.262800
748.000000	92.314200
747.000000	92.345500
746.000000	92.316200
745.000000	92.360900
744.000000	92.328600
743.000000	92.405500
742.000000	92.295600
741.000000	92.264500
740.000000	92.046100
739.000000	91.859600
738.000000	91.773700
737.000000	91.485000
736.000000	91.317900
735.000000	91.017300
734.000000	90.760400
733.000000	90.553200
732.000000	90.211000
731.000000	90.011800
730.000000	89.881900
729.000000	89.514200
728.000000	89.297400
727.000000	89.129200
726.000000	88.876000
725.000000	88.742700
724.000000	88.611100
723.000000	88.468800
722.000000	88.328200
721.000000	88.186300
720.000000	88.142200
719.000000	88.014500
718.000000	87.933200
717.000000	87.721800
716.000000	87.707400
715.000000	87.520200
714.000000	87.411900
713.000000	87.190600
712.000000	87.006400
711.000000	86.782600
710.000000	86.491400
709.000000	86.246300
708.000000	86.020900
707.000000	85.817300
706.000000	85.669900
705.000000	85.372400
704.000000	85.127200
703.000000	84.784200
702.000000	84.525200
701.000000	84.333600
700.000000	84.141600
699.000000	83.883300
698.000000	83.583200
697.000000	83.328500
696.000000	83.192100
695.000000	82.899900
694.000000	82.550300
693.000000	82.278000
692.000000	81.937700
691.000000	81.609400
690.000000	81.150500
689.000000	80.636800
688.000000	80.098400
687.000000	79.534000
686.000000	78.993600
685.000000	78.448700
684.000000	77.701800
683.000000	76.974500
682.000000	76.325400
681.000000	75.669000
680.000000	75.059900
679.000000	74.409700
678.000000	73.733600
677.000000	73.066900
676.000000	72.423200
675.000000	71.818600
674.000000	71.251000
673.000000	70.650500
672.000000	70.040000
671.000000	69.410500
670.000000	68.753100
669.000000	68.027400
668.000000	67.289100
667.000000	66.463200
666.000000	65.592700
665.000000	64.693600
664.000000	63.655800
663.000000	62.588900
662.000000	61.473200
661.000000	60.333000
660.000000	59.217700
659.000000	58.117200
658.000000	57.066700
657.000000	56.133500
656.000000	55.324000
655.000000	54.605600
654.000000	54.002200
653.000000	53.563000
652.000000	53.298500
651.000000	53.216900
650.000000	53.296700
649.000000	53.487000
648.000000	53.794200
647.000000	54.241900
646.000000	54.767500
645.000000	55.374500
644.000000	56.064700
643.000000	56.781400
642.000000	57.541500
641.000000	58.344700
640.000000	59.112500
639.000000	59.931800
638.000000	60.817500
637.000000	61.725300
636.000000	62.650200
635.000000	63.568300
634.000000	64.562100
633.000000	65.686300
632.000000	66.786000
631.000000	67.906900
630.000000	69.099100
629.000000	70.284000
628.000000	71.488200
627.000000	72.701600
626.000000	73.836200
625.000000	74.950500
624.000000	76.080400
623.000000	77.193100
622.000000	78.189000
621.000000	79.093900
620.000000	79.931900
619.000000	80.765300
618.000000	81.504400
617.000000	82.143400
616.000000	82.756000
615.000000	83.309600
614.000000	83.801700
613.000000	84.274900
612.000000	84.684100
611.000000	85.107500
610.000000	85.460800
609.000000	85.803900
608.000000	86.121100
607.000000	86.434100
606.000000	86.732800
605.000000	87.039000
604.000000	87.408700
603.000000	87.737000
602.000000	88.035600
601.000000	88.353300
600.000000	88.612000
599.000000	88.853200
598.000000	89.128100
597.000000	89.354100
596.000000	89.563000
595.000000	89.741700
594.000000	89.907400
593.000000	90.052100
592.000000	90.155600
591.000000	90.210200
590.000000	90.225900
589.000000	90.251900
588.000000	90.268100
587.000000	90.197500
586.000000	90.111400
585.000000	90.022100
584.000000	89.921500
583.000000	89.758200
582.000000	89.631500
581.000000	89.486600
580.000000	89.332600
579.000000	89.145700
578.000000	88.993900
577.000000	88.839500
576.000000	88.617200
575.000000	88.427200
574.000000	88.247100
573.000000	88.031900
572.000000	87.784600
571.000000	87.582000
570.000000	87.357300
569.000000	87.074600
568.000000	86.794400
567.000000	86.528600
566.000000	86.216000
565.000000	85.874200
564.000000	85.552200
563.000000	85.179900
562.000000	84.775400
561.000000	84.383300
560.000000	83.959700
559.000000	83.445600
558.000000	82.977300
557.000000	82.498000
556.000000	82.011200
555.000000	81.487400
554.000000	80.938900
553.000000	80.397800
552.000000	79.758900
551.000000	79.068800
550.000000	78.344800
549.000000	77.623400
548.000000	76.792400
547.000000	75.870900
546.000000	74.894900
545.000000	73.902600
544.000000	72.792400
543.000000	71.663300
542.000000	70.351200
541.000000	69.049800
540.000000	67.693400
539.000000	66.284500
538.000000	64.867000
537.000000	63.387600
536.000000	61.960700
535.000000	60.454500
534.000000	58.970200
533.000000	57.495000
532.000000	56.001700
531.000000	54.571700
530.000000	53.165100
529.000000	51.821100
528.000000	50.483500
527.000000	49.232400
526.000000	48.002100
525.000000	46.803700
524.000000	45.672200
523.000000	44.567900
522.000000	43.525200
521.000000	42.539500
520.000000	41.624500
519.000000	40.802900
518.000000	40.042000
517.000000	39.344800
516.000000	38.703300
515.000000	38.108100
514.000000	37.554400
513.000000	37.034100
512.000000	36.565300
511.000000	36.078800
510.000000	35.672700
509.000000	35.265700
508.000000	34.860800
507.000000	34.456600
506.000000	34.020400
505.000000	33.590400
504.000000	33.146900
503.000000	32.732700
502.000000	32.284000
501.000000	31.808600
500.000000	31.330800
499.000000	30.898700
498.000000	30.374200
497.000000	29.903900
496.000000	29.354900
495.000000	28.866200
494.000000	28.334400
493.000000	27.816800
492.000000	27.298300
491.000000	26.815200
490.000000	26.305400
489.000000	25.857600
488.000000	25.418500
487.000000	25.004200
486.000000	24.571400
485.000000	24.239900
484.000000	23.927600
483.000000	23.626700
482.000000	23.404700
481.000000	23.198800
480.000000	23.045800
479.000000	22.931900
478.000000	22.893700
477.000000	22.858000
476.000000	22.896900
475.000000	22.955600
474.000000	23.035600
473.000000	23.154600
472.000000	23.304900
471.000000	23.431000
470.000000	23.625700
469.000000	23.761200
468.000000	23.952200
467.000000	24.105300
466.000000	24.303100
465.000000	24.469700
464.000000	24.614800
463.000000	24.754300
462.000000	24.917100
461.000000	25.087300
460.000000	25.219500
459.000000	25.298700
458.000000	25.404600
457.000000	25.439600
456.000000	25.503500
455.000000	25.541700
454.000000	25.593100
453.000000	25.614400
452.000000	25.564600
451.000000	25.514900
450.000000	25.444500
449.000000	25.369300
448.000000	25.274500
447.000000	25.179200
446.000000	25.050600
445.000000	24.861200
444.000000	24.719400
443.000000	24.520100
442.000000	24.315300
441.000000	24.134600
440.000000	23.858400
439.000000	23.612400
438.000000	23.375800
437.000000	23.133400
436.000000	22.848400
435.000000	22.538800
434.000000	22.205300
433.000000	21.919900
432.000000	21.569400
431.000000	21.224200
430.000000	20.897900
429.000000	20.529800
428.000000	20.171000
427.000000	19.812400
426.000000	19.387500
425.000000	18.987000
424.000000	18.582800
423.000000	18.197100
422.000000	17.777700
421.000000	17.371600
420.000000	16.932000
419.000000	16.528300
418.000000	16.095300
417.000000	15.679500
416.000000	15.293100
415.000000	14.885700
414.000000	14.456000
413.000000	14.063300
412.000000	13.663000
411.000000	13.286000
410.000000	12.919200
409.000000	12.535400
408.000000	12.187200
407.000000	11.883700
406.000000	11.550000
405.000000	11.252800
404.000000	10.980700
403.000000	10.684300
402.000000	10.418200
401.000000	10.147100
400.000000	9.896200
399.000000	9.678900
398.000000	9.456000
397.000000	9.274900
396.000000	9.076400
395.000000	8.911600
394.000000	8.732900
393.000000	8.586800
392.000000	8.416700
391.000000	8.278300
390.000000	8.157800
389.000000	8.016100
388.000000	7.909000
387.000000	7.817400
386.000000	7.704000
385.000000	7.599000
384.000000	7.538300
383.000000	7.455300
382.000000	7.370400
381.000000	7.283300
380.000000	7.233400
379.000000	7.159800
378.000000	7.100700
377.000000	7.043300
376.000000	7.147000
375.000000	7.119800
374.000000	6.614200
373.000000	6.527600
372.000000	6.541300
371.000000	6.514400
370.000000	6.440700
369.000000	6.488000
368.000000	6.307100
367.000000	6.260000
366.000000	6.352800
365.000000	6.408900
364.000000	6.271800
363.000000	6.238900
362.000000	6.211600
361.000000	6.160100
360.000000	6.187400
359.000000	6.078100
358.000000	6.184600
357.000000	6.312200
356.000000	6.175400
355.000000	6.251200
354.000000	6.393100
353.000000	6.242200
352.000000	6.197000
351.000000	6.353600
350.000000	6.276800
349.000000	6.104100
348.000000	6.101500
347.000000	6.073400
346.000000	6.062900
345.000000	6.043400
344.000000	5.986300
343.000000	6.023700
342.000000	6.069500
341.000000	5.836700
340.000000	5.731800
339.000000	5.758000
338.000000	5.523500
337.000000	5.530300
336.000000	5.657700
335.000000	6.020100
334.000000	6.150300
333.000000	6.135500
332.000000	6.294100
331.000000	6.181500
330.000000	5.943200
329.000000	6.022500
328.000000	6.081500
327.000000	6.333300
326.000000	6.639300
325.000000	6.467400
324.000000	6.256400
323.000000	6.165400
322.000000	6.218100
321.000000	6.052800
320.000000	6.222000
319.000000	6.204900
318.000000	6.286000
317.000000	6.642500
316.000000	6.146100
315.000000	5.664200
314.000000	5.696900
313.000000	5.723700
312.000000	5.687400
311.000000	5.723400
310.000000	5.753000
309.000000	5.770300
308.000000	5.763800
307.000000	5.723000
306.000000	5.718000
305.000000	5.711100
304.000000	5.713500
303.000000	5.740100
302.000000	5.759300
301.000000	5.724300
300.000000	5.738900
299.000000	5.783200
298.000000	5.771600
297.000000	5.786400
296.000000	5.789500
295.000000	5.728400
294.000000	5.715500
293.000000	5.746100
292.000000	5.732500
291.000000	5.744500
290.000000	5.736600
289.000000	5.733900
288.000000	5.783000
287.000000	5.788500
286.000000	5.817400
285.000000	5.800300
284.000000	5.772100
283.000000	5.790800
282.000000	5.795400
281.000000	5.783800
280.000000	5.786700
279.000000	5.818100
278.000000	5.805100
277.000000	5.801800
276.000000	5.881600
275.000000	5.869600
274.000000	5.821100
273.000000	5.876500
272.000000	5.888200
271.000000	5.854200
270.000000	5.847000
269.000000	5.896800
268.000000	5.922900
267.000000	5.982700
266.000000	6.003500
265.000000	5.996900
264.000000	6.051800
263.000000	6.058400
262.000000	6.073500
261.000000	6.116800
260.000000	6.127500
259.000000	6.157800
258.000000	6.191800
257.000000	6.183000
256.000000	6.153600
255.000000	6.159400
254.000000	6.147000
253.000000	6.130900
252.000000	6.199400
251.000000	6.170600
250.000000	6.197900
