PE UV       SUBTECH     SPECTRUM    ASCII       PEDS        4.00        
   -1
INBUCR0144-1.Sample.ASC
24/04/29
13:14:05.00
24/04/29
13:14:05.00
Vinicio Soto Monge
C. cupreomarginata
250,000000
1
Lambda 1050
1050L1511233
PerkinElmer UV WinLab 6.3.2.0749 / 2.02.05 Lambda 900 UV/VIS/NIR, Aug  7 2015 09:38:08

0
0
3350/servo 860,8/2
0
0
UV/VIS
1
1
1
DoubleDePol,CommonBeamDepol,RBeamAtt,SBeamAtt,60mm sphere, WB InGaAs Detector
0
0
0
0
Program
Program
3350/servo 860,8/2
3350/0,2 860,8/0,2
3350/0,2 860,8/0,2
0
15.00
 
 
 
0
 
860,8
319,2
860,8
Front
100
on
S:100 R:100
0
0
0
0
 
0
 
 
 
0
 
 
0
0
0
0
0
 
 
 
 
0
0


0
0
#HDR
-1
-1
#GR
nm
%R
1.0
0.0
2500,000000
-1,000000
2251
8
81,987700
5,634500
#DATA
2482.000000	16.485307
2481.000000	16.475704
2480.000000	16.497108
2479.000000	16.475010
2478.000000	16.647165
2477.000000	16.639297
2476.000000	16.532742
2475.000000	16.620208
2474.000000	16.643462
2473.000000	16.711838
2472.000000	16.788660
2471.000000	16.813535
2470.000000	16.873812
2469.000000	16.875547
2468.000000	16.936287
2467.000000	17.031157
2466.000000	17.070378
2465.000000	17.150786
2464.000000	17.224368
2463.000000	17.262548
2462.000000	17.380210
2461.000000	17.446041
2460.000000	17.485956
2459.000000	17.604775
2458.000000	17.676043
2457.000000	17.735279
2456.000000	17.852594
2455.000000	17.966554
2454.000000	18.069176
2453.000000	18.170062
2452.000000	18.338167
2451.000000	18.432690
2450.000000	18.570368
2449.000000	18.673336
2448.000000	18.796552
2447.000000	18.960723
2446.000000	19.064965
2445.000000	19.205419
2444.000000	19.364500
2443.000000	19.499169
2442.000000	19.616832
2441.000000	19.722114
2440.000000	19.876567
2439.000000	20.006725
2438.000000	20.147757
2437.000000	20.269931
2436.000000	20.403212
2435.000000	20.511503
2434.000000	20.668502
2433.000000	20.788593
2432.000000	20.892604
2431.000000	21.030397
2430.000000	21.157430
2429.000000	21.265837
2428.000000	21.373665
2427.000000	21.499772
2426.000000	21.603320
2425.000000	21.701545
2424.000000	21.787969
2423.000000	21.869882
2422.000000	21.972388
2421.000000	22.074778
2420.000000	22.155649
2419.000000	22.213844
2418.000000	22.311953
2417.000000	22.401386
2416.000000	22.486075
2415.000000	22.529808
2414.000000	22.594597
2413.000000	22.660196
2412.000000	22.726374
2411.000000	22.776701
2410.000000	22.833276
2409.000000	22.886033
2408.000000	22.931965
2407.000000	22.978358
2406.000000	23.016653
2405.000000	23.038404
2404.000000	23.077741
2403.000000	23.125060
2402.000000	23.167636
2401.000000	23.246540
2400.000000	23.391622
2399.000000	23.540753
2398.000000	23.690810
2397.000000	23.762425
2396.000000	23.765086
2395.000000	23.777581
2394.000000	23.803960
2393.000000	23.834041
2392.000000	23.886219
2391.000000	23.966512
2390.000000	24.021351
2389.000000	24.031764
2388.000000	24.041251
2387.000000	24.067051
2386.000000	24.106040
2385.000000	24.106040
2384.000000	24.132535
2383.000000	24.169210
2382.000000	24.159145
2381.000000	24.175226
2380.000000	24.198481
2379.000000	24.176614
2378.000000	24.192002
2377.000000	24.202415
2376.000000	24.171871
2375.000000	24.194894
2374.000000	24.223355
2373.000000	24.204728
2372.000000	24.213406
2371.000000	24.243833
2370.000000	24.227868
2369.000000	24.199522
2368.000000	24.233421
2367.000000	24.248346
2366.000000	24.215835
2365.000000	24.260725
2364.000000	24.297516
2363.000000	24.285715
2362.000000	24.321234
2361.000000	24.337084
2360.000000	24.319614
2359.000000	24.302491
2358.000000	24.326787
2357.000000	24.354322
2356.000000	24.332803
2355.000000	24.339861
2354.000000	24.357793
2353.000000	24.342753
2352.000000	24.318573
2351.000000	24.327481
2350.000000	24.356636
2349.000000	24.358140
2348.000000	24.327250
2347.000000	24.299714
2346.000000	24.273220
2345.000000	24.296128
2344.000000	24.331993
2343.000000	24.308391
2342.000000	24.303532
2341.000000	24.308507
2340.000000	24.317184
2339.000000	24.335233
2338.000000	24.385213
2337.000000	24.392039
2336.000000	24.374222
2335.000000	24.411592
2334.000000	24.477422
2333.000000	24.515023
2332.000000	24.524395
2331.000000	24.585250
2330.000000	24.621116
2329.000000	24.669824
2328.000000	24.733687
2327.000000	24.755901
2326.000000	24.808311
2325.000000	24.888025
2324.000000	24.930369
2323.000000	24.950500
2322.000000	24.960219
2321.000000	25.010430
2320.000000	25.028942
2319.000000	25.055089
2318.000000	25.064692
2317.000000	25.023504
2316.000000	25.005456
2315.000000	25.005687
2314.000000	25.014596
2313.000000	24.969359
2312.000000	24.918106
2311.000000	24.878422
2310.000000	24.825781
2309.000000	24.798361
2308.000000	24.777767
2307.000000	24.771751
2306.000000	24.733225
2305.000000	24.699789
2304.000000	24.667972
2303.000000	24.671443
2302.000000	24.646800
2301.000000	24.620190
2300.000000	24.615447
2299.000000	24.629909
2298.000000	24.622273
2297.000000	24.660684
2296.000000	24.682434
2295.000000	24.700598
2294.000000	24.718184
2293.000000	24.741439
2292.000000	24.782626
2291.000000	24.810509
2290.000000	24.874836
2289.000000	24.910238
2288.000000	24.942402
2287.000000	24.969590
2286.000000	25.054973
2285.000000	25.100557
2284.000000	25.149496
2283.000000	25.227128
2282.000000	25.265307
2281.000000	25.332410
2280.000000	25.387250
2279.000000	25.455857
2278.000000	25.497161
2277.000000	25.534530
2276.000000	25.589833
2275.000000	25.668968
2274.000000	25.711544
2273.000000	25.736187
2272.000000	25.773325
2271.000000	25.869005
2270.000000	25.917250
2269.000000	25.982965
2268.000000	26.059208
2267.000000	26.167152
2266.000000	26.246056
2265.000000	26.338960
2264.000000	26.471662
2263.000000	26.600894
2262.000000	26.783345
2261.000000	26.940806
2260.000000	27.096417
2259.000000	27.288239
2258.000000	27.513498
2257.000000	27.706594
2256.000000	27.918085
2255.000000	28.139873
2254.000000	28.371957
2253.000000	28.626371
2252.000000	28.837978
2251.000000	29.053750
2250.000000	29.278430
2249.000000	29.515952
2248.000000	29.709395
2247.000000	29.895202
2246.000000	30.081008
2245.000000	30.235346
2244.000000	30.412012
2243.000000	30.564499
2242.000000	30.678227
2241.000000	30.785940
2240.000000	30.848415
2239.000000	30.990373
2238.000000	31.044750
2237.000000	31.102135
2236.000000	31.134530
2235.000000	31.147487
2234.000000	31.177568
2233.000000	31.183237
2232.000000	31.190757
2231.000000	31.174907
2230.000000	31.134298
2229.000000	31.099821
2228.000000	31.065228
2227.000000	30.972788
2226.000000	30.932063
2225.000000	30.835226
2224.000000	30.775990
2223.000000	30.662608
2222.000000	30.594811
2221.000000	30.480273
2220.000000	30.369437
2219.000000	30.252006
2218.000000	30.162573
2217.000000	30.056828
2216.000000	29.971098
2215.000000	29.841982
2214.000000	29.748616
2213.000000	29.665662
2212.000000	29.574379
2211.000000	29.494433
2210.000000	29.384638
2209.000000	29.317304
2208.000000	29.222318
2207.000000	29.136819
2206.000000	29.073881
2205.000000	29.025983
2204.000000	28.955987
2203.000000	28.921510
2202.000000	28.864241
2201.000000	28.821086
2200.000000	28.757223
2199.000000	28.723671
2198.000000	28.695441
2197.000000	28.663278
2196.000000	28.647428
2195.000000	28.592588
2194.000000	28.558342
2193.000000	28.559962
2192.000000	28.520163
2191.000000	28.493669
2190.000000	28.470067
2189.000000	28.444267
2188.000000	28.440102
2187.000000	28.404236
2186.000000	28.364437
2185.000000	28.350438
2184.000000	28.339331
2183.000000	28.306474
2182.000000	28.286111
2181.000000	28.252444
2180.000000	28.247353
2179.000000	28.209868
2178.000000	28.203621
2177.000000	28.192977
2176.000000	28.204546
2175.000000	28.213802
2174.000000	28.212876
2173.000000	28.206513
2172.000000	28.223405
2171.000000	28.254874
2170.000000	28.298838
2169.000000	28.312953
2168.000000	28.351595
2167.000000	28.401344
2166.000000	28.466249
2165.000000	28.517618
2164.000000	28.582407
2163.000000	28.656105
2162.000000	28.733621
2161.000000	28.813913
2160.000000	28.909131
2159.000000	29.020198
2158.000000	29.132538
2157.000000	29.261654
2156.000000	29.380589
2155.000000	29.503804
2154.000000	29.649465
2153.000000	29.792117
2152.000000	29.958024
2151.000000	30.111783
2150.000000	30.269707
2149.000000	30.411781
2148.000000	30.555475
2147.000000	30.714787
2146.000000	30.870629
2145.000000	31.012934
2144.000000	31.161371
2143.000000	31.312006
2142.000000	31.463104
2141.000000	31.603443
2140.000000	31.741004
2139.000000	31.891871
2138.000000	32.042043
2137.000000	32.159127
2136.000000	32.276211
2135.000000	32.399195
2134.000000	32.534790
2133.000000	32.659278
2132.000000	32.751371
2131.000000	32.838490
2130.000000	32.952218
2129.000000	33.060972
2128.000000	33.123216
2127.000000	33.209987
2126.000000	33.292710
2125.000000	33.339682
2124.000000	33.408405
2123.000000	33.491706
2122.000000	33.543768
2121.000000	33.592476
2120.000000	33.638986
2119.000000	33.691396
2118.000000	33.725757
2117.000000	33.746698
2116.000000	33.782101
2115.000000	33.826065
2114.000000	33.840758
2113.000000	33.835089
2112.000000	33.844576
2111.000000	33.867368
2110.000000	33.882524
2109.000000	33.888540
2108.000000	33.885648
2107.000000	33.875814
2106.000000	33.880095
2105.000000	33.902771
2104.000000	33.896523
2103.000000	33.876855
2102.000000	33.868178
2101.000000	33.875004
2100.000000	33.879979
2099.000000	33.892358
2098.000000	33.905432
2097.000000	33.911448
2096.000000	33.910754
2095.000000	33.936438
2094.000000	33.971031
2093.000000	33.983295
2092.000000	34.016384
2091.000000	34.051786
2090.000000	34.056067
2089.000000	34.082561
2088.000000	34.102461
2087.000000	34.093784
2086.000000	34.085685
2085.000000	34.084760
2084.000000	34.070645
2083.000000	34.051902
2082.000000	34.019623
2081.000000	33.974271
2080.000000	33.902771
2079.000000	33.826528
2078.000000	33.759193
2077.000000	33.677512
2076.000000	33.575585
2075.000000	33.478285
2074.000000	33.365829
2073.000000	33.225953
2072.000000	33.070459
2071.000000	32.920286
2070.000000	32.779138
2069.000000	32.631858
2068.000000	32.477173
2067.000000	32.310688
2066.000000	32.146748
2065.000000	31.986857
2064.000000	31.817132
2063.000000	31.658282
2062.000000	31.501515
2061.000000	31.349029
2060.000000	31.222921
2059.000000	31.119605
2058.000000	31.022768
2057.000000	30.952888
2056.000000	30.917022
2055.000000	30.887751
2054.000000	30.876645
2053.000000	30.920493
2052.000000	30.974523
2051.000000	31.058286
2050.000000	31.177915
2049.000000	31.314320
2048.000000	31.481153
2047.000000	31.681074
2046.000000	31.868501
2045.000000	32.078140
2044.000000	32.306986
2043.000000	32.520559
2042.000000	32.727654
2041.000000	32.951061
2040.000000	33.166370
2039.000000	33.400769
2038.000000	33.604046
2037.000000	33.820974
2036.000000	34.002847
2035.000000	34.185993
2034.000000	34.356759
2033.000000	34.526253
2032.000000	34.687879
2031.000000	34.837705
2030.000000	34.987646
2029.000000	35.110977
2028.000000	35.213714
2027.000000	35.357639
2026.000000	35.461302
2025.000000	35.562767
2024.000000	35.670364
2023.000000	35.772985
2022.000000	35.856980
2021.000000	35.914018
2020.000000	35.982972
2019.000000	36.066851
2018.000000	36.117179
2017.000000	36.167391
2016.000000	36.228709
2015.000000	36.246295
2014.000000	36.257864
2013.000000	36.288871
2012.000000	36.290722
2011.000000	36.284590
2010.000000	36.299746
2009.000000	36.278342
2008.000000	36.257054
2007.000000	36.223850
2006.000000	36.193306
2005.000000	36.145177
2004.000000	36.085247
2003.000000	36.020226
2002.000000	35.956247
2001.000000	35.884053
2000.000000	35.806074
1999.000000	35.720807
1998.000000	35.645026
1997.000000	35.534537
1996.000000	35.440246
1995.000000	35.331261
1994.000000	35.225747
1993.000000	35.133537
1992.000000	35.000835
1991.000000	34.877272
1990.000000	34.740521
1989.000000	34.617305
1988.000000	34.506585
1987.000000	34.365205
1986.000000	34.250204
1985.000000	34.106973
1984.000000	33.962701
1983.000000	33.829304
1982.000000	33.718121
1981.000000	33.584377
1980.000000	33.451328
1979.000000	33.306940
1978.000000	33.182105
1977.000000	33.070228
1976.000000	32.940417
1975.000000	32.820326
1974.000000	32.706366
1973.000000	32.578754
1972.000000	32.469190
1971.000000	32.359743
1970.000000	32.236643
1969.000000	32.143624
1968.000000	32.001666
1967.000000	31.884119
1966.000000	31.789943
1965.000000	31.678876
1964.000000	31.545479
1963.000000	31.451650
1962.000000	31.334451
1961.000000	31.205104
1960.000000	31.097507
1959.000000	30.951384
1958.000000	30.851770
1957.000000	30.727861
1956.000000	30.606728
1955.000000	30.494850
1954.000000	30.382047
1953.000000	30.257675
1952.000000	30.131567
1951.000000	30.021772
1950.000000	29.908507
1949.000000	29.810628
1948.000000	29.720155
1947.000000	29.624359
1946.000000	29.545917
1945.000000	29.482169
1944.000000	29.393778
1943.000000	29.331303
1942.000000	29.282826
1941.000000	29.249853
1940.000000	29.204963
1939.000000	29.196518
1938.000000	29.177544
1937.000000	29.174883
1936.000000	29.159727
1935.000000	29.200336
1934.000000	29.244300
1933.000000	29.297751
1932.000000	29.356756
1931.000000	29.442254
1930.000000	29.539439
1929.000000	29.630606
1928.000000	29.766895
1927.000000	29.926208
1926.000000	30.051043
1925.000000	30.239858
1924.000000	30.445333
1923.000000	30.637618
1922.000000	30.900941
1921.000000	31.175486
1920.000000	31.446097
1919.000000	31.693106
1918.000000	32.026193
1917.000000	32.327464
1916.000000	32.645742
1915.000000	33.015157
1914.000000	33.449361
1913.000000	33.927530
1912.000000	34.378741
1911.000000	34.776733
1910.000000	35.238473
1909.000000	35.721964
1908.000000	36.250807
1907.000000	36.843745
1906.000000	37.504597
1905.000000	38.163944
1904.000000	38.834861
1903.000000	39.488077
1902.000000	40.216032
1901.000000	40.913674
1900.000000	41.715327
1899.000000	42.508765
1898.000000	43.251414
1897.000000	44.018242
1896.000000	44.708596
1895.000000	45.374654
1894.000000	46.111748
1893.000000	46.879965
1892.000000	47.718640
1891.000000	48.531168
1890.000000	49.250099
1889.000000	49.886307
1888.000000	50.555720
1887.000000	51.189615
1886.000000	51.820617
1885.000000	52.410200
1884.000000	53.022575
1883.000000	53.553154
1882.000000	54.015125
1881.000000	54.484385
1880.000000	54.887931
1879.000000	55.307673
1878.000000	55.728226
1877.000000	56.063048
1876.000000	56.405390
1875.000000	56.775731
1874.000000	57.120387
1873.000000	57.465506
1872.000000	57.734845
1871.000000	57.986713
1870.000000	58.214170
1869.000000	58.407266
1868.000000	58.554893
1867.000000	58.647449
1866.000000	58.718602
1865.000000	58.807109
1864.000000	58.874096
1863.000000	58.971512
1862.000000	59.116709
1861.000000	59.254503
1860.000000	59.393453
1859.000000	59.484389
1858.000000	59.559128
1857.000000	59.621951
1856.000000	59.646015
1855.000000	59.690211
1854.000000	59.735332
1853.000000	59.738109
1852.000000	59.764950
1851.000000	59.821409
1850.000000	59.851837
1849.000000	59.892562
1848.000000	59.933981
1847.000000	59.868035
1846.000000	59.773974
1845.000000	59.742737
1844.000000	59.711383
1843.000000	59.759744
1842.000000	59.799196
1841.000000	59.756736
1840.000000	59.711962
1839.000000	59.667650
1838.000000	59.601010
1837.000000	59.547327
1836.000000	59.498504
1835.000000	59.413236
1834.000000	59.344629
1833.000000	59.286319
1832.000000	59.236685
1831.000000	59.219563
1830.000000	59.191564
1829.000000	59.131634
1828.000000	59.068812
1827.000000	59.054234
1826.000000	59.032830
1825.000000	58.989329
1824.000000	58.977412
1823.000000	59.030632
1822.000000	59.088595
1821.000000	59.110578
1820.000000	59.092760
1819.000000	59.051110
1818.000000	59.018253
1817.000000	59.000089
1816.000000	58.998469
1815.000000	58.983428
1814.000000	58.978685
1813.000000	58.959248
1812.000000	58.923383
1811.000000	58.887633
1810.000000	58.825620
1809.000000	58.786978
1808.000000	58.786284
1807.000000	58.777722
1806.000000	58.727510
1805.000000	58.675795
1804.000000	58.662837
1803.000000	58.641317
1802.000000	58.635301
1801.000000	58.606030
1800.000000	58.559405
1799.000000	58.525738
1798.000000	58.486054
1797.000000	58.471245
1796.000000	58.457940
1795.000000	58.427975
1794.000000	58.408770
1793.000000	58.396506
1792.000000	58.379383
1791.000000	58.358790
1790.000000	58.353005
1789.000000	58.356938
1788.000000	58.352889
1787.000000	58.365963
1786.000000	58.367467
1785.000000	58.360409
1784.000000	58.351964
1783.000000	58.352889
1782.000000	58.344675
1781.000000	58.312974
1780.000000	58.297124
1779.000000	58.276646
1778.000000	58.234301
1777.000000	58.176338
1776.000000	58.111433
1775.000000	58.044793
1774.000000	57.995159
1773.000000	57.929097
1772.000000	57.875646
1771.000000	57.820922
1770.000000	57.757637
1769.000000	57.705111
1768.000000	57.645528
1767.000000	57.591614
1766.000000	57.549732
1765.000000	57.521734
1764.000000	57.489686
1763.000000	57.493736
1762.000000	57.470712
1761.000000	57.432649
1760.000000	57.419459
1759.000000	57.414137
1758.000000	57.406617
1757.000000	57.382668
1756.000000	57.377693
1755.000000	57.374223
1754.000000	57.344026
1753.000000	57.350852
1752.000000	57.333035
1751.000000	57.296707
1750.000000	57.244760
1749.000000	57.175574
1748.000000	57.128601
1747.000000	57.051317
1746.000000	56.954133
1745.000000	56.835892
1744.000000	56.730378
1743.000000	56.635277
1742.000000	56.507433
1741.000000	56.403423
1740.000000	56.282637
1739.000000	56.161620
1738.000000	56.070105
1737.000000	55.992242
1736.000000	55.925833
1735.000000	55.838599
1734.000000	55.760967
1733.000000	55.680328
1732.000000	55.617274
1731.000000	55.534436
1730.000000	55.484687
1729.000000	55.402428
1728.000000	55.347935
1727.000000	55.276088
1726.000000	55.248900
1725.000000	55.238603
1724.000000	55.265329
1723.000000	55.330928
1722.000000	55.474043
1721.000000	55.653834
1720.000000	55.883836
1719.000000	56.187189
1718.000000	56.486261
1717.000000	56.812291
1716.000000	57.122238
1715.000000	57.422699
1714.000000	57.689839
1713.000000	57.936617
1712.000000	58.143943
1711.000000	58.348146
1710.000000	58.528630
1709.000000	58.719296
1708.000000	58.833603
1707.000000	58.963529
1706.000000	59.044863
1705.000000	59.130014
1704.000000	59.180805
1703.000000	59.221876
1702.000000	59.256816
1701.000000	59.283195
1700.000000	59.288401
1699.000000	59.273824
1698.000000	59.285162
1697.000000	59.265609
1696.000000	59.231942
1695.000000	59.168657
1694.000000	59.079687
1693.000000	58.980189
1692.000000	58.893186
1691.000000	58.795076
1690.000000	58.753310
1689.000000	58.749261
1688.000000	58.793572
1687.000000	58.937035
1686.000000	59.114280
1685.000000	59.365686
1684.000000	59.648676
1683.000000	59.921833
1682.000000	60.229930
1681.000000	60.549017
1680.000000	60.855610
1679.000000	61.133741
1678.000000	61.402617
1677.000000	61.668485
1676.000000	61.904503
1675.000000	62.136357
1674.000000	62.368210
1673.000000	62.638011
1672.000000	62.855056
1671.000000	63.076265
1670.000000	63.328250
1669.000000	63.568317
1668.000000	63.788601
1667.000000	64.032024
1666.000000	64.204526
1665.000000	64.399010
1664.000000	64.571858
1663.000000	64.732559
1662.000000	64.885740
1661.000000	65.017285
1660.000000	65.126039
1659.000000	65.265914
1658.000000	65.361941
1657.000000	65.455192
1656.000000	65.517552
1655.000000	65.565681
1654.000000	65.612306
1653.000000	65.641808
1652.000000	65.687624
1651.000000	65.693061
1650.000000	65.694565
1649.000000	65.690979
1648.000000	65.686930
1647.000000	65.664022
1646.000000	65.649907
1645.000000	65.642387
1644.000000	65.622487
1643.000000	65.605596
1642.000000	65.602588
1641.000000	65.585233
1640.000000	65.571003
1639.000000	65.555847
1638.000000	65.531204
1637.000000	65.501933
1636.000000	65.490479
1635.000000	65.467224
1634.000000	65.426499
1633.000000	65.376056
1632.000000	65.336604
1631.000000	65.302474
1630.000000	65.254576
1629.000000	65.202860
1628.000000	65.145244
1627.000000	65.100470
1626.000000	65.046440
1625.000000	65.000047
1624.000000	64.949603
1623.000000	64.891409
1622.000000	64.858204
1621.000000	64.824768
1620.000000	64.784506
1619.000000	64.739616
1618.000000	64.703867
1617.000000	64.669737
1616.000000	64.607492
1615.000000	64.566652
1614.000000	64.525349
1613.000000	64.499317
1612.000000	64.441701
1611.000000	64.373325
1610.000000	64.306800
1609.000000	64.233102
1608.000000	64.170049
1607.000000	64.082814
1606.000000	64.007497
1605.000000	63.920841
1604.000000	63.819376
1603.000000	63.730985
1602.000000	63.645833
1601.000000	63.558715
1600.000000	63.469398
1599.000000	63.378114
1598.000000	63.286021
1597.000000	63.213480
1596.000000	63.155285
1595.000000	63.075455
1594.000000	62.987643
1593.000000	62.932572
1592.000000	62.883170
1591.000000	62.820232
1590.000000	62.765623
1589.000000	62.696438
1588.000000	62.642524
1587.000000	62.593122
1586.000000	62.538629
1585.000000	62.475460
1584.000000	62.419579
1583.000000	62.375730
1582.000000	62.330725
1581.000000	62.289421
1580.000000	62.266861
1579.000000	62.252399
1578.000000	62.223359
1577.000000	62.201609
1576.000000	62.191080
1575.000000	62.187725
1574.000000	62.184254
1573.000000	62.201840
1572.000000	62.223359
1571.000000	62.239904
1570.000000	62.258415
1569.000000	62.285719
1568.000000	62.328527
1567.000000	62.374920
1566.000000	62.398522
1565.000000	62.412059
1564.000000	62.442024
1563.000000	62.471410
1562.000000	62.478583
1561.000000	62.467477
1560.000000	62.464816
1559.000000	62.454403
1558.000000	62.422355
1557.000000	62.370640
1556.000000	62.320544
1555.000000	62.262117
1554.000000	62.170140
1553.000000	62.077352
1552.000000	61.997175
1551.000000	61.901495
1550.000000	61.793320
1549.000000	61.689773
1548.000000	61.598142
1547.000000	61.510792
1546.000000	61.425756
1545.000000	61.334357
1544.000000	61.259733
1543.000000	61.211257
1542.000000	61.150748
1541.000000	61.093016
1540.000000	61.052523
1539.000000	61.004972
1538.000000	60.953604
1537.000000	60.911143
1536.000000	60.859890
1535.000000	60.803894
1534.000000	60.734824
1533.000000	60.674084
1532.000000	60.615658
1531.000000	60.536638
1530.000000	60.463634
1529.000000	60.402084
1528.000000	60.324221
1527.000000	60.246590
1526.000000	60.177635
1525.000000	60.092715
1524.000000	60.011497
1523.000000	59.934559
1522.000000	59.839805
1521.000000	59.777330
1520.000000	59.690674
1519.000000	59.595457
1518.000000	59.514470
1517.000000	59.432558
1516.000000	59.357240
1515.000000	59.266303
1514.000000	59.164723
1513.000000	59.074018
1512.000000	58.982734
1511.000000	58.886013
1510.000000	58.800514
1509.000000	58.721379
1508.000000	58.635880
1507.000000	58.541819
1506.000000	58.464188
1505.000000	58.398126
1504.000000	58.323734
1503.000000	58.249110
1502.000000	58.186866
1501.000000	58.146951
1500.000000	58.087021
1499.000000	58.070593
1498.000000	58.050809
1497.000000	58.029289
1496.000000	58.015984
1495.000000	58.029174
1494.000000	58.036694
1493.000000	58.053007
1492.000000	58.090839
1491.000000	58.129366
1490.000000	58.162802
1489.000000	58.208617
1488.000000	58.251424
1487.000000	58.304297
1486.000000	58.337849
1485.000000	58.360641
1484.000000	58.425314
1483.000000	58.464304
1482.000000	58.524812
1481.000000	58.584280
1480.000000	58.632640
1479.000000	58.676373
1478.000000	58.744633
1477.000000	58.792763
1476.000000	58.895963
1475.000000	58.984470
1474.000000	59.106875
1473.000000	59.223728
1472.000000	59.327159
1471.000000	59.430706
1470.000000	59.537840
1469.000000	59.621488
1468.000000	59.767843
1467.000000	59.885852
1466.000000	60.013001
1465.000000	60.123027
1464.000000	60.246705
1463.000000	60.395837
1462.000000	60.528539
1461.000000	60.661473
1460.000000	60.773003
1459.000000	60.914267
1458.000000	61.052870
1457.000000	61.188002
1456.000000	61.347662
1455.000000	61.467291
1454.000000	61.599415
1453.000000	61.764165
1452.000000	61.916536
1451.000000	62.049932
1450.000000	62.129762
1449.000000	62.230648
1448.000000	62.366243
1447.000000	62.537241
1446.000000	62.695628
1445.000000	62.785176
1444.000000	62.884674
1443.000000	63.053242
1442.000000	63.181085
1441.000000	63.316564
1440.000000	63.490917
1439.000000	63.620496
1438.000000	63.793923
1437.000000	63.940972
1436.000000	64.085938
1435.000000	64.314783
1434.000000	64.475137
1433.000000	64.677257
1432.000000	64.880765
1431.000000	65.077910
1430.000000	65.277600
1429.000000	65.535022
1428.000000	65.776246
1427.000000	65.993753
1426.000000	66.261588
1425.000000	66.576626
1424.000000	66.898953
1423.000000	67.165978
1422.000000	67.442721
1421.000000	67.812599
1420.000000	68.207467
1419.000000	68.524935
1418.000000	68.856518
1417.000000	69.145062
1416.000000	69.582622
1415.000000	70.067385
1414.000000	70.468616
1413.000000	70.839651
1412.000000	71.216702
1411.000000	71.718935
1410.000000	72.286768
1409.000000	72.719121
1408.000000	73.188613
1407.000000	73.610438
1406.000000	74.083863
1405.000000	74.595120
1404.000000	74.987096
1403.000000	75.388096
1402.000000	75.962754
1401.000000	76.392794
1400.000000	76.804090
1399.000000	77.032126
1398.000000	77.315001
1397.000000	77.749668
1396.000000	78.298180
1395.000000	78.602342
1394.000000	78.810363
1393.000000	79.088494
1392.000000	79.442984
1391.000000	79.719496
1390.000000	79.977728
1389.000000	80.357903
1388.000000	80.730905
1387.000000	80.995731
1386.000000	81.265417
1385.000000	81.546672
1384.000000	81.864256
1383.000000	82.155923
1382.000000	82.361398
1381.000000	82.491556
1380.000000	82.547668
1379.000000	82.646472
1378.000000	82.723177
1377.000000	82.850211
1376.000000	82.943924
1375.000000	83.069801
1374.000000	83.173811
1373.000000	83.340759
1372.000000	83.547044
1371.000000	83.642608
1370.000000	83.752403
1369.000000	83.905005
1368.000000	84.037013
1367.000000	84.113025
1366.000000	84.220969
1365.000000	84.343721
1364.000000	84.432691
1363.000000	84.544684
1362.000000	84.666511
1361.000000	84.709781
1360.000000	84.663966
1359.000000	84.772141
1358.000000	84.816800
1357.000000	84.901604
1356.000000	85.030373
1355.000000	85.165737
1354.000000	85.250194
1353.000000	85.347725
1352.000000	85.547994
1351.000000	85.720264
1350.000000	85.908038
1349.000000	86.091762
1348.000000	86.285436
1347.000000	86.435955
1346.000000	86.589251
1345.000000	86.791140
1344.000000	86.950105
1343.000000	87.106178
1342.000000	87.222336
1341.000000	87.367418
1340.000000	87.511459
1339.000000	87.641385
1338.000000	87.753378
1337.000000	87.865139
1336.000000	87.974587
1335.000000	88.078944
1334.000000	88.154493
1333.000000	88.239992
1332.000000	88.343886
1331.000000	88.416196
1330.000000	88.470110
1329.000000	88.546584
1328.000000	88.608134
1327.000000	88.649438
1326.000000	88.693749
1325.000000	88.746506
1324.000000	88.803312
1323.000000	88.841260
1322.000000	88.874581
1321.000000	88.912529
1320.000000	88.957881
1319.000000	88.999184
1318.000000	89.027298
1317.000000	89.047314
1316.000000	89.073114
1315.000000	89.104699
1314.000000	89.131077
1313.000000	89.153753
1312.000000	89.173190
1311.000000	89.199569
1310.000000	89.220972
1309.000000	89.238789
1308.000000	89.246078
1307.000000	89.250128
1306.000000	89.260424
1305.000000	89.256144
1304.000000	89.256491
1303.000000	89.265631
1302.000000	89.264358
1301.000000	89.256607
1300.000000	89.241798
1299.000000	89.229765
1298.000000	89.230922
1297.000000	89.215303
1296.000000	89.189040
1295.000000	89.170992
1294.000000	89.147043
1293.000000	89.122747
1292.000000	89.092435
1291.000000	89.065825
1290.000000	89.051826
1289.000000	89.018621
1288.000000	88.986689
1287.000000	88.954757
1286.000000	88.917735
1285.000000	88.880597
1284.000000	88.843112
1283.000000	88.800420
1282.000000	88.761778
1281.000000	88.726838
1280.000000	88.688774
1279.000000	88.664247
1278.000000	88.637752
1277.000000	88.622596
1276.000000	88.606630
1275.000000	88.576087
1274.000000	88.551328
1273.000000	88.558964
1272.000000	88.549130
1271.000000	88.530040
1270.000000	88.531544
1269.000000	88.522173
1268.000000	88.523445
1267.000000	88.525297
1266.000000	88.507711
1265.000000	88.488390
1264.000000	88.487001
1263.000000	88.473581
1262.000000	88.455301
1261.000000	88.447434
1260.000000	88.441765
1259.000000	88.420477
1258.000000	88.425220
1257.000000	88.411568
1256.000000	88.388429
1255.000000	88.368529
1254.000000	88.344696
1253.000000	88.307905
1252.000000	88.274122
1251.000000	88.256652
1250.000000	88.185268
1249.000000	88.138643
1248.000000	88.107058
1247.000000	88.026766
1246.000000	87.969843
1245.000000	87.913847
1244.000000	87.850562
1243.000000	87.779872
1242.000000	87.716586
1241.000000	87.664292
1240.000000	87.606097
1239.000000	87.548944
1238.000000	87.509145
1237.000000	87.459164
1236.000000	87.397152
1235.000000	87.334908
1234.000000	87.303207
1233.000000	87.251491
1232.000000	87.206949
1231.000000	87.161943
1230.000000	87.109649
1229.000000	87.062214
1228.000000	87.010845
1227.000000	86.951841
1226.000000	86.921066
1225.000000	86.875829
1224.000000	86.811039
1223.000000	86.769968
1222.000000	86.739077
1221.000000	86.693956
1220.000000	86.640505
1219.000000	86.590293
1218.000000	86.557320
1217.000000	86.518215
1216.000000	86.462218
1215.000000	86.428666
1214.000000	86.377066
1213.000000	86.300592
1212.000000	86.240199
1211.000000	86.186516
1210.000000	86.127627
1209.000000	86.050806
1208.000000	85.994809
1207.000000	85.934185
1206.000000	85.877031
1205.000000	85.792689
1204.000000	85.720611
1203.000000	85.669821
1202.000000	85.604685
1201.000000	85.522657
1200.000000	85.459024
1199.000000	85.390995
1198.000000	85.302257
1197.000000	85.222543
1196.000000	85.141325
1195.000000	85.036274
1194.000000	84.962460
1193.000000	84.881242
1192.000000	84.790884
1191.000000	84.723433
1190.000000	84.645918
1189.000000	84.596284
1188.000000	84.548271
1187.000000	84.540519
1186.000000	84.534387
1185.000000	84.509050
1184.000000	84.538899
1183.000000	84.545957
1182.000000	84.576848
1181.000000	84.602879
1180.000000	84.648232
1179.000000	84.692427
1178.000000	84.733615
1177.000000	84.746804
1176.000000	84.816337
1175.000000	84.854748
1174.000000	84.916645
1173.000000	84.955865
1172.000000	85.035464
1171.000000	85.095162
1170.000000	85.172331
1169.000000	85.294274
1168.000000	85.359873
1167.000000	85.454049
1166.000000	85.582240
1165.000000	85.684861
1164.000000	85.798937
1163.000000	85.917756
1162.000000	86.005916
1161.000000	86.133412
1160.000000	86.248760
1159.000000	86.315285
1158.000000	86.419179
1157.000000	86.499472
1156.000000	86.603019
1155.000000	86.672552
1154.000000	86.738151
1153.000000	86.811502
1152.000000	86.822840
1151.000000	86.846905
1150.000000	86.913314
1149.000000	86.949989
1148.000000	86.976137
1147.000000	87.012233
1146.000000	87.034794
1145.000000	87.046595
1144.000000	87.068461
1143.000000	87.122028
1142.000000	87.148291
1141.000000	87.209957
1140.000000	87.238996
1139.000000	87.299968
1138.000000	87.358394
1137.000000	87.434868
1136.000000	87.535870
1135.000000	87.614427
1134.000000	87.649020
1133.000000	87.652028
1132.000000	87.692290
1131.000000	87.732552
1130.000000	87.809721
1129.000000	87.822563
1128.000000	87.830893
1127.000000	87.863288
1126.000000	87.893022
1125.000000	87.886080
1124.000000	87.889782
1123.000000	87.888972
1122.000000	87.877287
1121.000000	87.856231
1120.000000	87.828579
1119.000000	87.797805
1118.000000	87.787970
1117.000000	87.743891
1116.000000	87.724801
1115.000000	87.723065
1114.000000	87.689745
1113.000000	87.671002
1112.000000	87.618361
1111.000000	87.594991
1110.000000	87.577405
1109.000000	87.560861
1108.000000	87.556580
1107.000000	87.507525
1106.000000	87.481262
1105.000000	87.462751
1104.000000	87.436372
1103.000000	87.433249
1102.000000	87.405482
1101.000000	87.375054
1100.000000	87.337106
1099.000000	87.313388
1098.000000	87.294646
1097.000000	87.272895
1096.000000	87.256813
1095.000000	87.236798
1094.000000	87.209725
1093.000000	87.172703
1092.000000	87.156737
1091.000000	87.130821
1090.000000	87.084659
1089.000000	87.078295
1088.000000	87.056660
1087.000000	87.017555
1086.000000	86.992334
1085.000000	86.964567
1084.000000	86.917826
1083.000000	86.898505
1082.000000	86.861135
1081.000000	86.815089
1080.000000	86.792297
1079.000000	86.777372
1078.000000	86.732367
1077.000000	86.696501
1076.000000	86.662834
1075.000000	86.619564
1074.000000	86.587863
1073.000000	86.553849
1072.000000	86.523305
1071.000000	86.488481
1070.000000	86.451574
1069.000000	86.412585
1068.000000	86.369893
1067.000000	86.333681
1066.000000	86.295038
1065.000000	86.266924
1064.000000	86.248992
1063.000000	86.199590
1062.000000	86.161757
1061.000000	86.146717
1060.000000	86.095811
1059.000000	86.045484
1058.000000	86.007883
1057.000000	85.988214
1056.000000	85.947258
1055.000000	85.909079
1054.000000	85.866734
1053.000000	85.832257
1052.000000	85.805647
1051.000000	85.773600
1050.000000	85.741783
1049.000000	85.728941
1048.000000	85.698166
1047.000000	85.657673
1046.000000	85.635112
1045.000000	85.619494
1044.000000	85.600982
1043.000000	85.573910
1042.000000	85.547762
1041.000000	85.533879
1040.000000	85.500674
1039.000000	85.477073
1038.000000	85.468627
1037.000000	85.459487
1036.000000	85.435654
1035.000000	85.410664
1034.000000	85.400482
1033.000000	85.387756
1032.000000	85.367046
1031.000000	85.347147
1030.000000	85.332569
1029.000000	85.317297
1028.000000	85.314289
1027.000000	85.315678
1026.000000	85.303761
1025.000000	85.291497
1024.000000	85.279696
1023.000000	85.269862
1022.000000	85.260607
1021.000000	85.264887
1020.000000	85.251698
1019.000000	85.269515
1018.000000	85.274606
1017.000000	85.259334
1016.000000	85.267201
1015.000000	85.267317
1014.000000	85.290340
1013.000000	85.301679
1012.000000	85.294043
1011.000000	85.287332
1010.000000	85.287217
1009.000000	85.293117
1008.000000	85.302141
1007.000000	85.311744
1006.000000	85.307810
1005.000000	85.313364
1004.000000	85.302835
1003.000000	85.295315
1002.000000	85.298670
1001.000000	85.283283
1000.000000	85.275069
999.000000	85.267664
998.000000	85.264887
997.000000	85.271598
996.000000	85.252508
995.000000	85.249153
994.000000	85.250194
993.000000	85.248459
992.000000	85.238856
991.000000	85.232377
990.000000	85.200677
989.000000	85.192578
988.000000	85.202875
987.000000	85.186330
986.000000	85.160762
985.000000	85.161687
984.000000	85.146068
983.000000	85.118186
982.000000	85.113789
981.000000	85.126169
980.000000	85.112170
979.000000	85.096204
978.000000	85.099327
977.000000	85.125359
976.000000	85.136119
975.000000	85.144102
974.000000	85.163076
973.000000	85.169555
972.000000	85.211089
971.000000	85.235269
970.000000	85.248343
969.000000	85.264540
968.000000	85.318917
967.000000	85.336503
966.000000	85.383707
965.000000	85.410316
964.000000	85.440166
963.000000	85.488295
962.000000	85.541515
961.000000	85.589297
960.000000	85.658483
959.000000	85.726049
958.000000	85.763071
957.000000	85.814324
956.000000	85.896699
955.000000	85.983702
954.000000	86.044674
953.000000	86.093150
952.000000	86.197970
951.000000	86.258132
950.000000	86.315979
949.000000	86.425311
948.000000	86.485126
947.000000	86.543320
946.000000	86.627662
945.000000	86.734449
944.000000	86.760712
943.000000	86.817056
942.000000	86.887745
941.000000	86.957972
940.000000	86.998350
939.000000	87.030629
938.000000	87.098311
937.000000	87.170158
936.000000	87.226270
935.000000	87.274862
934.000000	87.337916
933.000000	87.405945
932.000000	87.516665
931.000000	87.543044
930.000000	87.554035
929.000000	87.577868
928.000000	87.668457
927.000000	87.673316
926.000000	87.695530
925.000000	87.715429
924.000000	87.716702
923.000000	87.815853
922.000000	87.808101
921.000000	87.805093
920.000000	87.822332
919.000000	87.806944
918.000000	87.844198
917.000000	87.884229
916.000000	87.874511
915.000000	87.874742
914.000000	87.883535
913.000000	87.919285
912.000000	87.923565
911.000000	87.925648
910.000000	87.918475
909.000000	87.921830
908.000000	87.956307
907.000000	87.960819
906.000000	87.955613
905.000000	87.960356
904.000000	87.916277
903.000000	87.917086
902.000000	87.890361
901.000000	87.782070
900.000000	87.744700
899.000000	87.725032
898.000000	87.697612
897.000000	87.638492
896.000000	87.562365
895.000000	87.404325
894.000000	87.332131
893.000000	87.235410
892.000000	87.116012
891.000000	86.897811
890.000000	86.771356
889.000000	86.631596
888.000000	86.405065
887.000000	86.220646
886.000000	85.882006
885.000000	85.633724
884.000000	85.304108
883.000000	85.129293
882.000000	84.820849
881.000000	84.448194
880.000000	84.094630
879.000000	83.654640
878.000000	83.087618
877.000000	82.676437
876.000000	81.987934
875.000000	81.262756
874.000000	80.520570
873.000000	79.783823
872.000000	79.294085
871.000000	79.121120
870.000000	79.136623
869.000000	79.167745
868.000000	79.198983
867.000000	79.199446
866.000000	79.224899
865.000000	79.231146
864.000000	79.244451
863.000000	79.228485
862.000000	79.218304
861.000000	79.225940
860.000000	79.208007
859.000000	79.214949
858.000000	81.477833
857.000000	81.561000
856.000000	81.420500
855.000000	81.452000
854.000000	81.987700
853.000000	81.616300
852.000000	81.349200
851.000000	81.304500
850.000000	81.117300
849.000000	81.079300
848.000000	81.538100
847.000000	81.248300
846.000000	81.586300
845.000000	81.098300
844.000000	81.161800
843.000000	81.451000
842.000000	81.181000
841.000000	80.954100
840.000000	81.134400
839.000000	81.257800
838.000000	81.366800
837.000000	81.038200
836.000000	81.237300
835.000000	81.025400
834.000000	80.977500
833.000000	80.598500
832.000000	80.454600
831.000000	80.709500
830.000000	80.523500
829.000000	80.311300
828.000000	80.218700
827.000000	80.163400
826.000000	80.197800
825.000000	80.277900
824.000000	80.146800
823.000000	79.921500
822.000000	79.852000
821.000000	79.719400
820.000000	79.882600
819.000000	79.587900
818.000000	79.360500
817.000000	79.156600
816.000000	79.307500
815.000000	78.997000
814.000000	79.143200
813.000000	78.887200
812.000000	78.788600
811.000000	78.686600
810.000000	78.421900
809.000000	78.222600
808.000000	78.037500
807.000000	77.864100
806.000000	77.810600
805.000000	77.753100
804.000000	77.709700
803.000000	77.543300
802.000000	77.277600
801.000000	77.207100
800.000000	76.972600
799.000000	76.876400
798.000000	76.723500
797.000000	76.509600
796.000000	76.401800
795.000000	76.256300
794.000000	76.173100
793.000000	76.090000
792.000000	75.791700
791.000000	75.726000
790.000000	75.603300
789.000000	75.399600
788.000000	75.193300
787.000000	74.979300
786.000000	74.836600
785.000000	74.665000
784.000000	74.408700
783.000000	74.233100
782.000000	74.132300
781.000000	74.004400
780.000000	73.860700
779.000000	73.751100
778.000000	73.535400
777.000000	73.314600
776.000000	73.094600
775.000000	72.922500
774.000000	72.809600
773.000000	72.671600
772.000000	72.551200
771.000000	72.345800
770.000000	72.061100
769.000000	71.935800
768.000000	71.887800
767.000000	71.695200
766.000000	71.575300
765.000000	71.469500
764.000000	71.250300
763.000000	71.109000
762.000000	70.971000
761.000000	70.814400
760.000000	70.636300
759.000000	70.457300
758.000000	70.265100
757.000000	70.022800
756.000000	69.931100
755.000000	69.802300
754.000000	69.570000
753.000000	69.362700
752.000000	69.172800
751.000000	68.960100
750.000000	68.747100
749.000000	68.584300
748.000000	68.373600
747.000000	68.183800
746.000000	68.030400
745.000000	67.887900
744.000000	67.760100
743.000000	67.508000
742.000000	67.295600
741.000000	67.126800
740.000000	66.975600
739.000000	66.867400
738.000000	66.636100
737.000000	66.467000
736.000000	66.311200
735.000000	66.134000
734.000000	65.931300
733.000000	65.743400
732.000000	65.523700
731.000000	65.273200
730.000000	65.000000
729.000000	64.770300
728.000000	64.527100
727.000000	64.236200
726.000000	63.997400
725.000000	63.723900
724.000000	63.380200
723.000000	63.019900
722.000000	62.680800
721.000000	62.360500
720.000000	62.060100
719.000000	61.801800
718.000000	61.441400
717.000000	61.065500
716.000000	60.801600
715.000000	60.527700
714.000000	60.200500
713.000000	59.949900
712.000000	59.647400
711.000000	59.342300
710.000000	59.081100
709.000000	58.834200
708.000000	58.625100
707.000000	58.367200
706.000000	58.135200
705.000000	57.903600
704.000000	57.581100
703.000000	57.278800
702.000000	56.960200
701.000000	56.619400
700.000000	56.342900
699.000000	55.980300
698.000000	55.563700
697.000000	55.169600
696.000000	54.816500
695.000000	54.437300
694.000000	54.013900
693.000000	53.562800
692.000000	53.151200
691.000000	52.735100
690.000000	52.334200
689.000000	52.023000
688.000000	51.677400
687.000000	51.384200
686.000000	51.065900
685.000000	50.781700
684.000000	50.601400
683.000000	50.427300
682.000000	50.250100
681.000000	50.057600
680.000000	49.921800
679.000000	49.822800
678.000000	49.725000
677.000000	49.669800
676.000000	49.562000
675.000000	49.521200
674.000000	49.413600
673.000000	49.283000
672.000000	49.175500
671.000000	49.002700
670.000000	48.797800
669.000000	48.590800
668.000000	48.366500
667.000000	48.186100
666.000000	47.933600
665.000000	47.671600
664.000000	47.420100
663.000000	47.232500
662.000000	47.008500
661.000000	46.773800
660.000000	46.581400
659.000000	46.404100
658.000000	46.270800
657.000000	46.110900
656.000000	46.031300
655.000000	45.961600
654.000000	45.920700
653.000000	45.834800
652.000000	45.834100
651.000000	45.848600
650.000000	45.826700
649.000000	45.850200
648.000000	45.765000
647.000000	45.768500
646.000000	45.733600
645.000000	45.654100
644.000000	45.488100
643.000000	45.301700
642.000000	45.099600
641.000000	44.828600
640.000000	44.536400
639.000000	44.175800
638.000000	43.827100
637.000000	43.414700
636.000000	43.076700
635.000000	42.713000
634.000000	42.304100
633.000000	42.005500
632.000000	41.688600
631.000000	41.434300
630.000000	41.230800
629.000000	41.076300
628.000000	40.977800
627.000000	40.934100
626.000000	41.023600
625.000000	41.141700
624.000000	41.254600
623.000000	41.493600
622.000000	41.772600
621.000000	42.035200
620.000000	42.340300
619.000000	42.659900
618.000000	42.976700
617.000000	43.281300
616.000000	43.637100
615.000000	43.947500
614.000000	44.279300
613.000000	44.646000
612.000000	45.022500
611.000000	45.304400
610.000000	45.638300
609.000000	45.956100
608.000000	46.286000
607.000000	46.618700
606.000000	46.977700
605.000000	47.339100
604.000000	47.661400
603.000000	48.018500
602.000000	48.431400
601.000000	48.878800
600.000000	49.317300
599.000000	49.763300
598.000000	50.250600
597.000000	50.767300
596.000000	51.298100
595.000000	51.914800
594.000000	52.420200
593.000000	53.028600
592.000000	53.637000
591.000000	54.253500
590.000000	54.860800
589.000000	55.415500
588.000000	55.948000
587.000000	56.430300
586.000000	56.890700
585.000000	57.286400
584.000000	57.698700
583.000000	58.004500
582.000000	58.292100
581.000000	58.553300
580.000000	58.759600
579.000000	58.937500
578.000000	59.095500
577.000000	59.238200
576.000000	59.385800
575.000000	59.522700
574.000000	59.655800
573.000000	59.798800
572.000000	60.006800
571.000000	60.164900
570.000000	60.314400
569.000000	60.483900
568.000000	60.675100
567.000000	60.871000
566.000000	61.057500
565.000000	61.208400
564.000000	61.404700
563.000000	61.605400
562.000000	61.712300
561.000000	61.871800
560.000000	61.978500
559.000000	62.089900
558.000000	62.147800
557.000000	62.162400
556.000000	62.143400
555.000000	62.100200
554.000000	62.001300
553.000000	61.882100
552.000000	61.750800
551.000000	61.558300
550.000000	61.402000
549.000000	61.184000
548.000000	60.927800
547.000000	60.653200
546.000000	60.349100
545.000000	60.032800
544.000000	59.698200
543.000000	59.272900
542.000000	58.842300
541.000000	58.472700
540.000000	57.985400
539.000000	57.490800
538.000000	57.006000
537.000000	56.514900
536.000000	55.994300
535.000000	55.490100
534.000000	54.963300
533.000000	54.397400
532.000000	53.800600
531.000000	53.198600
530.000000	52.608900
529.000000	51.964300
528.000000	51.310500
527.000000	50.633800
526.000000	49.964800
525.000000	49.239100
524.000000	48.543800
523.000000	47.757200
522.000000	46.974200
521.000000	46.192200
520.000000	45.396600
519.000000	44.628400
518.000000	43.820600
517.000000	42.996400
516.000000	42.205800
515.000000	41.390100
514.000000	40.578500
513.000000	39.748100
512.000000	38.923400
511.000000	38.114200
510.000000	37.278900
509.000000	36.401700
508.000000	35.566600
507.000000	34.768500
506.000000	33.964100
505.000000	33.131800
504.000000	32.309700
503.000000	31.511200
502.000000	30.735700
501.000000	29.958700
500.000000	29.174000
499.000000	28.458700
498.000000	27.753400
497.000000	27.084000
496.000000	26.451500
495.000000	25.849900
494.000000	25.321200
493.000000	24.787800
492.000000	24.301400
491.000000	23.852900
490.000000	23.464100
489.000000	23.107100
488.000000	22.775300
487.000000	22.459400
486.000000	22.189600
485.000000	21.930200
484.000000	21.690300
483.000000	21.439500
482.000000	21.215100
481.000000	21.006600
480.000000	20.795200
479.000000	20.611400
478.000000	20.424900
477.000000	20.231900
476.000000	20.045600
475.000000	19.870300
474.000000	19.689100
473.000000	19.514400
472.000000	19.336100
471.000000	19.146500
470.000000	18.970800
469.000000	18.779400
468.000000	18.604500
467.000000	18.428700
466.000000	18.247300
465.000000	18.070600
464.000000	17.904000
463.000000	17.689600
462.000000	17.477100
461.000000	17.274600
460.000000	17.075000
459.000000	16.894700
458.000000	16.697800
457.000000	16.472100
456.000000	16.252100
455.000000	16.035500
454.000000	15.821800
453.000000	15.606200
452.000000	15.360700
451.000000	15.122000
450.000000	14.890700
449.000000	14.652700
448.000000	14.424300
447.000000	14.190400
446.000000	13.947500
445.000000	13.694700
444.000000	13.430000
443.000000	13.180400
442.000000	12.933800
441.000000	12.671400
440.000000	12.425700
439.000000	12.187300
438.000000	11.937300
437.000000	11.705300
436.000000	11.477700
435.000000	11.250100
434.000000	11.019200
433.000000	10.786900
432.000000	10.570800
431.000000	10.353700
430.000000	10.143200
429.000000	9.963000
428.000000	9.785300
427.000000	9.579200
426.000000	9.392000
425.000000	9.226900
424.000000	9.041400
423.000000	8.874900
422.000000	8.706800
421.000000	8.536300
420.000000	8.374400
419.000000	8.224000
418.000000	8.087200
417.000000	7.939300
416.000000	7.807500
415.000000	7.672300
414.000000	7.548100
413.000000	7.445100
412.000000	7.339200
411.000000	7.240800
410.000000	7.120400
409.000000	7.014400
408.000000	6.936500
407.000000	6.862100
406.000000	6.764000
405.000000	6.696700
404.000000	6.641800
403.000000	6.560400
402.000000	6.495200
401.000000	6.453300
400.000000	6.411100
399.000000	6.357300
398.000000	6.323700
397.000000	6.289600
396.000000	6.270100
395.000000	6.246300
394.000000	6.212300
393.000000	6.172800
392.000000	6.152500
391.000000	6.147100
390.000000	6.121700
389.000000	6.104800
388.000000	6.091100
387.000000	6.083000
386.000000	6.077800
385.000000	6.066200
384.000000	6.061200
383.000000	6.036300
382.000000	6.036800
381.000000	6.052200
380.000000	6.032800
379.000000	6.023600
378.000000	6.040900
377.000000	6.052900
376.000000	6.046000
375.000000	5.899100
374.000000	5.634500
373.000000	5.796100
372.000000	5.837500
371.000000	5.886000
370.000000	5.893600
369.000000	5.933500
368.000000	5.913100
367.000000	5.957500
366.000000	6.130600
365.000000	6.030500
364.000000	5.888000
363.000000	6.070700
362.000000	6.009100
361.000000	5.932600
360.000000	6.080200
359.000000	5.856800
358.000000	5.993200
357.000000	6.215500
356.000000	6.046100
355.000000	6.078800
354.000000	6.086200
353.000000	6.195700
352.000000	6.206800
351.000000	6.088900
350.000000	6.150400
349.000000	6.246900
348.000000	6.240200
347.000000	6.198400
346.000000	6.156700
345.000000	6.347200
344.000000	6.221100
343.000000	6.198600
342.000000	6.181100
341.000000	5.966500
340.000000	6.023800
339.000000	6.165500
338.000000	6.415300
337.000000	6.358300
336.000000	6.432600
335.000000	6.165900
334.000000	6.445900
333.000000	6.296700
332.000000	6.678500
331.000000	6.481400
330.000000	6.606000
329.000000	6.398400
328.000000	6.268500
327.000000	7.149000
326.000000	6.522300
325.000000	6.334800
324.000000	6.712800
323.000000	6.882200
322.000000	7.199800
321.000000	7.260500
320.000000	7.632500
319.000000	7.481100
318.000000	7.328000
317.000000	7.386300
316.000000	6.402100
315.000000	6.327300
314.000000	6.305600
313.000000	6.328900
312.000000	6.283700
311.000000	6.359600
310.000000	6.320400
309.000000	6.333400
308.000000	6.282300
307.000000	6.297300
306.000000	6.390000
305.000000	6.307600
304.000000	6.278300
303.000000	6.360000
302.000000	6.256100
301.000000	6.306100
300.000000	6.339300
299.000000	6.292900
298.000000	6.350800
297.000000	6.372700
296.000000	6.397500
295.000000	6.380900
294.000000	6.381200
293.000000	6.332300
292.000000	6.398100
291.000000	6.417400
290.000000	6.380000
289.000000	6.400000
288.000000	6.413400
287.000000	6.418500
286.000000	6.454100
285.000000	6.476500
284.000000	6.429100
283.000000	6.434400
282.000000	6.436500
281.000000	6.468300
280.000000	6.460400
279.000000	6.457700
278.000000	6.462300
277.000000	6.461300
276.000000	6.552500
275.000000	6.540800
274.000000	6.529700
273.000000	6.505500
272.000000	6.561500
271.000000	6.553700
270.000000	6.562500
269.000000	6.535200
268.000000	6.595200
267.000000	6.667700
266.000000	6.699600
265.000000	6.727200
264.000000	6.713600
263.000000	6.778600
262.000000	6.763000
261.000000	6.788300
260.000000	6.866100
259.000000	6.962900
258.000000	6.961600
257.000000	7.000400
256.000000	7.013700
255.000000	6.991700
254.000000	6.989300
253.000000	7.105900
252.000000	7.140500
251.000000	7.147800
250.000000	7.180100
