PE UV       SUBTECH     SPECTRUM    ASCII       PEDS        4.00        
   -1
CICIMAUCR0006-2.Sample.ASC
24/04/12
10:39:35.00
24/04/12
10:39:35.00
Vinicio Soto Monge
C. kalinini
250,000000
1
Lambda 1050
1050L1511233
PerkinElmer UV WinLab 6.3.2.0749 / 2.02.05 Lambda 900 UV/VIS/NIR, Aug  7 2015 09:38:08

0
0
3350/servo 860,8/2
0
0
UV/VIS
1
1
1
DoubleDePol,CommonBeamDepol,RBeamAtt,SBeamAtt,60mm sphere, WB InGaAs Detector
0
0
0
0
Program
Program
3350/servo 860,8/2
3350/0,2 860,8/0,2
3350/0,2 860,8/0,2
0
15.00
 
 
 
0
 
860,8
319,2
860,8
Front
100
on
S:100 R:100
0
0
0
0
 
0
 
 
 
0
 
 
0
0
0
0
0
 
 
 
 
0
0


0
0
#HDR
-1
-1
#GR
nm
%R
1.0
0.0
2500,000000
-1,000000
2251
8
92,561500
5,026000
#DATA
2482.000000	9.579610
2481.000000	9.680875
2480.000000	9.666798
2479.000000	9.611170
2478.000000	9.632627
2477.000000	9.690865
2476.000000	9.570528
2475.000000	9.654083
2474.000000	9.671793
2473.000000	9.659192
2472.000000	9.649088
2471.000000	9.647385
2470.000000	9.645682
2469.000000	9.707553
2468.000000	9.737070
2467.000000	9.729804
2466.000000	9.798487
2465.000000	9.799168
2464.000000	9.826414
2463.000000	9.862516
2462.000000	9.917575
2461.000000	9.952655
2460.000000	10.009190
2459.000000	10.051535
2458.000000	10.107163
2457.000000	10.193328
2456.000000	10.249183
2455.000000	10.329672
2454.000000	10.386435
2453.000000	10.467719
2452.000000	10.549117
2451.000000	10.619843
2450.000000	10.713048
2449.000000	10.793991
2448.000000	10.872210
2447.000000	10.944412
2446.000000	11.000834
2445.000000	11.087114
2444.000000	11.206996
2443.000000	11.272728
2442.000000	11.334145
2441.000000	11.389545
2440.000000	11.475824
2439.000000	11.551886
2438.000000	11.615006
2437.000000	11.673018
2436.000000	11.754643
2435.000000	11.796534
2434.000000	11.864195
2433.000000	11.923114
2432.000000	12.000879
2431.000000	12.057074
2430.000000	12.096922
2429.000000	12.138245
2428.000000	12.129617
2427.000000	12.097489
2426.000000	12.058209
2425.000000	12.066610
2424.000000	12.067405
2423.000000	12.099419
2422.000000	12.124281
2421.000000	12.119967
2420.000000	12.160269
2419.000000	12.174119
2418.000000	12.183882
2417.000000	12.183541
2416.000000	12.211015
2415.000000	12.251089
2414.000000	12.245526
2413.000000	12.252565
2412.000000	12.281060
2411.000000	12.279811
2410.000000	12.288212
2409.000000	12.321021
2408.000000	12.344407
2407.000000	12.342818
2406.000000	12.331011
2405.000000	12.355873
2404.000000	12.381416
2403.000000	12.424896
2402.000000	12.443174
2401.000000	12.440109
2400.000000	12.456343
2399.000000	12.484724
2398.000000	12.499256
2397.000000	12.512084
2396.000000	12.526615
2395.000000	12.540011
2394.000000	12.547617
2393.000000	12.565781
2392.000000	12.571231
2391.000000	12.589622
2390.000000	12.593936
2389.000000	12.611532
2388.000000	12.618798
2387.000000	12.613008
2386.000000	12.613689
2385.000000	12.608467
2384.000000	12.588032
2383.000000	12.569528
2382.000000	12.555564
2381.000000	12.540919
2380.000000	12.512652
2379.000000	12.484384
2378.000000	12.469852
2377.000000	12.457705
2376.000000	12.419447
2375.000000	12.393563
2374.000000	12.381643
2373.000000	12.354965
2372.000000	12.321929
2371.000000	12.270161
2370.000000	12.224411
2369.000000	12.183996
2368.000000	12.133817
2367.000000	12.076146
2366.000000	12.018816
2365.000000	11.946841
2364.000000	11.870325
2363.000000	11.807432
2362.000000	11.747264
2361.000000	11.671202
2360.000000	11.589123
2359.000000	11.533268
2358.000000	11.472305
2357.000000	11.398060
2356.000000	11.358439
2355.000000	11.326539
2354.000000	11.310645
2353.000000	11.316775
2352.000000	11.314164
2351.000000	11.318705
2350.000000	11.346860
2349.000000	11.394654
2348.000000	11.439837
2347.000000	11.485020
2346.000000	11.520667
2345.000000	11.574705
2344.000000	11.631014
2343.000000	11.665412
2342.000000	11.693793
2341.000000	11.728078
2340.000000	11.749080
2339.000000	11.758048
2338.000000	11.760887
2337.000000	11.777802
2336.000000	11.762589
2335.000000	11.748058
2334.000000	11.709346
2333.000000	11.681532
2332.000000	11.644183
2331.000000	11.588442
2330.000000	11.534744
2329.000000	11.486269
2328.000000	11.417699
2327.000000	11.360369
2326.000000	11.275566
2325.000000	11.177707
2324.000000	11.094833
2323.000000	11.010370
2322.000000	10.912739
2321.000000	10.787520
2320.000000	10.667751
2319.000000	10.572503
2318.000000	10.444787
2317.000000	10.347609
2316.000000	10.237263
2315.000000	10.105346
2314.000000	9.987620
2313.000000	9.887945
2312.000000	9.786340
2311.000000	9.717203
2310.000000	9.661008
2309.000000	9.629107
2308.000000	9.583357
2307.000000	9.581994
2306.000000	9.594255
2305.000000	9.635238
2304.000000	9.694271
2303.000000	9.758867
2302.000000	9.837881
2301.000000	9.923706
2300.000000	10.012483
2299.000000	10.129527
2298.000000	10.230224
2297.000000	10.339663
2296.000000	10.429121
2295.000000	10.511313
2294.000000	10.596457
2293.000000	10.645046
2292.000000	10.701695
2291.000000	10.736093
2290.000000	10.749262
2289.000000	10.756414
2288.000000	10.762090
2287.000000	10.748808
2286.000000	10.729622
2285.000000	10.672405
2284.000000	10.655490
2283.000000	10.618935
2282.000000	10.566486
2281.000000	10.515173
2280.000000	10.480548
2279.000000	10.425488
2278.000000	10.408459
2277.000000	10.353740
2276.000000	10.304583
2275.000000	10.280289
2274.000000	10.281084
2273.000000	10.276202
2272.000000	10.291074
2271.000000	10.306513
2270.000000	10.364979
2269.000000	10.415725
2268.000000	10.478845
2267.000000	10.568416
2266.000000	10.705555
2265.000000	10.848483
2264.000000	11.029443
2263.000000	11.196098
2262.000000	11.419629
2261.000000	11.634533
2260.000000	11.854204
2259.000000	12.119513
2258.000000	12.362003
2257.000000	12.672268
2256.000000	12.910898
2255.000000	13.173937
2254.000000	13.424147
2253.000000	13.738044
2252.000000	13.930583
2251.000000	14.172619
2250.000000	14.393994
2249.000000	14.599134
2248.000000	14.815740
2247.000000	14.985461
2246.000000	15.173799
2245.000000	15.340228
2244.000000	15.451710
2243.000000	15.587713
2242.000000	15.763110
2241.000000	15.864374
2240.000000	15.975175
2239.000000	16.089495
2238.000000	16.190533
2237.000000	16.285326
2236.000000	16.377849
2235.000000	16.441991
2234.000000	16.541894
2233.000000	16.547797
2232.000000	16.616934
2231.000000	16.672675
2230.000000	16.688909
2229.000000	16.689590
2228.000000	16.733638
2227.000000	16.761225
2226.000000	16.767923
2225.000000	16.767582
2224.000000	16.757138
2223.000000	16.746012
2222.000000	16.736249
2221.000000	16.700943
2220.000000	16.683006
2219.000000	16.635893
2218.000000	16.605695
2217.000000	16.568231
2216.000000	16.583217
2215.000000	16.508744
2214.000000	16.502727
2213.000000	16.471508
2212.000000	16.441878
2211.000000	16.412134
2210.000000	16.388521
2209.000000	16.354804
2208.000000	16.350376
2207.000000	16.319951
2206.000000	16.301674
2205.000000	16.299857
2204.000000	16.274314
2203.000000	16.258307
2202.000000	16.222774
2201.000000	16.218914
2200.000000	16.229812
2199.000000	16.222093
2198.000000	16.190078
2197.000000	16.183835
2196.000000	16.172596
2195.000000	16.156929
2194.000000	16.127185
2193.000000	16.139333
2192.000000	16.118444
2191.000000	16.114016
2190.000000	16.098691
2189.000000	16.111065
2188.000000	16.076667
2187.000000	16.065768
2186.000000	16.016952
2185.000000	16.011957
2184.000000	15.993339
2183.000000	15.969612
2182.000000	15.963709
2181.000000	15.941571
2180.000000	15.916369
2179.000000	15.905357
2178.000000	15.918299
2177.000000	15.889690
2176.000000	15.880041
2175.000000	15.895594
2174.000000	15.866872
2173.000000	15.853589
2172.000000	15.862444
2171.000000	15.875046
2170.000000	15.889236
2169.000000	15.885944
2168.000000	15.890939
2167.000000	15.908081
2166.000000	15.930105
2165.000000	15.941798
2164.000000	15.954740
2163.000000	15.954513
2162.000000	15.996631
2161.000000	16.035116
2160.000000	16.064065
2159.000000	16.120828
2158.000000	16.150118
2157.000000	16.183494
2156.000000	16.233218
2155.000000	16.259329
2154.000000	16.299857
2153.000000	16.356961
2152.000000	16.406004
2151.000000	16.452208
2150.000000	16.503635
2149.000000	16.553246
2148.000000	16.598997
2147.000000	16.654965
2146.000000	16.700034
2145.000000	16.755775
2144.000000	16.800164
2143.000000	16.837287
2142.000000	16.878496
2141.000000	16.916073
2140.000000	16.948882
2139.000000	16.986005
2138.000000	17.025512
2137.000000	17.063997
2136.000000	17.107363
2135.000000	17.151184
2134.000000	17.193643
2133.000000	17.212715
2132.000000	17.232809
2131.000000	17.258239
2130.000000	17.272543
2129.000000	17.283895
2128.000000	17.301492
2127.000000	17.321813
2126.000000	17.329419
2125.000000	17.334073
2124.000000	17.342815
2123.000000	17.343950
2122.000000	17.350989
2121.000000	17.357346
2120.000000	17.345994
2119.000000	17.322607
2118.000000	17.320223
2117.000000	17.323062
2116.000000	17.297291
2115.000000	17.280603
2114.000000	17.285712
2113.000000	17.288777
2112.000000	17.258239
2111.000000	17.229630
2110.000000	17.212374
2109.000000	17.200114
2108.000000	17.187285
2107.000000	17.157428
2106.000000	17.135858
2105.000000	17.125300
2104.000000	17.111791
2103.000000	17.100211
2102.000000	17.086475
2101.000000	17.073760
2100.000000	17.056958
2099.000000	17.031528
2098.000000	17.015408
2097.000000	16.997017
2096.000000	16.998493
2095.000000	16.999741
2094.000000	16.974539
2093.000000	16.950358
2092.000000	16.934918
2091.000000	16.944454
2090.000000	16.941843
2089.000000	16.935486
2088.000000	16.950812
2087.000000	16.942752
2086.000000	16.913008
2085.000000	16.907672
2084.000000	16.913916
2083.000000	16.897455
2082.000000	16.872706
2081.000000	16.840806
2080.000000	16.822074
2079.000000	16.812311
2078.000000	16.797780
2077.000000	16.770534
2076.000000	16.754413
2075.000000	16.719334
2074.000000	16.687774
2073.000000	16.658711
2072.000000	16.639298
2071.000000	16.624767
2070.000000	16.588098
2069.000000	16.549273
2068.000000	16.525319
2067.000000	16.493759
2066.000000	16.472870
2065.000000	16.454138
2064.000000	16.425417
2063.000000	16.409069
2062.000000	16.391018
2061.000000	16.377849
2060.000000	16.364226
2059.000000	16.372854
2058.000000	16.397716
2057.000000	16.413496
2056.000000	16.426665
2055.000000	16.461972
2054.000000	16.493305
2053.000000	16.560171
2052.000000	16.643045
2051.000000	16.757478
2050.000000	16.869414
2049.000000	16.956942
2048.000000	17.059229
2047.000000	17.179906
2046.000000	17.319883
2045.000000	17.480181
2044.000000	17.634348
2043.000000	17.776368
2042.000000	17.915437
2041.000000	18.067561
2040.000000	18.193801
2039.000000	18.366814
2038.000000	18.509061
2037.000000	18.624403
2036.000000	18.750075
2035.000000	18.863941
2034.000000	18.979056
2033.000000	19.120963
2032.000000	19.218027
2031.000000	19.316453
2030.000000	19.423848
2029.000000	19.517166
2028.000000	19.607419
2027.000000	19.696536
2026.000000	19.755342
2025.000000	19.834015
2024.000000	19.900428
2023.000000	20.012591
2022.000000	20.057320
2021.000000	20.127819
2020.000000	20.179473
2019.000000	20.242480
2018.000000	20.305827
2017.000000	20.348512
2016.000000	20.377348
2015.000000	20.426845
2014.000000	20.477477
2013.000000	20.524023
2012.000000	20.549679
2011.000000	20.558421
2010.000000	20.595657
2009.000000	20.565913
2008.000000	20.589186
2007.000000	20.604398
2006.000000	20.609961
2005.000000	20.586689
2004.000000	20.555128
2003.000000	20.565005
2002.000000	20.542300
2001.000000	20.512897
2000.000000	20.484743
1999.000000	20.447847
1998.000000	20.424688
1997.000000	20.374510
1996.000000	20.313547
1995.000000	20.276424
1994.000000	20.231468
1993.000000	20.175727
1992.000000	20.096259
1991.000000	20.033025
1990.000000	19.950152
1989.000000	19.904061
1988.000000	19.841849
1987.000000	19.774074
1986.000000	19.678713
1985.000000	19.592206
1984.000000	19.522388
1983.000000	19.440082
1982.000000	19.346310
1981.000000	19.254923
1980.000000	19.194641
1979.000000	19.096441
1978.000000	19.014476
1977.000000	18.927742
1976.000000	18.848275
1975.000000	18.783452
1974.000000	18.706709
1973.000000	18.603401
1972.000000	18.523252
1971.000000	18.435951
1970.000000	18.352850
1969.000000	18.301082
1968.000000	18.221047
1967.000000	18.155884
1966.000000	18.087541
1965.000000	18.002965
1964.000000	17.925314
1963.000000	17.899089
1962.000000	17.784429
1961.000000	17.733115
1960.000000	17.628445
1959.000000	17.548750
1958.000000	17.472915
1957.000000	17.411271
1956.000000	17.326013
1955.000000	17.274246
1954.000000	17.192848
1953.000000	17.162423
1952.000000	17.076144
1951.000000	17.014500
1950.000000	16.941389
1949.000000	16.888373
1948.000000	16.831951
1947.000000	16.793693
1946.000000	16.752937
1945.000000	16.711160
1944.000000	16.689363
1943.000000	16.651446
1942.000000	16.622042
1941.000000	16.609441
1940.000000	16.591504
1939.000000	16.626924
1938.000000	16.631124
1937.000000	16.657235
1936.000000	16.682097
1935.000000	16.728529
1934.000000	16.752029
1933.000000	16.779843
1932.000000	16.839898
1931.000000	16.912327
1930.000000	17.000990
1929.000000	17.110769
1928.000000	17.228722
1927.000000	17.360298
1926.000000	17.504362
1925.000000	17.630034
1924.000000	17.747306
1923.000000	17.843689
1922.000000	18.033957
1921.000000	18.256694
1920.000000	18.489421
1919.000000	18.689793
1918.000000	18.886306
1917.000000	19.032413
1916.000000	19.162967
1915.000000	19.381957
1914.000000	19.683594
1913.000000	19.996470
1912.000000	20.297880
1911.000000	20.577493
1910.000000	20.752095
1909.000000	20.904673
1908.000000	21.107543
1907.000000	21.395443
1906.000000	21.761449
1905.000000	22.186034
1904.000000	22.521955
1903.000000	22.794984
1902.000000	23.056206
1901.000000	23.335137
1900.000000	23.718399
1899.000000	24.110516
1898.000000	24.476294
1897.000000	24.829926
1896.000000	25.061063
1895.000000	25.288568
1894.000000	25.583848
1893.000000	25.929305
1892.000000	26.308140
1891.000000	26.708203
1890.000000	27.053206
1889.000000	27.373462
1888.000000	27.736402
1887.000000	28.054614
1886.000000	28.435491
1885.000000	28.891977
1884.000000	29.422367
1883.000000	29.953893
1882.000000	30.467255
1881.000000	30.978913
1880.000000	31.438464
1879.000000	31.915611
1878.000000	32.339401
1877.000000	32.776587
1876.000000	33.170520
1875.000000	33.573990
1874.000000	33.900602
1873.000000	34.225512
1872.000000	34.556552
1871.000000	34.871130
1870.000000	35.168453
1869.000000	35.412646
1868.000000	35.583843
1867.000000	35.714510
1866.000000	35.762645
1865.000000	35.824062
1864.000000	35.878895
1863.000000	35.910341
1862.000000	35.949167
1861.000000	35.999572
1860.000000	36.062465
1859.000000	36.104924
1858.000000	36.112530
1857.000000	36.091868
1856.000000	36.032949
1855.000000	36.017396
1854.000000	36.019439
1853.000000	35.958022
1852.000000	35.881279
1851.000000	35.792843
1850.000000	35.693394
1849.000000	35.662061
1848.000000	35.681928
1847.000000	35.681928
1846.000000	35.583956
1845.000000	35.432967
1844.000000	35.294580
1843.000000	35.248829
1842.000000	35.281184
1841.000000	35.292650
1840.000000	35.231687
1839.000000	35.136212
1838.000000	35.073432
1837.000000	35.049252
1836.000000	35.026774
1835.000000	34.949803
1834.000000	34.827650
1833.000000	34.704248
1832.000000	34.596399
1831.000000	34.518634
1830.000000	34.451881
1829.000000	34.372073
1828.000000	34.268992
1827.000000	34.194633
1826.000000	34.130491
1825.000000	34.050796
1824.000000	33.967355
1823.000000	33.892882
1822.000000	33.898899
1821.000000	33.946807
1820.000000	33.955321
1819.000000	33.892088
1818.000000	33.823745
1817.000000	33.802857
1816.000000	33.804333
1815.000000	33.803084
1814.000000	33.784806
1813.000000	33.759263
1812.000000	33.747116
1811.000000	33.730428
1810.000000	33.690240
1809.000000	33.628936
1808.000000	33.578304
1807.000000	33.525855
1806.000000	33.488618
1805.000000	33.439235
1804.000000	33.364649
1803.000000	33.326164
1802.000000	33.276213
1801.000000	33.233981
1800.000000	33.174948
1799.000000	33.110352
1798.000000	33.057790
1797.000000	32.991150
1796.000000	32.944718
1795.000000	32.910888
1794.000000	32.852082
1793.000000	32.800314
1792.000000	32.736399
1791.000000	32.674982
1790.000000	32.621512
1789.000000	32.562706
1788.000000	32.486303
1787.000000	32.408879
1786.000000	32.316356
1785.000000	32.243245
1784.000000	32.163437
1783.000000	32.090440
1782.000000	31.983045
1781.000000	31.907097
1780.000000	31.821158
1779.000000	31.701729
1778.000000	31.589680
1777.000000	31.484442
1776.000000	31.361948
1775.000000	31.227307
1774.000000	31.067917
1773.000000	30.909663
1772.000000	30.775817
1771.000000	30.615859
1770.000000	30.453518
1769.000000	30.301508
1768.000000	30.160850
1767.000000	30.021327
1766.000000	29.934026
1765.000000	29.848201
1764.000000	29.797796
1763.000000	29.795184
1762.000000	29.808240
1761.000000	29.855353
1760.000000	29.913591
1759.000000	29.980685
1758.000000	30.086036
1757.000000	30.169932
1756.000000	30.223062
1755.000000	30.251329
1754.000000	30.266088
1753.000000	30.265747
1752.000000	30.249059
1751.000000	30.220337
1750.000000	30.149043
1749.000000	30.067645
1748.000000	29.981139
1747.000000	29.858191
1746.000000	29.720485
1745.000000	29.550424
1744.000000	29.357431
1743.000000	29.160464
1742.000000	28.895155
1741.000000	28.626895
1740.000000	28.322306
1739.000000	28.040537
1738.000000	27.778520
1737.000000	27.548858
1736.000000	27.406952
1735.000000	27.281279
1734.000000	27.209871
1733.000000	27.196362
1732.000000	27.245518
1731.000000	27.331230
1730.000000	27.431359
1729.000000	27.556237
1728.000000	27.678504
1727.000000	27.795322
1726.000000	27.902036
1725.000000	28.008976
1724.000000	28.060517
1723.000000	28.082995
1722.000000	28.107403
1721.000000	28.122502
1720.000000	28.167912
1719.000000	28.189936
1718.000000	28.274626
1717.000000	28.340243
1716.000000	28.410629
1715.000000	28.468414
1714.000000	28.569905
1713.000000	28.650281
1712.000000	28.707044
1711.000000	28.732928
1710.000000	28.784922
1709.000000	28.783446
1708.000000	28.743486
1707.000000	28.738604
1706.000000	28.722256
1705.000000	28.686042
1704.000000	28.598627
1703.000000	28.492935
1702.000000	28.394736
1701.000000	28.212641
1700.000000	28.060176
1699.000000	27.878763
1698.000000	27.710632
1697.000000	27.570201
1696.000000	27.496637
1695.000000	27.467574
1694.000000	27.556464
1693.000000	27.680434
1692.000000	27.851290
1691.000000	28.062788
1690.000000	28.264522
1689.000000	28.405294
1688.000000	28.480220
1687.000000	28.494297
1686.000000	28.521203
1685.000000	28.566954
1684.000000	28.706249
1683.000000	28.961341
1682.000000	29.376503
1681.000000	29.910753
1680.000000	30.529126
1679.000000	31.237978
1678.000000	31.881894
1677.000000	32.489368
1676.000000	33.048481
1675.000000	33.509053
1674.000000	33.928189
1673.000000	34.283410
1672.000000	34.611157
1671.000000	34.858302
1670.000000	35.096932
1669.000000	35.320464
1668.000000	35.492909
1667.000000	35.679998
1666.000000	35.827922
1665.000000	35.971532
1664.000000	36.071661
1663.000000	36.194041
1662.000000	36.265222
1661.000000	36.339808
1660.000000	36.408150
1659.000000	36.446068
1658.000000	36.493748
1657.000000	36.537683
1656.000000	36.562091
1655.000000	36.572875
1654.000000	36.586498
1653.000000	36.569129
1652.000000	36.562545
1651.000000	36.535071
1650.000000	36.521789
1649.000000	36.487391
1648.000000	36.437440
1647.000000	36.401793
1646.000000	36.358540
1645.000000	36.306772
1644.000000	36.242403
1643.000000	36.203804
1642.000000	36.150902
1641.000000	36.093685
1640.000000	36.016488
1639.000000	35.958249
1638.000000	35.894221
1637.000000	35.827809
1636.000000	35.730177
1635.000000	35.657975
1634.000000	35.591222
1633.000000	35.509938
1632.000000	35.437395
1631.000000	35.349413
1630.000000	35.259160
1629.000000	35.167091
1628.000000	35.078995
1627.000000	34.963540
1626.000000	34.872720
1625.000000	34.779629
1624.000000	34.698685
1623.000000	34.619218
1622.000000	34.535549
1621.000000	34.436215
1620.000000	34.347892
1619.000000	34.274668
1618.000000	34.177036
1617.000000	34.095639
1616.000000	34.000277
1615.000000	33.916041
1614.000000	33.840320
1613.000000	33.760852
1612.000000	33.685699
1611.000000	33.605436
1610.000000	33.513935
1609.000000	33.434807
1608.000000	33.362038
1607.000000	33.289609
1606.000000	33.258048
1605.000000	33.191750
1604.000000	33.106833
1603.000000	33.035198
1602.000000	32.970148
1601.000000	32.886139
1600.000000	32.798611
1599.000000	32.724820
1598.000000	32.669647
1597.000000	32.606072
1596.000000	32.521950
1595.000000	32.448840
1594.000000	32.386401
1593.000000	32.334179
1592.000000	32.293424
1591.000000	32.243018
1590.000000	32.195678
1589.000000	32.141413
1588.000000	32.085445
1587.000000	32.042078
1586.000000	31.995192
1585.000000	31.959091
1584.000000	31.943198
1583.000000	31.927418
1582.000000	31.898355
1581.000000	31.875537
1580.000000	31.860211
1579.000000	31.847609
1578.000000	31.840003
1577.000000	31.837279
1576.000000	31.841252
1575.000000	31.857146
1574.000000	31.865319
1573.000000	31.889727
1572.000000	31.923785
1571.000000	31.952507
1570.000000	31.974871
1569.000000	32.003934
1568.000000	32.043554
1567.000000	32.086807
1566.000000	32.135283
1565.000000	32.168092
1564.000000	32.188186
1563.000000	32.229849
1562.000000	32.285817
1561.000000	32.318513
1560.000000	32.338947
1559.000000	32.367215
1558.000000	32.389012
1557.000000	32.391055
1556.000000	32.401159
1555.000000	32.418983
1554.000000	32.424999
1553.000000	32.418074
1552.000000	32.414101
1551.000000	32.427156
1550.000000	32.428519
1549.000000	32.408084
1548.000000	32.384244
1547.000000	32.379703
1546.000000	32.386401
1545.000000	32.384471
1544.000000	32.374594
1543.000000	32.392872
1542.000000	32.412058
1541.000000	32.407630
1540.000000	32.396618
1539.000000	32.383676
1538.000000	32.411376
1537.000000	32.426929
1536.000000	32.420799
1535.000000	32.413760
1534.000000	32.409106
1533.000000	32.401500
1532.000000	32.382654
1531.000000	32.386174
1530.000000	32.393326
1529.000000	32.367215
1528.000000	32.346667
1527.000000	32.331909
1526.000000	32.311474
1525.000000	32.288883
1524.000000	32.248581
1523.000000	32.220313
1522.000000	32.212821
1521.000000	32.184439
1520.000000	32.161280
1519.000000	32.123817
1518.000000	32.096798
1517.000000	32.070346
1516.000000	32.033223
1515.000000	31.996668
1514.000000	31.959091
1513.000000	31.937635
1512.000000	31.897674
1511.000000	31.855670
1510.000000	31.820136
1509.000000	31.782446
1508.000000	31.752816
1507.000000	31.720120
1506.000000	31.671305
1505.000000	31.635771
1504.000000	31.608071
1503.000000	31.558574
1502.000000	31.535301
1501.000000	31.524743
1500.000000	31.523495
1499.000000	31.479333
1498.000000	31.461850
1497.000000	31.449590
1496.000000	31.435399
1495.000000	31.438010
1494.000000	31.434264
1493.000000	31.457082
1492.000000	31.456628
1491.000000	31.463553
1490.000000	31.491480
1489.000000	31.495227
1488.000000	31.516456
1487.000000	31.518613
1486.000000	31.525879
1485.000000	31.542113
1484.000000	31.560958
1483.000000	31.584798
1482.000000	31.623964
1481.000000	31.675051
1480.000000	31.684587
1479.000000	31.718531
1478.000000	31.773023
1477.000000	31.812190
1476.000000	31.839436
1475.000000	31.873720
1474.000000	31.951031
1473.000000	32.008248
1472.000000	32.071822
1471.000000	32.107583
1470.000000	32.153674
1469.000000	32.205328
1468.000000	32.272421
1467.000000	32.307841
1466.000000	32.368123
1465.000000	32.445661
1464.000000	32.495158
1463.000000	32.567814
1462.000000	32.657840
1461.000000	32.745254
1460.000000	32.832896
1459.000000	32.912364
1458.000000	33.045529
1457.000000	33.146226
1456.000000	33.242723
1455.000000	33.383835
1454.000000	33.478401
1453.000000	33.595900
1452.000000	33.747797
1451.000000	33.879486
1450.000000	34.022188
1449.000000	34.109375
1448.000000	34.257753
1447.000000	34.384220
1446.000000	34.585046
1445.000000	34.730018
1444.000000	34.819476
1443.000000	34.986359
1442.000000	35.133942
1441.000000	35.281297
1440.000000	35.441822
1439.000000	35.571468
1438.000000	35.739599
1437.000000	35.882982
1436.000000	36.013422
1435.000000	36.154307
1434.000000	36.338673
1433.000000	36.483645
1432.000000	36.649051
1431.000000	36.807646
1430.000000	36.967830
1429.000000	37.165024
1428.000000	37.365509
1427.000000	37.605502
1426.000000	37.821541
1425.000000	38.076973
1424.000000	38.345574
1423.000000	38.615197
1422.000000	38.809552
1421.000000	39.052950
1420.000000	39.356063
1419.000000	39.663944
1418.000000	39.883956
1417.000000	40.067640
1416.000000	40.348842
1415.000000	40.648436
1414.000000	40.949619
1413.000000	41.171107
1412.000000	41.379653
1411.000000	41.693323
1410.000000	42.037873
1409.000000	42.463139
1408.000000	42.829826
1407.000000	43.255546
1406.000000	43.662080
1405.000000	44.115273
1404.000000	44.522829
1403.000000	44.905183
1402.000000	45.320913
1401.000000	45.916467
1400.000000	46.270779
1399.000000	46.508728
1398.000000	46.659149
1397.000000	46.938081
1396.000000	47.314645
1395.000000	47.538403
1394.000000	47.596642
1393.000000	47.706648
1392.000000	47.980698
1391.000000	48.153824
1390.000000	48.317187
1389.000000	48.569668
1388.000000	48.942939
1387.000000	49.225050
1386.000000	49.573005
1385.000000	50.014278
1384.000000	50.435003
1383.000000	50.932244
1382.000000	51.313803
1381.000000	51.588988
1380.000000	51.733619
1379.000000	51.844534
1378.000000	51.902205
1377.000000	52.029126
1376.000000	52.162064
1375.000000	52.370724
1374.000000	52.687005
1373.000000	53.041091
1372.000000	53.442290
1371.000000	53.850413
1370.000000	54.193600
1369.000000	54.528160
1368.000000	54.905972
1367.000000	55.145284
1366.000000	55.342364
1365.000000	55.601996
1364.000000	55.780458
1363.000000	55.949724
1362.000000	56.194825
1361.000000	56.349220
1360.000000	56.344792
1359.000000	56.378396
1358.000000	56.498165
1357.000000	56.671518
1356.000000	56.984394
1355.000000	57.474370
1354.000000	58.050738
1353.000000	58.590211
1352.000000	59.207334
1351.000000	59.832291
1350.000000	60.402302
1349.000000	60.898749
1348.000000	61.384864
1347.000000	61.846004
1346.000000	62.203042
1345.000000	62.580400
1344.000000	62.982053
1343.000000	63.304124
1342.000000	63.630623
1341.000000	63.971994
1340.000000	64.270565
1339.000000	64.565391
1338.000000	64.862600
1337.000000	65.144484
1336.000000	65.380503
1335.000000	65.641838
1334.000000	65.884555
1333.000000	66.127159
1332.000000	66.360454
1331.000000	66.554923
1330.000000	66.733612
1329.000000	66.934779
1328.000000	67.107451
1327.000000	67.264002
1326.000000	67.425095
1325.000000	67.580738
1324.000000	67.735359
1323.000000	67.859897
1322.000000	67.989316
1321.000000	68.119756
1320.000000	68.228400
1319.000000	68.321150
1318.000000	68.430362
1317.000000	68.540368
1316.000000	68.651395
1315.000000	68.747778
1314.000000	68.821911
1313.000000	68.897178
1312.000000	68.970061
1311.000000	69.039198
1310.000000	69.101069
1309.000000	69.157151
1308.000000	69.204377
1307.000000	69.244452
1306.000000	69.285548
1305.000000	69.310410
1304.000000	69.333569
1303.000000	69.345830
1302.000000	69.345035
1301.000000	69.339132
1300.000000	69.331072
1299.000000	69.327439
1298.000000	69.323352
1297.000000	69.313702
1296.000000	69.284640
1295.000000	69.279077
1294.000000	69.277828
1293.000000	69.235256
1292.000000	69.190527
1291.000000	69.173839
1290.000000	69.122753
1289.000000	69.049075
1288.000000	69.001508
1287.000000	68.927943
1286.000000	68.849157
1285.000000	68.784220
1284.000000	68.704525
1283.000000	68.616203
1282.000000	68.518230
1281.000000	68.425480
1280.000000	68.339541
1279.000000	68.258598
1278.000000	68.187417
1277.000000	68.102160
1276.000000	68.030639
1275.000000	67.964454
1274.000000	67.899631
1273.000000	67.827428
1272.000000	67.773958
1271.000000	67.712427
1270.000000	67.653735
1269.000000	67.600605
1268.000000	67.541004
1267.000000	67.473229
1266.000000	67.404887
1265.000000	67.339951
1264.000000	67.279214
1263.000000	67.235053
1262.000000	67.177042
1261.000000	67.100753
1260.000000	67.026393
1259.000000	66.982346
1258.000000	66.921383
1257.000000	66.842823
1256.000000	66.760177
1255.000000	66.699554
1254.000000	66.594089
1253.000000	66.502701
1252.000000	66.430726
1251.000000	66.306416
1250.000000	66.204016
1249.000000	66.109109
1248.000000	65.985366
1247.000000	65.860715
1246.000000	65.733226
1245.000000	65.568274
1244.000000	65.445666
1243.000000	65.280828
1242.000000	65.100322
1241.000000	64.946836
1240.000000	64.748734
1239.000000	64.561190
1238.000000	64.380685
1237.000000	64.208467
1236.000000	64.010819
1235.000000	63.817599
1234.000000	63.614956
1233.000000	63.396988
1232.000000	63.186966
1231.000000	62.992724
1230.000000	62.774188
1229.000000	62.558035
1228.000000	62.355052
1227.000000	62.146960
1226.000000	61.924791
1225.000000	61.693767
1224.000000	61.468078
1223.000000	61.270658
1222.000000	61.059614
1221.000000	60.877406
1220.000000	60.679985
1219.000000	60.493350
1218.000000	60.320110
1217.000000	60.164240
1216.000000	60.028690
1215.000000	59.881561
1214.000000	59.739314
1213.000000	59.603651
1212.000000	59.491942
1211.000000	59.392040
1210.000000	59.281694
1209.000000	59.195187
1208.000000	59.108567
1207.000000	59.055778
1206.000000	58.980624
1205.000000	58.950654
1204.000000	58.950086
1203.000000	58.919207
1202.000000	58.903995
1201.000000	58.887647
1200.000000	58.839853
1199.000000	58.755844
1198.000000	58.659575
1197.000000	58.529815
1196.000000	58.303900
1195.000000	58.053690
1194.000000	57.722082
1193.000000	57.302833
1192.000000	56.846461
1191.000000	56.350696
1190.000000	55.883766
1189.000000	55.505727
1188.000000	55.215442
1187.000000	55.050376
1186.000000	55.040727
1185.000000	55.140402
1184.000000	55.409684
1183.000000	55.777733
1182.000000	56.279515
1181.000000	56.822280
1180.000000	57.359709
1179.000000	57.870914
1178.000000	58.337390
1177.000000	58.722695
1176.000000	59.057027
1175.000000	59.388861
1174.000000	59.692882
1173.000000	60.008029
1172.000000	60.356552
1171.000000	60.719265
1170.000000	61.103094
1169.000000	61.477615
1168.000000	61.831132
1167.000000	62.200090
1166.000000	62.584146
1165.000000	63.009753
1164.000000	63.393241
1163.000000	63.817713
1162.000000	64.207332
1161.000000	64.594453
1160.000000	64.973287
1159.000000	65.350873
1158.000000	65.702574
1157.000000	66.024646
1156.000000	66.298696
1155.000000	66.502020
1154.000000	66.644608
1153.000000	66.719761
1152.000000	66.756884
1151.000000	66.769031
1150.000000	66.742126
1149.000000	66.740423
1148.000000	66.760290
1147.000000	66.801840
1146.000000	66.919112
1145.000000	67.126296
1144.000000	67.406022
1143.000000	67.722304
1142.000000	68.073438
1141.000000	68.444666
1140.000000	68.820208
1139.000000	69.192571
1138.000000	69.582757
1137.000000	70.016538
1136.000000	70.424662
1135.000000	70.864232
1134.000000	71.267928
1133.000000	71.567862
1132.000000	71.882668
1131.000000	72.175677
1130.000000	72.463009
1129.000000	72.696418
1128.000000	72.874425
1127.000000	73.022689
1126.000000	73.124295
1125.000000	73.194453
1124.000000	73.281073
1123.000000	73.336928
1122.000000	73.399367
1121.000000	73.415601
1120.000000	73.464417
1119.000000	73.481445
1118.000000	73.468390
1117.000000	73.461238
1116.000000	73.438079
1115.000000	73.411854
1114.000000	73.375867
1113.000000	73.359179
1112.000000	73.317515
1111.000000	73.286068
1110.000000	73.268018
1109.000000	73.236458
1108.000000	73.199902
1107.000000	73.154719
1106.000000	73.126906
1105.000000	73.081609
1104.000000	73.052206
1103.000000	72.990221
1102.000000	72.937772
1101.000000	72.911207
1100.000000	72.873517
1099.000000	72.815165
1098.000000	72.755451
1097.000000	72.699596
1096.000000	72.652256
1095.000000	72.582665
1094.000000	72.541115
1093.000000	72.477995
1092.000000	72.403068
1091.000000	72.348122
1090.000000	72.284888
1089.000000	72.209280
1088.000000	72.125044
1087.000000	72.046712
1086.000000	71.991084
1085.000000	71.904919
1084.000000	71.825792
1083.000000	71.754271
1082.000000	71.695464
1081.000000	71.608390
1080.000000	71.554239
1079.000000	71.481015
1078.000000	71.406088
1077.000000	71.343990
1076.000000	71.283821
1075.000000	71.204354
1074.000000	71.133060
1073.000000	71.061539
1072.000000	71.008522
1071.000000	70.941202
1070.000000	70.874563
1069.000000	70.825974
1068.000000	70.737310
1067.000000	70.644333
1066.000000	70.578261
1065.000000	70.516277
1064.000000	70.449864
1063.000000	70.365401
1062.000000	70.287069
1061.000000	70.224857
1060.000000	70.153904
1059.000000	70.080680
1058.000000	70.002574
1057.000000	69.922879
1056.000000	69.870885
1055.000000	69.800045
1054.000000	69.711609
1053.000000	69.656549
1052.000000	69.604214
1051.000000	69.528038
1050.000000	69.469913
1049.000000	69.413605
1048.000000	69.368081
1047.000000	69.323125
1046.000000	69.260459
1045.000000	69.219136
1044.000000	69.196204
1043.000000	69.158740
1042.000000	69.127407
1041.000000	69.099253
1040.000000	69.055092
1039.000000	69.010249
1038.000000	68.989360
1037.000000	68.966315
1036.000000	68.923629
1035.000000	68.870159
1034.000000	68.826338
1033.000000	68.787058
1032.000000	68.727912
1031.000000	68.673760
1030.000000	68.635615
1029.000000	68.582259
1028.000000	68.542865
1027.000000	68.503926
1026.000000	68.433086
1025.000000	68.374053
1024.000000	68.333297
1023.000000	68.283460
1022.000000	68.223064
1021.000000	68.182536
1020.000000	68.137126
1019.000000	68.061404
1018.000000	68.008501
1017.000000	67.987840
1016.000000	67.954009
1015.000000	67.917681
1014.000000	67.903490
1013.000000	67.913821
1012.000000	67.936640
1011.000000	67.950944
1010.000000	67.944814
1009.000000	67.975125
1008.000000	68.016902
1007.000000	68.030866
1006.000000	68.047668
1005.000000	68.054366
1004.000000	68.080931
1003.000000	68.119643
1002.000000	68.142121
1001.000000	68.170048
1000.000000	68.188780
999.000000	68.207057
998.000000	68.237596
997.000000	68.245883
996.000000	68.268815
995.000000	68.296402
994.000000	68.337952
993.000000	68.378821
992.000000	68.399029
991.000000	68.422982
990.000000	68.468393
989.000000	68.502110
988.000000	68.546384
987.000000	68.591908
986.000000	68.647422
985.000000	68.690448
984.000000	68.735177
983.000000	68.762310
982.000000	68.799546
981.000000	68.847340
980.000000	68.886393
979.000000	68.913412
978.000000	68.962455
977.000000	69.031251
976.000000	69.056795
975.000000	69.101637
974.000000	69.173385
973.000000	69.235597
972.000000	69.263978
971.000000	69.313135
970.000000	69.368876
969.000000	69.415989
968.000000	69.431769
967.000000	69.434720
966.000000	69.463102
965.000000	69.518956
964.000000	69.577535
963.000000	69.603192
962.000000	69.630665
961.000000	69.695602
960.000000	69.773367
959.000000	69.824907
958.000000	69.856581
957.000000	69.894839
956.000000	69.938659
955.000000	69.958072
954.000000	69.979415
953.000000	70.021647
952.000000	70.046282
951.000000	70.046736
950.000000	70.091919
949.000000	70.087945
948.000000	70.075003
947.000000	70.124614
946.000000	70.133128
945.000000	70.163440
944.000000	70.242113
943.000000	70.262434
942.000000	70.235528
941.000000	70.269472
940.000000	70.303303
939.000000	70.293767
938.000000	70.329187
937.000000	70.410698
936.000000	70.454178
935.000000	70.512984
934.000000	70.563730
933.000000	70.598128
932.000000	70.683840
931.000000	70.746847
930.000000	70.747301
929.000000	70.772390
928.000000	70.781699
927.000000	70.859691
926.000000	70.851630
925.000000	70.858896
924.000000	70.856398
923.000000	70.820979
922.000000	70.956641
921.000000	70.952214
920.000000	70.954711
919.000000	70.954371
918.000000	70.978211
917.000000	70.983547
916.000000	70.969356
915.000000	70.938818
914.000000	70.879217
913.000000	70.987180
912.000000	70.985250
911.000000	70.992742
910.000000	70.928147
909.000000	70.950057
908.000000	70.952327
907.000000	70.934731
906.000000	70.928828
905.000000	70.957323
904.000000	70.954825
903.000000	70.999781
902.000000	71.017037
901.000000	71.052116
900.000000	71.048370
899.000000	71.093553
898.000000	71.109333
897.000000	71.117507
896.000000	71.189141
895.000000	71.229897
894.000000	71.230465
893.000000	71.229897
892.000000	71.270198
891.000000	71.269517
890.000000	71.234438
889.000000	71.251807
888.000000	71.287454
887.000000	71.330707
886.000000	71.373166
885.000000	71.357726
884.000000	71.383610
883.000000	71.416079
882.000000	71.377707
881.000000	71.304937
880.000000	71.327642
879.000000	71.364765
878.000000	71.413922
877.000000	71.383724
876.000000	71.314133
875.000000	71.348417
874.000000	71.356932
873.000000	71.356478
872.000000	71.278032
871.000000	71.321852
870.000000	71.275875
869.000000	71.219680
868.000000	71.288590
867.000000	71.350120
866.000000	71.353413
865.000000	71.376118
864.000000	71.363289
863.000000	71.443211
862.000000	71.520295
861.000000	71.662883
860.000000	71.829084
859.000000	71.957822
858.000000	73.702933
857.000000	73.516800
856.000000	74.051200
855.000000	73.540800
854.000000	74.326900
853.000000	74.230800
852.000000	74.520100
851.000000	75.128500
850.000000	75.715000
849.000000	76.127600
848.000000	76.504100
847.000000	76.685800
846.000000	77.315400
845.000000	77.432000
844.000000	77.856400
843.000000	78.307700
842.000000	78.791000
841.000000	79.036700
840.000000	79.357300
839.000000	79.799700
838.000000	80.222600
837.000000	80.463000
836.000000	80.675600
835.000000	81.056000
834.000000	81.593900
833.000000	81.816600
832.000000	82.184800
831.000000	82.690500
830.000000	82.887100
829.000000	83.270200
828.000000	83.580800
827.000000	83.743700
826.000000	84.159200
825.000000	84.545800
824.000000	84.891200
823.000000	85.190200
822.000000	85.369600
821.000000	85.813800
820.000000	86.139200
819.000000	86.375900
818.000000	86.637300
817.000000	87.073700
816.000000	87.358400
815.000000	87.631500
814.000000	87.898400
813.000000	88.220600
812.000000	88.506200
811.000000	88.812000
810.000000	89.160300
809.000000	89.351600
808.000000	89.632000
807.000000	89.836600
806.000000	90.046100
805.000000	90.288000
804.000000	90.605300
803.000000	90.699700
802.000000	90.791600
801.000000	90.993200
800.000000	91.118900
799.000000	91.143200
798.000000	91.307000
797.000000	91.346200
796.000000	91.504300
795.000000	91.725200
794.000000	91.695300
793.000000	91.811800
792.000000	91.888000
791.000000	91.843400
790.000000	91.928500
789.000000	92.036100
788.000000	92.206000
787.000000	92.287900
786.000000	92.380000
785.000000	92.423500
784.000000	92.542300
783.000000	92.552800
782.000000	92.561500
781.000000	92.541900
780.000000	92.489700
779.000000	92.471300
778.000000	92.441700
777.000000	92.484000
776.000000	92.416100
775.000000	92.338000
774.000000	92.321900
773.000000	92.407600
772.000000	92.484100
771.000000	92.403000
770.000000	92.361500
769.000000	92.274600
768.000000	92.341700
767.000000	92.370200
766.000000	92.288300
765.000000	92.290700
764.000000	92.324500
763.000000	92.388000
762.000000	92.435700
761.000000	92.413800
760.000000	92.349000
759.000000	92.216900
758.000000	92.079800
757.000000	91.978500
756.000000	91.886800
755.000000	91.808200
754.000000	91.687000
753.000000	91.572900
752.000000	91.392900
751.000000	91.243800
750.000000	91.148700
749.000000	90.940700
748.000000	90.697800
747.000000	90.489900
746.000000	90.323900
745.000000	90.148000
744.000000	89.870400
743.000000	89.633500
742.000000	89.426500
741.000000	89.169100
740.000000	88.878500
739.000000	88.602800
738.000000	88.341200
737.000000	88.041400
736.000000	87.796600
735.000000	87.466800
734.000000	87.052300
733.000000	86.674600
732.000000	86.293600
731.000000	85.939100
730.000000	85.514800
729.000000	85.075300
728.000000	84.658500
727.000000	84.213600
726.000000	83.762100
725.000000	83.313600
724.000000	82.903600
723.000000	82.487200
722.000000	82.058600
721.000000	81.658100
720.000000	81.251800
719.000000	80.917100
718.000000	80.603800
717.000000	80.312200
716.000000	79.941000
715.000000	79.582200
714.000000	79.301900
713.000000	79.027800
712.000000	78.686600
711.000000	78.339000
710.000000	78.159000
709.000000	77.834600
708.000000	77.499700
707.000000	77.165700
706.000000	76.889400
705.000000	76.684200
704.000000	76.357600
703.000000	76.005300
702.000000	75.692600
701.000000	75.320600
700.000000	74.964000
699.000000	74.631600
698.000000	74.278500
697.000000	73.869600
696.000000	73.441800
695.000000	73.057100
694.000000	72.559100
693.000000	72.074400
692.000000	71.594200
691.000000	71.168000
690.000000	70.710900
689.000000	70.222900
688.000000	69.748700
687.000000	69.285500
686.000000	68.862600
685.000000	68.437000
684.000000	67.994700
683.000000	67.586000
682.000000	67.224400
681.000000	66.871500
680.000000	66.510800
679.000000	66.210200
678.000000	65.910600
677.000000	65.627200
676.000000	65.434900
675.000000	65.207800
674.000000	64.983800
673.000000	64.756600
672.000000	64.509800
671.000000	64.267100
670.000000	64.065300
669.000000	63.849100
668.000000	63.666100
667.000000	63.415000
666.000000	63.190200
665.000000	62.946500
664.000000	62.691400
663.000000	62.416000
662.000000	62.141500
661.000000	61.875400
660.000000	61.540400
659.000000	61.245500
658.000000	60.917900
657.000000	60.596200
656.000000	60.289600
655.000000	59.925800
654.000000	59.584700
653.000000	59.241200
652.000000	58.954000
651.000000	58.689400
650.000000	58.429400
649.000000	58.213300
648.000000	58.023400
647.000000	57.810100
646.000000	57.602800
645.000000	57.423100
644.000000	57.253700
643.000000	57.095700
642.000000	56.972000
641.000000	56.821200
640.000000	56.677000
639.000000	56.576700
638.000000	56.395200
637.000000	56.245200
636.000000	56.096900
635.000000	55.933000
634.000000	55.780200
633.000000	55.595800
632.000000	55.398100
631.000000	55.185700
630.000000	54.962500
629.000000	54.755300
628.000000	54.497500
627.000000	54.256200
626.000000	54.005600
625.000000	53.713600
624.000000	53.469300
623.000000	53.145500
622.000000	52.864100
621.000000	52.553000
620.000000	52.319100
619.000000	52.065900
618.000000	51.842400
617.000000	51.651800
616.000000	51.455500
615.000000	51.305500
614.000000	51.178400
613.000000	51.066100
612.000000	51.021600
611.000000	51.031300
610.000000	51.024900
609.000000	51.117700
608.000000	51.230000
607.000000	51.348300
606.000000	51.534500
605.000000	51.709900
604.000000	51.928300
603.000000	52.155300
602.000000	52.373700
601.000000	52.616100
600.000000	52.890800
599.000000	53.092800
598.000000	53.386700
597.000000	53.644600
596.000000	53.887200
595.000000	54.128200
594.000000	54.428700
593.000000	54.719700
592.000000	55.052200
591.000000	55.374700
590.000000	55.740000
589.000000	56.144400
588.000000	56.486800
587.000000	56.947700
586.000000	57.343600
585.000000	57.748300
584.000000	58.155500
583.000000	58.560000
582.000000	58.963000
581.000000	59.364800
580.000000	59.763900
579.000000	60.111500
578.000000	60.440900
577.000000	60.812700
576.000000	61.090800
575.000000	61.301200
574.000000	61.529700
573.000000	61.752200
572.000000	61.893300
571.000000	62.047500
570.000000	62.217800
569.000000	62.326500
568.000000	62.479100
567.000000	62.565000
566.000000	62.682400
565.000000	62.766800
564.000000	62.848400
563.000000	62.930500
562.000000	62.926000
561.000000	62.962900
560.000000	63.011900
559.000000	63.176100
558.000000	63.175200
557.000000	63.234500
556.000000	63.234700
555.000000	63.175200
554.000000	63.169000
553.000000	63.132000
552.000000	63.072000
551.000000	62.982700
550.000000	62.914500
549.000000	62.761800
548.000000	62.519800
547.000000	62.474900
546.000000	62.301000
545.000000	62.088300
544.000000	61.986500
543.000000	61.869400
542.000000	61.617900
541.000000	61.476300
540.000000	61.322700
539.000000	61.035900
538.000000	60.856700
537.000000	60.673900
536.000000	60.380600
535.000000	60.100300
534.000000	59.779900
533.000000	59.442800
532.000000	59.069500
531.000000	58.688600
530.000000	58.298100
529.000000	57.854200
528.000000	57.394100
527.000000	56.946500
526.000000	56.495800
525.000000	56.034900
524.000000	55.524700
523.000000	54.989600
522.000000	54.460200
521.000000	53.938900
520.000000	53.399200
519.000000	52.833200
518.000000	52.283700
517.000000	51.722900
516.000000	51.148100
515.000000	50.572600
514.000000	49.955000
513.000000	49.347500
512.000000	48.723100
511.000000	48.124600
510.000000	47.494700
509.000000	46.915300
508.000000	46.368100
507.000000	45.803300
506.000000	45.265500
505.000000	44.730200
504.000000	44.174300
503.000000	43.602400
502.000000	43.054200
501.000000	42.498000
500.000000	41.938200
499.000000	41.369800
498.000000	40.822000
497.000000	40.251500
496.000000	39.640300
495.000000	39.053900
494.000000	38.428200
493.000000	37.821800
492.000000	37.192300
491.000000	36.545600
490.000000	35.885400
489.000000	35.198800
488.000000	34.515000
487.000000	33.816200
486.000000	33.107800
485.000000	32.398700
484.000000	31.671000
483.000000	30.954900
482.000000	30.256000
481.000000	29.579400
480.000000	28.903100
479.000000	28.238600
478.000000	27.613500
477.000000	27.047200
476.000000	26.512600
475.000000	26.025700
474.000000	25.577700
473.000000	25.156900
472.000000	24.789400
471.000000	24.496100
470.000000	24.252500
469.000000	24.031800
468.000000	23.861900
467.000000	23.740100
466.000000	23.656100
465.000000	23.584700
464.000000	23.558700
463.000000	23.559700
462.000000	23.567900
461.000000	23.597700
460.000000	23.631500
459.000000	23.656500
458.000000	23.719800
457.000000	23.778900
456.000000	23.825000
455.000000	23.864800
454.000000	23.913300
453.000000	23.943700
452.000000	23.947100
451.000000	23.964500
450.000000	23.975200
449.000000	23.975600
448.000000	23.934500
447.000000	23.896400
446.000000	23.867300
445.000000	23.835600
444.000000	23.806500
443.000000	23.734700
442.000000	23.617700
441.000000	23.520400
440.000000	23.449200
439.000000	23.335200
438.000000	23.201000
437.000000	23.086400
436.000000	22.956500
435.000000	22.811200
434.000000	22.662900
433.000000	22.494700
432.000000	22.333600
431.000000	22.182900
430.000000	21.997100
429.000000	21.796200
428.000000	21.598600
427.000000	21.397100
426.000000	21.182500
425.000000	20.947100
424.000000	20.708700
423.000000	20.473500
422.000000	20.205200
421.000000	19.921900
420.000000	19.625100
419.000000	19.328800
418.000000	19.022000
417.000000	18.699600
416.000000	18.368900
415.000000	18.019400
414.000000	17.662400
413.000000	17.298600
412.000000	16.934400
411.000000	16.563100
410.000000	16.182600
409.000000	15.801600
408.000000	15.418800
407.000000	15.031900
406.000000	14.628300
405.000000	14.252800
404.000000	13.900000
403.000000	13.504700
402.000000	13.133900
401.000000	12.776300
400.000000	12.396000
399.000000	12.041500
398.000000	11.725400
397.000000	11.400300
396.000000	11.087500
395.000000	10.770300
394.000000	10.466600
393.000000	10.178800
392.000000	9.888000
391.000000	9.613700
390.000000	9.362500
389.000000	9.123700
388.000000	8.899400
387.000000	8.678900
386.000000	8.484300
385.000000	8.272400
384.000000	8.079000
383.000000	7.897300
382.000000	7.739900
381.000000	7.573500
380.000000	7.425400
379.000000	7.278800
378.000000	7.151800
377.000000	7.041400
376.000000	6.888400
375.000000	6.701800
374.000000	6.518700
373.000000	6.513100
372.000000	6.427000
371.000000	6.402700
370.000000	6.366200
369.000000	6.296600
368.000000	6.210200
367.000000	6.123700
366.000000	6.024600
365.000000	5.975500
364.000000	5.961900
363.000000	5.926400
362.000000	5.901600
361.000000	5.862800
360.000000	5.756700
359.000000	5.747700
358.000000	5.767600
357.000000	5.778200
356.000000	5.667700
355.000000	5.671100
354.000000	5.654900
353.000000	5.569000
352.000000	5.467500
351.000000	5.500700
350.000000	5.472300
349.000000	5.446500
348.000000	5.485600
347.000000	5.495700
346.000000	5.410400
345.000000	5.352500
344.000000	5.412100
343.000000	5.372500
342.000000	5.373600
341.000000	5.310600
340.000000	5.336700
339.000000	5.321800
338.000000	5.302600
337.000000	5.173400
336.000000	5.299400
335.000000	5.336600
334.000000	5.265300
333.000000	5.331100
332.000000	5.164900
331.000000	5.169200
330.000000	5.206800
329.000000	5.191200
328.000000	5.132000
327.000000	5.177200
326.000000	5.202300
325.000000	5.198200
324.000000	5.093700
323.000000	5.244400
322.000000	5.268500
321.000000	5.083700
320.000000	5.106200
319.000000	5.222900
318.000000	5.265100
317.000000	5.511300
316.000000	5.130600
315.000000	5.035000
314.000000	5.026000
313.000000	5.037700
312.000000	5.057400
311.000000	5.133600
310.000000	5.060000
309.000000	5.057000
308.000000	5.074600
307.000000	5.120100
306.000000	5.062900
305.000000	5.043000
304.000000	5.100000
303.000000	5.121500
302.000000	5.097000
301.000000	5.109300
300.000000	5.072700
299.000000	5.120100
298.000000	5.124200
297.000000	5.100100
296.000000	5.032000
295.000000	5.113800
294.000000	5.128800
293.000000	5.141500
292.000000	5.154900
291.000000	5.163500
290.000000	5.189100
289.000000	5.111900
288.000000	5.149500
287.000000	5.147700
286.000000	5.166600
285.000000	5.156000
284.000000	5.180700
283.000000	5.146700
282.000000	5.161700
281.000000	5.173200
280.000000	5.182900
279.000000	5.171800
278.000000	5.186600
277.000000	5.197200
276.000000	5.218900
275.000000	5.238600
274.000000	5.245700
273.000000	5.186200
272.000000	5.245900
271.000000	5.245700
270.000000	5.268600
269.000000	5.276500
268.000000	5.294700
267.000000	5.322800
266.000000	5.310700
265.000000	5.311700
264.000000	5.315800
263.000000	5.349400
262.000000	5.341600
261.000000	5.390900
260.000000	5.468100
259.000000	5.457900
258.000000	5.462600
257.000000	5.459400
256.000000	5.455100
255.000000	5.450400
254.000000	5.515500
253.000000	5.506000
252.000000	5.604400
251.000000	5.501900
250.000000	5.512400
