PE UV       SUBTECH     SPECTRUM    ASCII       PEDS        4.00        
   -1
CICIMAUCR0239-3.ASC
24/06/20
14:40:00.00
24/06/20
14:40:00.00
Vinicio Soto Monge
C. cupreomarginata. Sex M. Ventral 
250,000000
1
Lambda 1050
1050L1511233
PerkinElmer UV WinLab 6.3.2.0749 / 2.02.05 Lambda 900 UV/VIS/NIR, Aug  7 2015 09:38:08

0
0
3350/servo 860,8/2
0
0
UV/VIS
1
1
1
DoubleDePol,CommonBeamDepol,RBeamAtt,SBeamAtt,60mm sphere, WB InGaAs Detector
0
0
0
0
Program
Program
3350/servo 860,8/2
3350/0,2 860,8/0,2
3350/0,2 860,8/0,2
0
15.00
 
 
 
0
 
860,8
319,2
860,8
Front
100
on
S:100 R:100
0
0
0
0
 
0
 
 
 
0
 
 
0
0
0
0
0
 
 
 
 
0
0


0
0
#HDR
-1
-1
#GR
nm
%R
1.0
0.0
2500,000000
-1,000000
2251
8
61,032400
4,392100
#DATA
2482.000000	5.615226
2481.000000	5.651549
2480.000000	5.583010
2479.000000	5.538265
2478.000000	5.574482
2477.000000	5.621333
2476.000000	5.601645
2475.000000	5.623122
2474.000000	5.594486
2473.000000	5.608067
2472.000000	5.594275
2471.000000	5.625439
2470.000000	5.580799
2469.000000	5.621227
2468.000000	5.617227
2467.000000	5.591011
2466.000000	5.600487
2465.000000	5.643758
2464.000000	5.652075
2463.000000	5.616279
2462.000000	5.627860
2461.000000	5.615542
2460.000000	5.633861
2459.000000	5.673974
2458.000000	5.638599
2457.000000	5.675132
2456.000000	5.732827
2455.000000	5.704716
2454.000000	5.771676
2453.000000	5.769781
2452.000000	5.773781
2451.000000	5.828212
2450.000000	5.835477
2449.000000	5.824633
2448.000000	5.871904
2447.000000	5.865272
2446.000000	5.916439
2445.000000	5.936653
2444.000000	5.973502
2443.000000	5.997822
2442.000000	6.000243
2441.000000	6.028670
2440.000000	6.065729
2439.000000	6.071519
2438.000000	6.118791
2437.000000	6.108473
2436.000000	6.126687
2435.000000	6.176380
2434.000000	6.183434
2433.000000	6.202069
2432.000000	6.219757
2431.000000	6.259027
2430.000000	6.264396
2429.000000	6.283663
2428.000000	6.297560
2427.000000	6.327566
2426.000000	6.329145
2425.000000	6.337252
2424.000000	6.354518
2423.000000	6.369994
2422.000000	6.373995
2421.000000	6.397157
2420.000000	6.406527
2419.000000	6.435796
2418.000000	6.464538
2417.000000	6.464117
2416.000000	6.474434
2415.000000	6.463274
2414.000000	6.472750
2413.000000	6.489279
2412.000000	6.505177
2411.000000	6.518653
2410.000000	6.532655
2409.000000	6.534445
2408.000000	6.553396
2407.000000	6.549711
2406.000000	6.568662
2405.000000	6.579927
2404.000000	6.596562
2403.000000	6.616776
2402.000000	6.624777
2401.000000	6.637832
2400.000000	6.636464
2399.000000	6.646571
2398.000000	6.651940
2397.000000	6.677103
2396.000000	6.706371
2395.000000	6.715846
2394.000000	6.723953
2393.000000	6.752906
2392.000000	6.767119
2391.000000	6.770909
2390.000000	6.781543
2389.000000	6.800704
2388.000000	6.803547
2387.000000	6.810916
2386.000000	6.812917
2385.000000	6.835447
2384.000000	6.834605
2383.000000	6.825024
2382.000000	6.825024
2381.000000	6.829867
2380.000000	6.821339
2379.000000	6.833657
2378.000000	6.841659
2377.000000	6.828498
2376.000000	6.820286
2375.000000	6.821971
2374.000000	6.813548
2373.000000	6.799335
2372.000000	6.794598
2371.000000	6.805442
2370.000000	6.799019
2369.000000	6.773120
2368.000000	6.752590
2367.000000	6.748695
2366.000000	6.741851
2365.000000	6.725111
2364.000000	6.705318
2363.000000	6.672681
2362.000000	6.660784
2361.000000	6.649098
2360.000000	6.617092
2359.000000	6.592772
2358.000000	6.569188
2357.000000	6.546342
2356.000000	6.545500
2355.000000	6.543921
2354.000000	6.528128
2353.000000	6.515916
2352.000000	6.510757
2351.000000	6.510757
2350.000000	6.517600
2349.000000	6.518969
2348.000000	6.525917
2347.000000	6.551606
2346.000000	6.567293
2345.000000	6.598983
2344.000000	6.616039
2343.000000	6.626567
2342.000000	6.648361
2341.000000	6.656994
2340.000000	6.678998
2339.000000	6.705213
2338.000000	6.699422
2337.000000	6.699528
2336.000000	6.713004
2335.000000	6.718689
2334.000000	6.716373
2333.000000	6.702476
2332.000000	6.713741
2331.000000	6.718163
2330.000000	6.678050
2329.000000	6.665311
2328.000000	6.646781
2327.000000	6.615197
2326.000000	6.577400
2325.000000	6.564135
2324.000000	6.559081
2323.000000	6.516547
2322.000000	6.484752
2321.000000	6.455273
2320.000000	6.424952
2319.000000	6.378838
2318.000000	6.326934
2317.000000	6.296297
2316.000000	6.278399
2315.000000	6.241550
2314.000000	6.196700
2313.000000	6.144691
2312.000000	6.112685
2311.000000	6.105736
2310.000000	6.074362
2309.000000	6.031196
2308.000000	6.021510
2307.000000	6.012982
2306.000000	6.009824
2305.000000	6.003297
2304.000000	6.012351
2303.000000	6.024458
2302.000000	6.045199
2301.000000	6.060044
2300.000000	6.067308
2299.000000	6.104473
2298.000000	6.122792
2297.000000	6.155956
2296.000000	6.175328
2295.000000	6.220915
2294.000000	6.262922
2293.000000	6.281663
2292.000000	6.305878
2291.000000	6.303772
2290.000000	6.328092
2289.000000	6.349043
2288.000000	6.351991
2287.000000	6.340094
2286.000000	6.343779
2285.000000	6.350938
2284.000000	6.339041
2283.000000	6.317985
2282.000000	6.294086
2281.000000	6.290822
2280.000000	6.272924
2279.000000	6.263554
2278.000000	6.251447
2277.000000	6.226389
2276.000000	6.211334
2275.000000	6.203227
2274.000000	6.197437
2273.000000	6.182487
2272.000000	6.168590
2271.000000	6.164484
2270.000000	6.177644
2269.000000	6.173854
2268.000000	6.175854
2267.000000	6.209123
2266.000000	6.234391
2265.000000	6.246814
2264.000000	6.297244
2263.000000	6.349991
2262.000000	6.400632
2261.000000	6.464433
2260.000000	6.557502
2259.000000	6.623409
2258.000000	6.722374
2257.000000	6.828814
2256.000000	6.891457
2255.000000	7.010637
2254.000000	7.101495
2253.000000	7.217095
2252.000000	7.343960
2251.000000	7.447137
2250.000000	7.563684
2249.000000	7.639277
2248.000000	7.756035
2247.000000	7.843103
2246.000000	7.924907
2245.000000	8.015134
2244.000000	8.110415
2243.000000	8.179795
2242.000000	8.236858
2241.000000	8.312030
2240.000000	8.395624
2239.000000	8.426788
2238.000000	8.488378
2237.000000	8.545335
2236.000000	8.583553
2235.000000	8.639879
2234.000000	8.691046
2233.000000	8.724841
2232.000000	8.756953
2231.000000	8.798644
2230.000000	8.842021
2229.000000	8.850233
2228.000000	8.861708
2227.000000	8.897294
2226.000000	8.929721
2225.000000	8.958357
2224.000000	8.936248
2223.000000	8.953514
2222.000000	8.965938
2221.000000	8.958884
2220.000000	8.969833
2219.000000	8.948987
2218.000000	8.947934
2217.000000	8.939933
2216.000000	8.926983
2215.000000	8.950567
2214.000000	8.890556
2213.000000	8.901400
2212.000000	8.904348
2211.000000	8.890450
2210.000000	8.870236
2209.000000	8.871815
2208.000000	8.878027
2207.000000	8.867288
2206.000000	8.858234
2205.000000	8.869815
2204.000000	8.846758
2203.000000	8.852865
2202.000000	8.836441
2201.000000	8.854654
2200.000000	8.854865
2199.000000	8.828650
2198.000000	8.831598
2197.000000	8.824333
2196.000000	8.820122
2195.000000	8.802540
2194.000000	8.819490
2193.000000	8.824017
2192.000000	8.796854
2191.000000	8.800855
2190.000000	8.795170
2189.000000	8.788011
2188.000000	8.798013
2187.000000	8.792012
2186.000000	8.777904
2185.000000	8.766533
2184.000000	8.755057
2183.000000	8.735264
2182.000000	8.741160
2181.000000	8.715155
2180.000000	8.750636
2179.000000	8.752636
2178.000000	8.726000
2177.000000	8.717682
2176.000000	8.724210
2175.000000	8.725789
2174.000000	8.726526
2173.000000	8.728737
2172.000000	8.725157
2171.000000	8.717788
2170.000000	8.727895
2169.000000	8.758216
2168.000000	8.751057
2167.000000	8.753583
2166.000000	8.761164
2165.000000	8.763269
2164.000000	8.755268
2163.000000	8.758111
2162.000000	8.804961
2161.000000	8.816016
2160.000000	8.820438
2159.000000	8.837704
2158.000000	8.840968
2157.000000	8.847074
2156.000000	8.867394
2155.000000	8.887608
2154.000000	8.912349
2153.000000	8.936353
2152.000000	8.956883
2151.000000	8.967938
2150.000000	8.972676
2149.000000	8.988784
2148.000000	9.009525
2147.000000	9.000365
2146.000000	9.021632
2145.000000	9.042267
2144.000000	9.055533
2143.000000	9.067535
2142.000000	9.083643
2141.000000	9.086486
2140.000000	9.093645
2139.000000	9.103331
2138.000000	9.112385
2137.000000	9.118281
2136.000000	9.132389
2135.000000	9.125230
2134.000000	9.128599
2133.000000	9.127335
2132.000000	9.129230
2131.000000	9.133126
2130.000000	9.140390
2129.000000	9.136705
2128.000000	9.122492
2127.000000	9.108595
2126.000000	9.089434
2125.000000	9.086591
2124.000000	9.069746
2123.000000	9.066272
2122.000000	9.057639
2121.000000	9.027212
2120.000000	9.033634
2119.000000	9.018474
2118.000000	8.993837
2117.000000	8.967517
2116.000000	8.951198
2115.000000	8.938670
2114.000000	8.917087
2113.000000	8.900136
2112.000000	8.885502
2111.000000	8.865920
2110.000000	8.847811
2109.000000	8.831071
2108.000000	8.812857
2107.000000	8.774956
2106.000000	8.745793
2105.000000	8.748425
2104.000000	8.730632
2103.000000	8.697994
2102.000000	8.681676
2101.000000	8.667568
2100.000000	8.649038
2099.000000	8.645038
2098.000000	8.614295
2097.000000	8.588080
2096.000000	8.571866
2095.000000	8.547125
2094.000000	8.544493
2093.000000	8.532175
2092.000000	8.519120
2091.000000	8.497327
2090.000000	8.471743
2089.000000	8.461320
2088.000000	8.460583
2087.000000	8.444054
2086.000000	8.414048
2085.000000	8.413206
2084.000000	8.404889
2083.000000	8.384359
2082.000000	8.372672
2081.000000	8.355722
2080.000000	8.340772
2079.000000	8.322769
2078.000000	8.288868
2077.000000	8.269391
2076.000000	8.267285
2075.000000	8.254019
2074.000000	8.243070
2073.000000	8.222224
2072.000000	8.186534
2071.000000	8.160845
2070.000000	8.146421
2069.000000	8.134208
2068.000000	8.118942
2067.000000	8.104624
2066.000000	8.091253
2065.000000	8.065880
2064.000000	8.055773
2063.000000	8.034717
2062.000000	8.012186
2061.000000	8.001447
2060.000000	7.998605
2059.000000	8.004711
2058.000000	7.990919
2057.000000	7.988182
2056.000000	7.980496
2055.000000	7.970600
2054.000000	7.988077
2053.000000	8.002290
2052.000000	8.007238
2051.000000	8.045140
2050.000000	8.059037
2049.000000	8.069144
2048.000000	8.090095
2047.000000	8.124312
2046.000000	8.153054
2045.000000	8.195377
2044.000000	8.232015
2043.000000	8.267917
2042.000000	8.307924
2041.000000	8.331823
2040.000000	8.357091
2039.000000	8.404257
2038.000000	8.436895
2037.000000	8.463636
2036.000000	8.493115
2035.000000	8.516067
2034.000000	8.544282
2033.000000	8.562707
2032.000000	8.598819
2031.000000	8.608820
2030.000000	8.613979
2029.000000	8.642090
2028.000000	8.650723
2027.000000	8.659145
2026.000000	8.664620
2025.000000	8.674938
2024.000000	8.673780
2023.000000	8.685255
2022.000000	8.700942
2021.000000	8.694415
2020.000000	8.701258
2019.000000	8.707049
2018.000000	8.694625
2017.000000	8.680412
2016.000000	8.697363
2015.000000	8.698731
2014.000000	8.657882
2013.000000	8.662304
2012.000000	8.655987
2011.000000	8.662514
2010.000000	8.621875
2009.000000	8.601135
2008.000000	8.598608
2007.000000	8.581131
2006.000000	8.573972
2005.000000	8.551758
2004.000000	8.536807
2003.000000	8.510382
2002.000000	8.477323
2001.000000	8.459636
2000.000000	8.445317
1999.000000	8.399730
1998.000000	8.374989
1997.000000	8.333297
1996.000000	8.322979
1995.000000	8.286236
1994.000000	8.236753
1993.000000	8.211485
1992.000000	8.171478
1991.000000	8.161476
1990.000000	8.113047
1989.000000	8.069986
1988.000000	8.026715
1987.000000	7.987971
1986.000000	7.939542
1985.000000	7.914379
1984.000000	7.878794
1983.000000	7.821204
1982.000000	7.782039
1981.000000	7.755192
1980.000000	7.709500
1979.000000	7.676125
1978.000000	7.636013
1977.000000	7.602849
1976.000000	7.574212
1975.000000	7.537574
1974.000000	7.497777
1973.000000	7.461876
1972.000000	7.425975
1971.000000	7.395969
1970.000000	7.387021
1969.000000	7.319745
1968.000000	7.285950
1967.000000	7.263314
1966.000000	7.238678
1965.000000	7.201408
1964.000000	7.187300
1963.000000	7.159927
1962.000000	7.129184
1961.000000	7.084966
1960.000000	7.046854
1959.000000	7.050644
1958.000000	7.030219
1957.000000	7.000214
1956.000000	6.953047
1955.000000	6.951152
1954.000000	6.895037
1953.000000	6.885140
1952.000000	6.867137
1951.000000	6.824077
1950.000000	6.810600
1949.000000	6.799125
1948.000000	6.781964
1947.000000	6.781227
1946.000000	6.750484
1945.000000	6.758907
1944.000000	6.723216
1943.000000	6.715531
1942.000000	6.693421
1941.000000	6.686578
1940.000000	6.678682
1939.000000	6.692684
1938.000000	6.670049
1937.000000	6.678682
1936.000000	6.681840
1935.000000	6.667522
1934.000000	6.693316
1933.000000	6.677629
1932.000000	6.691421
1931.000000	6.694053
1930.000000	6.709845
1929.000000	6.751432
1928.000000	6.756696
1927.000000	6.775331
1926.000000	6.811232
1925.000000	6.848923
1924.000000	6.852082
1923.000000	6.872822
1922.000000	6.932938
1921.000000	6.967471
1920.000000	7.021797
1919.000000	7.067173
1918.000000	7.106970
1917.000000	7.147819
1916.000000	7.219727
1915.000000	7.245311
1914.000000	7.321640
1913.000000	7.374492
1912.000000	7.471562
1911.000000	7.533784
1910.000000	7.618115
1909.000000	7.680968
1908.000000	7.745401
1907.000000	7.843840
1906.000000	7.947332
1905.000000	8.060300
1904.000000	8.176426
1903.000000	8.270654
1902.000000	8.393624
1901.000000	8.514698
1900.000000	8.628403
1899.000000	8.787590
1898.000000	8.932142
1897.000000	9.093434
1896.000000	9.250094
1895.000000	9.403069
1894.000000	9.569731
1893.000000	9.743973
1892.000000	9.942641
1891.000000	10.186369
1890.000000	10.434203
1889.000000	10.692566
1888.000000	10.946296
1887.000000	11.235296
1886.000000	11.524822
1885.000000	11.881623
1884.000000	12.271694
1883.000000	12.687032
1882.000000	13.144588
1881.000000	13.584457
1880.000000	14.078547
1879.000000	14.547263
1878.000000	14.989870
1877.000000	15.483643
1876.000000	15.992577
1875.000000	16.446238
1874.000000	16.902952
1873.000000	17.345454
1872.000000	17.785849
1871.000000	18.202661
1870.000000	18.595574
1869.000000	18.951849
1868.000000	19.293911
1867.000000	19.565224
1866.000000	19.812005
1865.000000	20.020464
1864.000000	20.234608
1863.000000	20.415272
1862.000000	20.581197
1861.000000	20.771126
1860.000000	20.925785
1859.000000	21.080971
1858.000000	21.201730
1857.000000	21.309223
1856.000000	21.391343
1855.000000	21.461672
1854.000000	21.516524
1853.000000	21.533474
1852.000000	21.556110
1851.000000	21.579377
1850.000000	21.595275
1849.000000	21.622648
1848.000000	21.632334
1847.000000	21.613699
1846.000000	21.564217
1845.000000	21.530421
1844.000000	21.496204
1843.000000	21.485360
1842.000000	21.489361
1841.000000	21.505364
1840.000000	21.479359
1839.000000	21.454618
1838.000000	21.437141
1837.000000	21.404925
1836.000000	21.354073
1835.000000	21.311961
1834.000000	21.253318
1833.000000	21.182463
1832.000000	21.122453
1831.000000	21.071917
1830.000000	21.007379
1829.000000	20.950211
1828.000000	20.882093
1827.000000	20.799341
1826.000000	20.709115
1825.000000	20.642366
1824.000000	20.575406
1823.000000	20.529924
1822.000000	20.496445
1821.000000	20.474651
1820.000000	20.440329
1819.000000	20.385267
1818.000000	20.328941
1817.000000	20.312095
1816.000000	20.302409
1815.000000	20.265455
1814.000000	20.259033
1813.000000	20.244083
1812.000000	20.229344
1811.000000	20.204286
1810.000000	20.178913
1809.000000	20.145013
1808.000000	20.103321
1807.000000	20.062787
1806.000000	20.020464
1805.000000	19.968138
1804.000000	19.911707
1803.000000	19.872648
1802.000000	19.827271
1801.000000	19.764523
1800.000000	19.708302
1799.000000	19.647344
1798.000000	19.587438
1797.000000	19.543114
1796.000000	19.494790
1795.000000	19.445728
1794.000000	19.392771
1793.000000	19.340551
1792.000000	19.288963
1791.000000	19.237480
1790.000000	19.172521
1789.000000	19.106930
1788.000000	19.049972
1787.000000	18.985540
1786.000000	18.926055
1785.000000	18.860464
1784.000000	18.781713
1783.000000	18.701804
1782.000000	18.617578
1781.000000	18.553988
1780.000000	18.483449
1779.000000	18.404277
1778.000000	18.333738
1777.000000	18.236457
1776.000000	18.141492
1775.000000	18.051581
1774.000000	17.955669
1773.000000	17.846913
1772.000000	17.726575
1771.000000	17.617082
1770.000000	17.505377
1769.000000	17.378196
1768.000000	17.264386
1767.000000	17.155630
1766.000000	17.056875
1765.000000	16.963911
1764.000000	16.901163
1763.000000	16.858523
1762.000000	16.822517
1761.000000	16.823464
1760.000000	16.844837
1759.000000	16.912217
1758.000000	16.998233
1757.000000	17.048768
1756.000000	17.114254
1755.000000	17.183424
1754.000000	17.252279
1753.000000	17.281021
1752.000000	17.291865
1751.000000	17.309447
1750.000000	17.307868
1749.000000	17.299445
1748.000000	17.279863
1747.000000	17.228906
1746.000000	17.169527
1745.000000	17.094040
1744.000000	17.005287
1743.000000	16.882001
1742.000000	16.739660
1741.000000	16.577841
1740.000000	16.378963
1739.000000	16.177874
1738.000000	15.979417
1737.000000	15.779486
1736.000000	15.614404
1735.000000	15.446163
1734.000000	15.348461
1733.000000	15.276553
1732.000000	15.226649
1731.000000	15.270552
1730.000000	15.333195
1729.000000	15.413420
1728.000000	15.527019
1727.000000	15.648936
1726.000000	15.742111
1725.000000	15.855816
1724.000000	15.942989
1723.000000	16.017319
1722.000000	16.078593
1721.000000	16.103439
1720.000000	16.120495
1719.000000	16.142815
1718.000000	16.150395
1717.000000	16.182401
1716.000000	16.212196
1715.000000	16.257046
1714.000000	16.300949
1713.000000	16.368435
1712.000000	16.430025
1711.000000	16.466347
1710.000000	16.497827
1709.000000	16.522568
1708.000000	16.523937
1707.000000	16.510882
1706.000000	16.504670
1705.000000	16.465610
1704.000000	16.402757
1703.000000	16.365803
1702.000000	16.270417
1701.000000	16.154607
1700.000000	16.039217
1699.000000	15.896455
1698.000000	15.752218
1697.000000	15.621984
1696.000000	15.485959
1695.000000	15.397522
1694.000000	15.392679
1693.000000	15.419421
1692.000000	15.521018
1691.000000	15.658727
1690.000000	15.822546
1689.000000	15.962361
1688.000000	16.124285
1687.000000	16.223777
1686.000000	16.287157
1685.000000	16.328954
1684.000000	16.356222
1683.000000	16.426445
1682.000000	16.576156
1681.000000	16.847890
1680.000000	17.225327
1679.000000	17.692569
1678.000000	18.208768
1677.000000	18.754445
1676.000000	19.322548
1675.000000	19.801477
1674.000000	20.273036
1673.000000	20.651946
1672.000000	20.984428
1671.000000	21.280165
1670.000000	21.516313
1669.000000	21.721508
1668.000000	21.895435
1667.000000	22.110210
1666.000000	22.228126
1665.000000	22.365309
1664.000000	22.459747
1663.000000	22.549658
1662.000000	22.630410
1661.000000	22.702528
1660.000000	22.760012
1659.000000	22.806336
1658.000000	22.853924
1657.000000	22.902775
1656.000000	22.912039
1655.000000	22.915619
1654.000000	22.927621
1653.000000	22.921725
1652.000000	22.908881
1651.000000	22.870874
1650.000000	22.863189
1649.000000	22.827287
1648.000000	22.746009
1647.000000	22.751800
1646.000000	22.676313
1645.000000	22.615986
1644.000000	22.544605
1643.000000	22.501755
1642.000000	22.433532
1641.000000	22.370889
1640.000000	22.330461
1639.000000	22.239813
1638.000000	22.177170
1637.000000	22.093470
1636.000000	22.015562
1635.000000	21.955235
1634.000000	21.880169
1633.000000	21.802365
1632.000000	21.715507
1631.000000	21.634966
1630.000000	21.550004
1629.000000	21.450512
1628.000000	21.363865
1627.000000	21.291957
1626.000000	21.191307
1625.000000	21.104133
1624.000000	21.006958
1623.000000	20.928207
1622.000000	20.832505
1621.000000	20.753123
1620.000000	20.668897
1619.000000	20.585934
1618.000000	20.502867
1617.000000	20.422747
1616.000000	20.362947
1615.000000	20.264613
1614.000000	20.162805
1613.000000	20.101320
1612.000000	20.038783
1611.000000	19.972455
1610.000000	19.877596
1609.000000	19.812637
1608.000000	19.761996
1607.000000	19.681981
1606.000000	19.601335
1605.000000	19.527638
1604.000000	19.456783
1603.000000	19.378242
1602.000000	19.304861
1601.000000	19.244955
1600.000000	19.169468
1599.000000	19.104614
1598.000000	19.017545
1597.000000	18.961746
1596.000000	18.890786
1595.000000	18.829827
1594.000000	18.755182
1593.000000	18.693697
1592.000000	18.614209
1591.000000	18.554093
1590.000000	18.513981
1589.000000	18.451022
1588.000000	18.415015
1587.000000	18.349740
1586.000000	18.300258
1585.000000	18.244564
1584.000000	18.199924
1583.000000	18.157179
1582.000000	18.112961
1581.000000	18.056424
1580.000000	18.026103
1579.000000	18.010100
1578.000000	17.978305
1577.000000	17.947984
1576.000000	17.927243
1575.000000	17.896290
1574.000000	17.872917
1573.000000	17.855862
1572.000000	17.846386
1571.000000	17.829120
1570.000000	17.832489
1569.000000	17.834910
1568.000000	17.817013
1567.000000	17.795535
1566.000000	17.813538
1565.000000	17.811959
1564.000000	17.807748
1563.000000	17.811327
1562.000000	17.814065
1561.000000	17.799115
1560.000000	17.802378
1559.000000	17.807537
1558.000000	17.798272
1557.000000	17.790271
1556.000000	17.773426
1555.000000	17.756265
1554.000000	17.748263
1553.000000	17.734050
1552.000000	17.715626
1551.000000	17.688147
1550.000000	17.661511
1549.000000	17.641191
1548.000000	17.621188
1547.000000	17.600763
1546.000000	17.569073
1545.000000	17.543700
1544.000000	17.520222
1543.000000	17.501903
1542.000000	17.493901
1541.000000	17.469371
1540.000000	17.449472
1539.000000	17.423573
1538.000000	17.401674
1537.000000	17.385461
1536.000000	17.363983
1535.000000	17.338926
1534.000000	17.304920
1533.000000	17.278599
1532.000000	17.265439
1531.000000	17.236381
1530.000000	17.198901
1529.000000	17.162262
1528.000000	17.123413
1527.000000	17.085196
1526.000000	17.044346
1525.000000	17.003497
1524.000000	16.960963
1523.000000	16.917587
1522.000000	16.872421
1521.000000	16.821253
1520.000000	16.781457
1519.000000	16.753452
1518.000000	16.706812
1517.000000	16.657224
1516.000000	16.612689
1515.000000	16.556363
1514.000000	16.499932
1513.000000	16.457082
1512.000000	16.402757
1511.000000	16.345378
1510.000000	16.307371
1509.000000	16.266311
1508.000000	16.202510
1507.000000	16.147763
1506.000000	16.101965
1505.000000	16.048693
1504.000000	16.002158
1503.000000	15.934146
1502.000000	15.881189
1501.000000	15.839181
1500.000000	15.781171
1499.000000	15.739689
1498.000000	15.696840
1497.000000	15.649884
1496.000000	15.608929
1495.000000	15.551971
1494.000000	15.508911
1493.000000	15.481643
1492.000000	15.442794
1491.000000	15.406576
1490.000000	15.365516
1489.000000	15.346566
1488.000000	15.299504
1487.000000	15.246548
1486.000000	15.228228
1485.000000	15.200960
1484.000000	15.178746
1483.000000	15.148109
1482.000000	15.112102
1481.000000	15.099784
1480.000000	15.080412
1479.000000	15.049670
1478.000000	15.031456
1477.000000	15.013663
1476.000000	14.994713
1475.000000	14.978604
1474.000000	14.962707
1473.000000	14.961654
1472.000000	14.951126
1471.000000	14.945335
1470.000000	14.934807
1469.000000	14.923436
1468.000000	14.893326
1467.000000	14.895853
1466.000000	14.902696
1465.000000	14.904486
1464.000000	14.898379
1463.000000	14.906486
1462.000000	14.934596
1461.000000	14.948388
1460.000000	14.978078
1459.000000	14.998503
1458.000000	15.022718
1457.000000	15.071779
1456.000000	15.110839
1455.000000	15.139476
1454.000000	15.206119
1453.000000	15.266446
1452.000000	15.328352
1451.000000	15.386994
1450.000000	15.465640
1449.000000	15.529546
1448.000000	15.581556
1447.000000	15.645462
1446.000000	15.735478
1445.000000	15.819809
1444.000000	15.898771
1443.000000	15.982154
1442.000000	16.052483
1441.000000	16.140499
1440.000000	16.247571
1439.000000	16.336534
1438.000000	16.438763
1437.000000	16.524568
1436.000000	16.624376
1435.000000	16.737344
1434.000000	16.849259
1433.000000	16.970122
1432.000000	17.073615
1431.000000	17.186899
1430.000000	17.325976
1429.000000	17.450630
1428.000000	17.583918
1427.000000	17.746789
1426.000000	17.908187
1425.000000	18.065900
1424.000000	18.265515
1423.000000	18.454391
1422.000000	18.648531
1421.000000	18.835828
1420.000000	19.056289
1419.000000	19.293490
1418.000000	19.522374
1417.000000	19.760627
1416.000000	19.976666
1415.000000	20.246505
1414.000000	20.507078
1413.000000	20.777443
1412.000000	21.065074
1411.000000	21.329964
1410.000000	21.648864
1409.000000	22.005139
1408.000000	22.384891
1407.000000	22.790228
1406.000000	23.204619
1405.000000	23.620694
1404.000000	24.137840
1403.000000	24.511381
1402.000000	24.960936
1401.000000	25.424283
1400.000000	25.923321
1399.000000	26.395828
1398.000000	26.776002
1397.000000	27.116695
1396.000000	27.513293
1395.000000	27.951372
1394.000000	28.361446
1393.000000	28.693296
1392.000000	29.007037
1391.000000	29.437325
1390.000000	29.806550
1389.000000	30.227994
1388.000000	30.668495
1387.000000	31.202381
1386.000000	31.759535
1385.000000	32.323321
1384.000000	32.937643
1383.000000	33.593867
1382.000000	34.278201
1381.000000	34.937057
1380.000000	35.471996
1379.000000	35.875964
1378.000000	36.197285
1377.000000	36.465333
1376.000000	36.740752
1375.000000	36.976373
1374.000000	37.241368
1373.000000	37.555952
1372.000000	37.936968
1371.000000	38.362940
1370.000000	38.773646
1369.000000	39.191932
1368.000000	39.559261
1367.000000	39.920379
1366.000000	40.241490
1365.000000	40.530490
1364.000000	40.795380
1363.000000	41.032581
1362.000000	41.265044
1361.000000	41.496243
1360.000000	41.647113
1359.000000	41.786928
1358.000000	41.896947
1357.000000	42.024234
1356.000000	42.184684
1355.000000	42.455470
1354.000000	42.819114
1353.000000	43.271617
1352.000000	43.708328
1351.000000	44.302541
1350.000000	44.848955
1349.000000	45.350309
1348.000000	45.830291
1347.000000	46.272686
1346.000000	46.698132
1345.000000	47.101573
1344.000000	47.494171
1343.000000	47.912878
1342.000000	48.265573
1341.000000	48.629113
1340.000000	48.985388
1339.000000	49.351770
1338.000000	49.697516
1337.000000	50.051159
1336.000000	50.399117
1335.000000	50.732967
1334.000000	51.050393
1333.000000	51.362239
1332.000000	51.656187
1331.000000	51.970770
1330.000000	52.264086
1329.000000	52.545821
1328.000000	52.823556
1327.000000	53.081392
1326.000000	53.312591
1325.000000	53.569375
1324.000000	53.807523
1323.000000	54.023667
1322.000000	54.247076
1321.000000	54.445428
1320.000000	54.642622
1319.000000	54.838131
1318.000000	55.026586
1317.000000	55.208724
1316.000000	55.381071
1315.000000	55.550891
1314.000000	55.695444
1313.000000	55.848313
1312.000000	55.991708
1311.000000	56.141208
1310.000000	56.272074
1309.000000	56.379883
1308.000000	56.488008
1307.000000	56.592448
1306.000000	56.686676
1305.000000	56.764690
1304.000000	56.843651
1303.000000	56.911558
1302.000000	56.984835
1301.000000	57.041792
1300.000000	57.085800
1299.000000	57.130861
1298.000000	57.169710
1297.000000	57.201927
1296.000000	57.226668
1295.000000	57.253831
1294.000000	57.277519
1293.000000	57.285205
1292.000000	57.294575
1291.000000	57.312157
1290.000000	57.301734
1289.000000	57.285521
1288.000000	57.278151
1287.000000	57.251830
1286.000000	57.224668
1285.000000	57.183292
1284.000000	57.141284
1283.000000	57.092644
1282.000000	57.042319
1281.000000	57.000627
1280.000000	56.944406
1279.000000	56.892818
1278.000000	56.834176
1277.000000	56.775850
1276.000000	56.729736
1275.000000	56.676463
1274.000000	56.625085
1273.000000	56.580446
1272.000000	56.544123
1271.000000	56.505906
1270.000000	56.467057
1269.000000	56.423259
1268.000000	56.384516
1267.000000	56.338086
1266.000000	56.291025
1265.000000	56.247965
1264.000000	56.204272
1263.000000	56.148894
1262.000000	56.099306
1261.000000	56.057614
1260.000000	55.999393
1259.000000	55.935066
1258.000000	55.864843
1257.000000	55.800410
1256.000000	55.735030
1255.000000	55.673018
1254.000000	55.594373
1253.000000	55.514674
1252.000000	55.448030
1251.000000	55.356014
1250.000000	55.260628
1249.000000	55.177876
1248.000000	55.067330
1247.000000	54.954573
1246.000000	54.854555
1245.000000	54.738639
1244.000000	54.613143
1243.000000	54.467221
1242.000000	54.339935
1241.000000	54.206016
1240.000000	54.040302
1239.000000	53.887222
1238.000000	53.744985
1237.000000	53.594116
1236.000000	53.430086
1235.000000	53.264477
1234.000000	53.094236
1233.000000	52.903781
1232.000000	52.716378
1231.000000	52.530766
1230.000000	52.335573
1229.000000	52.145433
1228.000000	51.942028
1227.000000	51.734306
1226.000000	51.523005
1225.000000	51.306439
1224.000000	51.097454
1223.000000	50.893838
1222.000000	50.676325
1221.000000	50.462708
1220.000000	50.242984
1219.000000	50.018206
1218.000000	49.820381
1217.000000	49.616870
1216.000000	49.409464
1215.000000	49.227958
1214.000000	49.046767
1213.000000	48.879263
1212.000000	48.719971
1211.000000	48.555731
1210.000000	48.380331
1209.000000	48.248833
1208.000000	48.112914
1207.000000	47.961939
1206.000000	47.841075
1205.000000	47.751375
1204.000000	47.667570
1203.000000	47.595768
1202.000000	47.541337
1201.000000	47.492591
1200.000000	47.440687
1199.000000	47.386783
1198.000000	47.299293
1197.000000	47.189800
1196.000000	47.058092
1195.000000	46.879849
1194.000000	46.651492
1193.000000	46.330276
1192.000000	45.953576
1191.000000	45.514865
1190.000000	45.032778
1189.000000	44.559008
1188.000000	44.111664
1187.000000	43.750125
1186.000000	43.519346
1185.000000	43.407537
1184.000000	43.441332
1183.000000	43.617469
1182.000000	43.932263
1181.000000	44.370132
1180.000000	44.900859
1179.000000	45.453591
1178.000000	46.004638
1177.000000	46.521152
1176.000000	46.973024
1175.000000	47.378360
1174.000000	47.742637
1173.000000	48.101965
1172.000000	48.440131
1171.000000	48.797564
1170.000000	49.148680
1169.000000	49.533487
1168.000000	49.915029
1167.000000	50.289518
1166.000000	50.664428
1165.000000	51.071449
1164.000000	51.453624
1163.000000	51.843273
1162.000000	52.256716
1161.000000	52.682372
1160.000000	53.083603
1159.000000	53.473673
1158.000000	53.874377
1157.000000	54.257920
1156.000000	54.597982
1155.000000	54.927936
1154.000000	55.223253
1153.000000	55.462454
1152.000000	55.647119
1151.000000	55.795356
1150.000000	55.890847
1149.000000	55.990444
1148.000000	56.087830
1147.000000	56.189533
1146.000000	56.311029
1145.000000	56.486113
1144.000000	56.739001
1143.000000	57.036002
1142.000000	57.356376
1141.000000	57.764871
1140.000000	58.175682
1139.000000	58.602180
1138.000000	59.007095
1137.000000	59.452544
1136.000000	59.911891
1135.000000	60.406717
1134.000000	60.885856
1133.000000	61.328568
1132.000000	61.736326
1131.000000	62.141978
1130.000000	62.514677
1129.000000	62.840315
1128.000000	63.126893
1127.000000	63.354197
1126.000000	63.532019
1125.000000	63.686994
1124.000000	63.798383
1123.000000	63.913667
1122.000000	63.987575
1121.000000	64.081171
1120.000000	64.132233
1119.000000	64.180663
1118.000000	64.226987
1117.000000	64.232462
1116.000000	64.256255
1115.000000	64.251097
1114.000000	64.248570
1113.000000	64.238252
1112.000000	64.232146
1111.000000	64.235620
1110.000000	64.214564
1109.000000	64.210036
1108.000000	64.205825
1107.000000	64.184769
1106.000000	64.151289
1105.000000	64.162554
1104.000000	64.160449
1103.000000	64.134023
1102.000000	64.131707
1101.000000	64.126021
1100.000000	64.078328
1099.000000	64.065589
1098.000000	64.049586
1097.000000	64.025582
1096.000000	64.008105
1095.000000	63.974310
1094.000000	63.929670
1093.000000	63.904402
1092.000000	63.861868
1091.000000	63.812912
1090.000000	63.793856
1089.000000	63.749111
1088.000000	63.717000
1087.000000	63.657094
1086.000000	63.572026
1085.000000	63.545285
1084.000000	63.492854
1083.000000	63.443793
1082.000000	63.387467
1081.000000	63.301662
1080.000000	63.260707
1079.000000	63.219226
1078.000000	63.159110
1077.000000	63.094256
1076.000000	63.043615
1075.000000	62.993501
1074.000000	62.933806
1073.000000	62.891482
1072.000000	62.818837
1071.000000	62.746298
1070.000000	62.693025
1069.000000	62.645859
1068.000000	62.587111
1067.000000	62.513730
1066.000000	62.453613
1065.000000	62.405710
1064.000000	62.333908
1063.000000	62.272739
1062.000000	62.201041
1061.000000	62.140504
1060.000000	62.089126
1059.000000	62.005743
1058.000000	61.950470
1057.000000	61.877509
1056.000000	61.811181
1055.000000	61.736221
1054.000000	61.658733
1053.000000	61.601459
1052.000000	61.534395
1051.000000	61.459539
1050.000000	61.394264
1049.000000	61.347834
1048.000000	61.267715
1047.000000	61.236446
1046.000000	61.178225
1045.000000	61.124005
1044.000000	61.071363
1043.000000	61.006720
1042.000000	60.948394
1041.000000	60.924074
1040.000000	60.876065
1039.000000	60.819423
1038.000000	60.760360
1037.000000	60.706561
1036.000000	60.651498
1035.000000	60.580011
1034.000000	60.537583
1033.000000	60.479046
1032.000000	60.424510
1031.000000	60.361340
1030.000000	60.283747
1029.000000	60.212998
1028.000000	60.164252
1027.000000	60.092765
1026.000000	60.020752
1025.000000	59.938948
1024.000000	59.871673
1023.000000	59.812715
1022.000000	59.726383
1021.000000	59.652370
1020.000000	59.589516
1019.000000	59.528453
1018.000000	59.469705
1017.000000	59.405483
1016.000000	59.337997
1015.000000	59.289989
1014.000000	59.259878
1013.000000	59.216502
1012.000000	59.185864
1011.000000	59.147858
1010.000000	59.141751
1009.000000	59.125432
1008.000000	59.104587
1007.000000	59.111956
1006.000000	59.114799
1005.000000	59.110167
1004.000000	59.118484
1003.000000	59.120484
1002.000000	59.120063
1001.000000	59.135434
1000.000000	59.135224
999.000000	59.130591
998.000000	59.125117
997.000000	59.127222
996.000000	59.125117
995.000000	59.151437
994.000000	59.160913
993.000000	59.148805
992.000000	59.171967
991.000000	59.190497
990.000000	59.199341
989.000000	59.203236
988.000000	59.222608
987.000000	59.250613
986.000000	59.280092
985.000000	59.307465
984.000000	59.323152
983.000000	59.356316
982.000000	59.380742
981.000000	59.402325
980.000000	59.430646
979.000000	59.456019
978.000000	59.491078
977.000000	59.523504
976.000000	59.545508
975.000000	59.561196
974.000000	59.588253
973.000000	59.616048
972.000000	59.647948
971.000000	59.672268
970.000000	59.691851
969.000000	59.711433
968.000000	59.740596
967.000000	59.778077
966.000000	59.787763
965.000000	59.813662
964.000000	59.854196
963.000000	59.876305
962.000000	59.893887
961.000000	59.925051
960.000000	59.966427
959.000000	59.993695
958.000000	60.025385
957.000000	60.066971
956.000000	60.076868
955.000000	60.114348
954.000000	60.136036
953.000000	60.140669
952.000000	60.165094
951.000000	60.171727
950.000000	60.169937
949.000000	60.184150
948.000000	60.193731
947.000000	60.191520
946.000000	60.188783
945.000000	60.184045
944.000000	60.179413
943.000000	60.173096
942.000000	60.170990
941.000000	60.153618
940.000000	60.114559
939.000000	60.078973
938.000000	60.067813
937.000000	60.036018
936.000000	59.995274
935.000000	59.957057
934.000000	59.924840
933.000000	59.886833
932.000000	59.857775
931.000000	59.819137
930.000000	59.764285
929.000000	59.711012
928.000000	59.678690
927.000000	59.624997
926.000000	59.560985
925.000000	59.501922
924.000000	59.461283
923.000000	59.406431
922.000000	59.328838
921.000000	59.255351
920.000000	59.180179
919.000000	59.117957
918.000000	59.038259
917.000000	58.942873
916.000000	58.862964
915.000000	58.775264
914.000000	58.712410
913.000000	58.617656
912.000000	58.502794
911.000000	58.395195
910.000000	58.292019
909.000000	58.199475
908.000000	58.099036
907.000000	58.009652
906.000000	57.946482
905.000000	57.875522
904.000000	57.804351
903.000000	57.736865
902.000000	57.667590
901.000000	57.613896
900.000000	57.569572
899.000000	57.517879
898.000000	57.436916
897.000000	57.360903
896.000000	57.303629
895.000000	57.246356
894.000000	57.174027
893.000000	57.064639
892.000000	56.973359
891.000000	56.895555
890.000000	56.769743
889.000000	56.665514
888.000000	56.571286
887.000000	56.447790
886.000000	56.309976
885.000000	56.179321
884.000000	56.001604
883.000000	55.841891
882.000000	55.679335
881.000000	55.519201
880.000000	55.318217
879.000000	55.127446
878.000000	54.893614
877.000000	54.637989
876.000000	54.387312
875.000000	54.155797
874.000000	53.871745
873.000000	53.569269
872.000000	53.288166
871.000000	53.055176
870.000000	52.904412
869.000000	52.812501
868.000000	52.728486
867.000000	52.677213
866.000000	52.598568
865.000000	52.485600
864.000000	52.386740
863.000000	52.264297
862.000000	52.151750
861.000000	52.039519
860.000000	51.915286
859.000000	51.795580
858.000000	51.691667
857.000000	51.639100
856.000000	51.588100
855.000000	51.847800
854.000000	51.192100
853.000000	51.554400
852.000000	51.116000
851.000000	51.199000
850.000000	51.380100
849.000000	51.162300
848.000000	51.029900
847.000000	50.777300
846.000000	50.487300
845.000000	50.369300
844.000000	50.272100
843.000000	50.224500
842.000000	50.128300
841.000000	50.018800
840.000000	49.738400
839.000000	49.648800
838.000000	49.341000
837.000000	49.308700
836.000000	49.280400
835.000000	49.100500
834.000000	48.965200
833.000000	48.793600
832.000000	48.575900
831.000000	48.485700
830.000000	48.462500
829.000000	48.435200
828.000000	48.195800
827.000000	48.015900
826.000000	48.013000
825.000000	47.971100
824.000000	47.916700
823.000000	47.688200
822.000000	47.608900
821.000000	47.642500
820.000000	47.424100
819.000000	47.532800
818.000000	47.363000
817.000000	47.298500
816.000000	47.045100
815.000000	47.114000
814.000000	47.082700
813.000000	46.908000
812.000000	46.859400
811.000000	46.708600
810.000000	46.751300
809.000000	46.647900
808.000000	46.761200
807.000000	46.566000
806.000000	46.612600
805.000000	46.535500
804.000000	46.530400
803.000000	46.603500
802.000000	46.464000
801.000000	46.555500
800.000000	46.410000
799.000000	46.414200
798.000000	46.480000
797.000000	46.438500
796.000000	46.338300
795.000000	46.402500
794.000000	46.369600
793.000000	46.438400
792.000000	46.367100
791.000000	46.398100
790.000000	46.337900
789.000000	46.265800
788.000000	46.312400
787.000000	46.422500
786.000000	46.396800
785.000000	46.241600
784.000000	46.248600
783.000000	46.201400
782.000000	46.160400
781.000000	46.169800
780.000000	46.244500
779.000000	46.062100
778.000000	46.019800
777.000000	45.938500
776.000000	45.913500
775.000000	45.894200
774.000000	45.863400
773.000000	45.840500
772.000000	45.729200
771.000000	45.656600
770.000000	45.659200
769.000000	45.561200
768.000000	45.566000
767.000000	45.382600
766.000000	45.336400
765.000000	45.235500
764.000000	45.169500
763.000000	45.119700
762.000000	45.052800
761.000000	44.950000
760.000000	44.874500
759.000000	44.724600
758.000000	44.603600
757.000000	44.439700
756.000000	44.462900
755.000000	44.353400
754.000000	44.254300
753.000000	44.123900
752.000000	44.045700
751.000000	43.912900
750.000000	43.819700
749.000000	43.796700
748.000000	43.671300
747.000000	43.604200
746.000000	43.502800
745.000000	43.389500
744.000000	43.256100
743.000000	43.074400
742.000000	42.953500
741.000000	42.913100
740.000000	42.739800
739.000000	42.757200
738.000000	42.601100
737.000000	42.420200
736.000000	42.293300
735.000000	42.153800
734.000000	42.058800
733.000000	41.933800
732.000000	41.796200
731.000000	41.700900
730.000000	41.536800
729.000000	41.384400
728.000000	41.271700
727.000000	41.106000
726.000000	40.906800
725.000000	40.779100
724.000000	40.604600
723.000000	40.456100
722.000000	40.284800
721.000000	40.134900
720.000000	39.917500
719.000000	39.757700
718.000000	39.544200
717.000000	39.314100
716.000000	39.125900
715.000000	38.965500
714.000000	38.746000
713.000000	38.536300
712.000000	38.320000
711.000000	38.063600
710.000000	37.862300
709.000000	37.605300
708.000000	37.323100
707.000000	37.096400
706.000000	36.844700
705.000000	36.559000
704.000000	36.335200
703.000000	36.071400
702.000000	35.763700
701.000000	35.454100
700.000000	35.174900
699.000000	34.919600
698.000000	34.616800
697.000000	34.336100
696.000000	34.070500
695.000000	33.796900
694.000000	33.506300
693.000000	33.248700
692.000000	32.968900
691.000000	32.710000
690.000000	32.416700
689.000000	32.151200
688.000000	31.892500
687.000000	31.634200
686.000000	31.389400
685.000000	31.151200
684.000000	30.898000
683.000000	30.663900
682.000000	30.465300
681.000000	30.208400
680.000000	29.982200
679.000000	29.791800
678.000000	29.632500
677.000000	29.441100
676.000000	29.211300
675.000000	29.016100
674.000000	28.827300
673.000000	28.690600
672.000000	28.520000
671.000000	28.341000
670.000000	28.179500
669.000000	28.045300
668.000000	27.912400
667.000000	27.757200
666.000000	27.649200
665.000000	27.552100
664.000000	27.423600
663.000000	27.323300
662.000000	27.242900
661.000000	27.144600
660.000000	27.072400
659.000000	26.980300
658.000000	26.867200
657.000000	26.792900
656.000000	26.725600
655.000000	26.684300
654.000000	26.633600
653.000000	26.601800
652.000000	26.569600
651.000000	26.526400
650.000000	26.515400
649.000000	26.491300
648.000000	26.482100
647.000000	26.475600
646.000000	26.478400
645.000000	26.493600
644.000000	26.474600
643.000000	26.496500
642.000000	26.527200
641.000000	26.533100
640.000000	26.579400
639.000000	26.632300
638.000000	26.657200
637.000000	26.704500
636.000000	26.771200
635.000000	26.814100
634.000000	26.874500
633.000000	26.937200
632.000000	27.000800
631.000000	27.064300
630.000000	27.139400
629.000000	27.219500
628.000000	27.295500
627.000000	27.376200
626.000000	27.463200
625.000000	27.531900
624.000000	27.618700
623.000000	27.744800
622.000000	27.849200
621.000000	27.915300
620.000000	27.991600
619.000000	28.068200
618.000000	28.158500
617.000000	28.235300
616.000000	28.285400
615.000000	28.356400
614.000000	28.447000
613.000000	28.555400
612.000000	28.637100
611.000000	28.681100
610.000000	28.732500
609.000000	28.811900
608.000000	28.869000
607.000000	28.938300
606.000000	28.988600
605.000000	29.019500
604.000000	29.058600
603.000000	29.086700
602.000000	29.119500
601.000000	29.155400
600.000000	29.167700
599.000000	29.170700
598.000000	29.172100
597.000000	29.181300
596.000000	29.197700
595.000000	29.175400
594.000000	29.170100
593.000000	29.153700
592.000000	29.129900
591.000000	29.102200
590.000000	29.056600
589.000000	29.023800
588.000000	28.976900
587.000000	28.937900
586.000000	28.915200
585.000000	28.864300
584.000000	28.796600
583.000000	28.751300
582.000000	28.688100
581.000000	28.611100
580.000000	28.516900
579.000000	28.453700
578.000000	28.365600
577.000000	28.293100
576.000000	28.210500
575.000000	28.117200
574.000000	28.017200
573.000000	27.915300
572.000000	27.792100
571.000000	27.690800
570.000000	27.559200
569.000000	27.419700
568.000000	27.293900
567.000000	27.158600
566.000000	27.018600
565.000000	26.845300
564.000000	26.682200
563.000000	26.511700
562.000000	26.366300
561.000000	26.155000
560.000000	25.952000
559.000000	25.662600
558.000000	25.436000
557.000000	25.257500
556.000000	25.040100
555.000000	24.837900
554.000000	24.629200
553.000000	24.396800
552.000000	24.163300
551.000000	23.939900
550.000000	23.704400
549.000000	23.474100
548.000000	23.234600
547.000000	22.992700
546.000000	22.739900
545.000000	22.487300
544.000000	22.218400
543.000000	21.946900
542.000000	21.686700
541.000000	21.425100
540.000000	21.171600
539.000000	20.896600
538.000000	20.643400
537.000000	20.374400
536.000000	20.110500
535.000000	19.833700
534.000000	19.564700
533.000000	19.280900
532.000000	19.027700
531.000000	18.775500
530.000000	18.520500
529.000000	18.278200
528.000000	18.044300
527.000000	17.795000
526.000000	17.551300
525.000000	17.326100
524.000000	17.103900
523.000000	16.891600
522.000000	16.682400
521.000000	16.483400
520.000000	16.291700
519.000000	16.088200
518.000000	15.904400
517.000000	15.716000
516.000000	15.560500
515.000000	15.393100
514.000000	15.259300
513.000000	15.095000
512.000000	14.973200
511.000000	14.833500
510.000000	14.700700
509.000000	14.584400
508.000000	14.486000
507.000000	14.386100
506.000000	14.289900
505.000000	14.204000
504.000000	14.101500
503.000000	14.033400
502.000000	13.945400
501.000000	13.863100
500.000000	13.798600
499.000000	13.730800
498.000000	13.656800
497.000000	13.608500
496.000000	13.540900
495.000000	13.511500
494.000000	13.421700
493.000000	13.383300
492.000000	13.350400
491.000000	13.288700
490.000000	13.231100
489.000000	13.189500
488.000000	13.140800
487.000000	13.101300
486.000000	13.049800
485.000000	12.988200
484.000000	12.957100
483.000000	12.891400
482.000000	12.802700
481.000000	12.720600
480.000000	12.645200
479.000000	12.544100
478.000000	12.456200
477.000000	12.378400
476.000000	12.307500
475.000000	12.208800
474.000000	12.131300
473.000000	12.038400
472.000000	11.959100
471.000000	11.889100
470.000000	11.811000
469.000000	11.702700
468.000000	11.622900
467.000000	11.553600
466.000000	11.473800
465.000000	11.376000
464.000000	11.284900
463.000000	11.206200
462.000000	11.119900
461.000000	11.021000
460.000000	10.939900
459.000000	10.848500
458.000000	10.768600
457.000000	10.664100
456.000000	10.571700
455.000000	10.483200
454.000000	10.393500
453.000000	10.287000
452.000000	10.171700
451.000000	10.073400
450.000000	9.975600
449.000000	9.870700
448.000000	9.779400
447.000000	9.672500
446.000000	9.522600
445.000000	9.426800
444.000000	9.295900
443.000000	9.179800
442.000000	9.075400
441.000000	8.945300
440.000000	8.831700
439.000000	8.711700
438.000000	8.589700
437.000000	8.456900
436.000000	8.348400
435.000000	8.214600
434.000000	8.102200
433.000000	7.996700
432.000000	7.873000
431.000000	7.767600
430.000000	7.671400
429.000000	7.556700
428.000000	7.472700
427.000000	7.366200
426.000000	7.252100
425.000000	7.154800
424.000000	7.066700
423.000000	6.959200
422.000000	6.881400
421.000000	6.803400
420.000000	6.714100
419.000000	6.636500
418.000000	6.574600
417.000000	6.487900
416.000000	6.416800
415.000000	6.349900
414.000000	6.282100
413.000000	6.211800
412.000000	6.142400
411.000000	6.072600
410.000000	6.011600
409.000000	5.953100
408.000000	5.900400
407.000000	5.845000
406.000000	5.785700
405.000000	5.731800
404.000000	5.676900
403.000000	5.636000
402.000000	5.608800
401.000000	5.564700
400.000000	5.494600
399.000000	5.451500
398.000000	5.429700
397.000000	5.375200
396.000000	5.332900
395.000000	5.312900
394.000000	5.281700
393.000000	5.228700
392.000000	5.201200
391.000000	5.177200
390.000000	5.141200
389.000000	5.103800
388.000000	5.085100
387.000000	5.066000
386.000000	5.044500
385.000000	5.008900
384.000000	4.995600
383.000000	4.980600
382.000000	4.953100
381.000000	4.940400
380.000000	4.923500
379.000000	4.891300
378.000000	4.896200
377.000000	4.903400
376.000000	4.778900
375.000000	4.570500
374.000000	4.487900
373.000000	4.518400
372.000000	4.392100
371.000000	4.415800
370.000000	4.530000
369.000000	4.598400
368.000000	4.706500
367.000000	4.654300
366.000000	4.530600
365.000000	4.680700
364.000000	4.723700
363.000000	4.636500
362.000000	4.643800
361.000000	4.673100
360.000000	4.636300
359.000000	4.681300
358.000000	4.704300
357.000000	4.681900
356.000000	4.609800
355.000000	4.634200
354.000000	4.736600
353.000000	4.673100
352.000000	4.742500
351.000000	4.784300
350.000000	4.800900
349.000000	4.758500
348.000000	4.730000
347.000000	4.879200
346.000000	4.771900
345.000000	4.670100
344.000000	4.856300
343.000000	4.823900
342.000000	4.861100
341.000000	4.807800
340.000000	4.903700
339.000000	4.874600
338.000000	4.780900
337.000000	4.749300
336.000000	4.769000
335.000000	4.640600
334.000000	4.581700
333.000000	4.735700
332.000000	4.844100
331.000000	4.881500
330.000000	4.982400
329.000000	5.059900
328.000000	5.142900
327.000000	5.227600
326.000000	5.113700
325.000000	5.136300
324.000000	5.184500
323.000000	5.265400
322.000000	5.348800
321.000000	5.059000
320.000000	4.864000
319.000000	5.241100
318.000000	5.280000
317.000000	5.300000
316.000000	5.030900
315.000000	4.663100
314.000000	4.692200
313.000000	4.714500
312.000000	4.688200
311.000000	4.726200
310.000000	4.716800
309.000000	4.700500
308.000000	4.745300
307.000000	4.792300
306.000000	4.782400
305.000000	4.759000
304.000000	4.770800
303.000000	4.776700
302.000000	4.758900
301.000000	4.745300
300.000000	4.746500
299.000000	4.764300
298.000000	4.776700
297.000000	4.786200
296.000000	4.780900
295.000000	4.759900
294.000000	4.773300
293.000000	4.764100
292.000000	4.799600
291.000000	4.780100
290.000000	4.776200
289.000000	4.777300
288.000000	4.821500
287.000000	4.838200
286.000000	4.809500
285.000000	4.804100
284.000000	4.819500
283.000000	4.833700
282.000000	4.845500
281.000000	4.864700
280.000000	4.870700
279.000000	4.873200
278.000000	4.886100
277.000000	4.907300
276.000000	4.908100
275.000000	4.954200
274.000000	4.938600
273.000000	4.914800
272.000000	4.953700
271.000000	4.978800
270.000000	5.019300
269.000000	5.026300
268.000000	5.071900
267.000000	5.048400
266.000000	5.033600
265.000000	5.071100
264.000000	5.090700
263.000000	5.136900
262.000000	5.157000
261.000000	5.170200
260.000000	5.205200
259.000000	5.207800
258.000000	5.229700
257.000000	5.225600
256.000000	5.262600
255.000000	5.250600
254.000000	5.291500
253.000000	5.328200
252.000000	5.319300
251.000000	5.360500
250.000000	5.368300
