PE UV       SUBTECH     SPECTRUM    ASCII       PEDS        4.00        
   -1
CICIMAUCR0020-7.Sample.ASC
24/04/25
16:24:51.00
24/04/25
16:24:51.00
Vinicio Soto Monge
C. resplendens
250,000000
1
Lambda 1050
1050L1511233
PerkinElmer UV WinLab 6.3.2.0749 / 2.02.05 Lambda 900 UV/VIS/NIR, Aug  7 2015 09:38:08

0
0
3350/servo 860,8/2
0
0
UV/VIS
1
1
1
DoubleDePol,CommonBeamDepol,RBeamAtt,SBeamAtt,60mm sphere, WB InGaAs Detector
0
0
0
0
Program
Program
3350/servo 860,8/2
3350/0,2 860,8/0,2
3350/0,2 860,8/0,2
0
15.00
 
 
 
0
 
860,8
319,2
860,8
Front
100
on
S:100 R:100
0
0
0
0
 
0
 
 
 
0
 
 
0
0
0
0
0
 
 
 
 
0
0


0
0
#HDR
-1
-1
#GR
nm
%R
1.0
0.0
2500,000000
-1,000000
2251
8
81,082400
5,554700
#DATA
2482.000000	9.553951
2481.000000	9.511691
2480.000000	9.517005
2479.000000	9.585831
2478.000000	9.511568
2477.000000	9.490438
2476.000000	9.495752
2475.000000	9.532945
2474.000000	9.540853
2473.000000	9.524172
2472.000000	9.460535
2471.000000	9.500323
2470.000000	9.482036
2469.000000	9.507861
2468.000000	9.513668
2467.000000	9.442248
2466.000000	9.502548
2465.000000	9.500447
2464.000000	9.556299
2463.000000	9.553704
2462.000000	9.601400
2461.000000	9.622035
2460.000000	9.669855
2459.000000	9.726695
2458.000000	9.758946
2457.000000	9.823200
2456.000000	9.826783
2455.000000	9.920322
2454.000000	9.973702
2453.000000	10.062175
2452.000000	10.109377
2451.000000	10.177338
2450.000000	10.265317
2449.000000	10.328582
2448.000000	10.380232
2447.000000	10.479950
2446.000000	10.544574
2445.000000	10.611547
2444.000000	10.668387
2443.000000	10.721149
2442.000000	10.809993
2441.000000	10.863991
2440.000000	10.915147
2439.000000	10.981378
2438.000000	11.027221
2437.000000	11.099012
2436.000000	11.150168
2435.000000	11.183902
2434.000000	11.233575
2433.000000	11.271880
2432.000000	11.318341
2431.000000	11.379011
2430.000000	11.406566
2429.000000	11.463036
2428.000000	11.480953
2427.000000	11.495410
2426.000000	11.519134
2425.000000	11.543477
2424.000000	11.558058
2423.000000	11.587343
2422.000000	11.618728
2421.000000	11.641341
2420.000000	11.658887
2419.000000	11.668031
2418.000000	11.731049
2417.000000	11.763794
2416.000000	11.768366
2415.000000	11.777757
2414.000000	11.810131
2413.000000	11.839787
2412.000000	11.860916
2411.000000	11.911702
2410.000000	11.995108
2409.000000	12.065417
2408.000000	12.128806
2407.000000	12.156485
2406.000000	12.162169
2405.000000	12.198373
2404.000000	12.230006
2403.000000	12.266581
2402.000000	12.330835
2401.000000	12.379520
2400.000000	12.408682
2399.000000	12.430429
2398.000000	12.476519
2397.000000	12.509017
2396.000000	12.553500
2395.000000	12.604286
2394.000000	12.632335
2393.000000	12.671134
2392.000000	12.714382
2391.000000	12.745397
2390.000000	12.770357
2389.000000	12.783702
2388.000000	12.789510
2387.000000	12.797542
2386.000000	12.813482
2385.000000	12.824726
2384.000000	12.834117
2383.000000	12.844249
2382.000000	12.853764
2381.000000	12.851540
2380.000000	12.857965
2379.000000	12.833870
2378.000000	12.831399
2377.000000	12.843755
2376.000000	12.826085
2375.000000	12.796306
2374.000000	12.780860
2373.000000	12.759731
2372.000000	12.725009
2371.000000	12.705362
2370.000000	12.670269
2369.000000	12.622820
2368.000000	12.588963
2367.000000	12.537190
2366.000000	12.469352
2365.000000	12.392865
2364.000000	12.338744
2363.000000	12.282151
2362.000000	12.207146
2361.000000	12.137703
2360.000000	12.077156
2359.000000	12.033537
2358.000000	11.986088
2357.000000	11.940616
2356.000000	11.934808
2355.000000	11.928259
2354.000000	11.928259
2353.000000	11.960757
2352.000000	11.990536
2351.000000	12.020192
2350.000000	12.068877
2349.000000	12.114472
2348.000000	12.180209
2347.000000	12.268558
2346.000000	12.355796
2345.000000	12.422521
2344.000000	12.470341
2343.000000	12.539043
2342.000000	12.606757
2341.000000	12.660631
2340.000000	12.693253
2339.000000	12.725009
2338.000000	12.769740
2337.000000	12.761461
2336.000000	12.768627
2335.000000	12.755530
2334.000000	12.719325
2333.000000	12.716483
2332.000000	12.702520
2331.000000	12.628134
2330.000000	12.564992
2329.000000	12.521126
2328.000000	12.452053
2327.000000	12.396449
2326.000000	12.305257
2325.000000	12.198497
2324.000000	12.084322
2323.000000	11.997085
2322.000000	11.904906
2321.000000	11.786036
2320.000000	11.649619
2319.000000	11.523706
2318.000000	11.385931
2317.000000	11.268667
2316.000000	11.165490
2315.000000	11.047609
2314.000000	10.930963
2313.000000	10.821731
2312.000000	10.725598
2311.000000	10.647134
2310.000000	10.594001
2309.000000	10.576578
2308.000000	10.571264
2307.000000	10.564221
2306.000000	10.574724
2305.000000	10.626004
2304.000000	10.692359
2303.000000	10.788616
2302.000000	10.892658
2301.000000	11.000531
2300.000000	11.121872
2299.000000	11.224925
2298.000000	11.370609
2297.000000	11.478111
2296.000000	11.567819
2295.000000	11.679399
2294.000000	11.766759
2293.000000	11.839416
2292.000000	11.907500
2291.000000	11.948030
2290.000000	11.978180
2289.000000	11.970766
2288.000000	11.963970
2287.000000	11.973855
2286.000000	11.940616
2285.000000	11.903299
2284.000000	11.854985
2283.000000	11.789372
2282.000000	11.728701
2281.000000	11.712267
2280.000000	11.653574
2279.000000	11.575357
2278.000000	11.535321
2277.000000	11.489849
2276.000000	11.455869
2275.000000	11.428190
2274.000000	11.449814
2273.000000	11.437705
2272.000000	11.441288
2271.000000	11.477369
2270.000000	11.508879
2269.000000	11.592903
2268.000000	11.720546
2267.000000	11.839292
2266.000000	11.989918
2265.000000	12.130783
2264.000000	12.364939
2263.000000	12.567092
2262.000000	12.775176
2261.000000	13.025643
2260.000000	13.318864
2259.000000	13.599357
2258.000000	13.891590
2257.000000	14.195931
2256.000000	14.508922
2255.000000	14.826485
2254.000000	15.077199
2253.000000	15.363377
2252.000000	15.591231
2251.000000	15.923375
2250.000000	16.141468
2249.000000	16.354989
2248.000000	16.579878
2247.000000	16.749904
2246.000000	16.959841
2245.000000	17.141235
2244.000000	17.288649
2243.000000	17.457068
2242.000000	17.628577
2241.000000	17.760915
2240.000000	17.840862
2239.000000	17.965293
2238.000000	18.066122
2237.000000	18.177701
2236.000000	18.274577
2235.000000	18.371205
2234.000000	18.438672
2233.000000	18.481796
2232.000000	18.538636
2231.000000	18.595847
2230.000000	18.642554
2229.000000	18.668750
2228.000000	18.683455
2227.000000	18.706438
2226.000000	18.701124
2225.000000	18.697170
2224.000000	18.685555
2223.000000	18.728309
2222.000000	18.692598
2221.000000	18.647250
2220.000000	18.630692
2219.000000	18.595105
2218.000000	18.583737
2217.000000	18.563843
2216.000000	18.528133
2215.000000	18.504038
2214.000000	18.466597
2213.000000	18.443985
2212.000000	18.389616
2211.000000	18.378866
2210.000000	18.348098
2209.000000	18.314859
2208.000000	18.310287
2207.000000	18.285945
2206.000000	18.302626
2205.000000	18.285450
2204.000000	18.257154
2203.000000	18.251223
2202.000000	18.210446
2201.000000	18.193641
2200.000000	18.196483
2199.000000	18.192776
2198.000000	18.155830
2197.000000	18.145822
2196.000000	18.148540
2195.000000	18.129140
2194.000000	18.115548
2193.000000	18.075142
2192.000000	18.051665
2191.000000	18.025963
2190.000000	18.003351
2189.000000	17.991736
2188.000000	17.997543
2187.000000	17.976537
2186.000000	17.959114
2185.000000	17.915990
2184.000000	17.908947
2183.000000	17.883739
2182.000000	17.857667
2181.000000	17.793537
2180.000000	17.801321
2179.000000	17.786988
2178.000000	17.770801
2177.000000	17.757085
2176.000000	17.751525
2175.000000	17.733360
2174.000000	17.730148
2173.000000	17.725205
2172.000000	17.732495
2171.000000	17.717420
2170.000000	17.726564
2169.000000	17.723475
2168.000000	17.762645
2167.000000	17.772036
2166.000000	17.766229
2165.000000	17.786246
2164.000000	17.811948
2163.000000	17.831595
2162.000000	17.859891
2161.000000	17.887694
2160.000000	17.907711
2159.000000	17.957384
2158.000000	17.990624
2157.000000	18.009035
2156.000000	18.033254
2155.000000	18.100350
2154.000000	18.151382
2153.000000	18.205874
2152.000000	18.246651
2151.000000	18.301761
2150.000000	18.354524
2149.000000	18.393076
2148.000000	18.409757
2147.000000	18.465609
2146.000000	18.515776
2145.000000	18.550375
2144.000000	18.618706
2143.000000	18.645273
2142.000000	18.686173
2141.000000	18.725220
2140.000000	18.771557
2139.000000	18.821106
2138.000000	18.840259
2137.000000	18.873992
2136.000000	18.909950
2135.000000	18.938370
2134.000000	18.982483
2133.000000	18.997681
2132.000000	19.025236
2131.000000	19.048714
2130.000000	19.058970
2129.000000	19.099993
2128.000000	19.129155
2127.000000	19.129278
2126.000000	19.143859
2125.000000	19.164495
2124.000000	19.157204
2123.000000	19.169190
2122.000000	19.172897
2121.000000	19.165977
2120.000000	19.169931
2119.000000	19.142129
2118.000000	19.137681
2117.000000	19.144724
2116.000000	19.124830
2115.000000	19.123594
2114.000000	19.111114
2113.000000	19.081459
2112.000000	19.047849
2111.000000	19.025978
2110.000000	19.013003
2109.000000	19.017452
2108.000000	18.991627
2107.000000	18.946772
2106.000000	18.920824
2105.000000	18.928855
2104.000000	18.916252
2103.000000	18.886720
2102.000000	18.872262
2101.000000	18.844707
2100.000000	18.822713
2099.000000	18.811098
2098.000000	18.806155
2097.000000	18.801954
2096.000000	18.780577
2095.000000	18.736958
2094.000000	18.732881
2093.000000	18.738194
2092.000000	18.722254
2091.000000	18.712987
2090.000000	18.700012
2089.000000	18.674929
2088.000000	18.675917
2087.000000	18.677400
2086.000000	18.644531
2085.000000	18.641442
2084.000000	18.644284
2083.000000	18.629333
2082.000000	18.606597
2081.000000	18.584602
2080.000000	18.575582
2079.000000	18.549263
2078.000000	18.524673
2077.000000	18.494400
2076.000000	18.462273
2075.000000	18.449051
2074.000000	18.426315
2073.000000	18.427056
2072.000000	18.405185
2071.000000	18.365768
2070.000000	18.338584
2069.000000	18.308804
2068.000000	18.280508
2067.000000	18.255795
2066.000000	18.234912
2065.000000	18.207234
2064.000000	18.203774
2063.000000	18.206369
2062.000000	18.176342
2061.000000	18.166951
2060.000000	18.185115
2059.000000	18.213783
2058.000000	18.216748
2057.000000	18.230587
2056.000000	18.271240
2055.000000	18.314983
2054.000000	18.384550
2053.000000	18.486738
2052.000000	18.559148
2051.000000	18.630074
2050.000000	18.722625
2049.000000	18.853728
2048.000000	18.976675
2047.000000	19.077257
2046.000000	19.234803
2045.000000	19.386541
2044.000000	19.532719
2043.000000	19.660362
2042.000000	19.786275
2041.000000	19.961615
2040.000000	20.094324
2039.000000	20.205533
2038.000000	20.331322
2037.000000	20.487015
2036.000000	20.622195
2035.000000	20.717217
2034.000000	20.826325
2033.000000	20.931232
2032.000000	21.044789
2031.000000	21.165389
2030.000000	21.257939
2029.000000	21.338257
2028.000000	21.400410
2027.000000	21.500869
2026.000000	21.574637
2025.000000	21.668794
2024.000000	21.703269
2023.000000	21.785810
2022.000000	21.832147
2021.000000	21.877990
2020.000000	21.942491
2019.000000	21.967081
2018.000000	22.035289
2017.000000	22.060002
2016.000000	22.101149
2015.000000	22.149587
2014.000000	22.159472
2013.000000	22.193082
2012.000000	22.193205
2011.000000	22.205809
2010.000000	22.206674
2009.000000	22.220760
2008.000000	22.203955
2007.000000	22.186656
2006.000000	22.167504
2005.000000	22.160955
2004.000000	22.110540
2003.000000	22.101026
2002.000000	22.039614
2001.000000	21.993647
2000.000000	21.970417
1999.000000	21.907399
1998.000000	21.864274
1997.000000	21.778026
1996.000000	21.716614
1995.000000	21.663110
1994.000000	21.577850
1993.000000	21.521504
1992.000000	21.419315
1991.000000	21.358274
1990.000000	21.263747
1989.000000	21.175027
1988.000000	21.073085
1987.000000	21.005248
1986.000000	20.882177
1985.000000	20.838805
1984.000000	20.713263
1983.000000	20.612928
1982.000000	20.516917
1981.000000	20.431040
1980.000000	20.328975
1979.000000	20.204791
1978.000000	20.126945
1977.000000	20.026363
1976.000000	19.929982
1975.000000	19.822604
1974.000000	19.730300
1973.000000	19.629595
1972.000000	19.532101
1971.000000	19.465747
1970.000000	19.351449
1969.000000	19.281758
1968.000000	19.208607
1967.000000	19.108396
1966.000000	18.987302
1965.000000	18.928732
1964.000000	18.863366
1963.000000	18.764884
1962.000000	18.686420
1961.000000	18.571751
1960.000000	18.503543
1959.000000	18.431752
1958.000000	18.333023
1957.000000	18.268275
1956.000000	18.179679
1955.000000	18.100226
1954.000000	18.014595
1953.000000	17.962821
1952.000000	17.853713
1951.000000	17.802557
1950.000000	17.728665
1949.000000	17.656132
1948.000000	17.612019
1947.000000	17.544553
1946.000000	17.517862
1945.000000	17.466953
1944.000000	17.431861
1943.000000	17.397880
1942.000000	17.337086
1941.000000	17.370820
1940.000000	17.312003
1939.000000	17.328560
1938.000000	17.371437
1937.000000	17.412338
1936.000000	17.409619
1935.000000	17.462258
1934.000000	17.484500
1933.000000	17.541711
1932.000000	17.613626
1931.000000	17.684305
1930.000000	17.755108
1929.000000	17.880650
1928.000000	18.011877
1927.000000	18.134206
1926.000000	18.300031
1925.000000	18.414206
1924.000000	18.532211
1923.000000	18.670727
1922.000000	18.862501
1921.000000	19.131008
1920.000000	19.375668
1919.000000	19.576214
1918.000000	19.771695
1917.000000	19.943451
1916.000000	20.084068
1915.000000	20.286221
1914.000000	20.621207
1913.000000	20.958293
1912.000000	21.269678
1911.000000	21.492837
1910.000000	21.717726
1909.000000	21.911353
1908.000000	22.125121
1907.000000	22.434405
1906.000000	22.829814
1905.000000	23.251172
1904.000000	23.572442
1903.000000	23.882591
1902.000000	24.195582
1901.000000	24.538847
1900.000000	24.941423
1899.000000	25.349436
1898.000000	25.733600
1897.000000	26.117147
1896.000000	26.336970
1895.000000	26.593986
1894.000000	26.911672
1893.000000	27.283234
1892.000000	27.741043
1891.000000	28.162895
1890.000000	28.575604
1889.000000	28.937774
1888.000000	29.317490
1887.000000	29.705609
1886.000000	30.173798
1885.000000	30.660646
1884.000000	31.224969
1883.000000	31.799054
1882.000000	32.342741
1881.000000	32.873207
1880.000000	33.330770
1879.000000	33.791669
1878.000000	34.279134
1877.000000	34.699133
1876.000000	35.092441
1875.000000	35.484885
1874.000000	35.857311
1873.000000	36.233197
1872.000000	36.574114
1871.000000	36.918861
1870.000000	37.265091
1869.000000	37.553740
1868.000000	37.742301
1867.000000	37.878593
1866.000000	37.939387
1865.000000	38.011673
1864.000000	38.026872
1863.000000	38.039228
1862.000000	38.099405
1861.000000	38.183305
1860.000000	38.268442
1859.000000	38.336650
1858.000000	38.398186
1857.000000	38.384841
1856.000000	38.322317
1855.000000	38.337021
1854.000000	38.358645
1853.000000	38.321822
1852.000000	38.257074
1851.000000	38.169590
1850.000000	38.076051
1849.000000	38.045530
1848.000000	38.124488
1847.000000	38.175644
1846.000000	38.099775
1845.000000	37.948778
1844.000000	37.805443
1843.000000	37.749838
1842.000000	37.782089
1841.000000	37.796422
1840.000000	37.754410
1839.000000	37.689415
1838.000000	37.623060
1837.000000	37.613422
1836.000000	37.607491
1835.000000	37.551763
1834.000000	37.433017
1833.000000	37.285603
1832.000000	37.169699
1831.000000	37.110264
1830.000000	37.054659
1829.000000	36.959514
1828.000000	36.866716
1827.000000	36.806540
1826.000000	36.748217
1825.000000	36.659374
1824.000000	36.562128
1823.000000	36.489471
1822.000000	36.476126
1821.000000	36.502569
1820.000000	36.520733
1819.000000	36.473284
1818.000000	36.398774
1817.000000	36.359233
1816.000000	36.355897
1815.000000	36.338722
1814.000000	36.293373
1813.000000	36.268166
1812.000000	36.248148
1811.000000	36.228501
1810.000000	36.172156
1809.000000	36.085536
1808.000000	36.030797
1807.000000	35.992615
1806.000000	35.936393
1805.000000	35.872262
1804.000000	35.817894
1803.000000	35.750921
1802.000000	35.695811
1801.000000	35.640083
1800.000000	35.593622
1799.000000	35.520595
1798.000000	35.442626
1797.000000	35.378866
1796.000000	35.323632
1795.000000	35.281867
1794.000000	35.204762
1793.000000	35.132353
1792.000000	35.065628
1791.000000	35.003598
1790.000000	34.925257
1789.000000	34.862239
1788.000000	34.800951
1787.000000	34.703458
1786.000000	34.621904
1785.000000	34.539239
1784.000000	34.442858
1783.000000	34.351049
1782.000000	34.249602
1781.000000	34.150873
1780.000000	34.062771
1779.000000	33.972074
1778.000000	33.857282
1777.000000	33.716417
1776.000000	33.590875
1775.000000	33.456189
1774.000000	33.312235
1773.000000	33.161732
1772.000000	32.995661
1771.000000	32.843057
1770.000000	32.691690
1769.000000	32.574179
1768.000000	32.411691
1767.000000	32.294798
1766.000000	32.181118
1765.000000	32.098576
1764.000000	32.046061
1763.000000	32.033457
1762.000000	32.056811
1761.000000	32.092645
1760.000000	32.176175
1759.000000	32.248584
1758.000000	32.314568
1757.000000	32.354233
1756.000000	32.417869
1755.000000	32.449749
1754.000000	32.450119
1753.000000	32.462476
1752.000000	32.441841
1751.000000	32.397481
1750.000000	32.331867
1749.000000	32.271815
1748.000000	32.192239
1747.000000	32.079300
1746.000000	31.946838
1745.000000	31.759142
1744.000000	31.596653
1743.000000	31.408834
1742.000000	31.164545
1741.000000	30.885905
1740.000000	30.612455
1739.000000	30.356181
1738.000000	30.133145
1737.000000	29.914435
1736.000000	29.772581
1735.000000	29.687321
1734.000000	29.675459
1733.000000	29.686456
1732.000000	29.751205
1731.000000	29.851169
1730.000000	30.013534
1729.000000	30.176887
1728.000000	30.302059
1727.000000	30.456392
1726.000000	30.590337
1725.000000	30.652490
1724.000000	30.739110
1723.000000	30.772225
1722.000000	30.855138
1721.000000	30.867988
1720.000000	30.914202
1719.000000	30.967088
1718.000000	31.024669
1717.000000	31.095102
1716.000000	31.188146
1715.000000	31.279585
1714.000000	31.367563
1713.000000	31.466416
1712.000000	31.511764
1711.000000	31.551676
1710.000000	31.579725
1709.000000	31.589363
1708.000000	31.598507
1707.000000	31.566504
1706.000000	31.507934
1705.000000	31.466910
1704.000000	31.414889
1703.000000	31.325922
1702.000000	31.184810
1701.000000	31.029488
1700.000000	30.858227
1699.000000	30.689684
1698.000000	30.520646
1697.000000	30.397204
1696.000000	30.318493
1695.000000	30.338511
1694.000000	30.388678
1693.000000	30.575139
1692.000000	30.776921
1691.000000	30.947317
1690.000000	31.122410
1689.000000	31.266363
1688.000000	31.352735
1687.000000	31.376460
1686.000000	31.416495
1685.000000	31.471729
1684.000000	31.614941
1683.000000	31.906061
1682.000000	32.307278
1681.000000	32.846641
1680.000000	33.438025
1679.000000	34.086496
1678.000000	34.690730
1677.000000	35.269511
1676.000000	35.744743
1675.000000	36.182782
1674.000000	36.566947
1673.000000	36.884757
1672.000000	37.131888
1671.000000	37.387174
1670.000000	37.593528
1669.000000	37.787155
1668.000000	37.956316
1667.000000	38.109043
1666.000000	38.220622
1665.000000	38.327506
1664.000000	38.431919
1663.000000	38.525705
1662.000000	38.591936
1661.000000	38.615290
1660.000000	38.675219
1659.000000	38.701415
1658.000000	38.744787
1657.000000	38.773577
1656.000000	38.773948
1655.000000	38.782598
1654.000000	38.778767
1653.000000	38.759738
1652.000000	38.714389
1651.000000	38.714019
1650.000000	38.663728
1649.000000	38.614919
1648.000000	38.562280
1647.000000	38.529659
1646.000000	38.470224
1645.000000	38.373843
1644.000000	38.312926
1643.000000	38.243976
1642.000000	38.186765
1641.000000	38.118928
1640.000000	38.044912
1639.000000	37.980782
1638.000000	37.899105
1637.000000	37.816069
1636.000000	37.727473
1635.000000	37.657658
1634.000000	37.562760
1633.000000	37.482937
1632.000000	37.392487
1631.000000	37.317112
1630.000000	37.213441
1629.000000	37.123609
1628.000000	37.022162
1627.000000	36.926769
1626.000000	36.816425
1625.000000	36.735119
1624.000000	36.648500
1623.000000	36.564723
1622.000000	36.468465
1621.000000	36.379869
1620.000000	36.301034
1619.000000	36.213921
1618.000000	36.123718
1617.000000	36.050814
1616.000000	35.985078
1615.000000	35.906984
1614.000000	35.836181
1613.000000	35.745979
1612.000000	35.677153
1611.000000	35.600419
1610.000000	35.517259
1609.000000	35.454241
1608.000000	35.386650
1607.000000	35.311152
1606.000000	35.239237
1605.000000	35.165963
1604.000000	35.095654
1603.000000	35.005081
1602.000000	34.943051
1601.000000	34.877314
1600.000000	34.802557
1599.000000	34.733360
1598.000000	34.667253
1597.000000	34.618321
1596.000000	34.566547
1595.000000	34.524288
1594.000000	34.467077
1593.000000	34.410978
1592.000000	34.358834
1591.000000	34.323618
1590.000000	34.297669
1589.000000	34.243177
1588.000000	34.193009
1587.000000	34.168296
1586.000000	34.126654
1585.000000	34.107378
1584.000000	34.079947
1583.000000	34.054863
1582.000000	34.044236
1581.000000	34.029903
1580.000000	34.010009
1579.000000	34.004201
1578.000000	34.005684
1577.000000	34.003460
1576.000000	34.010379
1575.000000	34.013839
1574.000000	34.035957
1573.000000	34.051897
1572.000000	34.065613
1571.000000	34.101447
1570.000000	34.128755
1569.000000	34.139876
1568.000000	34.170397
1567.000000	34.205118
1566.000000	34.249231
1565.000000	34.285930
1564.000000	34.305824
1563.000000	34.327819
1562.000000	34.352532
1561.000000	34.381817
1560.000000	34.408507
1559.000000	34.427165
1558.000000	34.438410
1557.000000	34.440881
1556.000000	34.448913
1555.000000	34.446194
1554.000000	34.426671
1553.000000	34.419504
1552.000000	34.413697
1551.000000	34.386512
1550.000000	34.331279
1549.000000	34.302488
1548.000000	34.300511
1547.000000	34.282223
1546.000000	34.267766
1545.000000	34.244165
1544.000000	34.236998
1543.000000	34.224271
1542.000000	34.210308
1541.000000	34.196963
1540.000000	34.179046
1539.000000	34.177069
1538.000000	34.156434
1537.000000	34.116769
1536.000000	34.106760
1535.000000	34.075745
1534.000000	34.044731
1533.000000	34.038676
1532.000000	34.021006
1531.000000	33.969850
1530.000000	33.934016
1529.000000	33.911774
1528.000000	33.872480
1527.000000	33.824290
1526.000000	33.776099
1525.000000	33.756082
1524.000000	33.719012
1523.000000	33.671069
1522.000000	33.630045
1521.000000	33.584450
1520.000000	33.544291
1519.000000	33.477936
1518.000000	33.434194
1517.000000	33.403179
1516.000000	33.347204
1515.000000	33.302968
1514.000000	33.253171
1513.000000	33.202385
1512.000000	33.147770
1511.000000	33.098591
1510.000000	33.062386
1509.000000	33.014319
1508.000000	32.982439
1507.000000	32.918679
1506.000000	32.868141
1505.000000	32.828230
1504.000000	32.792519
1503.000000	32.751990
1502.000000	32.714302
1501.000000	32.699474
1500.000000	32.665370
1499.000000	32.654620
1498.000000	32.636580
1497.000000	32.620640
1496.000000	32.582458
1495.000000	32.589748
1494.000000	32.598645
1493.000000	32.607665
1492.000000	32.584682
1491.000000	32.608530
1490.000000	32.626077
1489.000000	32.641275
1488.000000	32.664876
1487.000000	32.674391
1486.000000	32.701328
1485.000000	32.687612
1484.000000	32.737903
1483.000000	32.759527
1482.000000	32.808953
1481.000000	32.840957
1480.000000	32.852695
1479.000000	32.921398
1478.000000	32.957602
1477.000000	33.013825
1476.000000	33.059791
1475.000000	33.082403
1474.000000	33.150612
1473.000000	33.200285
1472.000000	33.265651
1471.000000	33.313841
1470.000000	33.392553
1469.000000	33.421096
1468.000000	33.467557
1467.000000	33.538236
1466.000000	33.613611
1465.000000	33.657230
1464.000000	33.746814
1463.000000	33.812798
1462.000000	33.920547
1461.000000	34.017793
1460.000000	34.099223
1459.000000	34.209690
1458.000000	34.305577
1457.000000	34.415427
1456.000000	34.536891
1455.000000	34.650572
1454.000000	34.762275
1453.000000	34.887570
1452.000000	35.006811
1451.000000	35.177701
1450.000000	35.316342
1449.000000	35.416430
1448.000000	35.539254
1447.000000	35.687409
1446.000000	35.828520
1445.000000	35.998299
1444.000000	36.117293
1443.000000	36.256551
1442.000000	36.416691
1441.000000	36.555332
1440.000000	36.729065
1439.000000	36.880803
1438.000000	37.061950
1437.000000	37.196389
1436.000000	37.316247
1435.000000	37.466503
1434.000000	37.626891
1433.000000	37.785178
1432.000000	37.943465
1431.000000	38.117322
1430.000000	38.244965
1429.000000	38.469112
1428.000000	38.661998
1427.000000	38.848952
1426.000000	39.075077
1425.000000	39.302808
1424.000000	39.550062
1423.000000	39.815357
1422.000000	40.027519
1421.000000	40.263899
1420.000000	40.542045
1419.000000	40.808946
1418.000000	41.048786
1417.000000	41.184955
1416.000000	41.447903
1415.000000	41.746684
1414.000000	42.055721
1413.000000	42.252684
1412.000000	42.460026
1411.000000	42.748675
1410.000000	43.079336
1409.000000	43.454110
1408.000000	43.835433
1407.000000	44.157197
1406.000000	44.543833
1405.000000	44.947521
1404.000000	45.293751
1403.000000	45.638869
1402.000000	45.983987
1401.000000	46.425733
1400.000000	46.806685
1399.000000	47.000807
1398.000000	47.115722
1397.000000	47.357911
1396.000000	47.723664
1395.000000	47.945835
1394.000000	48.027388
1393.000000	48.146752
1392.000000	48.408834
1391.000000	48.600113
1390.000000	48.728374
1389.000000	48.995399
1388.000000	49.342618
1387.000000	49.638433
1386.000000	49.974037
1385.000000	50.330523
1384.000000	50.734458
1383.000000	51.125172
1382.000000	51.452867
1381.000000	51.724093
1380.000000	51.840244
1379.000000	51.906599
1378.000000	51.953677
1377.000000	52.081691
1376.000000	52.216872
1375.000000	52.396783
1374.000000	52.615988
1373.000000	52.868432
1372.000000	53.188713
1371.000000	53.528271
1370.000000	53.775154
1369.000000	54.026981
1368.000000	54.281772
1367.000000	54.457730
1366.000000	54.626767
1365.000000	54.831268
1364.000000	54.990667
1363.000000	55.128566
1362.000000	55.281169
1361.000000	55.414126
1360.000000	55.406588
1359.000000	55.490489
1358.000000	55.582545
1357.000000	55.730700
1356.000000	55.976472
1355.000000	56.319613
1354.000000	56.679806
1353.000000	57.008119
1352.000000	57.440227
1351.000000	57.852441
1350.000000	58.181496
1349.000000	58.488803
1348.000000	58.794133
1347.000000	59.070796
1346.000000	59.330036
1345.000000	59.599902
1344.000000	59.832329
1343.000000	60.042019
1342.000000	60.260854
1341.000000	60.470791
1340.000000	60.668249
1339.000000	60.849395
1338.000000	61.032766
1337.000000	61.220339
1336.000000	61.389500
1335.000000	61.550011
1334.000000	61.693594
1333.000000	61.828280
1332.000000	61.971245
1331.000000	62.100742
1330.000000	62.205155
1329.000000	62.324025
1328.000000	62.420406
1327.000000	62.513080
1326.000000	62.613415
1325.000000	62.707571
1324.000000	62.799875
1323.000000	62.872037
1322.000000	62.941728
1321.000000	63.008082
1320.000000	63.088276
1319.000000	63.161798
1318.000000	63.220615
1317.000000	63.295372
1316.000000	63.368152
1315.000000	63.408558
1314.000000	63.454648
1313.000000	63.509511
1312.000000	63.566845
1311.000000	63.598725
1310.000000	63.641355
1309.000000	63.681884
1308.000000	63.724762
1307.000000	63.753799
1306.000000	63.765291
1305.000000	63.779130
1304.000000	63.795317
1303.000000	63.822872
1302.000000	63.850057
1301.000000	63.852405
1300.000000	63.849810
1299.000000	63.859448
1298.000000	63.867480
1297.000000	63.858089
1296.000000	63.852405
1295.000000	63.856482
1294.000000	63.855864
1293.000000	63.859201
1292.000000	63.859571
1291.000000	63.838689
1290.000000	63.812864
1289.000000	63.791858
1288.000000	63.769739
1287.000000	63.741937
1286.000000	63.696342
1285.000000	63.650128
1284.000000	63.622449
1283.000000	63.588716
1282.000000	63.547816
1281.000000	63.509881
1280.000000	63.464039
1279.000000	63.419555
1278.000000	63.398920
1277.000000	63.358637
1276.000000	63.316872
1275.000000	63.307852
1274.000000	63.291665
1273.000000	63.262380
1272.000000	63.231365
1271.000000	63.208135
1270.000000	63.174772
1269.000000	63.146352
1268.000000	63.118673
1267.000000	63.086670
1266.000000	63.050095
1265.000000	63.009565
1264.000000	62.980898
1263.000000	62.947783
1262.000000	62.891931
1261.000000	62.850289
1260.000000	62.815320
1259.000000	62.768860
1258.000000	62.710166
1257.000000	62.665312
1256.000000	62.591049
1255.000000	62.558922
1254.000000	62.499487
1253.000000	62.399894
1252.000000	62.332798
1251.000000	62.280035
1250.000000	62.185878
1249.000000	62.107044
1248.000000	62.026356
1247.000000	61.942949
1246.000000	61.849904
1245.000000	61.742649
1244.000000	61.628599
1243.000000	61.527028
1242.000000	61.415943
1241.000000	61.293613
1240.000000	61.190807
1239.000000	61.082069
1238.000000	60.981116
1237.000000	60.862864
1236.000000	60.740781
1235.000000	60.615486
1234.000000	60.498346
1233.000000	60.375646
1232.000000	60.243925
1231.000000	60.119989
1230.000000	60.002973
1229.000000	59.861614
1228.000000	59.753247
1227.000000	59.612753
1226.000000	59.491783
1225.000000	59.369082
1224.000000	59.247741
1223.000000	59.120963
1222.000000	58.999869
1221.000000	58.882358
1220.000000	58.772014
1219.000000	58.650673
1218.000000	58.556146
1217.000000	58.478052
1216.000000	58.367461
1215.000000	58.279112
1214.000000	58.213993
1213.000000	58.117859
1212.000000	58.034947
1211.000000	57.961178
1210.000000	57.889511
1209.000000	57.821797
1208.000000	57.760879
1207.000000	57.738267
1206.000000	57.717631
1205.000000	57.671047
1204.000000	57.674136
1203.000000	57.689705
1202.000000	57.662150
1201.000000	57.637067
1200.000000	57.615566
1199.000000	57.572813
1198.000000	57.512142
1197.000000	57.424534
1196.000000	57.282187
1195.000000	57.110307
1194.000000	56.870343
1193.000000	56.583672
1192.000000	56.275376
1191.000000	55.980426
1190.000000	55.677690
1189.000000	55.425494
1188.000000	55.248795
1187.000000	55.159704
1186.000000	55.164153
1185.000000	55.281787
1184.000000	55.494196
1183.000000	55.813489
1182.000000	56.163179
1181.000000	56.533257
1180.000000	56.906425
1179.000000	57.278727
1178.000000	57.573925
1177.000000	57.861461
1176.000000	58.087833
1175.000000	58.305679
1174.000000	58.546013
1173.000000	58.764848
1172.000000	59.016921
1171.000000	59.254661
1170.000000	59.468058
1169.000000	59.737678
1168.000000	59.964544
1167.000000	60.210686
1166.000000	60.438170
1165.000000	60.690985
1164.000000	60.922175
1163.000000	61.161274
1162.000000	61.395925
1161.000000	61.609075
1160.000000	61.821855
1159.000000	61.989780
1158.000000	62.193910
1157.000000	62.369620
1156.000000	62.505048
1155.000000	62.595374
1154.000000	62.642329
1153.000000	62.707695
1152.000000	62.697192
1151.000000	62.705100
1150.000000	62.694721
1149.000000	62.655180
1148.000000	62.673962
1147.000000	62.692744
1146.000000	62.770713
1145.000000	62.889460
1144.000000	63.048859
1143.000000	63.223580
1142.000000	63.392989
1141.000000	63.580314
1140.000000	63.769369
1139.000000	63.964849
1138.000000	64.177134
1137.000000	64.409067
1136.000000	64.657927
1135.000000	64.909136
1134.000000	65.126116
1133.000000	65.269699
1132.000000	65.430705
1131.000000	65.601967
1130.000000	65.765691
1129.000000	65.923360
1128.000000	66.055946
1127.000000	66.142318
1126.000000	66.235486
1125.000000	66.319758
1124.000000	66.405883
1123.000000	66.458028
1122.000000	66.544647
1121.000000	66.601363
1120.000000	66.630648
1119.000000	66.665123
1118.000000	66.720480
1117.000000	66.764964
1116.000000	66.792272
1115.000000	66.819456
1114.000000	66.829836
1113.000000	66.841204
1112.000000	66.849483
1111.000000	66.898291
1110.000000	66.939068
1109.000000	66.939315
1108.000000	66.943145
1107.000000	66.975519
1106.000000	66.977126
1105.000000	66.978361
1104.000000	66.977620
1103.000000	66.978238
1102.000000	66.980215
1101.000000	66.986270
1100.000000	66.994919
1099.000000	66.987134
1098.000000	66.974037
1097.000000	66.957232
1096.000000	66.938203
1095.000000	66.942404
1094.000000	66.951548
1093.000000	66.940674
1092.000000	66.898044
1091.000000	66.877038
1090.000000	66.868388
1089.000000	66.866040
1088.000000	66.861963
1087.000000	66.859244
1086.000000	66.873825
1085.000000	66.870365
1084.000000	66.871601
1083.000000	66.888406
1082.000000	66.892236
1081.000000	66.904963
1080.000000	66.912501
1079.000000	66.937585
1078.000000	66.960074
1077.000000	66.986764
1076.000000	67.041874
1075.000000	67.094883
1074.000000	67.129235
1073.000000	67.161238
1072.000000	67.204362
1071.000000	67.263179
1070.000000	67.309269
1069.000000	67.351899
1068.000000	67.426533
1067.000000	67.491281
1066.000000	67.531069
1065.000000	67.567150
1064.000000	67.614229
1063.000000	67.662419
1062.000000	67.714687
1061.000000	67.737176
1060.000000	67.761889
1059.000000	67.794511
1058.000000	67.809338
1057.000000	67.823548
1056.000000	67.837388
1055.000000	67.838376
1054.000000	67.844555
1053.000000	67.855181
1052.000000	67.848632
1051.000000	67.826638
1050.000000	67.805755
1049.000000	67.788827
1048.000000	67.770168
1047.000000	67.740513
1046.000000	67.716664
1045.000000	67.686514
1044.000000	67.652040
1043.000000	67.622755
1042.000000	67.584202
1041.000000	67.565544
1040.000000	67.524273
1039.000000	67.489551
1038.000000	67.475218
1037.000000	67.434812
1036.000000	67.398360
1035.000000	67.382544
1034.000000	67.369075
1033.000000	67.361290
1032.000000	67.368581
1031.000000	67.366604
1030.000000	67.368704
1029.000000	67.387239
1028.000000	67.416277
1027.000000	67.449269
1026.000000	67.478183
1025.000000	67.520072
1024.000000	67.562702
1023.000000	67.629922
1022.000000	67.710980
1021.000000	67.799577
1020.000000	67.902012
1019.000000	68.000494
1018.000000	68.110344
1017.000000	68.228101
1016.000000	68.348207
1015.000000	68.493643
1014.000000	68.634137
1013.000000	68.769565
1012.000000	68.914384
1011.000000	69.059696
1010.000000	69.204144
1009.000000	69.370463
1008.000000	69.514170
1007.000000	69.650339
1006.000000	69.806155
1005.000000	69.910568
1004.000000	70.026595
1003.000000	70.130020
1002.000000	70.229490
1001.000000	70.330443
1000.000000	70.422375
999.000000	70.493549
998.000000	70.530124
997.000000	70.608959
996.000000	70.692860
995.000000	70.735490
994.000000	70.774537
993.000000	70.842745
992.000000	70.898596
991.000000	70.908852
990.000000	70.958155
989.000000	70.980891
988.000000	71.012524
987.000000	71.050582
986.000000	71.072823
985.000000	71.099143
984.000000	71.154006
983.000000	71.197130
982.000000	71.208622
981.000000	71.211711
980.000000	71.286839
979.000000	71.356529
978.000000	71.400519
977.000000	71.421648
976.000000	71.493069
975.000000	71.540024
974.000000	71.623678
973.000000	71.689785
972.000000	71.784189
971.000000	71.837446
970.000000	71.931603
969.000000	71.979423
968.000000	72.055415
967.000000	72.157604
966.000000	72.229025
965.000000	72.328865
964.000000	72.396579
963.000000	72.446870
962.000000	72.558697
961.000000	72.614549
960.000000	72.741450
959.000000	72.814848
958.000000	72.858590
957.000000	72.958802
956.000000	73.035412
955.000000	73.124009
954.000000	73.247945
953.000000	73.302437
952.000000	73.371263
951.000000	73.480865
950.000000	73.606161
949.000000	73.658923
948.000000	73.751473
947.000000	73.824871
946.000000	73.886283
945.000000	74.047536
944.000000	74.143546
943.000000	74.285152
942.000000	74.344464
941.000000	74.380051
940.000000	74.452213
939.000000	74.513872
938.000000	74.653130
937.000000	74.717260
936.000000	74.839467
935.000000	74.924727
934.000000	75.017524
933.000000	75.190763
932.000000	75.258600
931.000000	75.306667
930.000000	75.369809
929.000000	75.518335
928.000000	75.613974
927.000000	75.648449
926.000000	75.773868
925.000000	75.843929
924.000000	75.894097
923.000000	75.928819
922.000000	75.945994
921.000000	75.948342
920.000000	76.042870
919.000000	76.024582
918.000000	76.187565
917.000000	76.193496
916.000000	76.101193
915.000000	76.085376
914.000000	76.054856
913.000000	75.984547
912.000000	75.916092
911.000000	75.872226
910.000000	75.796975
909.000000	75.734451
908.000000	75.684159
907.000000	75.608908
906.000000	75.511662
905.000000	75.426031
904.000000	75.365979
903.000000	75.285538
902.000000	75.216835
901.000000	75.142696
900.000000	74.883332
899.000000	74.787569
898.000000	74.672777
897.000000	74.605681
896.000000	74.530553
895.000000	74.436026
894.000000	74.298127
893.000000	74.189513
892.000000	73.899875
891.000000	73.841058
890.000000	73.738746
889.000000	73.547096
888.000000	73.287238
887.000000	73.235959
886.000000	73.142790
885.000000	73.025898
884.000000	72.744786
883.000000	72.572907
882.000000	72.295626
881.000000	72.221487
880.000000	72.046148
879.000000	71.767508
878.000000	71.621824
877.000000	71.323538
876.000000	71.174394
875.000000	70.879073
874.000000	70.708553
873.000000	70.415085
872.000000	70.230478
871.000000	69.936146
870.000000	69.579165
869.000000	69.373676
868.000000	68.983209
867.000000	68.585576
866.000000	68.270484
865.000000	68.248490
864.000000	68.401093
863.000000	68.672319
862.000000	68.867799
861.000000	69.100102
860.000000	69.292494
859.000000	69.465114
858.000000	72.501733
857.000000	72.132300
856.000000	72.596400
855.000000	72.776500
854.000000	72.671600
853.000000	73.065600
852.000000	72.859400
851.000000	72.975400
850.000000	73.512900
849.000000	73.488000
848.000000	73.513100
847.000000	73.855400
846.000000	73.782600
845.000000	73.809600
844.000000	73.962000
843.000000	74.318300
842.000000	74.431000
841.000000	74.439000
840.000000	74.848500
839.000000	74.728900
838.000000	75.039000
837.000000	75.185500
836.000000	75.208100
835.000000	75.420000
834.000000	75.362800
833.000000	75.715000
832.000000	75.883500
831.000000	75.623600
830.000000	75.606000
829.000000	75.941300
828.000000	76.231100
827.000000	76.387400
826.000000	76.423300
825.000000	76.381300
824.000000	76.563600
823.000000	76.738900
822.000000	77.006400
821.000000	77.056400
820.000000	77.164300
819.000000	77.314700
818.000000	77.541100
817.000000	77.664100
816.000000	77.653100
815.000000	77.758100
814.000000	77.949500
813.000000	78.032100
812.000000	78.125900
811.000000	78.329600
810.000000	78.438700
809.000000	78.675300
808.000000	78.648100
807.000000	78.880100
806.000000	79.147000
805.000000	79.145300
804.000000	79.273300
803.000000	79.252400
802.000000	79.464600
801.000000	79.677500
800.000000	79.669000
799.000000	79.737500
798.000000	79.925400
797.000000	80.109600
796.000000	80.083400
795.000000	80.194400
794.000000	80.306900
793.000000	80.477500
792.000000	80.425000
791.000000	80.552500
790.000000	80.633400
789.000000	80.626400
788.000000	80.711500
787.000000	80.841200
786.000000	80.904700
785.000000	80.815700
784.000000	80.960300
783.000000	80.902700
782.000000	80.810100
781.000000	80.889700
780.000000	80.853000
779.000000	80.880200
778.000000	80.883200
777.000000	80.973100
776.000000	81.082400
775.000000	81.023000
774.000000	80.873400
773.000000	80.856800
772.000000	80.924700
771.000000	80.927800
770.000000	80.855700
769.000000	80.782200
768.000000	80.666300
767.000000	80.521000
766.000000	80.543400
765.000000	80.500400
764.000000	80.308000
763.000000	80.196400
762.000000	80.057200
761.000000	79.909200
760.000000	79.892900
759.000000	79.759600
758.000000	79.543600
757.000000	79.318400
756.000000	79.116900
755.000000	78.997400
754.000000	78.853700
753.000000	78.773300
752.000000	78.590600
751.000000	78.346000
750.000000	78.176100
749.000000	78.026300
748.000000	77.822800
747.000000	77.575200
746.000000	77.446100
745.000000	77.279900
744.000000	77.036000
743.000000	76.865700
742.000000	76.739000
741.000000	76.598600
740.000000	76.408400
739.000000	76.300800
738.000000	76.128500
737.000000	75.885900
736.000000	75.796200
735.000000	75.671500
734.000000	75.479500
733.000000	75.361200
732.000000	75.262600
731.000000	75.255100
730.000000	75.151800
729.000000	75.044800
728.000000	75.020700
727.000000	74.991200
726.000000	74.860800
725.000000	74.825900
724.000000	74.874200
723.000000	74.784200
722.000000	74.728500
721.000000	74.712100
720.000000	74.723800
719.000000	74.810600
718.000000	74.821900
717.000000	74.841900
716.000000	74.835900
715.000000	74.889700
714.000000	74.984700
713.000000	74.965100
712.000000	74.980800
711.000000	75.077500
710.000000	75.131700
709.000000	75.122300
708.000000	75.155900
707.000000	75.200100
706.000000	75.190400
705.000000	75.159600
704.000000	75.220300
703.000000	75.170500
702.000000	75.104200
701.000000	75.041400
700.000000	75.046300
699.000000	74.896900
698.000000	74.775000
697.000000	74.645800
696.000000	74.557600
695.000000	74.444300
694.000000	74.296200
693.000000	74.136300
692.000000	73.965000
691.000000	73.744000
690.000000	73.572700
689.000000	73.420500
688.000000	73.120000
687.000000	72.881500
686.000000	72.620900
685.000000	72.285400
684.000000	71.944000
683.000000	71.623000
682.000000	71.291600
681.000000	70.897000
680.000000	70.523900
679.000000	70.128800
678.000000	69.682800
677.000000	69.159800
676.000000	68.694900
675.000000	68.109100
674.000000	67.585000
673.000000	66.984700
672.000000	66.398600
671.000000	65.751300
670.000000	65.100300
669.000000	64.476100
668.000000	63.780700
667.000000	63.189600
666.000000	62.570600
665.000000	61.912400
664.000000	61.313800
663.000000	60.694300
662.000000	60.099900
661.000000	59.560300
660.000000	58.955400
659.000000	58.398400
658.000000	57.904000
657.000000	57.463600
656.000000	57.010300
655.000000	56.620400
654.000000	56.266200
653.000000	55.924900
652.000000	55.622000
651.000000	55.353900
650.000000	55.033000
649.000000	54.870600
648.000000	54.803000
647.000000	54.672400
646.000000	54.580200
645.000000	54.585400
644.000000	54.655200
643.000000	54.710100
642.000000	54.879000
641.000000	55.092300
640.000000	55.402500
639.000000	55.738200
638.000000	56.080300
637.000000	56.508800
636.000000	56.964000
635.000000	57.494500
634.000000	58.068800
633.000000	58.650900
632.000000	59.331200
631.000000	59.950800
630.000000	60.575700
629.000000	61.255700
628.000000	61.871600
627.000000	62.524000
626.000000	63.182000
625.000000	63.835000
624.000000	64.452600
623.000000	65.061400
622.000000	65.664200
621.000000	66.281600
620.000000	66.857400
619.000000	67.459100
618.000000	68.093000
617.000000	68.694400
616.000000	69.237700
615.000000	69.838700
614.000000	70.368600
613.000000	70.889200
612.000000	71.506100
611.000000	72.123200
610.000000	72.690000
609.000000	73.279800
608.000000	73.818000
607.000000	74.373100
606.000000	74.802800
605.000000	75.359300
604.000000	75.828700
603.000000	76.265300
602.000000	76.748400
601.000000	77.184400
600.000000	77.563900
599.000000	77.999300
598.000000	78.311900
597.000000	78.658000
596.000000	78.930900
595.000000	79.187100
594.000000	79.386500
593.000000	79.602000
592.000000	79.803800
591.000000	79.999700
590.000000	80.146400
589.000000	80.205300
588.000000	80.275700
587.000000	80.355600
586.000000	80.466500
585.000000	80.447600
584.000000	80.475400
583.000000	80.487100
582.000000	80.495300
581.000000	80.470200
580.000000	80.426300
579.000000	80.373700
578.000000	80.371700
577.000000	80.304500
576.000000	80.227400
575.000000	80.124000
574.000000	79.975500
573.000000	79.783600
572.000000	79.682000
571.000000	79.530600
570.000000	79.376800
569.000000	79.199600
568.000000	79.009100
567.000000	78.837300
566.000000	78.630200
565.000000	78.480800
564.000000	78.215900
563.000000	77.955700
562.000000	77.732100
561.000000	77.454500
560.000000	77.248900
559.000000	77.021700
558.000000	76.671600
557.000000	76.449700
556.000000	76.104400
555.000000	75.786700
554.000000	75.398100
553.000000	74.955400
552.000000	74.499700
551.000000	73.993600
550.000000	73.447700
549.000000	72.872100
548.000000	72.213600
547.000000	71.579000
546.000000	70.866700
545.000000	70.110000
544.000000	69.356100
543.000000	68.532800
542.000000	67.740100
541.000000	66.881700
540.000000	66.032000
539.000000	65.126200
538.000000	64.258500
537.000000	63.392000
536.000000	62.520000
535.000000	61.642400
534.000000	60.755400
533.000000	59.845200
532.000000	58.974300
531.000000	58.099000
530.000000	57.208000
529.000000	56.333500
528.000000	55.467600
527.000000	54.632800
526.000000	53.807500
525.000000	52.957300
524.000000	52.137400
523.000000	51.325600
522.000000	50.526100
521.000000	49.751800
520.000000	48.992200
519.000000	48.250200
518.000000	47.528200
517.000000	46.852400
516.000000	46.146900
515.000000	45.469500
514.000000	44.768000
513.000000	44.088600
512.000000	43.418000
511.000000	42.737900
510.000000	42.068300
509.000000	41.364300
508.000000	40.661700
507.000000	39.987400
506.000000	39.285200
505.000000	38.563000
504.000000	37.843300
503.000000	37.117000
502.000000	36.384000
501.000000	35.643300
500.000000	34.892500
499.000000	34.141400
498.000000	33.401100
497.000000	32.672100
496.000000	31.976800
495.000000	31.265600
494.000000	30.550500
493.000000	29.841400
492.000000	29.159700
491.000000	28.492900
490.000000	27.851200
489.000000	27.261100
488.000000	26.686100
487.000000	26.148600
486.000000	25.625700
485.000000	25.151100
484.000000	24.717300
483.000000	24.305300
482.000000	23.958300
481.000000	23.649100
480.000000	23.372000
479.000000	23.122700
478.000000	22.914800
477.000000	22.754800
476.000000	22.635700
475.000000	22.555000
474.000000	22.483500
473.000000	22.445100
472.000000	22.437500
471.000000	22.449400
470.000000	22.497600
469.000000	22.537500
468.000000	22.577100
467.000000	22.661800
466.000000	22.757400
465.000000	22.834600
464.000000	22.943700
463.000000	23.056200
462.000000	23.146400
461.000000	23.270500
460.000000	23.369300
459.000000	23.447000
458.000000	23.531900
457.000000	23.615500
456.000000	23.706800
455.000000	23.764400
454.000000	23.802000
453.000000	23.832900
452.000000	23.856600
451.000000	23.868700
450.000000	23.857900
449.000000	23.824700
448.000000	23.769900
447.000000	23.730700
446.000000	23.674800
445.000000	23.567700
444.000000	23.470600
443.000000	23.368300
442.000000	23.212400
441.000000	23.034600
440.000000	22.866200
439.000000	22.682000
438.000000	22.484500
437.000000	22.297900
436.000000	22.085700
435.000000	21.854900
434.000000	21.610000
433.000000	21.358000
432.000000	21.079900
431.000000	20.793000
430.000000	20.517500
429.000000	20.211400
428.000000	19.909800
427.000000	19.628800
426.000000	19.290900
425.000000	18.951900
424.000000	18.620700
423.000000	18.268900
422.000000	17.934600
421.000000	17.574200
420.000000	17.193200
419.000000	16.837400
418.000000	16.491800
417.000000	16.122000
416.000000	15.744700
415.000000	15.386200
414.000000	15.021300
413.000000	14.655400
412.000000	14.298600
411.000000	13.944500
410.000000	13.596400
409.000000	13.245800
408.000000	12.906800
407.000000	12.575200
406.000000	12.253900
405.000000	11.955300
404.000000	11.648100
403.000000	11.358200
402.000000	11.070400
401.000000	10.773300
400.000000	10.514000
399.000000	10.282700
398.000000	10.051700
397.000000	9.827600
396.000000	9.580500
395.000000	9.384300
394.000000	9.178300
393.000000	8.968300
392.000000	8.795200
391.000000	8.628600
390.000000	8.474300
389.000000	8.318200
388.000000	8.178700
387.000000	8.045200
386.000000	7.904200
385.000000	7.770500
384.000000	7.664500
383.000000	7.582300
382.000000	7.461300
381.000000	7.336200
380.000000	7.269500
379.000000	7.203400
378.000000	7.121600
377.000000	7.050100
376.000000	7.161100
375.000000	6.765900
374.000000	6.553200
373.000000	6.513200
372.000000	6.477700
371.000000	6.478500
370.000000	6.437000
369.000000	6.563800
368.000000	6.574200
367.000000	6.388900
366.000000	6.343400
365.000000	6.513300
364.000000	6.464700
363.000000	6.459600
362.000000	6.465400
361.000000	6.440100
360.000000	6.285800
359.000000	6.234300
358.000000	6.345000
357.000000	6.397100
356.000000	6.236500
355.000000	6.152600
354.000000	6.242800
353.000000	6.280800
352.000000	6.052100
351.000000	6.066700
350.000000	6.107300
349.000000	5.891400
348.000000	5.983100
347.000000	6.036400
346.000000	5.933800
345.000000	6.091300
344.000000	5.721600
343.000000	5.850600
342.000000	6.018800
341.000000	5.960200
340.000000	5.794700
339.000000	5.720100
338.000000	5.999800
337.000000	5.972400
336.000000	6.103300
335.000000	5.878000
334.000000	5.965800
333.000000	5.837200
332.000000	5.737600
331.000000	5.737600
330.000000	5.928500
329.000000	5.655800
328.000000	6.012400
327.000000	5.885100
326.000000	6.023600
325.000000	5.995600
324.000000	6.022300
323.000000	6.659500
322.000000	6.230300
321.000000	6.554800
320.000000	6.584900
319.000000	6.669700
318.000000	6.302200
317.000000	6.708800
316.000000	5.683300
315.000000	5.607700
314.000000	5.601900
313.000000	5.577200
312.000000	5.643000
311.000000	5.651700
310.000000	5.554700
309.000000	5.666100
308.000000	5.687300
307.000000	5.656700
306.000000	5.677000
305.000000	5.615800
304.000000	5.752000
303.000000	5.638400
302.000000	5.620900
301.000000	5.663900
300.000000	5.701900
299.000000	5.664800
298.000000	5.665600
297.000000	5.658100
296.000000	5.660200
295.000000	5.639600
294.000000	5.687700
293.000000	5.687500
292.000000	5.657000
291.000000	5.692900
290.000000	5.725600
289.000000	5.638300
288.000000	5.692400
287.000000	5.702300
286.000000	5.694100
285.000000	5.783100
284.000000	5.708500
283.000000	5.629100
282.000000	5.692300
281.000000	5.622400
280.000000	5.686200
279.000000	5.698600
278.000000	5.690500
277.000000	5.749900
276.000000	5.672600
275.000000	5.707300
274.000000	5.717700
273.000000	5.717600
272.000000	5.748600
271.000000	5.714800
270.000000	5.707500
269.000000	5.789300
268.000000	5.803300
267.000000	5.816700
266.000000	5.801800
265.000000	5.836800
264.000000	5.834000
263.000000	5.897800
262.000000	5.927100
261.000000	5.912700
260.000000	5.916900
259.000000	6.007000
258.000000	5.949100
257.000000	5.945200
256.000000	5.978300
255.000000	6.065400
254.000000	6.081800
253.000000	6.076200
252.000000	6.035400
251.000000	6.065500
250.000000	6.058000
