PE UV       SUBTECH     SPECTRUM    ASCII       PEDS        4.00        
   -1
INBUCR0146-1.Sample.ASC
24/04/29
14:50:17.00
24/04/29
14:50:17.00
Vinicio Soto Monge
Chrysina sp.
250,000000
1
Lambda 1050
1050L1511233
PerkinElmer UV WinLab 6.3.2.0749 / 2.02.05 Lambda 900 UV/VIS/NIR, Aug  7 2015 09:38:08

0
0
3350/servo 860,8/2
0
0
UV/VIS
1
1
1
DoubleDePol,CommonBeamDepol,RBeamAtt,SBeamAtt,60mm sphere, WB InGaAs Detector
0
0
0
0
Program
Program
3350/servo 860,8/2
3350/0,2 860,8/0,2
3350/0,2 860,8/0,2
0
15.00
 
 
 
0
 
860,8
319,2
860,8
Front
100
on
S:100 R:100
0
0
0
0
 
0
 
 
 
0
 
 
0
0
0
0
0
 
 
 
 
0
0


0
0
#HDR
-1
-1
#GR
nm
%R
1.0
0.0
2500,000000
-1,000000
2251
8
101,354600
5,945600
#DATA
2482.000000	13.981366
2481.000000	13.935358
2480.000000	13.931604
2479.000000	13.982760
2478.000000	14.027482
2477.000000	14.000349
2476.000000	14.068128
2475.000000	14.147060
2474.000000	14.091185
2473.000000	14.169367
2472.000000	14.194784
2471.000000	14.258703
2470.000000	14.275540
2469.000000	14.343641
2468.000000	14.364554
2467.000000	14.452817
2466.000000	14.526602
2465.000000	14.542688
2464.000000	14.595775
2463.000000	14.673206
2462.000000	14.764150
2461.000000	14.803616
2460.000000	14.899279
2459.000000	14.989258
2458.000000	15.067333
2457.000000	15.118167
2456.000000	15.234207
2455.000000	15.349388
2454.000000	15.434541
2453.000000	15.522697
2452.000000	15.639809
2451.000000	15.735472
2450.000000	15.844755
2449.000000	15.923580
2448.000000	16.047341
2447.000000	16.149332
2446.000000	16.249713
2445.000000	16.402431
2444.000000	16.500024
2443.000000	16.625501
2442.000000	16.731674
2441.000000	16.859510
2440.000000	16.977266
2439.000000	17.112073
2438.000000	17.209238
2437.000000	17.343723
2436.000000	17.457940
2435.000000	17.563898
2434.000000	17.673288
2433.000000	17.797908
2432.000000	17.885205
2431.000000	17.979581
2430.000000	18.070418
2429.000000	18.176698
2428.000000	18.297349
2427.000000	18.387221
2426.000000	18.475591
2425.000000	18.581657
2424.000000	18.654047
2423.000000	18.727725
2422.000000	18.806229
2421.000000	18.884518
2420.000000	18.967311
2419.000000	19.037128
2418.000000	19.104907
2417.000000	19.185556
2416.000000	19.252798
2415.000000	19.294088
2414.000000	19.337630
2413.000000	19.384174
2412.000000	19.429217
2411.000000	19.475762
2410.000000	19.522413
2409.000000	19.564668
2408.000000	19.605528
2407.000000	19.639096
2406.000000	19.668482
2405.000000	19.698617
2404.000000	19.709664
2403.000000	19.748165
2402.000000	19.767791
2401.000000	19.778944
2400.000000	19.751060
2399.000000	19.709771
2398.000000	19.698832
2397.000000	19.688858
2396.000000	19.714168
2395.000000	19.728539
2394.000000	19.736904
2393.000000	19.751918
2392.000000	19.749988
2391.000000	19.720281
2390.000000	19.691325
2389.000000	19.701299
2388.000000	19.702907
2387.000000	19.680600
2386.000000	19.659366
2385.000000	19.635021
2384.000000	19.589763
2383.000000	19.585152
2382.000000	19.582471
2381.000000	19.543970
2380.000000	19.515442
2379.000000	19.472973
2378.000000	19.417635
2377.000000	19.407661
2376.000000	19.404014
2375.000000	19.367229
2374.000000	19.320470
2373.000000	19.294410
2372.000000	19.264166
2371.000000	19.231886
2370.000000	19.224057
2369.000000	19.191990
2368.000000	19.152309
2367.000000	19.134507
2366.000000	19.135579
2365.000000	19.124640
2364.000000	19.079919
2363.000000	19.025116
2362.000000	18.996482
2361.000000	18.986937
2360.000000	18.982755
2359.000000	18.949187
2358.000000	18.890952
2357.000000	18.867787
2356.000000	18.862854
2355.000000	18.821457
2354.000000	18.770516
2353.000000	18.741238
2352.000000	18.696088
2351.000000	18.655442
2350.000000	18.627022
2349.000000	18.573828
2348.000000	18.522886
2347.000000	18.504011
2346.000000	18.449959
2345.000000	18.411137
2344.000000	18.392154
2343.000000	18.350436
2342.000000	18.316010
2341.000000	18.274935
2340.000000	18.237077
2339.000000	18.219596
2338.000000	18.179272
2337.000000	18.169835
2336.000000	18.144310
2335.000000	18.128009
2334.000000	18.126615
2333.000000	18.113852
2332.000000	18.095406
2331.000000	18.106131
2330.000000	18.129618
2329.000000	18.119858
2328.000000	18.139913
2327.000000	18.142058
2326.000000	18.154713
2325.000000	18.176269
2324.000000	18.186136
2323.000000	18.184205
2322.000000	18.203188
2321.000000	18.191820
2320.000000	18.180559
2319.000000	18.164258
2318.000000	18.172945
2317.000000	18.162327
2316.000000	18.119000
2315.000000	18.090795
2314.000000	18.063876
2313.000000	18.021085
2312.000000	17.992665
2311.000000	17.955987
2310.000000	17.915019
2309.000000	17.860324
2308.000000	17.826864
2307.000000	17.778174
2306.000000	17.725517
2305.000000	17.706534
2304.000000	17.710824
2303.000000	17.670929
2302.000000	17.647335
2301.000000	17.603043
2300.000000	17.589851
2299.000000	17.608083
2298.000000	17.617199
2297.000000	17.603686
2296.000000	17.597895
2295.000000	17.615376
2294.000000	17.606153
2293.000000	17.621382
2292.000000	17.667175
2291.000000	17.694952
2290.000000	17.702674
2289.000000	17.738494
2288.000000	17.768630
2287.000000	17.782893
2286.000000	17.803377
2285.000000	17.831904
2284.000000	17.880594
2283.000000	17.912446
2282.000000	17.950303
2281.000000	17.982155
2280.000000	18.009503
2279.000000	18.037386
2278.000000	18.068595
2277.000000	18.090044
2276.000000	18.124577
2275.000000	18.171550
2274.000000	18.163722
2273.000000	18.217022
2272.000000	18.225173
2271.000000	18.240402
2270.000000	18.292952
2269.000000	18.338103
2268.000000	18.378641
2267.000000	18.408027
2266.000000	18.477200
2265.000000	18.571147
2264.000000	18.653082
2263.000000	18.743705
2262.000000	18.856848
2261.000000	18.977928
2260.000000	19.125498
2259.000000	19.254193
2258.000000	19.417420
2257.000000	19.539787
2256.000000	19.730040
2255.000000	19.915682
2254.000000	20.085452
2253.000000	20.285893
2252.000000	20.458451
2251.000000	20.634655
2250.000000	20.826732
2249.000000	21.011408
2248.000000	21.166592
2247.000000	21.338721
2246.000000	21.488436
2245.000000	21.642869
2244.000000	21.767703
2243.000000	21.896719
2242.000000	22.005680
2241.000000	22.102201
2240.000000	22.205907
2239.000000	22.277225
2238.000000	22.315941
2237.000000	22.385436
2236.000000	22.424795
2235.000000	22.452572
2234.000000	22.454395
2233.000000	22.465012
2232.000000	22.465227
2231.000000	22.463725
2230.000000	22.436485
2229.000000	22.392407
2228.000000	22.351010
2227.000000	22.330419
2226.000000	22.273686
2225.000000	22.203977
2224.000000	22.125366
2223.000000	22.052546
2222.000000	21.976402
2221.000000	21.902617
2220.000000	21.821647
2219.000000	21.734457
2218.000000	21.661851
2217.000000	21.552783
2216.000000	21.460230
2215.000000	21.353628
2214.000000	21.309443
2213.000000	21.216461
2212.000000	21.169059
2211.000000	21.073718
2210.000000	20.992747
2209.000000	20.906629
2208.000000	20.850004
2207.000000	20.784155
2206.000000	20.734608
2205.000000	20.656748
2204.000000	20.606021
2203.000000	20.535453
2202.000000	20.498668
2201.000000	20.466280
2200.000000	20.408796
2199.000000	20.366542
2198.000000	20.331580
2197.000000	20.286537
2196.000000	20.245354
2195.000000	20.214789
2194.000000	20.175967
2193.000000	20.170604
2192.000000	20.133069
2191.000000	20.099608
2190.000000	20.080947
2189.000000	20.044591
2188.000000	20.018530
2187.000000	19.992363
2186.000000	19.966838
2185.000000	19.940134
2184.000000	19.922117
2183.000000	19.902598
2182.000000	19.885332
2181.000000	19.862488
2180.000000	19.852729
2179.000000	19.820234
2178.000000	19.802002
2177.000000	19.790956
2176.000000	19.784199
2175.000000	19.789133
2174.000000	19.785486
2173.000000	19.783449
2172.000000	19.805541
2171.000000	19.817874
2170.000000	19.837286
2169.000000	19.856804
2168.000000	19.889729
2167.000000	19.941207
2166.000000	19.969198
2165.000000	20.021426
2164.000000	20.071188
2163.000000	20.122022
2162.000000	20.191196
2161.000000	20.240207
2160.000000	20.323536
2159.000000	20.403220
2158.000000	20.479149
2157.000000	20.574062
2156.000000	20.686776
2155.000000	20.800886
2154.000000	20.912313
2153.000000	21.006582
2152.000000	21.139459
2151.000000	21.265151
2150.000000	21.383871
2149.000000	21.521467
2148.000000	21.655738
2147.000000	21.780787
2146.000000	21.914522
2145.000000	22.042144
2144.000000	22.179525
2143.000000	22.310150
2142.000000	22.428012
2141.000000	22.564750
2140.000000	22.690120
2139.000000	22.814418
2138.000000	22.945042
2137.000000	23.048213
2136.000000	23.158890
2135.000000	23.272677
2134.000000	23.370485
2133.000000	23.471403
2132.000000	23.567816
2131.000000	23.664337
2130.000000	23.746916
2129.000000	23.813516
2128.000000	23.893735
2127.000000	23.979102
2126.000000	24.051922
2125.000000	24.103722
2124.000000	24.160991
2123.000000	24.220834
2122.000000	24.268236
2121.000000	24.329366
2120.000000	24.380093
2119.000000	24.413661
2118.000000	24.458168
2117.000000	24.481011
2116.000000	24.498385
2115.000000	24.523802
2114.000000	24.565627
2113.000000	24.578068
2112.000000	24.575172
2111.000000	24.589972
2110.000000	24.591581
2109.000000	24.595871
2108.000000	24.603807
2107.000000	24.594798
2106.000000	24.591152
2105.000000	24.593297
2104.000000	24.597265
2103.000000	24.598337
2102.000000	24.586433
2101.000000	24.575387
2100.000000	24.579891
2099.000000	24.590830
2098.000000	24.606595
2097.000000	24.620752
2096.000000	24.628795
2095.000000	24.637053
2094.000000	24.659467
2093.000000	24.684563
2092.000000	24.708693
2091.000000	24.741617
2090.000000	24.765640
2089.000000	24.786446
2088.000000	24.813579
2087.000000	24.820871
2086.000000	24.820657
2085.000000	24.832025
2084.000000	24.830524
2083.000000	24.815402
2082.000000	24.798243
2081.000000	24.774970
2080.000000	24.716414
2079.000000	24.651638
2078.000000	24.601340
2077.000000	24.537851
2076.000000	24.461921
2075.000000	24.385562
2074.000000	24.294297
2073.000000	24.176434
2072.000000	24.068009
2071.000000	23.943711
2070.000000	23.819200
2069.000000	23.692757
2068.000000	23.563956
2067.000000	23.423786
2066.000000	23.286941
2065.000000	23.140229
2064.000000	22.994161
2063.000000	22.869327
2062.000000	22.740954
2061.000000	22.622770
2060.000000	22.499760
2059.000000	22.388975
2058.000000	22.307469
2057.000000	22.234864
2056.000000	22.180597
2055.000000	22.144348
2054.000000	22.141882
2053.000000	22.169766
2052.000000	22.208159
2051.000000	22.278405
2050.000000	22.377178
2049.000000	22.491609
2048.000000	22.612689
2047.000000	22.759722
2046.000000	22.941825
2045.000000	23.119102
2044.000000	23.295735
2043.000000	23.499501
2042.000000	23.680639
2041.000000	23.872393
2040.000000	24.047847
2039.000000	24.245822
2038.000000	24.425994
2037.000000	24.611207
2036.000000	24.768536
2035.000000	24.954606
2034.000000	25.107967
2033.000000	25.237091
2032.000000	25.401927
2031.000000	25.532230
2030.000000	25.657171
2029.000000	25.811283
2028.000000	25.934293
2027.000000	26.048080
2026.000000	26.137309
2025.000000	26.245948
2024.000000	26.368959
2023.000000	26.434593
2022.000000	26.524250
2021.000000	26.595461
2020.000000	26.673643
2019.000000	26.757294
2018.000000	26.817673
2017.000000	26.854887
2016.000000	26.898751
2015.000000	26.957950
2014.000000	26.996666
2013.000000	27.022297
2012.000000	27.022405
2011.000000	27.044604
2010.000000	27.063051
2009.000000	27.042138
2008.000000	27.020903
2007.000000	27.009964
2006.000000	26.987872
2005.000000	26.947976
2004.000000	26.902719
2003.000000	26.840945
2002.000000	26.787752
2001.000000	26.744210
2000.000000	26.679112
1999.000000	26.582913
1998.000000	26.522641
1997.000000	26.433306
1996.000000	26.352657
1995.000000	26.244661
1994.000000	26.145674
1993.000000	26.049475
1992.000000	25.945018
1991.000000	25.851714
1990.000000	25.726880
1989.000000	25.616310
1988.000000	25.513140
1987.000000	25.376403
1986.000000	25.273018
1985.000000	25.137996
1984.000000	25.018632
1983.000000	24.900448
1982.000000	24.793738
1981.000000	24.673624
1980.000000	24.552758
1979.000000	24.440472
1978.000000	24.306415
1977.000000	24.194344
1976.000000	24.066722
1975.000000	23.961729
1974.000000	23.860596
1973.000000	23.771904
1972.000000	23.648465
1971.000000	23.531138
1970.000000	23.419067
1969.000000	23.343674
1968.000000	23.235999
1967.000000	23.114812
1966.000000	23.014216
1965.000000	22.937106
1964.000000	22.788786
1963.000000	22.707065
1962.000000	22.583733
1961.000000	22.470803
1960.000000	22.344790
1959.000000	22.246768
1958.000000	22.133946
1957.000000	22.025628
1956.000000	21.930930
1955.000000	21.823148
1954.000000	21.687590
1953.000000	21.596003
1952.000000	21.454117
1951.000000	21.366927
1950.000000	21.261075
1949.000000	21.188899
1948.000000	21.079080
1947.000000	20.986635
1946.000000	20.904699
1945.000000	20.813648
1944.000000	20.740721
1943.000000	20.665971
1942.000000	20.611597
1941.000000	20.580925
1940.000000	20.517329
1939.000000	20.511859
1938.000000	20.445474
1937.000000	20.450944
1936.000000	20.445689
1935.000000	20.436466
1934.000000	20.450622
1933.000000	20.476683
1932.000000	20.506282
1931.000000	20.548752
1930.000000	20.596261
1929.000000	20.685060
1928.000000	20.808285
1927.000000	20.886682
1926.000000	21.012910
1925.000000	21.115436
1924.000000	21.245310
1923.000000	21.379796
1922.000000	21.586029
1921.000000	21.815856
1920.000000	22.028952
1919.000000	22.233040
1918.000000	22.454717
1917.000000	22.666526
1916.000000	22.886701
1915.000000	23.177550
1914.000000	23.545617
1913.000000	23.938671
1912.000000	24.331082
1911.000000	24.664615
1910.000000	25.034075
1909.000000	25.397315
1908.000000	25.829729
1907.000000	26.315872
1906.000000	26.926313
1905.000000	27.574504
1904.000000	28.173040
1903.000000	28.753774
1902.000000	29.392849
1901.000000	30.029243
1900.000000	30.792294
1899.000000	31.574757
1898.000000	32.290620
1897.000000	32.981709
1896.000000	33.606628
1895.000000	34.231976
1894.000000	34.904082
1893.000000	35.636676
1892.000000	36.456245
1891.000000	37.205354
1890.000000	37.882501
1889.000000	38.532623
1888.000000	39.171805
1887.000000	39.764229
1886.000000	40.343139
1885.000000	40.900172
1884.000000	41.475114
1883.000000	42.000724
1882.000000	42.427346
1881.000000	42.854183
1880.000000	43.241124
1879.000000	43.615089
1878.000000	43.996024
1877.000000	44.344357
1876.000000	44.694942
1875.000000	45.024615
1874.000000	45.348925
1873.000000	45.665406
1872.000000	45.935986
1871.000000	46.168708
1870.000000	46.366576
1869.000000	46.548035
1868.000000	46.696463
1867.000000	46.792877
1866.000000	46.847035
1865.000000	46.907093
1864.000000	46.965649
1863.000000	47.055199
1862.000000	47.178960
1861.000000	47.290602
1860.000000	47.411790
1859.000000	47.511421
1858.000000	47.580594
1857.000000	47.631750
1856.000000	47.656309
1855.000000	47.701030
1854.000000	47.750042
1853.000000	47.749398
1852.000000	47.759586
1851.000000	47.789293
1850.000000	47.823076
1849.000000	47.851388
1848.000000	47.892892
1847.000000	47.871980
1846.000000	47.793369
1845.000000	47.716045
1844.000000	47.661671
1843.000000	47.667892
1842.000000	47.689019
1841.000000	47.688912
1840.000000	47.671109
1839.000000	47.624993
1838.000000	47.568153
1837.000000	47.520322
1836.000000	47.458978
1835.000000	47.374039
1834.000000	47.294892
1833.000000	47.227328
1832.000000	47.174670
1831.000000	47.149467
1830.000000	47.125873
1829.000000	47.096488
1828.000000	47.044474
1827.000000	47.018950
1826.000000	46.992031
1825.000000	46.941948
1824.000000	46.918568
1823.000000	46.955568
1822.000000	47.011657
1821.000000	47.057022
1820.000000	47.059596
1819.000000	47.012622
1818.000000	46.990208
1817.000000	46.986991
1816.000000	46.966936
1815.000000	46.954388
1814.000000	46.947203
1813.000000	46.933368
1812.000000	46.919104
1811.000000	46.887896
1810.000000	46.829876
1809.000000	46.787407
1808.000000	46.768854
1807.000000	46.754912
1806.000000	46.712550
1805.000000	46.663217
1804.000000	46.649489
1803.000000	46.658713
1802.000000	46.649060
1801.000000	46.610881
1800.000000	46.573560
1799.000000	46.537847
1798.000000	46.508676
1797.000000	46.484010
1796.000000	46.455268
1795.000000	46.427277
1794.000000	46.404863
1793.000000	46.391457
1792.000000	46.379875
1791.000000	46.354243
1790.000000	46.350704
1789.000000	46.362179
1788.000000	46.372689
1787.000000	46.375906
1786.000000	46.383628
1785.000000	46.378373
1784.000000	46.367863
1783.000000	46.357568
1782.000000	46.353170
1781.000000	46.334724
1780.000000	46.304696
1779.000000	46.276705
1778.000000	46.225441
1777.000000	46.162166
1776.000000	46.112297
1775.000000	46.048272
1774.000000	45.993791
1773.000000	45.931696
1772.000000	45.861236
1771.000000	45.809544
1770.000000	45.751095
1769.000000	45.692217
1768.000000	45.659507
1767.000000	45.609638
1766.000000	45.565560
1765.000000	45.528453
1764.000000	45.499497
1763.000000	45.486306
1762.000000	45.466573
1761.000000	45.456277
1760.000000	45.437080
1759.000000	45.429895
1758.000000	45.429466
1757.000000	45.437724
1756.000000	45.425498
1755.000000	45.428608
1754.000000	45.423782
1753.000000	45.413701
1752.000000	45.415631
1751.000000	45.392895
1750.000000	45.364583
1749.000000	45.310102
1748.000000	45.260018
1747.000000	45.185804
1746.000000	45.085745
1745.000000	45.007563
1744.000000	44.893025
1743.000000	44.782026
1742.000000	44.671348
1741.000000	44.536863
1740.000000	44.425971
1739.000000	44.314650
1738.000000	44.205045
1737.000000	44.105522
1736.000000	44.016508
1735.000000	43.933929
1734.000000	43.854889
1733.000000	43.781212
1732.000000	43.711931
1731.000000	43.626778
1730.000000	43.553422
1729.000000	43.472345
1728.000000	43.381937
1727.000000	43.315123
1726.000000	43.272332
1725.000000	43.239515
1724.000000	43.265683
1723.000000	43.302468
1722.000000	43.423441
1721.000000	43.598144
1720.000000	43.835800
1719.000000	44.111849
1718.000000	44.396586
1717.000000	44.720788
1716.000000	45.013676
1715.000000	45.323186
1714.000000	45.587546
1713.000000	45.833030
1712.000000	46.057709
1711.000000	46.252789
1710.000000	46.460309
1709.000000	46.604125
1708.000000	46.755233
1707.000000	46.880174
1706.000000	46.978197
1705.000000	47.070642
1704.000000	47.155044
1703.000000	47.190542
1702.000000	47.226791
1701.000000	47.268295
1700.000000	47.280950
1699.000000	47.292533
1698.000000	47.284811
1697.000000	47.268081
1696.000000	47.198908
1695.000000	47.127375
1694.000000	47.032355
1693.000000	46.912241
1692.000000	46.757915
1691.000000	46.654744
1690.000000	46.553505
1689.000000	46.513395
1688.000000	46.511143
1687.000000	46.608951
1686.000000	46.751694
1685.000000	46.942806
1684.000000	47.167377
1683.000000	47.469702
1682.000000	47.744894
1681.000000	48.024054
1680.000000	48.315654
1679.000000	48.549985
1678.000000	48.782386
1677.000000	49.015323
1676.000000	49.203860
1675.000000	49.433043
1674.000000	49.631233
1673.000000	49.820092
1672.000000	50.038980
1671.000000	50.271488
1670.000000	50.503781
1669.000000	50.728568
1668.000000	50.975768
1667.000000	51.211601
1666.000000	51.415367
1665.000000	51.632968
1664.000000	51.826117
1663.000000	52.034066
1662.000000	52.199653
1661.000000	52.390120
1660.000000	52.545733
1659.000000	52.702312
1658.000000	52.843554
1657.000000	52.936965
1656.000000	53.047749
1655.000000	53.150168
1654.000000	53.204113
1653.000000	53.277469
1652.000000	53.324657
1651.000000	53.379566
1650.000000	53.399728
1649.000000	53.424395
1648.000000	53.444235
1647.000000	53.453458
1646.000000	53.459142
1645.000000	53.441554
1644.000000	53.457426
1643.000000	53.454745
1642.000000	53.435441
1641.000000	53.444664
1640.000000	53.452922
1639.000000	53.431366
1638.000000	53.437264
1637.000000	53.435119
1636.000000	53.404233
1635.000000	53.361120
1634.000000	53.361013
1633.000000	53.329375
1632.000000	53.287657
1631.000000	53.254411
1630.000000	53.204220
1629.000000	53.158426
1628.000000	53.142447
1627.000000	53.083891
1626.000000	53.027158
1625.000000	52.984260
1624.000000	52.942112
1623.000000	52.889562
1622.000000	52.843125
1621.000000	52.804516
1620.000000	52.778456
1619.000000	52.733306
1618.000000	52.692981
1617.000000	52.650727
1616.000000	52.603753
1615.000000	52.559139
1614.000000	52.507125
1613.000000	52.475488
1612.000000	52.426584
1611.000000	52.356124
1610.000000	52.293492
1609.000000	52.229038
1608.000000	52.163404
1607.000000	52.081468
1606.000000	51.986770
1605.000000	51.905049
1604.000000	51.824830
1603.000000	51.733886
1602.000000	51.641762
1601.000000	51.553392
1600.000000	51.473387
1599.000000	51.386089
1598.000000	51.308229
1597.000000	51.219859
1596.000000	51.160338
1595.000000	51.098028
1594.000000	51.033359
1593.000000	50.969655
1592.000000	50.909598
1591.000000	50.850613
1590.000000	50.810074
1589.000000	50.762886
1588.000000	50.713339
1587.000000	50.656499
1586.000000	50.601911
1585.000000	50.565340
1584.000000	50.519975
1583.000000	50.468498
1582.000000	50.421739
1581.000000	50.380449
1580.000000	50.360609
1579.000000	50.346238
1578.000000	50.325325
1577.000000	50.312348
1576.000000	50.316424
1575.000000	50.317389
1574.000000	50.315887
1573.000000	50.327684
1572.000000	50.346667
1571.000000	50.379162
1570.000000	50.407046
1569.000000	50.428066
1568.000000	50.466353
1567.000000	50.506141
1566.000000	50.533917
1565.000000	50.562016
1564.000000	50.579282
1563.000000	50.598693
1562.000000	50.607917
1561.000000	50.600195
1560.000000	50.595798
1559.000000	50.578424
1558.000000	50.546679
1557.000000	50.504318
1556.000000	50.449408
1555.000000	50.395142
1554.000000	50.330258
1553.000000	50.250575
1552.000000	50.159845
1551.000000	50.070939
1550.000000	49.980424
1549.000000	49.863741
1548.000000	49.750811
1547.000000	49.663406
1546.000000	49.590158
1545.000000	49.523987
1544.000000	49.450095
1543.000000	49.388751
1542.000000	49.347462
1541.000000	49.302526
1540.000000	49.244720
1539.000000	49.189596
1538.000000	49.138011
1537.000000	49.095649
1536.000000	49.046209
1535.000000	48.982827
1534.000000	48.907112
1533.000000	48.841585
1532.000000	48.768336
1531.000000	48.698734
1530.000000	48.620981
1529.000000	48.552023
1528.000000	48.475235
1527.000000	48.384934
1526.000000	48.300854
1525.000000	48.219026
1524.000000	48.136876
1523.000000	48.053332
1522.000000	47.972576
1521.000000	47.882168
1520.000000	47.798945
1519.000000	47.711755
1518.000000	47.611802
1517.000000	47.523861
1516.000000	47.434311
1515.000000	47.340150
1514.000000	47.226791
1513.000000	47.133381
1512.000000	47.042866
1511.000000	46.943985
1510.000000	46.834273
1509.000000	46.735286
1508.000000	46.643484
1507.000000	46.546534
1506.000000	46.457413
1505.000000	46.364324
1504.000000	46.289145
1503.000000	46.200131
1502.000000	46.122700
1501.000000	46.059962
1500.000000	46.002049
1499.000000	45.964835
1498.000000	45.920864
1497.000000	45.897914
1496.000000	45.888047
1495.000000	45.880862
1494.000000	45.888369
1493.000000	45.899415
1492.000000	45.917969
1491.000000	45.947890
1490.000000	45.960331
1489.000000	45.999690
1488.000000	46.050953
1487.000000	46.079587
1486.000000	46.121306
1485.000000	46.133317
1484.000000	46.173320
1483.000000	46.227157
1482.000000	46.277884
1481.000000	46.330542
1480.000000	46.388990
1479.000000	46.438323
1478.000000	46.490874
1477.000000	46.556615
1476.000000	46.633295
1475.000000	46.710298
1474.000000	46.791053
1473.000000	46.919212
1472.000000	47.032784
1471.000000	47.158047
1470.000000	47.229472
1469.000000	47.309907
1468.000000	47.435062
1467.000000	47.547777
1466.000000	47.667999
1465.000000	47.787148
1464.000000	47.913055
1463.000000	48.016117
1462.000000	48.161328
1461.000000	48.273721
1460.000000	48.384720
1459.000000	48.521350
1458.000000	48.636854
1457.000000	48.780455
1456.000000	48.892527
1455.000000	49.017575
1454.000000	49.136403
1453.000000	49.267349
1452.000000	49.398939
1451.000000	49.511333
1450.000000	49.628123
1449.000000	49.710058
1448.000000	49.831031
1447.000000	49.977850
1446.000000	50.125634
1445.000000	50.229448
1444.000000	50.317925
1443.000000	50.435895
1442.000000	50.572847
1441.000000	50.680843
1440.000000	50.821228
1439.000000	50.991319
1438.000000	51.119048
1437.000000	51.257395
1436.000000	51.401211
1435.000000	51.558325
1434.000000	51.765845
1433.000000	51.958779
1432.000000	52.146673
1431.000000	52.302715
1430.000000	52.474844
1429.000000	52.728265
1428.000000	52.966993
1427.000000	53.163574
1426.000000	53.437264
1425.000000	53.711920
1424.000000	54.046311
1423.000000	54.320966
1422.000000	54.570633
1421.000000	54.911781
1420.000000	55.289714
1419.000000	55.608554
1418.000000	55.915383
1417.000000	56.243876
1416.000000	56.665886
1415.000000	57.134763
1414.000000	57.567820
1413.000000	57.961732
1412.000000	58.328726
1411.000000	58.825809
1410.000000	59.358175
1409.000000	59.846034
1408.000000	60.334537
1407.000000	60.786254
1406.000000	61.268966
1405.000000	61.741274
1404.000000	62.225273
1403.000000	62.619399
1402.000000	63.102004
1401.000000	63.647990
1400.000000	64.092737
1399.000000	64.369001
1398.000000	64.674328
1397.000000	65.113927
1396.000000	65.647795
1395.000000	65.950977
1394.000000	66.217911
1393.000000	66.520236
1392.000000	66.856879
1391.000000	67.173896
1390.000000	67.461528
1389.000000	67.857586
1388.000000	68.218681
1387.000000	68.500736
1386.000000	68.797055
1385.000000	69.085009
1384.000000	69.421974
1383.000000	69.703708
1382.000000	69.942650
1381.000000	70.097942
1380.000000	70.185454
1379.000000	70.283691
1378.000000	70.370667
1377.000000	70.477912
1376.000000	70.596097
1375.000000	70.719214
1374.000000	70.843941
1373.000000	71.008562
1372.000000	71.193990
1371.000000	71.337055
1370.000000	71.448268
1369.000000	71.604096
1368.000000	71.751237
1367.000000	71.869099
1366.000000	71.971411
1365.000000	72.096888
1364.000000	72.221615
1363.000000	72.347414
1362.000000	72.449833
1361.000000	72.509890
1360.000000	72.488656
1359.000000	72.564693
1358.000000	72.632150
1357.000000	72.728242
1356.000000	72.858223
1355.000000	73.011584
1354.000000	73.127517
1353.000000	73.253101
1352.000000	73.468986
1351.000000	73.680045
1350.000000	73.883918
1349.000000	74.103235
1348.000000	74.343572
1347.000000	74.540474
1346.000000	74.731264
1345.000000	74.950903
1344.000000	75.141370
1343.000000	75.310067
1342.000000	75.508042
1341.000000	75.682209
1340.000000	75.842755
1339.000000	75.989574
1338.000000	76.123416
1337.000000	76.259618
1336.000000	76.396570
1335.000000	76.529662
1334.000000	76.641197
1333.000000	76.748550
1332.000000	76.860836
1331.000000	76.953281
1330.000000	77.051196
1329.000000	77.140210
1328.000000	77.220858
1327.000000	77.291211
1326.000000	77.355451
1325.000000	77.409610
1324.000000	77.461517
1323.000000	77.520931
1322.000000	77.578307
1321.000000	77.637507
1320.000000	77.696813
1319.000000	77.745396
1318.000000	77.766523
1317.000000	77.807169
1316.000000	77.864974
1315.000000	77.901330
1314.000000	77.947017
1313.000000	77.990022
1312.000000	78.007825
1311.000000	78.033028
1310.000000	78.068740
1309.000000	78.096410
1308.000000	78.113676
1307.000000	78.140273
1306.000000	78.163331
1305.000000	78.170623
1304.000000	78.174484
1303.000000	78.175878
1302.000000	78.180168
1301.000000	78.180276
1300.000000	78.181777
1299.000000	78.179632
1298.000000	78.167621
1297.000000	78.165690
1296.000000	78.165797
1295.000000	78.136305
1294.000000	78.111638
1293.000000	78.092871
1292.000000	78.077749
1291.000000	78.060804
1290.000000	78.016834
1289.000000	77.987341
1288.000000	77.959457
1287.000000	77.920313
1286.000000	77.891571
1285.000000	77.864331
1284.000000	77.813496
1283.000000	77.769418
1282.000000	77.730917
1281.000000	77.693167
1280.000000	77.671396
1279.000000	77.642547
1278.000000	77.617666
1277.000000	77.604904
1276.000000	77.589246
1275.000000	77.584742
1274.000000	77.580238
1273.000000	77.570157
1272.000000	77.575304
1271.000000	77.570478
1270.000000	77.568548
1269.000000	77.574983
1268.000000	77.592893
1267.000000	77.601043
1266.000000	77.600078
1265.000000	77.611017
1264.000000	77.598898
1263.000000	77.606727
1262.000000	77.616808
1261.000000	77.609623
1260.000000	77.603832
1259.000000	77.608765
1258.000000	77.601258
1257.000000	77.591498
1256.000000	77.590426
1255.000000	77.587423
1254.000000	77.572838
1253.000000	77.554070
1252.000000	77.521253
1251.000000	77.479749
1250.000000	77.430201
1249.000000	77.397384
1248.000000	77.354486
1247.000000	77.294214
1246.000000	77.234586
1245.000000	77.171418
1244.000000	77.111468
1243.000000	77.059347
1242.000000	77.000255
1241.000000	76.923574
1240.000000	76.867699
1239.000000	76.806355
1238.000000	76.765387
1237.000000	76.694391
1236.000000	76.649991
1235.000000	76.595082
1234.000000	76.543282
1233.000000	76.490839
1232.000000	76.429387
1231.000000	76.376408
1230.000000	76.322786
1229.000000	76.260583
1228.000000	76.205245
1227.000000	76.146689
1226.000000	76.086202
1225.000000	76.031400
1224.000000	75.997296
1223.000000	75.944853
1222.000000	75.885439
1221.000000	75.832889
1220.000000	75.776907
1219.000000	75.733150
1218.000000	75.689180
1217.000000	75.634163
1216.000000	75.596949
1215.000000	75.544291
1214.000000	75.489918
1213.000000	75.431469
1212.000000	75.384281
1211.000000	75.328514
1210.000000	75.274569
1209.000000	75.207863
1208.000000	75.133112
1207.000000	75.076701
1206.000000	75.037557
1205.000000	74.974818
1204.000000	74.920659
1203.000000	74.845266
1202.000000	74.805371
1201.000000	74.738128
1200.000000	74.667560
1199.000000	74.598494
1198.000000	74.531466
1197.000000	74.439020
1196.000000	74.364378
1195.000000	74.279868
1194.000000	74.188924
1193.000000	74.115997
1192.000000	74.024302
1191.000000	73.952770
1190.000000	73.882739
1189.000000	73.850350
1188.000000	73.804878
1187.000000	73.803377
1186.000000	73.815067
1185.000000	73.818606
1184.000000	73.839411
1183.000000	73.872979
1182.000000	73.922527
1181.000000	73.966819
1180.000000	74.033633
1179.000000	74.097980
1178.000000	74.137446
1177.000000	74.210802
1176.000000	74.245442
1175.000000	74.306572
1174.000000	74.384218
1173.000000	74.436446
1172.000000	74.543263
1171.000000	74.614152
1170.000000	74.696624
1169.000000	74.816846
1168.000000	74.940500
1167.000000	75.039166
1166.000000	75.190382
1165.000000	75.313177
1164.000000	75.468147
1163.000000	75.591479
1162.000000	75.724571
1161.000000	75.865169
1160.000000	75.987536
1159.000000	76.125454
1158.000000	76.250288
1157.000000	76.363968
1156.000000	76.476575
1155.000000	76.585751
1154.000000	76.686991
1153.000000	76.728495
1152.000000	76.802280
1151.000000	76.866412
1150.000000	76.917676
1149.000000	76.982881
1148.000000	77.035967
1147.000000	77.074897
1146.000000	77.118653
1145.000000	77.165841
1144.000000	77.203056
1143.000000	77.275661
1142.000000	77.334109
1141.000000	77.409288
1140.000000	77.481679
1139.000000	77.573267
1138.000000	77.666892
1137.000000	77.778534
1136.000000	77.885136
1135.000000	78.015118
1134.000000	78.101772
1133.000000	78.126009
1132.000000	78.193788
1131.000000	78.279906
1130.000000	78.385007
1129.000000	78.428870
1128.000000	78.485818
1127.000000	78.527214
1126.000000	78.580301
1125.000000	78.621054
1124.000000	78.641216
1123.000000	78.657839
1122.000000	78.648187
1121.000000	78.640680
1120.000000	78.642074
1119.000000	78.624486
1118.000000	78.608399
1117.000000	78.594028
1116.000000	78.573115
1115.000000	78.545339
1114.000000	78.528287
1113.000000	78.521745
1112.000000	78.488821
1111.000000	78.470911
1110.000000	78.451070
1109.000000	78.437235
1108.000000	78.404097
1107.000000	78.382004
1106.000000	78.357767
1105.000000	78.333100
1104.000000	78.312402
1103.000000	78.294277
1102.000000	78.245266
1101.000000	78.245159
1100.000000	78.206014
1099.000000	78.189606
1098.000000	78.162902
1097.000000	78.121612
1096.000000	78.096302
1095.000000	78.080323
1094.000000	78.037210
1093.000000	78.006753
1092.000000	77.985518
1091.000000	77.952808
1090.000000	77.918919
1089.000000	77.885458
1088.000000	77.855215
1087.000000	77.814140
1086.000000	77.789259
1085.000000	77.757300
1084.000000	77.714080
1083.000000	77.688019
1082.000000	77.661422
1081.000000	77.626139
1080.000000	77.599006
1079.000000	77.551603
1078.000000	77.517177
1077.000000	77.485111
1076.000000	77.448648
1075.000000	77.408323
1074.000000	77.368964
1073.000000	77.321562
1072.000000	77.282417
1071.000000	77.244774
1070.000000	77.213244
1069.000000	77.151578
1068.000000	77.105677
1067.000000	77.085300
1066.000000	77.050338
1065.000000	76.992962
1064.000000	76.967116
1063.000000	76.930867
1062.000000	76.894189
1061.000000	76.847430
1060.000000	76.809787
1059.000000	76.773216
1058.000000	76.745332
1057.000000	76.717127
1056.000000	76.675945
1055.000000	76.623716
1054.000000	76.592937
1053.000000	76.557438
1052.000000	76.533308
1051.000000	76.510250
1050.000000	76.474323
1049.000000	76.439897
1048.000000	76.419628
1047.000000	76.392924
1046.000000	76.349275
1045.000000	76.328791
1044.000000	76.321606
1043.000000	76.293400
1042.000000	76.264337
1041.000000	76.237418
1040.000000	76.213502
1039.000000	76.185833
1038.000000	76.151193
1037.000000	76.132425
1036.000000	76.111083
1035.000000	76.080947
1034.000000	76.048237
1033.000000	76.013383
1032.000000	75.982710
1031.000000	75.951824
1030.000000	75.921366
1029.000000	75.894876
1028.000000	75.873749
1027.000000	75.834926
1026.000000	75.811440
1025.000000	75.795889
1024.000000	75.764573
1023.000000	75.728003
1022.000000	75.711058
1021.000000	75.687678
1020.000000	75.675989
1019.000000	75.650250
1018.000000	75.622259
1017.000000	75.615824
1016.000000	75.606815
1015.000000	75.594482
1014.000000	75.592659
1013.000000	75.602633
1012.000000	75.598236
1011.000000	75.584830
1010.000000	75.591050
1009.000000	75.598557
1008.000000	75.592766
1007.000000	75.606815
1006.000000	75.617325
1005.000000	75.619899
1004.000000	75.624404
1003.000000	75.645531
1002.000000	75.678562
1001.000000	75.681458
1000.000000	75.686928
999.000000	75.686391
998.000000	75.706125
997.000000	75.731863
996.000000	75.737226
995.000000	75.728003
994.000000	75.743553
993.000000	75.756530
992.000000	75.766825
991.000000	75.772831
990.000000	75.804790
989.000000	75.819376
988.000000	75.830100
987.000000	75.844471
986.000000	75.852943
985.000000	75.866564
984.000000	75.896914
983.000000	75.919865
982.000000	75.946461
981.000000	75.956328
980.000000	75.991612
979.000000	76.020354
978.000000	76.049632
977.000000	76.058855
976.000000	76.086095
975.000000	76.129208
974.000000	76.165028
973.000000	76.188836
972.000000	76.224763
971.000000	76.276563
970.000000	76.308522
969.000000	76.357855
968.000000	76.393782
967.000000	76.456199
966.000000	76.498990
965.000000	76.559691
964.000000	76.626290
963.000000	76.681414
962.000000	76.738469
961.000000	76.796917
960.000000	76.874027
959.000000	76.925719
958.000000	76.985562
957.000000	77.042724
956.000000	77.132810
955.000000	77.179247
954.000000	77.255070
953.000000	77.321240
952.000000	77.381726
951.000000	77.455940
950.000000	77.539270
949.000000	77.577342
948.000000	77.648124
947.000000	77.746039
946.000000	77.805346
945.000000	77.871623
944.000000	77.940475
943.000000	78.019300
942.000000	78.069277
941.000000	78.138557
940.000000	78.203119
939.000000	78.301034
938.000000	78.337068
937.000000	78.415786
936.000000	78.471661
935.000000	78.529788
934.000000	78.638106
933.000000	78.703311
932.000000	78.759079
931.000000	78.809699
930.000000	78.921127
929.000000	78.958126
928.000000	79.034914
927.000000	79.100870
926.000000	79.193530
925.000000	79.237608
924.000000	79.295199
923.000000	79.370485
922.000000	79.420461
921.000000	79.488455
920.000000	79.556985
919.000000	79.612001
918.000000	79.744449
917.000000	79.787562
916.000000	79.846118
915.000000	79.880866
914.000000	79.924836
913.000000	80.038516
912.000000	80.098466
911.000000	80.166031
910.000000	80.200135
909.000000	80.246358
908.000000	80.282500
907.000000	80.325183
906.000000	80.366580
905.000000	80.393177
904.000000	80.413232
903.000000	80.430391
902.000000	80.436289
901.000000	80.456559
900.000000	80.491950
899.000000	80.471895
898.000000	80.473289
897.000000	80.393499
896.000000	80.368725
895.000000	80.339876
894.000000	80.312635
893.000000	80.213862
892.000000	80.209251
891.000000	80.167747
890.000000	80.111014
889.000000	79.993688
888.000000	79.911645
887.000000	79.805687
886.000000	79.757212
885.000000	79.662621
884.000000	79.535428
883.000000	79.460142
882.000000	79.310856
881.000000	79.231924
880.000000	79.075024
879.000000	78.992123
878.000000	78.806267
877.000000	78.571614
876.000000	78.439702
875.000000	78.189713
874.000000	77.926318
873.000000	77.656918
872.000000	77.419048
871.000000	77.360277
870.000000	77.434384
869.000000	77.563186
868.000000	77.684695
867.000000	77.788937
866.000000	77.916130
865.000000	78.016297
864.000000	78.145743
863.000000	78.273043
862.000000	78.407207
861.000000	78.497615
860.000000	78.627060
859.000000	78.773021
858.000000	79.919367
857.000000	80.069100
856.000000	79.895300
855.000000	79.793700
854.000000	80.653100
853.000000	80.891000
852.000000	81.037400
851.000000	81.168700
850.000000	81.351300
849.000000	81.271000
848.000000	81.497900
847.000000	81.642400
846.000000	82.267300
845.000000	82.394100
844.000000	82.414800
843.000000	82.759200
842.000000	83.154200
841.000000	83.380000
840.000000	83.801600
839.000000	83.942400
838.000000	84.008900
837.000000	84.450100
836.000000	84.878000
835.000000	85.232400
834.000000	85.863600
833.000000	86.455300
832.000000	86.585800
831.000000	87.034500
830.000000	87.504800
829.000000	87.957900
828.000000	88.347100
827.000000	88.972800
826.000000	89.539600
825.000000	90.036700
824.000000	90.407900
823.000000	90.849600
822.000000	91.451000
821.000000	91.598000
820.000000	91.969900
819.000000	92.698000
818.000000	93.042600
817.000000	93.438200
816.000000	93.821600
815.000000	94.235500
814.000000	94.525500
813.000000	94.962000
812.000000	95.712100
811.000000	95.949400
810.000000	96.351200
809.000000	96.721700
808.000000	97.098700
807.000000	97.128100
806.000000	97.509700
805.000000	97.936000
804.000000	98.368600
803.000000	98.511100
802.000000	98.844000
801.000000	99.059900
800.000000	99.143700
799.000000	99.388200
798.000000	99.717000
797.000000	99.990800
796.000000	100.265500
795.000000	100.428900
794.000000	100.564200
793.000000	100.729500
792.000000	100.724900
791.000000	100.727700
790.000000	100.866000
789.000000	101.088800
788.000000	101.250200
787.000000	101.048500
786.000000	101.023700
785.000000	101.253900
784.000000	101.265400
783.000000	101.128700
782.000000	101.199200
781.000000	101.250000
780.000000	101.354600
779.000000	101.312400
778.000000	101.242900
777.000000	101.221300
776.000000	101.207000
775.000000	101.136700
774.000000	101.018600
773.000000	101.226500
772.000000	101.330600
771.000000	101.351600
770.000000	101.275900
769.000000	101.132200
768.000000	101.049400
767.000000	100.938400
766.000000	101.053800
765.000000	101.126200
764.000000	101.026000
763.000000	100.938200
762.000000	100.905100
761.000000	100.868800
760.000000	100.885600
759.000000	100.868900
758.000000	100.820400
757.000000	100.714900
756.000000	100.697500
755.000000	100.724100
754.000000	100.672200
753.000000	100.628000
752.000000	100.665700
751.000000	100.610400
750.000000	100.470800
749.000000	100.422500
748.000000	100.408900
747.000000	100.332300
746.000000	100.160000
745.000000	100.033700
744.000000	99.955200
743.000000	99.887000
742.000000	99.774900
741.000000	99.618900
740.000000	99.510600
739.000000	99.371500
738.000000	99.221000
737.000000	99.043800
736.000000	98.941400
735.000000	98.798800
734.000000	98.605400
733.000000	98.350300
732.000000	98.123700
731.000000	97.878100
730.000000	97.610100
729.000000	97.359000
728.000000	97.026000
727.000000	96.647000
726.000000	96.250900
725.000000	95.954100
724.000000	95.626200
723.000000	95.187800
722.000000	94.652100
721.000000	94.146000
720.000000	93.650600
719.000000	93.084700
718.000000	92.466400
717.000000	91.895300
716.000000	91.345700
715.000000	90.703400
714.000000	89.968000
713.000000	89.327500
712.000000	88.654900
711.000000	88.002000
710.000000	87.295700
709.000000	86.556400
708.000000	85.889300
707.000000	85.258100
706.000000	84.702500
705.000000	84.049900
704.000000	83.458900
703.000000	82.888000
702.000000	82.297300
701.000000	81.761400
700.000000	81.293300
699.000000	80.854900
698.000000	80.361600
697.000000	79.921400
696.000000	79.611100
695.000000	79.310700
694.000000	78.925200
693.000000	78.617100
692.000000	78.338400
691.000000	78.027800
690.000000	77.703700
689.000000	77.454500
688.000000	77.136700
687.000000	76.754000
686.000000	76.385900
685.000000	76.073800
684.000000	75.762400
683.000000	75.347900
682.000000	74.986300
681.000000	74.555500
680.000000	74.135600
679.000000	73.691500
678.000000	73.333400
677.000000	72.921600
676.000000	72.506700
675.000000	72.090700
674.000000	71.698200
673.000000	71.342900
672.000000	71.021800
671.000000	70.664100
670.000000	70.385200
669.000000	70.068900
668.000000	69.763500
667.000000	69.548000
666.000000	69.362800
665.000000	69.179400
664.000000	68.967100
663.000000	68.813100
662.000000	68.673500
661.000000	68.488300
660.000000	68.391500
659.000000	68.317100
658.000000	68.175700
657.000000	68.024600
656.000000	67.895200
655.000000	67.763600
654.000000	67.572700
653.000000	67.409700
652.000000	67.211400
651.000000	66.964500
650.000000	66.694000
649.000000	66.416200
648.000000	66.061400
647.000000	65.719600
646.000000	65.371900
645.000000	64.979200
644.000000	64.605900
643.000000	64.204200
642.000000	63.763900
641.000000	63.333000
640.000000	62.935300
639.000000	62.541700
638.000000	62.115900
637.000000	61.708200
636.000000	61.340700
635.000000	60.928300
634.000000	60.633600
633.000000	60.240000
632.000000	59.954500
631.000000	59.617100
630.000000	59.343200
629.000000	59.041400
628.000000	58.764200
627.000000	58.560100
626.000000	58.279200
625.000000	57.957200
624.000000	57.701100
623.000000	57.482500
622.000000	57.208800
621.000000	56.978900
620.000000	56.749800
619.000000	56.546800
618.000000	56.316900
617.000000	56.138800
616.000000	55.987800
615.000000	55.840100
614.000000	55.727700
613.000000	55.642600
612.000000	55.662900
611.000000	55.690400
610.000000	55.715300
609.000000	55.812000
608.000000	55.961300
607.000000	56.177300
606.000000	56.374800
605.000000	56.654500
604.000000	56.889600
603.000000	57.252500
602.000000	57.542100
601.000000	57.892600
600.000000	58.209000
599.000000	58.619400
598.000000	58.939700
597.000000	59.268800
596.000000	59.597900
595.000000	59.933400
594.000000	60.283100
593.000000	60.595900
592.000000	60.959300
591.000000	61.276800
590.000000	61.557100
589.000000	61.907700
588.000000	62.217200
587.000000	62.459700
586.000000	62.718800
585.000000	63.012200
584.000000	63.248600
583.000000	63.514100
582.000000	63.697800
581.000000	63.885700
580.000000	64.117300
579.000000	64.331100
578.000000	64.522300
577.000000	64.714400
576.000000	64.894000
575.000000	65.057400
574.000000	65.191300
573.000000	65.321600
572.000000	65.456500
571.000000	65.527100
570.000000	65.627500
569.000000	65.686000
568.000000	65.693700
567.000000	65.736600
566.000000	65.796000
565.000000	65.755500
564.000000	65.707600
563.000000	65.681100
562.000000	65.638000
561.000000	65.598500
560.000000	65.529500
559.000000	65.446000
558.000000	65.371600
557.000000	65.305100
556.000000	65.203600
555.000000	64.998300
554.000000	64.883300
553.000000	64.716200
552.000000	64.530000
551.000000	64.357300
550.000000	64.135200
549.000000	63.906200
548.000000	63.668800
547.000000	63.424000
546.000000	63.170500
545.000000	62.842200
544.000000	62.539700
543.000000	62.205200
542.000000	61.879900
541.000000	61.526900
540.000000	61.125000
539.000000	60.795200
538.000000	60.423500
537.000000	60.021500
536.000000	59.619300
535.000000	59.183900
534.000000	58.759000
533.000000	58.298300
532.000000	57.837000
531.000000	57.357700
530.000000	56.856800
529.000000	56.336200
528.000000	55.842900
527.000000	55.330400
526.000000	54.778300
525.000000	54.227100
524.000000	53.658500
523.000000	53.076800
522.000000	52.519200
521.000000	51.909400
520.000000	51.329200
519.000000	50.724900
518.000000	50.151000
517.000000	49.553600
516.000000	48.955100
515.000000	48.330700
514.000000	47.709600
513.000000	47.110000
512.000000	46.484500
511.000000	45.842800
510.000000	45.255400
509.000000	44.652400
508.000000	44.022900
507.000000	43.448700
506.000000	42.850400
505.000000	42.256700
504.000000	41.634800
503.000000	41.047000
502.000000	40.433400
501.000000	39.844000
500.000000	39.214100
499.000000	38.622400
498.000000	38.053700
497.000000	37.438600
496.000000	36.882300
495.000000	36.274900
494.000000	35.653900
493.000000	35.055600
492.000000	34.479600
491.000000	33.884300
490.000000	33.295500
489.000000	32.769600
488.000000	32.218000
487.000000	31.694700
486.000000	31.185300
485.000000	30.698700
484.000000	30.241000
483.000000	29.800100
482.000000	29.397800
481.000000	29.007500
480.000000	28.650700
479.000000	28.303000
478.000000	27.974700
477.000000	27.679400
476.000000	27.396500
475.000000	27.137300
474.000000	26.884100
473.000000	26.619300
472.000000	26.362900
471.000000	26.112900
470.000000	25.835000
469.000000	25.575500
468.000000	25.308600
467.000000	25.031900
466.000000	24.735700
465.000000	24.404900
464.000000	24.060000
463.000000	23.704000
462.000000	23.342400
461.000000	22.960900
460.000000	22.568600
459.000000	22.227300
458.000000	21.865600
457.000000	21.474500
456.000000	21.118500
455.000000	20.768600
454.000000	20.448900
453.000000	20.150900
452.000000	19.842600
451.000000	19.571600
450.000000	19.339900
449.000000	19.136700
448.000000	18.949300
447.000000	18.781400
446.000000	18.666200
445.000000	18.591300
444.000000	18.497900
443.000000	18.426500
442.000000	18.393000
441.000000	18.356100
440.000000	18.339900
439.000000	18.317700
438.000000	18.290000
437.000000	18.266600
436.000000	18.262400
435.000000	18.247000
434.000000	18.207200
433.000000	18.189400
432.000000	18.163800
431.000000	18.111500
430.000000	18.042100
429.000000	17.971400
428.000000	17.893200
427.000000	17.817800
426.000000	17.717200
425.000000	17.584200
424.000000	17.457400
423.000000	17.312400
422.000000	17.134000
421.000000	16.974100
420.000000	16.828100
419.000000	16.644000
418.000000	16.435500
417.000000	16.235900
416.000000	16.024900
415.000000	15.808100
414.000000	15.585300
413.000000	15.364100
412.000000	15.131500
411.000000	14.894800
410.000000	14.664500
409.000000	14.420400
408.000000	14.177500
407.000000	13.932100
406.000000	13.671800
405.000000	13.403900
404.000000	13.156400
403.000000	12.886700
402.000000	12.610700
401.000000	12.349700
400.000000	12.076400
399.000000	11.848800
398.000000	11.614300
397.000000	11.334300
396.000000	11.076200
395.000000	10.823000
394.000000	10.554600
393.000000	10.298900
392.000000	10.079700
391.000000	9.821300
390.000000	9.581400
389.000000	9.383600
388.000000	9.168500
387.000000	8.941300
386.000000	8.732400
385.000000	8.544200
384.000000	8.399700
383.000000	8.242900
382.000000	8.095500
381.000000	7.944000
380.000000	7.789900
379.000000	7.669000
378.000000	7.528900
377.000000	7.419500
376.000000	7.158300
375.000000	6.857900
374.000000	6.703600
373.000000	6.624000
372.000000	6.715900
371.000000	6.661100
370.000000	6.736700
369.000000	6.731100
368.000000	6.615000
367.000000	6.718500
366.000000	6.627900
365.000000	6.612900
364.000000	6.612300
363.000000	6.540000
362.000000	6.545000
361.000000	6.480500
360.000000	6.686600
359.000000	6.534500
358.000000	6.606800
357.000000	6.408600
356.000000	6.643800
355.000000	6.542000
354.000000	6.543200
353.000000	6.360200
352.000000	6.282400
351.000000	6.354800
350.000000	6.235000
349.000000	6.212500
348.000000	6.337900
347.000000	6.334900
346.000000	6.362300
345.000000	6.400000
344.000000	6.143000
343.000000	6.237400
342.000000	6.177900
341.000000	6.363200
340.000000	6.460700
339.000000	6.686100
338.000000	6.178300
337.000000	6.507800
336.000000	6.223900
335.000000	5.945600
334.000000	6.330300
333.000000	6.483000
332.000000	6.161200
331.000000	6.670300
330.000000	6.537700
329.000000	6.629000
328.000000	6.458200
327.000000	6.675900
326.000000	6.315700
325.000000	6.670400
324.000000	6.710500
323.000000	6.537800
322.000000	6.451900
321.000000	6.553000
320.000000	6.645700
319.000000	7.386800
318.000000	6.901400
317.000000	7.233800
316.000000	6.264800
315.000000	6.118700
314.000000	6.134100
313.000000	6.134100
312.000000	6.075200
311.000000	6.178400
310.000000	6.172000
309.000000	6.208900
308.000000	6.123900
307.000000	6.177500
306.000000	6.164700
305.000000	6.197100
304.000000	6.188400
303.000000	6.176200
302.000000	6.189800
301.000000	6.213300
300.000000	6.208800
299.000000	6.154500
298.000000	6.216400
297.000000	6.206200
296.000000	6.200200
295.000000	6.224200
294.000000	6.236900
293.000000	6.273700
292.000000	6.237800
291.000000	6.214100
290.000000	6.263000
289.000000	6.222100
288.000000	6.313200
287.000000	6.248800
286.000000	6.196900
285.000000	6.217900
284.000000	6.316100
283.000000	6.245500
282.000000	6.265600
281.000000	6.262100
280.000000	6.231800
279.000000	6.286900
278.000000	6.259400
277.000000	6.339100
276.000000	6.329400
275.000000	6.347100
274.000000	6.400300
273.000000	6.343200
272.000000	6.452400
271.000000	6.371400
270.000000	6.373300
269.000000	6.458900
268.000000	6.474600
267.000000	6.463300
266.000000	6.515500
265.000000	6.572500
264.000000	6.618800
263.000000	6.628800
262.000000	6.649200
261.000000	6.668600
260.000000	6.716200
259.000000	6.766700
258.000000	6.767600
257.000000	6.795000
256.000000	6.781000
255.000000	6.878800
254.000000	6.859500
253.000000	6.913100
252.000000	6.919800
251.000000	6.866100
250.000000	6.971600
