PE UV       SUBTECH     SPECTRUM    ASCII       PEDS        4.00        
   -1
CICIMAUCR0008-4.Sample.ASC
24/04/25
09:16:30.00
24/04/25
09:16:30.00
Vinicio Soto Monge
C. kalinini
250,000000
1
Lambda 1050
1050L1511233
PerkinElmer UV WinLab 6.3.2.0749 / 2.02.05 Lambda 900 UV/VIS/NIR, Aug  7 2015 09:38:08

0
0
3350/servo 860,8/2
0
0
UV/VIS
1
1
1
DoubleDePol,CommonBeamDepol,RBeamAtt,SBeamAtt,60mm sphere, WB InGaAs Detector
0
0
0
0
Program
Program
3350/servo 860,8/2
3350/0,2 860,8/0,2
3350/0,2 860,8/0,2
0
15.00
 
 
 
0
 
860,8
319,2
860,8
Front
100
on
S:100 R:100
0
0
0
0
 
0
 
 
 
0
 
 
0
0
0
0
0
 
 
 
 
0
0


0
0
#HDR
-1
-1
#GR
nm
%R
1.0
0.0
2500,000000
-1,000000
2251
8
94,238500
5,235800
#DATA
2482.000000	6.623411
2481.000000	6.568670
2480.000000	6.512290
2479.000000	6.561651
2478.000000	6.566096
2477.000000	6.519074
2476.000000	6.516618
2475.000000	6.584110
2474.000000	6.538959
2473.000000	6.555569
2472.000000	6.539544
2471.000000	6.571477
2470.000000	6.583876
2469.000000	6.596391
2468.000000	6.592180
2467.000000	6.569722
2466.000000	6.595339
2465.000000	6.600719
2464.000000	6.597912
2463.000000	6.607504
2462.000000	6.610428
2461.000000	6.653005
2460.000000	6.678504
2459.000000	6.683417
2458.000000	6.721432
2457.000000	6.756289
2456.000000	6.770793
2455.000000	6.817932
2454.000000	6.842613
2453.000000	6.855362
2452.000000	6.867410
2451.000000	6.887763
2450.000000	6.944142
2449.000000	6.982041
2448.000000	7.003329
2447.000000	7.033273
2446.000000	7.041344
2445.000000	7.079944
2444.000000	7.109772
2443.000000	7.128721
2442.000000	7.175859
2441.000000	7.224519
2440.000000	7.233993
2439.000000	7.274933
2438.000000	7.295519
2437.000000	7.316340
2436.000000	7.334120
2435.000000	7.366988
2434.000000	7.379738
2433.000000	7.398804
2432.000000	7.430152
2431.000000	7.456119
2430.000000	7.456821
2429.000000	7.487818
2428.000000	7.495304
2427.000000	7.507118
2426.000000	7.535775
2425.000000	7.554374
2424.000000	7.578235
2423.000000	7.562094
2422.000000	7.583616
2421.000000	7.603852
2420.000000	7.617771
2419.000000	7.643972
2418.000000	7.640931
2417.000000	7.651926
2416.000000	7.670291
2415.000000	7.665144
2414.000000	7.633796
2413.000000	7.563965
2412.000000	7.535074
2411.000000	7.523844
2410.000000	7.533319
2409.000000	7.535658
2408.000000	7.537179
2407.000000	7.533436
2406.000000	7.526535
2405.000000	7.534957
2404.000000	7.532500
2403.000000	7.530980
2402.000000	7.532500
2401.000000	7.521037
2400.000000	7.534021
2399.000000	7.541390
2398.000000	7.538232
2397.000000	7.523494
2396.000000	7.532851
2395.000000	7.539986
2394.000000	7.555309
2393.000000	7.562210
2392.000000	7.543612
2391.000000	7.534138
2390.000000	7.545250
2389.000000	7.542560
2388.000000	7.520686
2387.000000	7.528406
2386.000000	7.532383
2385.000000	7.503960
2384.000000	7.509808
2383.000000	7.513200
2382.000000	7.480917
2381.000000	7.475419
2380.000000	7.458341
2379.000000	7.444656
2378.000000	7.449686
2377.000000	7.443720
2376.000000	7.414010
2375.000000	7.403015
2374.000000	7.386639
2373.000000	7.359853
2372.000000	7.332014
2371.000000	7.320668
2370.000000	7.301017
2369.000000	7.269903
2368.000000	7.260896
2367.000000	7.233058
2366.000000	7.201008
2365.000000	7.181591
2364.000000	7.147085
2363.000000	7.106496
2362.000000	7.082752
2361.000000	7.053977
2360.000000	7.027191
2359.000000	6.998416
2358.000000	6.989293
2357.000000	6.974555
2356.000000	6.953266
2355.000000	6.941218
2354.000000	6.918994
2353.000000	6.921918
2352.000000	6.936422
2351.000000	6.939230
2350.000000	6.970227
2349.000000	6.988591
2348.000000	7.017833
2347.000000	7.049181
2346.000000	7.055264
2345.000000	7.051989
2344.000000	7.087664
2343.000000	7.119714
2342.000000	7.120182
2341.000000	7.122053
2340.000000	7.138546
2339.000000	7.145915
2338.000000	7.142406
2337.000000	7.137493
2336.000000	7.152816
2335.000000	7.152349
2334.000000	7.133049
2333.000000	7.125562
2332.000000	7.086144
2331.000000	7.055030
2330.000000	7.052807
2329.000000	7.029530
2328.000000	7.006721
2327.000000	6.972683
2326.000000	6.957243
2325.000000	6.928001
2324.000000	6.892559
2323.000000	6.835828
2322.000000	6.805884
2321.000000	6.779917
2320.000000	6.739445
2319.000000	6.710554
2318.000000	6.674644
2317.000000	6.629143
2316.000000	6.590543
2315.000000	6.553814
2314.000000	6.522116
2313.000000	6.494394
2312.000000	6.473573
2311.000000	6.459654
2310.000000	6.449360
2309.000000	6.432400
2308.000000	6.420001
2307.000000	6.452402
2306.000000	6.465151
2305.000000	6.473456
2304.000000	6.490534
2303.000000	6.516852
2302.000000	6.572296
2301.000000	6.604696
2300.000000	6.636512
2299.000000	6.668328
2298.000000	6.718508
2297.000000	6.765179
2296.000000	6.808107
2295.000000	6.825769
2294.000000	6.835361
2293.000000	6.864486
2292.000000	6.880979
2291.000000	6.898056
2290.000000	6.921684
2289.000000	6.911157
2288.000000	6.909636
2287.000000	6.899694
2286.000000	6.899577
2285.000000	6.890804
2284.000000	6.881798
2283.000000	6.880628
2282.000000	6.867878
2281.000000	6.837817
2280.000000	6.825886
2279.000000	6.805767
2278.000000	6.822962
2277.000000	6.807873
2276.000000	6.814072
2275.000000	6.822026
2274.000000	6.795123
2273.000000	6.787169
2272.000000	6.827407
2271.000000	6.811499
2270.000000	6.827173
2269.000000	6.875949
2268.000000	6.903788
2267.000000	6.951512
2266.000000	7.018769
2265.000000	7.062282
2264.000000	7.138312
2263.000000	7.227794
2262.000000	7.309205
2261.000000	7.388627
2260.000000	7.492263
2259.000000	7.632392
2258.000000	7.732051
2257.000000	7.849137
2256.000000	7.933005
2255.000000	8.057811
2254.000000	8.193028
2253.000000	8.303916
2252.000000	8.387432
2251.000000	8.523351
2250.000000	8.612833
2249.000000	8.695179
2248.000000	8.787001
2247.000000	8.883735
2246.000000	8.972164
2245.000000	9.052522
2244.000000	9.121651
2243.000000	9.188909
2242.000000	9.268448
2241.000000	9.361439
2240.000000	9.399454
2239.000000	9.451506
2238.000000	9.515605
2237.000000	9.537011
2236.000000	9.607894
2235.000000	9.642049
2234.000000	9.674801
2233.000000	9.742175
2232.000000	9.753288
2231.000000	9.780425
2230.000000	9.797736
2229.000000	9.833880
2228.000000	9.845694
2227.000000	9.878094
2226.000000	9.883241
2225.000000	9.872012
2224.000000	9.861368
2223.000000	9.916109
2222.000000	9.904179
2221.000000	9.881369
2220.000000	9.898681
2219.000000	9.892833
2218.000000	9.871310
2217.000000	9.858560
2216.000000	9.856689
2215.000000	9.835517
2214.000000	9.822417
2213.000000	9.851425
2212.000000	9.842886
2211.000000	9.787794
2210.000000	9.796099
2209.000000	9.810603
2208.000000	9.793876
2207.000000	9.762528
2206.000000	9.791888
2205.000000	9.775161
2204.000000	9.756914
2203.000000	9.771418
2202.000000	9.755510
2201.000000	9.772939
2200.000000	9.745802
2199.000000	9.742526
2198.000000	9.742994
2197.000000	9.753522
2196.000000	9.717729
2195.000000	9.714454
2194.000000	9.733988
2193.000000	9.712816
2192.000000	9.697376
2191.000000	9.707202
2190.000000	9.712582
2189.000000	9.709190
2188.000000	9.699715
2187.000000	9.675269
2186.000000	9.677959
2185.000000	9.656671
2184.000000	9.627779
2183.000000	9.627896
2182.000000	9.620527
2181.000000	9.600291
2180.000000	9.594560
2179.000000	9.587308
2178.000000	9.584734
2177.000000	9.567306
2176.000000	9.564148
2175.000000	9.558533
2174.000000	9.543912
2173.000000	9.563095
2172.000000	9.548474
2171.000000	9.573037
2170.000000	9.589179
2169.000000	9.572803
2168.000000	9.569411
2167.000000	9.573388
2166.000000	9.581342
2165.000000	9.611169
2164.000000	9.604619
2163.000000	9.610468
2162.000000	9.611169
2161.000000	9.620761
2160.000000	9.624504
2159.000000	9.646494
2158.000000	9.652460
2157.000000	9.670941
2156.000000	9.699248
2155.000000	9.717846
2154.000000	9.733052
2153.000000	9.727437
2152.000000	9.729309
2151.000000	9.753054
2150.000000	9.780892
2149.000000	9.789665
2148.000000	9.810837
2147.000000	9.835283
2146.000000	9.851776
2145.000000	9.858443
2144.000000	9.859496
2143.000000	9.877509
2142.000000	9.898447
2141.000000	9.893885
2140.000000	9.908506
2139.000000	9.911080
2138.000000	9.937047
2137.000000	9.947340
2136.000000	9.958336
2135.000000	9.957166
2134.000000	9.940088
2133.000000	9.961377
2132.000000	9.980326
2131.000000	10.006644
2130.000000	10.004071
2129.000000	9.988280
2128.000000	9.980560
2127.000000	9.981730
2126.000000	9.985239
2125.000000	9.996585
2124.000000	9.990268
2123.000000	9.975998
2122.000000	9.967576
2121.000000	9.972255
2120.000000	9.965237
2119.000000	9.956698
2118.000000	9.953774
2117.000000	9.932953
2116.000000	9.911314
2115.000000	9.908389
2114.000000	9.900553
2113.000000	9.894938
2112.000000	9.912600
2111.000000	9.905348
2110.000000	9.886516
2109.000000	9.892833
2108.000000	9.864409
2107.000000	9.852361
2106.000000	9.857274
2105.000000	9.842302
2104.000000	9.837506
2103.000000	9.817621
2102.000000	9.811305
2101.000000	9.812942
2100.000000	9.817036
2099.000000	9.819142
2098.000000	9.797385
2097.000000	9.801362
2096.000000	9.790601
2095.000000	9.791069
2094.000000	9.797502
2093.000000	9.788729
2092.000000	9.789197
2091.000000	9.784986
2090.000000	9.791654
2089.000000	9.809199
2088.000000	9.811772
2087.000000	9.798204
2086.000000	9.781009
2085.000000	9.798555
2084.000000	9.814931
2083.000000	9.815749
2082.000000	9.812942
2081.000000	9.809082
2080.000000	9.820077
2079.000000	9.830020
2078.000000	9.842886
2077.000000	9.837740
2076.000000	9.809784
2075.000000	9.801830
2074.000000	9.805339
2073.000000	9.821481
2072.000000	9.826394
2071.000000	9.800309
2070.000000	9.812474
2069.000000	9.813527
2068.000000	9.814814
2067.000000	9.820311
2066.000000	9.822417
2065.000000	9.835166
2064.000000	9.854233
2063.000000	9.857508
2062.000000	9.859847
2061.000000	9.869322
2060.000000	9.892599
2059.000000	9.919268
2058.000000	9.927573
2057.000000	9.957634
2056.000000	9.985823
2055.000000	10.012843
2054.000000	10.050274
2053.000000	10.084663
2052.000000	10.141393
2051.000000	10.191924
2050.000000	10.255907
2049.000000	10.320357
2048.000000	10.372525
2047.000000	10.440953
2046.000000	10.517802
2045.000000	10.617928
2044.000000	10.675828
2043.000000	10.759110
2042.000000	10.843446
2041.000000	10.915733
2040.000000	11.008022
2039.000000	11.074344
2038.000000	11.155170
2037.000000	11.229914
2036.000000	11.292141
2035.000000	11.364078
2034.000000	11.423849
2033.000000	11.467713
2032.000000	11.550762
2031.000000	11.598953
2030.000000	11.662000
2029.000000	11.697559
2028.000000	11.744814
2027.000000	11.778502
2026.000000	11.846344
2025.000000	11.899799
2024.000000	11.936879
2023.000000	11.979573
2022.000000	12.042853
2021.000000	12.053498
2020.000000	12.112333
2019.000000	12.152688
2018.000000	12.182632
2017.000000	12.201113
2016.000000	12.210822
2015.000000	12.253165
2014.000000	12.285682
2013.000000	12.311650
2012.000000	12.300187
2011.000000	12.338319
2010.000000	12.341594
2009.000000	12.343115
2008.000000	12.353291
2007.000000	12.350835
2006.000000	12.361362
2005.000000	12.345337
2004.000000	12.334225
2003.000000	12.310129
2002.000000	12.292116
2001.000000	12.278079
2000.000000	12.261119
1999.000000	12.268371
1998.000000	12.232110
1997.000000	12.206962
1996.000000	12.190820
1995.000000	12.138535
1994.000000	12.108005
1993.000000	12.062036
1992.000000	12.042619
1991.000000	11.990334
1990.000000	11.922257
1989.000000	11.894536
1988.000000	11.858158
1987.000000	11.787976
1986.000000	11.744230
1985.000000	11.716859
1984.000000	11.669252
1983.000000	11.623049
1982.000000	11.550177
1981.000000	11.516840
1980.000000	11.466660
1979.000000	11.406655
1978.000000	11.374020
1977.000000	11.309687
1976.000000	11.263016
1975.000000	11.234709
1974.000000	11.186518
1973.000000	11.150023
1972.000000	11.096451
1971.000000	11.040774
1970.000000	11.017614
1969.000000	10.970358
1968.000000	10.941817
1967.000000	10.899825
1966.000000	10.854324
1965.000000	10.819701
1964.000000	10.784727
1963.000000	10.763906
1962.000000	10.737237
1961.000000	10.679103
1960.000000	10.643193
1959.000000	10.605061
1958.000000	10.565175
1957.000000	10.544120
1956.000000	10.517568
1955.000000	10.487039
1954.000000	10.456276
1953.000000	10.425396
1952.000000	10.408786
1951.000000	10.393112
1950.000000	10.372876
1949.000000	10.357436
1948.000000	10.326790
1947.000000	10.334744
1946.000000	10.313690
1945.000000	10.306204
1944.000000	10.304332
1943.000000	10.291465
1942.000000	10.324217
1941.000000	10.311701
1940.000000	10.357904
1939.000000	10.358489
1938.000000	10.377555
1937.000000	10.410190
1936.000000	10.453585
1935.000000	10.483998
1934.000000	10.503415
1933.000000	10.581082
1932.000000	10.636409
1931.000000	10.675594
1930.000000	10.757473
1929.000000	10.830813
1928.000000	10.937372
1927.000000	11.009777
1926.000000	11.084520
1925.000000	11.151544
1924.000000	11.248629
1923.000000	11.360803
1922.000000	11.511577
1921.000000	11.616616
1920.000000	11.730661
1919.000000	11.833127
1918.000000	11.952904
1917.000000	12.075722
1916.000000	12.210471
1915.000000	12.363701
1914.000000	12.554830
1913.000000	12.737537
1912.000000	12.868426
1911.000000	12.996508
1910.000000	13.142603
1909.000000	13.305425
1908.000000	13.479125
1907.000000	13.669434
1906.000000	13.876237
1905.000000	14.093216
1904.000000	14.267852
1903.000000	14.424708
1902.000000	14.611743
1901.000000	14.797491
1900.000000	15.026049
1899.000000	15.235308
1898.000000	15.419302
1897.000000	15.598499
1896.000000	15.749858
1895.000000	15.944496
1894.000000	16.150597
1893.000000	16.370032
1892.000000	16.576834
1891.000000	16.787263
1890.000000	16.971373
1889.000000	17.196072
1888.000000	17.428023
1887.000000	17.709569
1886.000000	18.024452
1885.000000	18.388111
1884.000000	18.773175
1883.000000	19.199998
1882.000000	19.624598
1881.000000	20.005919
1880.000000	20.389697
1879.000000	20.788447
1878.000000	21.150000
1877.000000	21.483247
1876.000000	21.814271
1875.000000	22.118042
1874.000000	22.381925
1873.000000	22.622064
1872.000000	22.843020
1871.000000	23.022335
1870.000000	23.183402
1869.000000	23.321075
1868.000000	23.375232
1867.000000	23.399679
1866.000000	23.442022
1865.000000	23.453953
1864.000000	23.446116
1863.000000	23.465533
1862.000000	23.480154
1861.000000	23.462492
1860.000000	23.429506
1859.000000	23.391257
1858.000000	23.341194
1857.000000	23.262123
1856.000000	23.191122
1855.000000	23.111115
1854.000000	22.983969
1853.000000	22.876473
1852.000000	22.788629
1851.000000	22.697861
1850.000000	22.613058
1849.000000	22.513048
1848.000000	22.402044
1847.000000	22.285074
1846.000000	22.168222
1845.000000	22.083769
1844.000000	22.029612
1843.000000	21.994054
1842.000000	21.937908
1841.000000	21.850532
1840.000000	21.798129
1839.000000	21.755201
1838.000000	21.665954
1837.000000	21.562669
1836.000000	21.459385
1835.000000	21.348264
1834.000000	21.228136
1833.000000	21.115728
1832.000000	21.014783
1831.000000	20.917815
1830.000000	20.818040
1829.000000	20.701772
1828.000000	20.593692
1827.000000	20.494151
1826.000000	20.396598
1825.000000	20.319047
1824.000000	20.271791
1823.000000	20.257287
1822.000000	20.221845
1821.000000	20.179970
1820.000000	20.136457
1819.000000	20.103355
1818.000000	20.095050
1817.000000	20.071539
1816.000000	20.052824
1815.000000	20.035629
1814.000000	20.027208
1813.000000	20.011885
1812.000000	19.970594
1811.000000	19.908834
1810.000000	19.860292
1809.000000	19.815375
1808.000000	19.769055
1807.000000	19.716068
1806.000000	19.639804
1805.000000	19.578161
1804.000000	19.542719
1803.000000	19.493475
1802.000000	19.445283
1801.000000	19.375569
1800.000000	19.319307
1799.000000	19.294158
1798.000000	19.238715
1797.000000	19.184441
1796.000000	19.138705
1795.000000	19.082209
1794.000000	19.022788
1793.000000	18.951086
1792.000000	18.895408
1791.000000	18.839731
1790.000000	18.762414
1789.000000	18.695741
1788.000000	18.609066
1787.000000	18.526603
1786.000000	18.471276
1785.000000	18.378168
1784.000000	18.285762
1783.000000	18.208445
1782.000000	18.118963
1781.000000	18.036032
1780.000000	17.942456
1779.000000	17.839990
1778.000000	17.751912
1777.000000	17.638218
1776.000000	17.503819
1775.000000	17.372813
1774.000000	17.256545
1773.000000	17.115012
1772.000000	16.985760
1771.000000	16.841186
1770.000000	16.719069
1769.000000	16.616136
1768.000000	16.507237
1767.000000	16.415650
1766.000000	16.354241
1765.000000	16.314588
1764.000000	16.318565
1763.000000	16.343363
1762.000000	16.407462
1761.000000	16.481621
1760.000000	16.554142
1759.000000	16.640583
1758.000000	16.713104
1757.000000	16.768665
1756.000000	16.808668
1755.000000	16.830776
1754.000000	16.805978
1753.000000	16.810657
1752.000000	16.800012
1751.000000	16.736030
1750.000000	16.682458
1749.000000	16.615200
1748.000000	16.536597
1747.000000	16.389566
1746.000000	16.261718
1745.000000	16.115623
1744.000000	15.936074
1743.000000	15.723423
1742.000000	15.511006
1741.000000	15.288062
1740.000000	15.067925
1739.000000	14.862409
1738.000000	14.714091
1737.000000	14.589051
1736.000000	14.524249
1735.000000	14.480269
1734.000000	14.473134
1733.000000	14.545655
1732.000000	14.621334
1731.000000	14.724735
1730.000000	14.839951
1729.000000	14.957037
1728.000000	15.061140
1727.000000	15.143487
1726.000000	15.186766
1725.000000	15.279289
1724.000000	15.280108
1723.000000	15.288763
1722.000000	15.291805
1721.000000	15.264083
1720.000000	15.279757
1719.000000	15.261510
1718.000000	15.254491
1717.000000	15.307011
1716.000000	15.318591
1715.000000	15.348652
1714.000000	15.386901
1713.000000	15.444801
1712.000000	15.410997
1711.000000	15.420822
1710.000000	15.408774
1709.000000	15.389240
1708.000000	15.346313
1707.000000	15.280108
1706.000000	15.253322
1705.000000	15.172145
1704.000000	15.099039
1703.000000	15.025932
1702.000000	14.857496
1701.000000	14.724501
1700.000000	14.572558
1699.000000	14.426697
1698.000000	14.301422
1697.000000	14.253230
1696.000000	14.228199
1695.000000	14.282473
1694.000000	14.377452
1693.000000	14.525887
1692.000000	14.684381
1691.000000	14.812112
1690.000000	14.930485
1689.000000	14.978677
1688.000000	14.978794
1687.000000	14.971542
1686.000000	14.952125
1685.000000	15.021371
1684.000000	15.184660
1683.000000	15.505508
1682.000000	15.915370
1681.000000	16.453314
1680.000000	17.013014
1679.000000	17.570258
1678.000000	18.136977
1677.000000	18.631057
1676.000000	19.074957
1675.000000	19.438967
1674.000000	19.754551
1673.000000	20.049783
1672.000000	20.298109
1671.000000	20.524797
1670.000000	20.702708
1669.000000	20.842721
1668.000000	20.979575
1667.000000	21.089644
1666.000000	21.218427
1665.000000	21.287907
1664.000000	21.360896
1663.000000	21.422540
1662.000000	21.484767
1661.000000	21.530386
1660.000000	21.540796
1659.000000	21.572846
1658.000000	21.594251
1657.000000	21.601503
1656.000000	21.608872
1655.000000	21.617762
1654.000000	21.605012
1653.000000	21.575770
1652.000000	21.553429
1651.000000	21.528397
1650.000000	21.479738
1649.000000	21.434237
1648.000000	21.405462
1647.000000	21.363236
1646.000000	21.304517
1645.000000	21.251296
1644.000000	21.198893
1643.000000	21.135262
1642.000000	21.094907
1641.000000	21.034317
1640.000000	20.964603
1639.000000	20.920038
1638.000000	20.822368
1637.000000	20.763883
1636.000000	20.690192
1635.000000	20.604570
1634.000000	20.548308
1633.000000	20.483857
1632.000000	20.399873
1631.000000	20.314134
1630.000000	20.254480
1629.000000	20.169209
1628.000000	20.080663
1627.000000	19.981706
1626.000000	19.904389
1625.000000	19.821809
1624.000000	19.753147
1623.000000	19.682615
1622.000000	19.616059
1621.000000	19.531139
1620.000000	19.451366
1619.000000	19.359778
1618.000000	19.291000
1617.000000	19.211812
1616.000000	19.144086
1615.000000	19.070863
1614.000000	18.992376
1613.000000	18.939506
1612.000000	18.865698
1611.000000	18.798557
1610.000000	18.737850
1609.000000	18.679248
1608.000000	18.613277
1607.000000	18.533621
1606.000000	18.468586
1605.000000	18.421915
1604.000000	18.360623
1603.000000	18.300149
1602.000000	18.242015
1601.000000	18.174290
1600.000000	18.123408
1599.000000	18.064104
1598.000000	18.001409
1597.000000	17.954270
1596.000000	17.913330
1595.000000	17.876134
1594.000000	17.847360
1593.000000	17.799168
1592.000000	17.749339
1591.000000	17.714599
1590.000000	17.688164
1589.000000	17.648745
1588.000000	17.609677
1587.000000	17.599501
1586.000000	17.570726
1585.000000	17.558327
1584.000000	17.554116
1583.000000	17.536688
1582.000000	17.524289
1581.000000	17.503702
1580.000000	17.496918
1579.000000	17.507679
1578.000000	17.534699
1577.000000	17.541016
1576.000000	17.562655
1575.000000	17.593652
1574.000000	17.612367
1573.000000	17.631550
1572.000000	17.644417
1571.000000	17.674127
1570.000000	17.703487
1569.000000	17.733665
1568.000000	17.762556
1567.000000	17.791682
1566.000000	17.841979
1565.000000	17.874730
1564.000000	17.907716
1563.000000	17.937309
1562.000000	17.966552
1561.000000	17.997081
1560.000000	18.024803
1559.000000	18.049483
1558.000000	18.078258
1557.000000	18.109372
1556.000000	18.134988
1555.000000	18.153703
1554.000000	18.169260
1553.000000	18.175460
1552.000000	18.194175
1551.000000	18.215697
1550.000000	18.221195
1549.000000	18.228564
1548.000000	18.243770
1547.000000	18.253595
1546.000000	18.268334
1545.000000	18.289388
1544.000000	18.298980
1543.000000	18.329626
1542.000000	18.350914
1541.000000	18.360974
1540.000000	18.363781
1539.000000	18.389397
1538.000000	18.406709
1537.000000	18.413961
1536.000000	18.429635
1535.000000	18.446362
1534.000000	18.449871
1533.000000	18.452678
1532.000000	18.452561
1531.000000	18.478996
1530.000000	18.476423
1529.000000	18.468820
1528.000000	18.484728
1527.000000	18.488588
1526.000000	18.461217
1525.000000	18.462971
1524.000000	18.463556
1523.000000	18.470223
1522.000000	18.474200
1521.000000	18.466714
1520.000000	18.457123
1519.000000	18.444256
1518.000000	18.449286
1517.000000	18.438992
1516.000000	18.433612
1515.000000	18.445660
1514.000000	18.425190
1513.000000	18.406241
1512.000000	18.398404
1511.000000	18.396182
1510.000000	18.397234
1509.000000	18.374659
1508.000000	18.365185
1507.000000	18.353955
1506.000000	18.360389
1505.000000	18.349511
1504.000000	18.345183
1503.000000	18.316057
1502.000000	18.313250
1501.000000	18.319215
1500.000000	18.331146
1499.000000	18.333252
1498.000000	18.327871
1497.000000	18.349745
1496.000000	18.347756
1495.000000	18.360857
1494.000000	18.372905
1493.000000	18.389163
1492.000000	18.420628
1491.000000	18.424605
1490.000000	18.440513
1489.000000	18.468469
1488.000000	18.489406
1487.000000	18.510227
1486.000000	18.521222
1485.000000	18.548710
1484.000000	18.562162
1483.000000	18.608014
1482.000000	18.658662
1481.000000	18.686500
1480.000000	18.746974
1479.000000	18.782416
1478.000000	18.813062
1477.000000	18.846983
1476.000000	18.883360
1475.000000	18.953308
1474.000000	19.012495
1473.000000	19.039047
1472.000000	19.096596
1471.000000	19.131687
1470.000000	19.172861
1469.000000	19.218245
1468.000000	19.291000
1467.000000	19.315213
1466.000000	19.401186
1465.000000	19.459203
1464.000000	19.509967
1463.000000	19.613720
1462.000000	19.692674
1461.000000	19.776424
1460.000000	19.845671
1459.000000	19.955622
1458.000000	20.061948
1457.000000	20.176344
1456.000000	20.281149
1455.000000	20.378234
1454.000000	20.536143
1453.000000	20.652879
1452.000000	20.793242
1451.000000	20.923781
1450.000000	21.037475
1449.000000	21.142514
1448.000000	21.295978
1447.000000	21.468041
1446.000000	21.607001
1445.000000	21.746663
1444.000000	21.892758
1443.000000	22.045286
1442.000000	22.203546
1441.000000	22.369293
1440.000000	22.538314
1439.000000	22.674350
1438.000000	22.807461
1437.000000	22.951685
1436.000000	23.094388
1435.000000	23.231944
1434.000000	23.399211
1433.000000	23.546125
1432.000000	23.713158
1431.000000	23.890601
1430.000000	24.057049
1429.000000	24.247125
1428.000000	24.481298
1427.000000	24.718630
1426.000000	24.964500
1425.000000	25.211657
1424.000000	25.481389
1423.000000	25.714744
1422.000000	25.957339
1421.000000	26.231633
1420.000000	26.495166
1419.000000	26.746651
1418.000000	26.935908
1417.000000	27.193592
1416.000000	27.452330
1415.000000	27.679836
1414.000000	27.915881
1413.000000	28.090633
1412.000000	28.342469
1411.000000	28.663317
1410.000000	29.028263
1409.000000	29.422451
1408.000000	29.807398
1407.000000	30.218430
1406.000000	30.669465
1405.000000	31.081316
1404.000000	31.481469
1403.000000	31.896361
1402.000000	32.380966
1401.000000	32.779716
1400.000000	33.056934
1399.000000	33.236132
1398.000000	33.463521
1397.000000	33.686583
1396.000000	33.893502
1395.000000	33.965321
1394.000000	34.090479
1393.000000	34.261606
1392.000000	34.415772
1391.000000	34.559411
1390.000000	34.794871
1389.000000	35.125544
1388.000000	35.404283
1387.000000	35.782446
1386.000000	36.193946
1385.000000	36.660772
1384.000000	37.131107
1383.000000	37.502018
1382.000000	37.793039
1381.000000	37.884743
1380.000000	38.000310
1379.000000	38.021013
1378.000000	38.082656
1377.000000	38.229453
1376.000000	38.469358
1375.000000	38.819566
1374.000000	39.270484
1373.000000	39.773805
1372.000000	40.313737
1371.000000	40.791324
1370.000000	41.233119
1369.000000	41.667428
1368.000000	42.048632
1367.000000	42.309358
1366.000000	42.617339
1365.000000	42.878415
1364.000000	43.095277
1363.000000	43.305355
1362.000000	43.503151
1361.000000	43.580936
1360.000000	43.631350
1359.000000	43.762005
1358.000000	44.022029
1357.000000	44.430019
1356.000000	45.052298
1355.000000	45.870501
1354.000000	46.699232
1353.000000	47.531823
1352.000000	48.389094
1351.000000	49.154895
1350.000000	49.823494
1349.000000	50.428812
1348.000000	51.001145
1347.000000	51.514525
1346.000000	52.016793
1345.000000	52.508417
1344.000000	52.933017
1343.000000	53.348260
1342.000000	53.761748
1341.000000	54.144473
1340.000000	54.486609
1339.000000	54.833307
1338.000000	55.165502
1337.000000	55.463540
1336.000000	55.753508
1335.000000	56.032130
1334.000000	56.293558
1333.000000	56.551710
1332.000000	56.795007
1331.000000	57.005436
1330.000000	57.209899
1329.000000	57.406174
1328.000000	57.592039
1327.000000	57.769950
1326.000000	57.950317
1325.000000	58.091383
1324.000000	58.242040
1323.000000	58.384158
1322.000000	58.516685
1321.000000	58.655060
1320.000000	58.764076
1319.000000	58.871571
1318.000000	58.989476
1317.000000	59.098726
1316.000000	59.208561
1315.000000	59.294065
1314.000000	59.389981
1313.000000	59.454080
1312.000000	59.526250
1311.000000	59.618773
1310.000000	59.676323
1309.000000	59.717613
1308.000000	59.759722
1307.000000	59.792123
1306.000000	59.817271
1305.000000	59.854818
1304.000000	59.868504
1303.000000	59.859848
1302.000000	59.858210
1301.000000	59.854000
1300.000000	59.835986
1299.000000	59.813411
1298.000000	59.806744
1297.000000	59.801714
1296.000000	59.805106
1295.000000	59.839027
1294.000000	59.856339
1293.000000	59.839729
1292.000000	59.801012
1291.000000	59.742878
1290.000000	59.687435
1289.000000	59.643805
1288.000000	59.560873
1287.000000	59.463672
1286.000000	59.376178
1285.000000	59.262367
1284.000000	59.149491
1283.000000	59.048897
1282.000000	58.929822
1281.000000	58.830397
1280.000000	58.732845
1279.000000	58.638216
1278.000000	58.543003
1277.000000	58.446854
1276.000000	58.355266
1275.000000	58.270931
1274.000000	58.199930
1273.000000	58.127994
1272.000000	58.055824
1271.000000	57.974413
1270.000000	57.921426
1269.000000	57.838026
1268.000000	57.752638
1267.000000	57.692984
1266.000000	57.608648
1265.000000	57.512850
1264.000000	57.441265
1263.000000	57.369094
1262.000000	57.310960
1261.000000	57.228263
1260.000000	57.150478
1259.000000	57.085794
1258.000000	56.996546
1257.000000	56.910924
1256.000000	56.808108
1255.000000	56.713245
1254.000000	56.632653
1253.000000	56.535100
1252.000000	56.399766
1251.000000	56.280808
1250.000000	56.147229
1249.000000	56.006982
1248.000000	55.861588
1247.000000	55.701925
1246.000000	55.529862
1245.000000	55.341307
1244.000000	55.137078
1243.000000	54.939750
1242.000000	54.716689
1241.000000	54.495265
1240.000000	54.289398
1239.000000	54.060488
1238.000000	53.814150
1237.000000	53.577053
1236.000000	53.331650
1235.000000	53.082387
1234.000000	52.832891
1233.000000	52.558831
1232.000000	52.285239
1231.000000	52.031297
1230.000000	51.754781
1229.000000	51.472767
1228.000000	51.224323
1227.000000	50.932601
1226.000000	50.649183
1225.000000	50.391733
1224.000000	50.115918
1223.000000	49.850631
1222.000000	49.580664
1221.000000	49.344620
1220.000000	49.125535
1219.000000	48.882004
1218.000000	48.676254
1217.000000	48.465709
1216.000000	48.270720
1215.000000	48.068480
1214.000000	47.899692
1213.000000	47.743538
1212.000000	47.567849
1211.000000	47.408653
1210.000000	47.274606
1209.000000	47.146992
1208.000000	47.074471
1207.000000	46.973760
1206.000000	46.934224
1205.000000	46.899016
1204.000000	46.868721
1203.000000	46.842286
1202.000000	46.814096
1201.000000	46.715725
1200.000000	46.612206
1199.000000	46.460965
1198.000000	46.256034
1197.000000	45.958346
1196.000000	45.570474
1195.000000	45.103180
1194.000000	44.521606
1193.000000	43.881665
1192.000000	43.172477
1191.000000	42.496743
1190.000000	41.927802
1189.000000	41.503436
1188.000000	41.244231
1187.000000	41.249495
1186.000000	41.383074
1185.000000	41.719596
1184.000000	42.263739
1183.000000	42.922630
1182.000000	43.709252
1181.000000	44.454700
1180.000000	45.179093
1179.000000	45.854009
1178.000000	46.418037
1177.000000	46.939839
1176.000000	47.409940
1175.000000	47.844834
1174.000000	48.330375
1173.000000	48.807611
1172.000000	49.362399
1171.000000	49.867591
1170.000000	50.431268
1169.000000	50.952018
1168.000000	51.482709
1167.000000	52.021472
1166.000000	52.600238
1165.000000	53.168711
1164.000000	53.709462
1163.000000	54.268110
1162.000000	54.767921
1161.000000	55.298847
1160.000000	55.786494
1159.000000	56.255192
1158.000000	56.657217
1157.000000	57.000055
1156.000000	57.239258
1155.000000	57.429451
1154.000000	57.488871
1153.000000	57.542794
1152.000000	57.508756
1151.000000	57.443253
1150.000000	57.397167
1149.000000	57.348040
1148.000000	57.381961
1147.000000	57.520219
1146.000000	57.757317
1145.000000	58.119806
1144.000000	58.528732
1143.000000	58.963860
1142.000000	59.421445
1141.000000	59.912952
1140.000000	60.389136
1139.000000	60.884620
1138.000000	61.404082
1137.000000	61.950565
1136.000000	62.450494
1135.000000	62.924572
1134.000000	63.301215
1133.000000	63.658206
1132.000000	63.981628
1131.000000	64.302242
1130.000000	64.578992
1129.000000	64.781584
1128.000000	64.961834
1127.000000	65.101496
1126.000000	65.202207
1125.000000	65.290402
1124.000000	65.378597
1123.000000	65.482232
1122.000000	65.537793
1121.000000	65.580604
1120.000000	65.607975
1119.000000	65.626456
1118.000000	65.649148
1117.000000	65.661313
1116.000000	65.646224
1115.000000	65.615344
1114.000000	65.573001
1113.000000	65.573703
1112.000000	65.555455
1111.000000	65.534518
1110.000000	65.504106
1109.000000	65.492877
1108.000000	65.462231
1107.000000	65.434158
1106.000000	65.390528
1105.000000	65.342804
1104.000000	65.305491
1103.000000	65.254492
1102.000000	65.209693
1101.000000	65.166414
1100.000000	65.122317
1099.000000	65.054240
1098.000000	64.979496
1097.000000	64.904753
1096.000000	64.802287
1095.000000	64.731638
1094.000000	64.658064
1093.000000	64.575600
1092.000000	64.500038
1091.000000	64.407047
1090.000000	64.323413
1089.000000	64.221065
1088.000000	64.112634
1087.000000	64.012859
1086.000000	63.929459
1085.000000	63.831789
1084.000000	63.732365
1083.000000	63.645340
1082.000000	63.556677
1081.000000	63.460995
1080.000000	63.383678
1079.000000	63.308350
1078.000000	63.211148
1077.000000	63.139095
1076.000000	63.071954
1075.000000	63.008439
1074.000000	62.928081
1073.000000	62.847138
1072.000000	62.767014
1071.000000	62.687124
1070.000000	62.624779
1069.000000	62.557872
1068.000000	62.476695
1067.000000	62.412946
1066.000000	62.346391
1065.000000	62.281940
1064.000000	62.197956
1063.000000	62.109761
1062.000000	62.039696
1061.000000	61.952086
1060.000000	61.877108
1059.000000	61.781895
1058.000000	61.684810
1057.000000	61.616733
1056.000000	61.530527
1055.000000	61.440694
1054.000000	61.340568
1053.000000	61.256818
1052.000000	61.185466
1051.000000	61.114115
1050.000000	61.031183
1049.000000	60.964744
1048.000000	60.894211
1047.000000	60.813151
1046.000000	60.724722
1045.000000	60.654540
1044.000000	60.575937
1043.000000	60.486455
1042.000000	60.424929
1041.000000	60.358607
1040.000000	60.270412
1039.000000	60.195083
1038.000000	60.129697
1037.000000	60.032495
1036.000000	59.938686
1035.000000	59.867451
1034.000000	59.785572
1033.000000	59.684627
1032.000000	59.603099
1031.000000	59.510225
1030.000000	59.418404
1029.000000	59.340619
1028.000000	59.240259
1027.000000	59.134402
1026.000000	59.043165
1025.000000	58.941870
1024.000000	58.828526
1023.000000	58.755186
1022.000000	58.684887
1021.000000	58.604646
1020.000000	58.512591
1019.000000	58.427788
1018.000000	58.369888
1017.000000	58.304151
1016.000000	58.257597
1015.000000	58.214669
1014.000000	58.172443
1013.000000	58.135246
1012.000000	58.117818
1011.000000	58.122497
1010.000000	58.121210
1009.000000	58.115244
1008.000000	58.124719
1007.000000	58.120742
1006.000000	58.119923
1005.000000	58.106706
1004.000000	58.102261
1003.000000	58.111969
1002.000000	58.102963
1001.000000	58.095009
1000.000000	58.074071
999.000000	58.075943
998.000000	58.075709
997.000000	58.054186
996.000000	58.027517
995.000000	58.007866
994.000000	58.024944
993.000000	58.022721
992.000000	58.004357
991.000000	58.001433
990.000000	58.020148
989.000000	58.031611
988.000000	58.026464
987.000000	58.044361
986.000000	58.067170
985.000000	58.066351
984.000000	58.067053
983.000000	58.092669
982.000000	58.098752
981.000000	58.112905
980.000000	58.107057
979.000000	58.118637
978.000000	58.119689
977.000000	58.131971
976.000000	58.150101
975.000000	58.165424
974.000000	58.191392
973.000000	58.180747
972.000000	58.194433
971.000000	58.228939
970.000000	58.237361
969.000000	58.241572
968.000000	58.252684
967.000000	58.275727
966.000000	58.294559
965.000000	58.307426
964.000000	58.331989
963.000000	58.377841
962.000000	58.422173
961.000000	58.453638
960.000000	58.492121
959.000000	58.551308
958.000000	58.568151
957.000000	58.635058
956.000000	58.662312
955.000000	58.709451
954.000000	58.739278
953.000000	58.790745
952.000000	58.825836
951.000000	58.857768
950.000000	58.866073
949.000000	58.889467
948.000000	58.945496
947.000000	58.985148
946.000000	59.020239
945.000000	59.074162
944.000000	59.107733
943.000000	59.153702
942.000000	59.171481
941.000000	59.237569
940.000000	59.289153
939.000000	59.345298
938.000000	59.379453
937.000000	59.443553
936.000000	59.495253
935.000000	59.609533
934.000000	59.665561
933.000000	59.736094
932.000000	59.826629
931.000000	59.861720
930.000000	59.928158
929.000000	59.977052
928.000000	60.061972
927.000000	60.149699
926.000000	60.181281
925.000000	60.229472
924.000000	60.304216
923.000000	60.370421
922.000000	60.521897
921.000000	60.562485
920.000000	60.592313
919.000000	60.652435
918.000000	60.727413
917.000000	60.857132
916.000000	60.885322
915.000000	60.957843
914.000000	61.001824
913.000000	61.062180
912.000000	61.135169
911.000000	61.219153
910.000000	61.333784
909.000000	61.403147
908.000000	61.479762
907.000000	61.613107
906.000000	61.749962
905.000000	61.843421
904.000000	61.892314
903.000000	61.991388
902.000000	62.103328
901.000000	62.256441
900.000000	62.355163
899.000000	62.453652
898.000000	62.560328
897.000000	62.653319
896.000000	62.690867
895.000000	62.713325
894.000000	62.795438
893.000000	62.878369
892.000000	62.956505
891.000000	62.935801
890.000000	62.881293
889.000000	62.865619
888.000000	62.919659
887.000000	62.824446
886.000000	62.839652
885.000000	62.835324
884.000000	62.770874
883.000000	62.705839
882.000000	62.619866
881.000000	62.603022
880.000000	62.500089
879.000000	62.438797
878.000000	62.327793
877.000000	62.279835
876.000000	62.177720
875.000000	62.132102
874.000000	62.035251
873.000000	61.937114
872.000000	61.757214
871.000000	61.588544
870.000000	61.386186
869.000000	61.194941
868.000000	61.095750
867.000000	61.179033
866.000000	61.342556
865.000000	61.534621
864.000000	61.730194
863.000000	61.868335
862.000000	62.043556
861.000000	62.231643
860.000000	62.403589
859.000000	62.561615
858.000000	64.697833
857.000000	65.076200
856.000000	64.629300
855.000000	64.388000
854.000000	65.143900
853.000000	65.382000
852.000000	65.350700
851.000000	65.394900
850.000000	65.536000
849.000000	66.129700
848.000000	66.242700
847.000000	66.344800
846.000000	66.531900
845.000000	66.588600
844.000000	66.943700
843.000000	67.097600
842.000000	67.215300
841.000000	67.239200
840.000000	67.396900
839.000000	67.421900
838.000000	67.584200
837.000000	67.705200
836.000000	67.828500
835.000000	68.058500
834.000000	68.173900
833.000000	68.200300
832.000000	68.348300
831.000000	68.658500
830.000000	68.623000
829.000000	68.869100
828.000000	68.900900
827.000000	68.991200
826.000000	69.204500
825.000000	69.651600
824.000000	69.890800
823.000000	69.981800
822.000000	70.206500
821.000000	70.530200
820.000000	70.821700
819.000000	70.850600
818.000000	71.235200
817.000000	71.654600
816.000000	72.013000
815.000000	72.303900
814.000000	72.740900
813.000000	72.917800
812.000000	73.314400
811.000000	73.769600
810.000000	74.135100
809.000000	74.530100
808.000000	74.948100
807.000000	75.385000
806.000000	75.793500
805.000000	76.060000
804.000000	76.466900
803.000000	76.938300
802.000000	77.418400
801.000000	77.995400
800.000000	78.345900
799.000000	78.662700
798.000000	79.141200
797.000000	79.535000
796.000000	79.931100
795.000000	80.402100
794.000000	80.732700
793.000000	81.230200
792.000000	81.711100
791.000000	82.256300
790.000000	82.693700
789.000000	83.216300
788.000000	83.625700
787.000000	84.030200
786.000000	84.392000
785.000000	84.771800
784.000000	85.262600
783.000000	85.682800
782.000000	86.176600
781.000000	86.636200
780.000000	86.931700
779.000000	87.353700
778.000000	87.771900
777.000000	88.088900
776.000000	88.454600
775.000000	88.776600
774.000000	89.154200
773.000000	89.469400
772.000000	89.776400
771.000000	90.141000
770.000000	90.393900
769.000000	90.746200
768.000000	90.981600
767.000000	91.218500
766.000000	91.527100
765.000000	91.799500
764.000000	92.032100
763.000000	92.225100
762.000000	92.358900
761.000000	92.523900
760.000000	92.710300
759.000000	92.937500
758.000000	93.060500
757.000000	93.085500
756.000000	93.254700
755.000000	93.418300
754.000000	93.505000
753.000000	93.673500
752.000000	93.788000
751.000000	93.900300
750.000000	94.002300
749.000000	94.095100
748.000000	94.142600
747.000000	94.147500
746.000000	94.148700
745.000000	94.085300
744.000000	94.115300
743.000000	94.232700
742.000000	94.238500
741.000000	94.218500
740.000000	94.148800
739.000000	94.108500
738.000000	94.142200
737.000000	94.127700
736.000000	94.066000
735.000000	94.057600
734.000000	94.004400
733.000000	93.930800
732.000000	93.859600
731.000000	93.747900
730.000000	93.706000
729.000000	93.516700
728.000000	93.431400
727.000000	93.464500
726.000000	93.347300
725.000000	93.212700
724.000000	93.086900
723.000000	92.963200
722.000000	92.918600
721.000000	92.730100
720.000000	92.495700
719.000000	92.272000
718.000000	92.102600
717.000000	91.994500
716.000000	91.827300
715.000000	91.671600
714.000000	91.548100
713.000000	91.328400
712.000000	91.089800
711.000000	90.884100
710.000000	90.673300
709.000000	90.553800
708.000000	90.389600
707.000000	90.217200
706.000000	89.986200
705.000000	89.751800
704.000000	89.492600
703.000000	89.254700
702.000000	89.036800
701.000000	88.803100
700.000000	88.587300
699.000000	88.274400
698.000000	88.040500
697.000000	87.762400
696.000000	87.474100
695.000000	87.138900
694.000000	86.800900
693.000000	86.483300
692.000000	86.128500
691.000000	85.719600
690.000000	85.296100
689.000000	84.874500
688.000000	84.439600
687.000000	84.110300
686.000000	83.649900
685.000000	83.156300
684.000000	82.631800
683.000000	82.141700
682.000000	81.669900
681.000000	81.225200
680.000000	80.712600
679.000000	80.216900
678.000000	79.727400
677.000000	79.290600
676.000000	78.816400
675.000000	78.322200
674.000000	77.808700
673.000000	77.322100
672.000000	76.825500
671.000000	76.435800
670.000000	75.961700
669.000000	75.537000
668.000000	75.136900
667.000000	74.707100
666.000000	74.345800
665.000000	74.058200
664.000000	73.766200
663.000000	73.463300
662.000000	73.138000
661.000000	72.863800
660.000000	72.567500
659.000000	72.254600
658.000000	71.949200
657.000000	71.642500
656.000000	71.290600
655.000000	71.036900
654.000000	70.668500
653.000000	70.369200
652.000000	69.985700
651.000000	69.608200
650.000000	69.246200
649.000000	68.866700
648.000000	68.512400
647.000000	68.141900
646.000000	67.776300
645.000000	67.415400
644.000000	67.017100
643.000000	66.651400
642.000000	66.253900
641.000000	65.849000
640.000000	65.441400
639.000000	65.098500
638.000000	64.680300
637.000000	64.290500
636.000000	63.983200
635.000000	63.629800
634.000000	63.289500
633.000000	62.998800
632.000000	62.718000
631.000000	62.480200
630.000000	62.199600
629.000000	62.003800
628.000000	61.837200
627.000000	61.704800
626.000000	61.684600
625.000000	61.631200
624.000000	61.620400
623.000000	61.652100
622.000000	61.734400
621.000000	61.772600
620.000000	61.865000
619.000000	61.934200
618.000000	62.082600
617.000000	62.225800
616.000000	62.345500
615.000000	62.460500
614.000000	62.729300
613.000000	62.889500
612.000000	63.077800
611.000000	63.341400
610.000000	63.562100
609.000000	63.797600
608.000000	64.063500
607.000000	64.336700
606.000000	64.589100
605.000000	64.977400
604.000000	65.298900
603.000000	65.658800
602.000000	66.015600
601.000000	66.363300
600.000000	66.736100
599.000000	67.112300
598.000000	67.470700
597.000000	67.809600
596.000000	68.135100
595.000000	68.488800
594.000000	68.798100
593.000000	69.113000
592.000000	69.491200
591.000000	69.827000
590.000000	70.115900
589.000000	70.427900
588.000000	70.725200
587.000000	71.039700
586.000000	71.373200
585.000000	71.609700
584.000000	71.872900
583.000000	72.089500
582.000000	72.320800
581.000000	72.565000
580.000000	72.715000
579.000000	72.878000
578.000000	73.020600
577.000000	73.166100
576.000000	73.283400
575.000000	73.354200
574.000000	73.489200
573.000000	73.550300
572.000000	73.555600
571.000000	73.568600
570.000000	73.567500
569.000000	73.559800
568.000000	73.500300
567.000000	73.458000
566.000000	73.360500
565.000000	73.299500
564.000000	73.187100
563.000000	73.080300
562.000000	72.950500
561.000000	72.794100
560.000000	72.695000
559.000000	72.626800
558.000000	72.465700
557.000000	72.263000
556.000000	72.052700
555.000000	71.783200
554.000000	71.534100
553.000000	71.256100
552.000000	70.960600
551.000000	70.645500
550.000000	70.339600
549.000000	69.982600
548.000000	69.565800
547.000000	69.226500
546.000000	68.806500
545.000000	68.398500
544.000000	67.935800
543.000000	67.468100
542.000000	67.016000
541.000000	66.493000
540.000000	65.998200
539.000000	65.467100
538.000000	64.905600
537.000000	64.336300
536.000000	63.751600
535.000000	63.131200
534.000000	62.496200
533.000000	61.843400
532.000000	61.172300
531.000000	60.516800
530.000000	59.866600
529.000000	59.166800
528.000000	58.439900
527.000000	57.700100
526.000000	56.941200
525.000000	56.197400
524.000000	55.432500
523.000000	54.699700
522.000000	53.937500
521.000000	53.138500
520.000000	52.358600
519.000000	51.579300
518.000000	50.812800
517.000000	50.058700
516.000000	49.314500
515.000000	48.561300
514.000000	47.834900
513.000000	47.125700
512.000000	46.455000
511.000000	45.780100
510.000000	45.123500
509.000000	44.487500
508.000000	43.887300
507.000000	43.321600
506.000000	42.794900
505.000000	42.270000
504.000000	41.739300
503.000000	41.236300
502.000000	40.764300
501.000000	40.295600
500.000000	39.833300
499.000000	39.370400
498.000000	38.962000
497.000000	38.542600
496.000000	38.125400
495.000000	37.704100
494.000000	37.299000
493.000000	36.890800
492.000000	36.447800
491.000000	36.002700
490.000000	35.576900
489.000000	35.154700
488.000000	34.722200
487.000000	34.274700
486.000000	33.825300
485.000000	33.398300
484.000000	32.966200
483.000000	32.518900
482.000000	32.079600
481.000000	31.649400
480.000000	31.202200
479.000000	30.791400
478.000000	30.405300
477.000000	30.015500
476.000000	29.676700
475.000000	29.350300
474.000000	29.044800
473.000000	28.741100
472.000000	28.465100
471.000000	28.225500
470.000000	27.996400
469.000000	27.780100
468.000000	27.615700
467.000000	27.467900
466.000000	27.303900
465.000000	27.185800
464.000000	27.098000
463.000000	27.020700
462.000000	26.943500
461.000000	26.885800
460.000000	26.853600
459.000000	26.822700
458.000000	26.766200
457.000000	26.727000
456.000000	26.719200
455.000000	26.695100
454.000000	26.682900
453.000000	26.667200
452.000000	26.648900
451.000000	26.629100
450.000000	26.594400
449.000000	26.548000
448.000000	26.494800
447.000000	26.455600
446.000000	26.412000
445.000000	26.346100
444.000000	26.272800
443.000000	26.154600
442.000000	26.021900
441.000000	25.894800
440.000000	25.743600
439.000000	25.587400
438.000000	25.433100
437.000000	25.275200
436.000000	25.098400
435.000000	24.900400
434.000000	24.700500
433.000000	24.485700
432.000000	24.245600
431.000000	24.003100
430.000000	23.769300
429.000000	23.493700
428.000000	23.212500
427.000000	22.932500
426.000000	22.615700
425.000000	22.311800
424.000000	21.984300
423.000000	21.645300
422.000000	21.298400
421.000000	20.906700
420.000000	20.516900
419.000000	20.126900
418.000000	19.728600
417.000000	19.311600
416.000000	18.898700
415.000000	18.506400
414.000000	18.058100
413.000000	17.606600
412.000000	17.168000
411.000000	16.733100
410.000000	16.295400
409.000000	15.862600
408.000000	15.455200
407.000000	15.035500
406.000000	14.610700
405.000000	14.197000
404.000000	13.771700
403.000000	13.362800
402.000000	12.980200
401.000000	12.605400
400.000000	12.213500
399.000000	11.850400
398.000000	11.509000
397.000000	11.178200
396.000000	10.841200
395.000000	10.544900
394.000000	10.245200
393.000000	9.948400
392.000000	9.650500
391.000000	9.385000
390.000000	9.163800
389.000000	8.909300
388.000000	8.691600
387.000000	8.493400
386.000000	8.305700
385.000000	8.107100
384.000000	7.906100
383.000000	7.749700
382.000000	7.619200
381.000000	7.481900
380.000000	7.334400
379.000000	7.207200
378.000000	7.092100
377.000000	6.991800
376.000000	7.022800
375.000000	6.636000
374.000000	6.382500
373.000000	6.340900
372.000000	6.291800
371.000000	6.161300
370.000000	6.107300
369.000000	6.176900
368.000000	6.191700
367.000000	6.141800
366.000000	6.127100
365.000000	6.102300
364.000000	6.119500
363.000000	6.152700
362.000000	6.164300
361.000000	6.047500
360.000000	6.037300
359.000000	6.040900
358.000000	5.951600
357.000000	5.870100
356.000000	5.898100
355.000000	5.893600
354.000000	5.874800
353.000000	5.772600
352.000000	5.726000
351.000000	5.773300
350.000000	5.464700
349.000000	5.714900
348.000000	5.750800
347.000000	5.703000
346.000000	5.757700
345.000000	5.794900
344.000000	5.569400
343.000000	5.621800
342.000000	5.494900
341.000000	5.709000
340.000000	5.771600
339.000000	5.523500
338.000000	5.631400
337.000000	5.587300
336.000000	5.417600
335.000000	5.464200
334.000000	5.670900
333.000000	5.720500
332.000000	5.584000
331.000000	5.476900
330.000000	5.696600
329.000000	5.741500
328.000000	5.677700
327.000000	5.590800
326.000000	5.748200
325.000000	5.813900
324.000000	5.724700
323.000000	5.722000
322.000000	5.468000
321.000000	5.725300
320.000000	5.639100
319.000000	5.874100
318.000000	6.049900
317.000000	5.693000
316.000000	5.332100
315.000000	5.242100
314.000000	5.282300
313.000000	5.235800
312.000000	5.260100
311.000000	5.303200
310.000000	5.302200
309.000000	5.332100
308.000000	5.372100
307.000000	5.342500
306.000000	5.345000
305.000000	5.280400
304.000000	5.346700
303.000000	5.289400
302.000000	5.279300
301.000000	5.308800
300.000000	5.323500
299.000000	5.290700
298.000000	5.342900
297.000000	5.328600
296.000000	5.325600
295.000000	5.341900
294.000000	5.332200
293.000000	5.356500
292.000000	5.364700
291.000000	5.324600
290.000000	5.305900
289.000000	5.385100
288.000000	5.364300
287.000000	5.402500
286.000000	5.358100
285.000000	5.349900
284.000000	5.402600
283.000000	5.444600
282.000000	5.395800
281.000000	5.411200
280.000000	5.420600
279.000000	5.483300
278.000000	5.434300
277.000000	5.412600
276.000000	5.451000
275.000000	5.414200
274.000000	5.391900
273.000000	5.518600
272.000000	5.505100
271.000000	5.538800
270.000000	5.474900
269.000000	5.549600
268.000000	5.562600
267.000000	5.581400
266.000000	5.607900
265.000000	5.630500
264.000000	5.598800
263.000000	5.710100
262.000000	5.666700
261.000000	5.684900
260.000000	5.690800
259.000000	5.712200
258.000000	5.685800
257.000000	5.768800
256.000000	5.745400
255.000000	5.752600
254.000000	5.752700
253.000000	5.754200
252.000000	5.749300
251.000000	5.731300
250.000000	5.842800
