PE UV       SUBTECH     SPECTRUM    ASCII       PEDS        4.00        
   -1
INBUCR0145-1.Sample.ASC
24/04/29
14:37:06.00
24/04/29
14:37:06.00
Vinicio Soto Monge
C. kalinini
250,000000
1
Lambda 1050
1050L1511233
PerkinElmer UV WinLab 6.3.2.0749 / 2.02.05 Lambda 900 UV/VIS/NIR, Aug  7 2015 09:38:08

0
0
3350/servo 860,8/2
0
0
UV/VIS
1
1
1
DoubleDePol,CommonBeamDepol,RBeamAtt,SBeamAtt,60mm sphere, WB InGaAs Detector
0
0
0
0
Program
Program
3350/servo 860,8/2
3350/0,2 860,8/0,2
3350/0,2 860,8/0,2
0
15.00
 
 
 
0
 
860,8
319,2
860,8
Front
100
on
S:100 R:100
0
0
0
0
 
0
 
 
 
0
 
 
0
0
0
0
0
 
 
 
 
0
0


0
0
#HDR
-1
-1
#GR
nm
%R
1.0
0.0
2500,000000
-1,000000
2251
8
92,587400
6,268400
#DATA
2482.000000	17.033084
2481.000000	17.160057
2480.000000	17.177485
2479.000000	17.172053
2478.000000	17.261115
2477.000000	17.167300
2476.000000	17.269150
2475.000000	17.309890
2474.000000	17.312267
2473.000000	17.412985
2472.000000	17.399632
2471.000000	17.443088
2470.000000	17.534640
2469.000000	17.548672
2468.000000	17.655615
2467.000000	17.703485
2466.000000	17.711746
2465.000000	17.769235
2464.000000	17.876064
2463.000000	17.913749
2462.000000	18.007451
2461.000000	18.070032
2460.000000	18.163621
2459.000000	18.223713
2458.000000	18.316623
2457.000000	18.397876
2456.000000	18.487957
2455.000000	18.578604
2454.000000	18.703087
2453.000000	18.797242
2452.000000	18.900337
2451.000000	18.990984
2450.000000	19.148286
2449.000000	19.249570
2448.000000	19.359116
2447.000000	19.474320
2446.000000	19.589750
2445.000000	19.709594
2444.000000	19.851844
2443.000000	19.988550
2442.000000	20.112694
2441.000000	20.214884
2440.000000	20.341744
2439.000000	20.493387
2438.000000	20.628735
2437.000000	20.715194
2436.000000	20.830285
2435.000000	20.956806
2434.000000	21.073820
2433.000000	21.178726
2432.000000	21.290648
2431.000000	21.420563
2430.000000	21.537917
2429.000000	21.633543
2428.000000	21.730641
2427.000000	21.834754
2426.000000	21.949279
2425.000000	22.041284
2424.000000	22.118237
2423.000000	22.220087
2422.000000	22.310055
2421.000000	22.379087
2420.000000	22.451966
2419.000000	22.531749
2418.000000	22.598970
2417.000000	22.662117
2416.000000	22.736354
2415.000000	22.791919
2414.000000	22.859141
2413.000000	22.930775
2412.000000	22.963820
2411.000000	23.008408
2410.000000	23.064878
2409.000000	23.101883
2408.000000	23.115577
2407.000000	23.171368
2406.000000	23.219690
2405.000000	23.234402
2404.000000	23.272652
2403.000000	23.301170
2402.000000	23.331952
2401.000000	23.347795
2400.000000	23.390459
2399.000000	23.445119
2398.000000	23.485632
2397.000000	23.493667
2396.000000	23.498646
2395.000000	23.506908
2394.000000	23.532144
2393.000000	23.563152
2392.000000	23.562133
2391.000000	23.570055
2390.000000	23.590085
2389.000000	23.580579
2388.000000	23.578316
2387.000000	23.586351
2386.000000	23.588954
2385.000000	23.574129
2384.000000	23.575374
2383.000000	23.568584
2382.000000	23.544140
2381.000000	23.536105
2380.000000	23.513245
2379.000000	23.491970
2378.000000	23.487443
2377.000000	23.468997
2376.000000	23.431765
2375.000000	23.400304
2374.000000	23.386159
2373.000000	23.382764
2372.000000	23.360809
2371.000000	23.338402
2370.000000	23.337610
2369.000000	23.320069
2368.000000	23.300604
2367.000000	23.283290
2366.000000	23.265749
2365.000000	23.255111
2364.000000	23.248887
2363.000000	23.246398
2362.000000	23.229083
2361.000000	23.200565
2360.000000	23.189588
2359.000000	23.195586
2358.000000	23.170576
2357.000000	23.145453
2356.000000	23.135607
2355.000000	23.098488
2354.000000	23.061822
2353.000000	23.054014
2352.000000	23.048582
2351.000000	23.023798
2350.000000	22.999354
2349.000000	22.970270
2348.000000	22.954767
2347.000000	22.935415
2346.000000	22.913234
2345.000000	22.865704
2344.000000	22.829491
2343.000000	22.836620
2342.000000	22.832659
2341.000000	22.821116
2340.000000	22.819532
2339.000000	22.796672
2338.000000	22.774492
2337.000000	22.764646
2336.000000	22.768154
2335.000000	22.773360
2334.000000	22.781395
2333.000000	22.784337
2332.000000	22.789430
2331.000000	22.804028
2330.000000	22.811950
2329.000000	22.851332
2328.000000	22.861857
2327.000000	22.880190
2326.000000	22.922061
2325.000000	22.959520
2324.000000	22.968686
2323.000000	22.975816
2322.000000	22.991546
2321.000000	22.999467
2320.000000	23.008521
2319.000000	23.006257
2318.000000	23.015650
2317.000000	23.002297
2316.000000	22.976042
2315.000000	22.951032
2314.000000	22.928738
2313.000000	22.903049
2312.000000	22.877587
2311.000000	22.840128
2310.000000	22.785808
2309.000000	22.749821
2308.000000	22.729678
2307.000000	22.695049
2306.000000	22.632807
2305.000000	22.596820
2304.000000	22.583353
2303.000000	22.552685
2302.000000	22.528580
2301.000000	22.527562
2300.000000	22.516811
2299.000000	22.505381
2298.000000	22.484558
2297.000000	22.500288
2296.000000	22.511152
2295.000000	22.516698
2294.000000	22.524506
2293.000000	22.538086
2292.000000	22.550421
2291.000000	22.560719
2290.000000	22.605307
2289.000000	22.651932
2288.000000	22.675923
2287.000000	22.739636
2286.000000	22.736581
2285.000000	22.781395
2284.000000	22.835715
2283.000000	22.885395
2282.000000	22.935528
2281.000000	22.964273
2280.000000	23.001504
2279.000000	23.092377
2278.000000	23.114105
2277.000000	23.135720
2276.000000	23.171255
2275.000000	23.219464
2274.000000	23.253640
2273.000000	23.286911
2272.000000	23.303207
2271.000000	23.374842
2270.000000	23.411847
2269.000000	23.459717
2268.000000	23.518451
2267.000000	23.585445
2266.000000	23.668963
2265.000000	23.740597
2264.000000	23.827849
2263.000000	23.932755
2262.000000	24.062331
2261.000000	24.188625
2260.000000	24.327707
2259.000000	24.473353
2258.000000	24.643782
2257.000000	24.807195
2256.000000	24.977964
2255.000000	25.160615
2254.000000	25.343606
2253.000000	25.537574
2252.000000	25.718980
2251.000000	25.897105
2250.000000	26.067647
2249.000000	26.262860
2248.000000	26.439740
2247.000000	26.614243
2246.000000	26.742348
2245.000000	26.886636
2244.000000	27.053783
2243.000000	27.170685
2242.000000	27.286907
2241.000000	27.382986
2240.000000	27.457902
2239.000000	27.560205
2238.000000	27.614978
2237.000000	27.676541
2236.000000	27.704040
2235.000000	27.724523
2234.000000	27.756550
2233.000000	27.786539
2232.000000	27.764132
2231.000000	27.755531
2230.000000	27.716149
2229.000000	27.688536
2228.000000	27.659566
2227.000000	27.623126
2226.000000	27.556357
2225.000000	27.487892
2224.000000	27.402224
2223.000000	27.323913
2222.000000	27.247638
2221.000000	27.171251
2220.000000	27.070193
2219.000000	26.974453
2218.000000	26.867511
2217.000000	26.779354
2216.000000	26.717904
2215.000000	26.603379
2214.000000	26.507414
2213.000000	26.427744
2212.000000	26.340945
2211.000000	26.254146
2210.000000	26.190320
2209.000000	26.107143
2208.000000	26.048862
2207.000000	25.974624
2206.000000	25.917928
2205.000000	25.853649
2204.000000	25.781788
2203.000000	25.757570
2202.000000	25.703137
2201.000000	25.657191
2200.000000	25.589970
2199.000000	25.547985
2198.000000	25.500229
2197.000000	25.464242
2196.000000	25.454170
2195.000000	25.413430
2194.000000	25.374727
2193.000000	25.333647
2192.000000	25.305921
2191.000000	25.275819
2190.000000	25.256015
2189.000000	25.226252
2188.000000	25.193433
2187.000000	25.184380
2186.000000	25.144658
2185.000000	25.141377
2184.000000	25.115235
2183.000000	25.096449
2182.000000	25.058425
2181.000000	25.024475
2180.000000	25.017572
2179.000000	24.993015
2178.000000	24.982377
2177.000000	24.969929
2176.000000	24.969929
2175.000000	24.977398
2174.000000	24.977511
2173.000000	24.985772
2172.000000	24.988036
2171.000000	25.018930
2170.000000	25.050504
2169.000000	25.082643
2168.000000	25.108898
2167.000000	25.156994
2166.000000	25.209503
2165.000000	25.271179
2164.000000	25.330705
2163.000000	25.400642
2162.000000	25.473974
2161.000000	25.552512
2160.000000	25.650288
2159.000000	25.735842
2158.000000	25.838598
2157.000000	25.946672
2156.000000	26.061989
2155.000000	26.186020
2154.000000	26.307335
2153.000000	26.445964
2152.000000	26.584594
2151.000000	26.707832
2150.000000	26.860042
2149.000000	27.010327
2148.000000	27.138206
2147.000000	27.279099
2146.000000	27.433006
2145.000000	27.575370
2144.000000	27.719091
2143.000000	27.855458
2142.000000	27.995105
2141.000000	28.132490
2140.000000	28.270101
2139.000000	28.400016
2138.000000	28.520200
2137.000000	28.628161
2136.000000	28.757058
2135.000000	28.868414
2134.000000	28.975244
2133.000000	29.094069
2132.000000	29.185621
2131.000000	29.292790
2130.000000	29.387850
2129.000000	29.465596
2128.000000	29.543681
2127.000000	29.620295
2126.000000	29.707094
2125.000000	29.755982
2124.000000	29.821392
2123.000000	29.898685
2122.000000	29.946781
2121.000000	30.001780
2120.000000	30.045349
2119.000000	30.092880
2118.000000	30.126943
2117.000000	30.154329
2116.000000	30.187940
2115.000000	30.196314
2114.000000	30.222116
2113.000000	30.245202
2112.000000	30.254821
2111.000000	30.261159
2110.000000	30.269533
2109.000000	30.278360
2108.000000	30.285716
2107.000000	30.290582
2106.000000	30.290016
2105.000000	30.298956
2104.000000	30.305746
2103.000000	30.294090
2102.000000	30.291261
2101.000000	30.300088
2100.000000	30.307444
2099.000000	30.315026
2098.000000	30.322495
2097.000000	30.321024
2096.000000	30.332114
2095.000000	30.362896
2094.000000	30.392206
2093.000000	30.403070
2092.000000	30.420611
2091.000000	30.448563
2090.000000	30.471423
2089.000000	30.509107
2088.000000	30.519405
2087.000000	30.528798
2086.000000	30.547018
2085.000000	30.531401
2084.000000	30.515784
2083.000000	30.499149
2082.000000	30.484776
2081.000000	30.459314
2080.000000	30.404315
2079.000000	30.349316
2078.000000	30.287527
2077.000000	30.204915
2076.000000	30.123208
2075.000000	30.033467
2074.000000	29.926977
2073.000000	29.813923
2072.000000	29.681292
2071.000000	29.567898
2070.000000	29.464464
2069.000000	29.315650
2068.000000	29.156311
2067.000000	29.002856
2066.000000	28.866490
2065.000000	28.723787
2064.000000	28.585723
2063.000000	28.437362
2062.000000	28.296695
2061.000000	28.165422
2060.000000	28.045804
2059.000000	27.947349
2058.000000	27.865982
2057.000000	27.787218
2056.000000	27.728711
2055.000000	27.704040
2054.000000	27.699174
2053.000000	27.718752
2052.000000	27.762661
2051.000000	27.829542
2050.000000	27.940219
2049.000000	28.060742
2048.000000	28.229021
2047.000000	28.373535
2046.000000	28.532988
2045.000000	28.720958
2044.000000	28.927261
2043.000000	29.129943
2042.000000	29.322440
2041.000000	29.525008
2040.000000	29.724069
2039.000000	29.921658
2038.000000	30.133846
2037.000000	30.302465
2036.000000	30.473686
2035.000000	30.641852
2034.000000	30.828351
2033.000000	30.974223
2032.000000	31.136731
2031.000000	31.271060
2030.000000	31.410255
2029.000000	31.549677
2028.000000	31.644058
2027.000000	31.781216
2026.000000	31.902191
2025.000000	32.002797
2024.000000	32.080995
2023.000000	32.179111
2022.000000	32.277453
2021.000000	32.340147
2020.000000	32.425249
2019.000000	32.495525
2018.000000	32.573497
2017.000000	32.609711
2016.000000	32.642868
2015.000000	32.699339
2014.000000	32.741776
2013.000000	32.750377
2012.000000	32.759657
2011.000000	32.765881
2010.000000	32.782630
2009.000000	32.775274
2008.000000	32.777763
2007.000000	32.749924
2006.000000	32.720048
2005.000000	32.660975
2004.000000	32.630646
2003.000000	32.572252
2002.000000	32.518611
2001.000000	32.455351
2000.000000	32.394241
1999.000000	32.310045
1998.000000	32.228791
1997.000000	32.153195
1996.000000	32.060285
1995.000000	31.967941
1994.000000	31.846400
1993.000000	31.770012
1992.000000	31.658543
1991.000000	31.519574
1990.000000	31.430965
1989.000000	31.334207
1988.000000	31.197954
1987.000000	31.083203
1986.000000	30.956343
1985.000000	30.830162
1984.000000	30.703415
1983.000000	30.593303
1982.000000	30.481381
1981.000000	30.365612
1980.000000	30.254482
1979.000000	30.116645
1978.000000	30.009136
1977.000000	29.865188
1976.000000	29.752134
1975.000000	29.643494
1974.000000	29.529988
1973.000000	29.438322
1972.000000	29.316329
1971.000000	29.208481
1970.000000	29.111157
1969.000000	29.014060
1968.000000	28.900553
1967.000000	28.791687
1966.000000	28.688818
1965.000000	28.582894
1964.000000	28.490210
1963.000000	28.385984
1962.000000	28.257313
1961.000000	28.164969
1960.000000	28.028376
1959.000000	27.923810
1958.000000	27.802043
1957.000000	27.706190
1956.000000	27.575143
1955.000000	27.463674
1954.000000	27.371896
1953.000000	27.248770
1952.000000	27.145109
1951.000000	27.048578
1950.000000	26.924094
1949.000000	26.868303
1948.000000	26.758192
1947.000000	26.672864
1946.000000	26.591723
1945.000000	26.530953
1944.000000	26.465316
1943.000000	26.393568
1942.000000	26.357355
1941.000000	26.295905
1940.000000	26.274403
1939.000000	26.270556
1938.000000	26.229816
1937.000000	26.226081
1936.000000	26.251770
1935.000000	26.261276
1934.000000	26.312880
1933.000000	26.331779
1932.000000	26.394926
1931.000000	26.460110
1930.000000	26.564676
1929.000000	26.660302
1928.000000	26.799611
1927.000000	26.930205
1926.000000	27.064534
1925.000000	27.220705
1924.000000	27.385023
1923.000000	27.550246
1922.000000	27.776241
1921.000000	28.050444
1920.000000	28.301109
1919.000000	28.540004
1918.000000	28.816018
1917.000000	29.107309
1916.000000	29.370196
1915.000000	29.693287
1914.000000	30.103970
1913.000000	30.534570
1912.000000	30.952948
1911.000000	31.330472
1910.000000	31.750887
1909.000000	32.151385
1908.000000	32.606995
1907.000000	33.128354
1906.000000	33.763786
1905.000000	34.409290
1904.000000	35.002963
1903.000000	35.613725
1902.000000	36.243838
1901.000000	36.903488
1900.000000	37.655821
1899.000000	38.423658
1898.000000	39.109110
1897.000000	39.798409
1896.000000	40.419808
1895.000000	41.048450
1894.000000	41.714211
1893.000000	42.422183
1892.000000	43.201563
1891.000000	43.942919
1890.000000	44.643422
1889.000000	45.286323
1888.000000	45.891879
1887.000000	46.458958
1886.000000	47.017663
1885.000000	47.613713
1884.000000	48.170720
1883.000000	48.652245
1882.000000	49.130149
1881.000000	49.576366
1880.000000	49.947553
1879.000000	50.312742
1878.000000	50.705658
1877.000000	51.057380
1876.000000	51.373455
1875.000000	51.681609
1874.000000	51.997458
1873.000000	52.304140
1872.000000	52.558878
1871.000000	52.801961
1870.000000	53.000795
1869.000000	53.194650
1868.000000	53.328526
1867.000000	53.428113
1866.000000	53.509027
1865.000000	53.615517
1864.000000	53.707183
1863.000000	53.800658
1862.000000	53.932498
1861.000000	54.043288
1860.000000	54.137896
1859.000000	54.205683
1858.000000	54.272338
1857.000000	54.326205
1856.000000	54.353365
1855.000000	54.417418
1854.000000	54.454989
1853.000000	54.466759
1852.000000	54.489618
1851.000000	54.524247
1850.000000	54.558650
1849.000000	54.578454
1848.000000	54.592826
1847.000000	54.559103
1846.000000	54.501388
1845.000000	54.450576
1844.000000	54.421152
1843.000000	54.435638
1842.000000	54.455555
1841.000000	54.424095
1840.000000	54.380073
1839.000000	54.335485
1838.000000	54.284334
1837.000000	54.236124
1836.000000	54.167432
1835.000000	54.078483
1834.000000	54.006735
1833.000000	53.967580
1832.000000	53.932950
1831.000000	53.904772
1830.000000	53.885194
1829.000000	53.848867
1828.000000	53.784023
1827.000000	53.735248
1826.000000	53.719065
1825.000000	53.696884
1824.000000	53.696319
1823.000000	53.724837
1822.000000	53.763879
1821.000000	53.795113
1820.000000	53.782552
1819.000000	53.747017
1818.000000	53.719405
1817.000000	53.702656
1816.000000	53.712841
1815.000000	53.689415
1814.000000	53.671535
1813.000000	53.674138
1812.000000	53.650260
1811.000000	53.603182
1810.000000	53.556444
1809.000000	53.538451
1808.000000	53.530982
1807.000000	53.514459
1806.000000	53.475983
1805.000000	53.440561
1804.000000	53.429697
1803.000000	53.413062
1802.000000	53.393371
1801.000000	53.355686
1800.000000	53.316983
1799.000000	53.299556
1798.000000	53.287107
1797.000000	53.260173
1796.000000	53.233013
1795.000000	53.211512
1794.000000	53.190010
1793.000000	53.168282
1792.000000	53.154589
1791.000000	53.150628
1790.000000	53.151081
1789.000000	53.156626
1788.000000	53.153004
1787.000000	53.156965
1786.000000	53.179259
1785.000000	53.176996
1784.000000	53.166924
1783.000000	53.165000
1782.000000	53.164887
1781.000000	53.149949
1780.000000	53.106832
1779.000000	53.090876
1778.000000	53.056134
1777.000000	53.019128
1776.000000	52.961866
1775.000000	52.907545
1774.000000	52.857978
1773.000000	52.810109
1772.000000	52.739493
1771.000000	52.672837
1770.000000	52.629268
1769.000000	52.575853
1768.000000	52.532397
1767.000000	52.479775
1766.000000	52.422852
1765.000000	52.393315
1764.000000	52.381206
1763.000000	52.351444
1762.000000	52.321115
1761.000000	52.296784
1760.000000	52.277206
1759.000000	52.265210
1758.000000	52.282072
1757.000000	52.270077
1756.000000	52.275509
1755.000000	52.241332
1754.000000	52.237258
1753.000000	52.215417
1752.000000	52.199008
1751.000000	52.181241
1750.000000	52.121941
1749.000000	52.055852
1748.000000	52.008548
1747.000000	51.935216
1746.000000	51.857357
1745.000000	51.762410
1744.000000	51.648904
1743.000000	51.561312
1742.000000	51.460028
1741.000000	51.346069
1740.000000	51.247953
1739.000000	51.166926
1738.000000	51.071300
1737.000000	50.982124
1736.000000	50.916488
1735.000000	50.857301
1734.000000	50.798681
1733.000000	50.716522
1732.000000	50.664578
1731.000000	50.606863
1730.000000	50.530589
1729.000000	50.486227
1728.000000	50.418327
1727.000000	50.372268
1726.000000	50.329378
1725.000000	50.320664
1724.000000	50.325304
1723.000000	50.387206
1722.000000	50.510332
1721.000000	50.656204
1720.000000	50.868279
1719.000000	51.125960
1718.000000	51.405029
1717.000000	51.696321
1716.000000	51.953549
1715.000000	52.220396
1714.000000	52.470269
1713.000000	52.710182
1712.000000	52.913543
1711.000000	53.081257
1710.000000	53.259381
1709.000000	53.392126
1708.000000	53.543656
1707.000000	53.613480
1706.000000	53.698356
1705.000000	53.782439
1704.000000	53.828950
1703.000000	53.874217
1702.000000	53.908620
1701.000000	53.920502
1700.000000	53.941098
1699.000000	53.962147
1698.000000	53.932158
1697.000000	53.925708
1696.000000	53.918691
1695.000000	53.852262
1694.000000	53.778478
1693.000000	53.682512
1692.000000	53.598316
1691.000000	53.501332
1690.000000	53.488318
1689.000000	53.475530
1688.000000	53.531661
1687.000000	53.641659
1686.000000	53.820123
1685.000000	54.027332
1684.000000	54.291689
1683.000000	54.566572
1682.000000	54.860240
1681.000000	55.128106
1680.000000	55.418492
1679.000000	55.692356
1678.000000	55.919368
1677.000000	56.178521
1676.000000	56.425224
1675.000000	56.639902
1674.000000	56.854693
1673.000000	57.070954
1672.000000	57.302381
1671.000000	57.523169
1670.000000	57.763309
1669.000000	57.965312
1668.000000	58.169126
1667.000000	58.413000
1666.000000	58.606516
1665.000000	58.788262
1664.000000	58.980419
1663.000000	59.134099
1662.000000	59.303058
1661.000000	59.438066
1660.000000	59.585635
1659.000000	59.701292
1658.000000	59.835055
1657.000000	59.933397
1656.000000	59.998242
1655.000000	60.075308
1654.000000	60.126573
1653.000000	60.167879
1652.000000	60.215975
1651.000000	60.240532
1650.000000	60.249925
1649.000000	60.272558
1648.000000	60.251622
1647.000000	60.264636
1646.000000	60.252188
1645.000000	60.240192
1644.000000	60.236118
1643.000000	60.224802
1642.000000	60.228197
1641.000000	60.224689
1640.000000	60.223444
1639.000000	60.220615
1638.000000	60.209637
1637.000000	60.192549
1636.000000	60.176932
1635.000000	60.157581
1634.000000	60.133929
1633.000000	60.093302
1632.000000	60.044414
1631.000000	60.011595
1630.000000	59.975042
1629.000000	59.930228
1628.000000	59.883830
1627.000000	59.835281
1626.000000	59.785375
1625.000000	59.758894
1624.000000	59.686693
1623.000000	59.646293
1622.000000	59.604534
1621.000000	59.561983
1620.000000	59.530976
1619.000000	59.504155
1618.000000	59.452664
1617.000000	59.418488
1616.000000	59.396760
1615.000000	59.339158
1614.000000	59.287780
1613.000000	59.243532
1612.000000	59.185930
1611.000000	59.118935
1610.000000	59.057599
1609.000000	58.990264
1608.000000	58.918177
1607.000000	58.831944
1606.000000	58.749898
1605.000000	58.667965
1604.000000	58.574829
1603.000000	58.482258
1602.000000	58.381653
1601.000000	58.293949
1600.000000	58.217448
1599.000000	58.118087
1598.000000	58.009108
1597.000000	57.931023
1596.000000	57.864141
1595.000000	57.785264
1594.000000	57.714987
1593.000000	57.646295
1592.000000	57.590503
1591.000000	57.527356
1590.000000	57.458098
1589.000000	57.397441
1588.000000	57.332144
1587.000000	57.268317
1586.000000	57.216147
1585.000000	57.157527
1584.000000	57.100378
1583.000000	57.040513
1582.000000	56.997735
1581.000000	56.959711
1580.000000	56.928477
1579.000000	56.902902
1578.000000	56.873252
1577.000000	56.852542
1576.000000	56.832172
1575.000000	56.824816
1574.000000	56.824024
1573.000000	56.833530
1572.000000	56.831946
1571.000000	56.841339
1570.000000	56.872799
1569.000000	56.893848
1568.000000	56.907315
1567.000000	56.935041
1566.000000	56.971368
1565.000000	56.992869
1564.000000	57.017540
1563.000000	57.035194
1562.000000	57.024330
1561.000000	57.018898
1560.000000	57.002149
1559.000000	56.980421
1558.000000	56.959259
1557.000000	56.910710
1556.000000	56.852769
1555.000000	56.799920
1554.000000	56.726361
1553.000000	56.638657
1552.000000	56.546086
1551.000000	56.455779
1550.000000	56.355740
1549.000000	56.254908
1548.000000	56.160414
1547.000000	56.071691
1546.000000	55.982968
1545.000000	55.909410
1544.000000	55.849658
1543.000000	55.790811
1542.000000	55.737057
1541.000000	55.680473
1540.000000	55.644260
1539.000000	55.609970
1538.000000	55.554292
1537.000000	55.495332
1536.000000	55.467267
1535.000000	55.424716
1534.000000	55.357042
1533.000000	55.288463
1532.000000	55.221129
1531.000000	55.150739
1530.000000	55.091892
1529.000000	55.025916
1528.000000	54.960506
1527.000000	54.888758
1526.000000	54.802751
1525.000000	54.737906
1524.000000	54.674986
1523.000000	54.594863
1522.000000	54.515986
1521.000000	54.443333
1520.000000	54.360834
1519.000000	54.284786
1518.000000	54.188029
1517.000000	54.107454
1516.000000	54.034914
1515.000000	53.951057
1514.000000	53.856110
1513.000000	53.778591
1512.000000	53.674025
1511.000000	53.585415
1510.000000	53.503482
1509.000000	53.426642
1508.000000	53.331582
1507.000000	53.235277
1506.000000	53.173148
1505.000000	53.093139
1504.000000	53.016073
1503.000000	52.966619
1502.000000	52.898266
1501.000000	52.836137
1500.000000	52.796755
1499.000000	52.747980
1498.000000	52.712559
1497.000000	52.717991
1496.000000	52.706674
1495.000000	52.702940
1494.000000	52.715841
1493.000000	52.725573
1492.000000	52.747980
1491.000000	52.782609
1490.000000	52.824821
1489.000000	52.856960
1488.000000	52.906866
1487.000000	52.943306
1486.000000	52.981104
1485.000000	53.030784
1484.000000	53.082162
1483.000000	53.133200
1482.000000	53.166698
1481.000000	53.220678
1480.000000	53.280543
1479.000000	53.320831
1478.000000	53.394050
1477.000000	53.464892
1476.000000	53.527813
1475.000000	53.594808
1474.000000	53.712501
1473.000000	53.818199
1472.000000	53.915183
1471.000000	54.019297
1470.000000	54.127824
1469.000000	54.207606
1468.000000	54.334014
1467.000000	54.442993
1466.000000	54.540770
1465.000000	54.680644
1464.000000	54.785323
1463.000000	54.887626
1462.000000	55.039496
1461.000000	55.144854
1460.000000	55.243875
1459.000000	55.396877
1458.000000	55.515023
1457.000000	55.657500
1456.000000	55.788434
1455.000000	55.907599
1454.000000	56.040457
1453.000000	56.179879
1452.000000	56.302778
1451.000000	56.453516
1450.000000	56.542465
1449.000000	56.636620
1448.000000	56.747863
1447.000000	56.929948
1446.000000	57.077405
1445.000000	57.157867
1444.000000	57.265036
1443.000000	57.392235
1442.000000	57.531996
1441.000000	57.675605
1440.000000	57.843884
1439.000000	57.953316
1438.000000	58.132346
1437.000000	58.255359
1436.000000	58.409718
1435.000000	58.610137
1434.000000	58.779321
1433.000000	58.976005
1432.000000	59.139758
1431.000000	59.342213
1430.000000	59.548969
1429.000000	59.782319
1428.000000	60.035700
1427.000000	60.244945
1426.000000	60.504663
1425.000000	60.795955
1424.000000	61.079212
1423.000000	61.381367
1422.000000	61.640180
1421.000000	62.006953
1420.000000	62.352452
1419.000000	62.664340
1418.000000	62.994448
1417.000000	63.281778
1416.000000	63.723355
1415.000000	64.179305
1414.000000	64.561809
1413.000000	64.909344
1412.000000	65.258803
1411.000000	65.739876
1410.000000	66.240526
1409.000000	66.715034
1408.000000	67.177887
1407.000000	67.582911
1406.000000	68.022225
1405.000000	68.459388
1404.000000	68.899494
1403.000000	69.303613
1402.000000	69.764429
1401.000000	70.255573
1400.000000	70.636606
1399.000000	70.881952
1398.000000	71.183202
1397.000000	71.614820
1396.000000	72.091705
1395.000000	72.365116
1394.000000	72.615102
1393.000000	72.895190
1392.000000	73.209907
1391.000000	73.507875
1390.000000	73.791358
1389.000000	74.176126
1388.000000	74.481337
1387.000000	74.741394
1386.000000	75.058148
1385.000000	75.397423
1384.000000	75.641410
1383.000000	75.886190
1382.000000	76.064768
1381.000000	76.203963
1380.000000	76.289064
1379.000000	76.421469
1378.000000	76.513814
1377.000000	76.626075
1376.000000	76.737997
1375.000000	76.864631
1374.000000	76.980061
1373.000000	77.144719
1372.000000	77.310282
1371.000000	77.424694
1370.000000	77.551441
1369.000000	77.721644
1368.000000	77.853936
1367.000000	77.974458
1366.000000	78.070763
1365.000000	78.200000
1364.000000	78.303208
1363.000000	78.449080
1362.000000	78.536219
1361.000000	78.572658
1360.000000	78.539727
1359.000000	78.643161
1358.000000	78.729394
1357.000000	78.844598
1356.000000	78.979154
1355.000000	79.105561
1354.000000	79.191568
1353.000000	79.302585
1352.000000	79.528126
1351.000000	79.719152
1350.000000	79.910743
1349.000000	80.107993
1348.000000	80.293813
1347.000000	80.462319
1346.000000	80.662058
1345.000000	80.851386
1344.000000	81.018760
1343.000000	81.176515
1342.000000	81.330761
1341.000000	81.478897
1340.000000	81.639254
1339.000000	81.777091
1338.000000	81.895011
1337.000000	82.022324
1336.000000	82.136396
1335.000000	82.234851
1334.000000	82.329006
1333.000000	82.430856
1332.000000	82.538365
1331.000000	82.618826
1330.000000	82.697025
1329.000000	82.758814
1328.000000	82.824337
1327.000000	82.886692
1326.000000	82.945539
1325.000000	82.996917
1324.000000	83.051916
1323.000000	83.100012
1322.000000	83.154558
1321.000000	83.188622
1320.000000	83.224269
1319.000000	83.271460
1318.000000	83.308465
1317.000000	83.333701
1316.000000	83.378402
1315.000000	83.420161
1314.000000	83.434759
1313.000000	83.457846
1312.000000	83.494625
1311.000000	83.521106
1310.000000	83.541702
1309.000000	83.549737
1308.000000	83.569541
1307.000000	83.590703
1306.000000	83.607678
1305.000000	83.616845
1304.000000	83.612431
1303.000000	83.617637
1302.000000	83.624427
1301.000000	83.613224
1300.000000	83.604397
1299.000000	83.600436
1298.000000	83.590251
1297.000000	83.581311
1296.000000	83.578934
1295.000000	83.568975
1294.000000	83.538647
1293.000000	83.515787
1292.000000	83.500736
1291.000000	83.472218
1290.000000	83.454677
1289.000000	83.430685
1288.000000	83.386324
1287.000000	83.347734
1286.000000	83.324309
1285.000000	83.293414
1284.000000	83.263312
1283.000000	83.217705
1282.000000	83.174815
1281.000000	83.159877
1280.000000	83.140865
1279.000000	83.104539
1278.000000	83.089714
1277.000000	83.083376
1276.000000	83.063006
1275.000000	83.048295
1274.000000	83.042410
1273.000000	83.048295
1272.000000	83.047616
1271.000000	83.036638
1270.000000	83.063119
1269.000000	83.086206
1268.000000	83.088243
1267.000000	83.083037
1266.000000	83.078397
1265.000000	83.083037
1264.000000	83.089601
1263.000000	83.094127
1262.000000	83.095825
1261.000000	83.073078
1260.000000	83.083603
1259.000000	83.086658
1258.000000	83.079868
1257.000000	83.075228
1256.000000	83.054292
1255.000000	83.051690
1254.000000	83.032112
1253.000000	82.980508
1252.000000	82.962627
1251.000000	82.932978
1250.000000	82.873905
1249.000000	82.842897
1248.000000	82.782013
1247.000000	82.699741
1246.000000	82.651192
1245.000000	82.595514
1244.000000	82.535422
1243.000000	82.458922
1242.000000	82.394982
1241.000000	82.323687
1240.000000	82.273328
1239.000000	82.214255
1238.000000	82.153824
1237.000000	82.102785
1236.000000	82.039073
1235.000000	81.985545
1234.000000	81.931904
1233.000000	81.887203
1232.000000	81.834806
1231.000000	81.770980
1230.000000	81.732730
1229.000000	81.693800
1228.000000	81.632577
1227.000000	81.564564
1226.000000	81.521221
1225.000000	81.472672
1224.000000	81.418579
1223.000000	81.361882
1222.000000	81.329403
1221.000000	81.282892
1220.000000	81.227666
1219.000000	81.185229
1218.000000	81.147318
1217.000000	81.102730
1216.000000	81.029171
1215.000000	80.984018
1214.000000	80.918381
1213.000000	80.866777
1212.000000	80.810420
1211.000000	80.755760
1210.000000	80.710041
1209.000000	80.641235
1208.000000	80.569714
1207.000000	80.503172
1206.000000	80.423163
1205.000000	80.352434
1204.000000	80.297208
1203.000000	80.214257
1202.000000	80.160503
1201.000000	80.072685
1200.000000	79.999240
1199.000000	79.937903
1198.000000	79.851897
1197.000000	79.774604
1196.000000	79.688144
1195.000000	79.597724
1194.000000	79.521110
1193.000000	79.425710
1192.000000	79.343212
1191.000000	79.275198
1190.000000	79.211259
1189.000000	79.163616
1188.000000	79.111446
1187.000000	79.127968
1186.000000	79.119028
1185.000000	79.127629
1184.000000	79.145622
1183.000000	79.187947
1182.000000	79.214314
1181.000000	79.271237
1180.000000	79.307338
1179.000000	79.371277
1178.000000	79.415186
1177.000000	79.490328
1176.000000	79.549062
1175.000000	79.606098
1174.000000	79.642877
1173.000000	79.724471
1172.000000	79.802330
1171.000000	79.879509
1170.000000	79.955218
1169.000000	80.060124
1168.000000	80.187889
1167.000000	80.275141
1166.000000	80.410036
1165.000000	80.509396
1164.000000	80.640104
1163.000000	80.771830
1162.000000	80.908988
1161.000000	80.999409
1160.000000	81.154560
1159.000000	81.249621
1158.000000	81.342078
1157.000000	81.457961
1156.000000	81.550192
1155.000000	81.620921
1154.000000	81.696177
1153.000000	81.787163
1152.000000	81.824395
1151.000000	81.868870
1150.000000	81.918324
1149.000000	81.973662
1148.000000	82.001501
1147.000000	82.066006
1146.000000	82.086716
1145.000000	82.154276
1144.000000	82.186755
1143.000000	82.224553
1142.000000	82.274799
1141.000000	82.343378
1140.000000	82.408902
1139.000000	82.470465
1138.000000	82.570504
1137.000000	82.653795
1136.000000	82.746026
1135.000000	82.844255
1134.000000	82.903781
1133.000000	82.911476
1132.000000	82.971002
1131.000000	83.016268
1130.000000	83.099899
1129.000000	83.114950
1128.000000	83.140073
1127.000000	83.153879
1126.000000	83.169383
1125.000000	83.199599
1124.000000	83.223816
1123.000000	83.196430
1122.000000	83.179342
1121.000000	83.137357
1120.000000	83.116082
1119.000000	83.106576
1118.000000	83.076700
1117.000000	83.038902
1116.000000	82.992843
1115.000000	82.957761
1114.000000	82.922453
1113.000000	82.897104
1112.000000	82.856250
1111.000000	82.824790
1110.000000	82.805099
1109.000000	82.768546
1108.000000	82.728825
1107.000000	82.679371
1106.000000	82.664659
1105.000000	82.647684
1104.000000	82.597551
1103.000000	82.564280
1102.000000	82.516184
1101.000000	82.498417
1100.000000	82.460166
1099.000000	82.434817
1098.000000	82.394869
1097.000000	82.352884
1096.000000	82.325837
1095.000000	82.294716
1094.000000	82.251260
1093.000000	82.203617
1092.000000	82.165706
1091.000000	82.148958
1090.000000	82.099164
1089.000000	82.057745
1088.000000	82.009310
1087.000000	81.979660
1086.000000	81.942428
1085.000000	81.914929
1084.000000	81.874641
1083.000000	81.822811
1082.000000	81.790332
1081.000000	81.755816
1080.000000	81.707720
1079.000000	81.655776
1078.000000	81.598174
1077.000000	81.564224
1076.000000	81.531972
1075.000000	81.474030
1074.000000	81.421181
1073.000000	81.379197
1072.000000	81.344115
1071.000000	81.300319
1070.000000	81.230948
1069.000000	81.191905
1068.000000	81.145847
1067.000000	81.106351
1066.000000	81.080210
1065.000000	81.031774
1064.000000	80.987866
1063.000000	80.946899
1062.000000	80.908083
1061.000000	80.873454
1060.000000	80.827508
1059.000000	80.791634
1058.000000	80.758929
1057.000000	80.721923
1056.000000	80.696800
1055.000000	80.664887
1054.000000	80.628448
1053.000000	80.593253
1052.000000	80.552173
1051.000000	80.520826
1050.000000	80.491289
1049.000000	80.457679
1048.000000	80.426897
1047.000000	80.417957
1046.000000	80.381857
1045.000000	80.346888
1044.000000	80.348246
1043.000000	80.334893
1042.000000	80.296416
1041.000000	80.272538
1040.000000	80.253413
1039.000000	80.223876
1038.000000	80.197961
1037.000000	80.178270
1036.000000	80.174083
1035.000000	80.155863
1034.000000	80.124968
1033.000000	80.110709
1032.000000	80.106748
1031.000000	80.098374
1030.000000	80.077551
1029.000000	80.076533
1028.000000	80.076193
1027.000000	80.064198
1026.000000	80.069856
1025.000000	80.077325
1024.000000	80.079588
1023.000000	80.081625
1022.000000	80.092603
1021.000000	80.108106
1020.000000	80.135153
1019.000000	80.154505
1018.000000	80.188568
1017.000000	80.227271
1016.000000	80.264842
1015.000000	80.293700
1014.000000	80.328895
1013.000000	80.390345
1012.000000	80.447267
1011.000000	80.498306
1010.000000	80.538027
1009.000000	80.583747
1008.000000	80.629353
1007.000000	80.695669
1006.000000	80.751120
1005.000000	80.792879
1004.000000	80.855687
1003.000000	80.910120
1002.000000	80.964893
1001.000000	81.028945
1000.000000	81.065385
999.000000	81.095940
998.000000	81.143357
997.000000	81.190095
996.000000	81.235814
995.000000	81.253355
994.000000	81.285834
993.000000	81.341173
992.000000	81.387797
991.000000	81.403301
990.000000	81.464751
989.000000	81.511828
988.000000	81.547363
987.000000	81.602475
986.000000	81.655663
985.000000	81.694366
984.000000	81.770075
983.000000	81.824961
982.000000	81.898972
981.000000	81.946728
980.000000	82.028774
979.000000	82.106407
978.000000	82.182908
977.000000	82.238246
976.000000	82.332627
975.000000	82.451905
974.000000	82.551492
973.000000	82.627880
972.000000	82.726109
971.000000	82.850592
970.000000	82.970889
969.000000	83.057122
968.000000	83.170062
967.000000	83.272931
966.000000	83.410089
965.000000	83.534799
964.000000	83.630651
963.000000	83.724693
962.000000	83.820658
961.000000	83.940502
960.000000	84.036694
959.000000	84.127680
958.000000	84.196033
957.000000	84.290867
956.000000	84.411616
955.000000	84.477139
954.000000	84.573218
953.000000	84.673710
952.000000	84.769223
951.000000	84.862586
950.000000	84.968510
949.000000	85.037655
948.000000	85.116306
947.000000	85.221212
946.000000	85.304276
945.000000	85.388133
944.000000	85.479458
943.000000	85.591380
942.000000	85.651132
941.000000	85.740082
940.000000	85.812622
939.000000	85.942990
938.000000	86.021075
937.000000	86.100971
936.000000	86.186864
935.000000	86.270155
934.000000	86.400410
933.000000	86.474987
932.000000	86.548546
931.000000	86.637382
930.000000	86.775219
929.000000	86.820486
928.000000	86.910906
927.000000	86.976090
926.000000	87.119020
925.000000	87.144935
924.000000	87.212269
923.000000	87.299634
922.000000	87.376022
921.000000	87.425702
920.000000	87.501524
919.000000	87.555844
918.000000	87.710430
917.000000	87.734308
916.000000	87.780028
915.000000	87.822691
914.000000	87.909717
913.000000	87.939140
912.000000	87.985765
911.000000	88.132542
910.000000	88.166266
909.000000	88.190144
908.000000	88.165700
907.000000	88.197047
906.000000	88.230205
905.000000	88.271398
904.000000	88.331716
903.000000	88.337374
902.000000	88.366911
901.000000	88.374946
900.000000	88.363969
899.000000	88.285091
898.000000	88.283394
897.000000	88.277735
896.000000	88.293013
895.000000	88.263590
894.000000	88.118623
893.000000	88.105722
892.000000	88.077883
891.000000	88.016659
890.000000	87.889686
889.000000	87.783423
888.000000	87.621254
887.000000	87.596358
886.000000	87.501411
885.000000	87.303595
884.000000	87.220417
883.000000	86.991368
882.000000	86.868582
881.000000	86.668842
880.000000	86.490038
879.000000	86.287243
878.000000	86.132318
877.000000	85.829144
876.000000	85.461125
875.000000	85.082582
874.000000	84.839839
873.000000	84.438436
872.000000	84.080829
871.000000	83.918548
870.000000	83.998783
869.000000	84.114213
868.000000	84.244355
867.000000	84.308181
866.000000	84.407315
865.000000	84.473631
864.000000	84.543003
863.000000	84.614411
862.000000	84.720675
861.000000	84.790498
860.000000	84.880240
859.000000	84.963757
858.000000	87.001100
857.000000	86.986500
856.000000	87.008700
855.000000	87.008100
854.000000	86.708400
853.000000	87.062700
852.000000	87.014100
851.000000	87.322700
850.000000	87.721600
849.000000	87.787400
848.000000	87.798600
847.000000	88.238800
846.000000	88.449800
845.000000	89.066500
844.000000	89.188600
843.000000	89.333600
842.000000	89.750400
841.000000	89.793500
840.000000	90.181600
839.000000	90.351700
838.000000	90.591300
837.000000	90.809800
836.000000	90.643000
835.000000	91.287200
834.000000	91.585800
833.000000	91.619700
832.000000	91.873800
831.000000	92.032200
830.000000	92.206700
829.000000	92.260800
828.000000	92.121800
827.000000	92.267100
826.000000	92.184200
825.000000	92.318700
824.000000	92.587400
823.000000	92.474700
822.000000	92.296100
821.000000	92.064000
820.000000	92.201800
819.000000	92.104400
818.000000	91.648700
817.000000	91.712600
816.000000	91.583800
815.000000	91.483800
814.000000	91.582700
813.000000	91.491000
812.000000	91.152300
811.000000	90.993900
810.000000	90.847900
809.000000	90.714300
808.000000	90.699400
807.000000	90.411500
806.000000	90.554800
805.000000	90.519800
804.000000	90.466100
803.000000	90.391900
802.000000	90.247900
801.000000	90.291400
800.000000	90.366000
799.000000	90.360900
798.000000	90.157800
797.000000	90.190000
796.000000	90.156900
795.000000	89.991100
794.000000	90.017400
793.000000	89.991600
792.000000	89.906300
791.000000	89.902300
790.000000	89.901400
789.000000	89.884000
788.000000	89.845900
787.000000	89.723400
786.000000	89.582000
785.000000	89.506200
784.000000	89.435900
783.000000	89.207500
782.000000	88.986600
781.000000	88.796000
780.000000	88.688300
779.000000	88.608800
778.000000	88.389800
777.000000	88.321300
776.000000	88.268400
775.000000	88.106000
774.000000	88.029200
773.000000	87.926300
772.000000	87.846800
771.000000	87.767500
770.000000	87.559600
769.000000	87.465400
768.000000	87.533300
767.000000	87.476100
766.000000	87.339600
765.000000	87.121900
764.000000	86.896800
763.000000	86.869400
762.000000	86.798400
761.000000	86.661600
760.000000	86.587400
759.000000	86.440600
758.000000	86.369500
757.000000	86.364000
756.000000	86.248200
755.000000	86.068600
754.000000	85.977800
753.000000	85.918000
752.000000	85.754500
751.000000	85.535600
750.000000	85.406100
749.000000	85.387700
748.000000	85.298200
747.000000	85.132800
746.000000	85.076400
745.000000	84.994700
744.000000	84.849600
743.000000	84.772600
742.000000	84.690400
741.000000	84.562100
740.000000	84.523100
739.000000	84.537200
738.000000	84.475500
737.000000	84.378000
736.000000	84.311300
735.000000	84.240500
734.000000	84.182800
733.000000	84.198800
732.000000	84.180300
731.000000	84.113900
730.000000	84.018700
729.000000	83.943600
728.000000	83.910500
727.000000	83.832400
726.000000	83.695000
725.000000	83.584400
724.000000	83.456300
723.000000	83.364900
722.000000	83.265600
721.000000	83.068200
720.000000	82.930300
719.000000	82.836800
718.000000	82.644400
717.000000	82.370000
716.000000	82.095800
715.000000	81.867100
714.000000	81.631700
713.000000	81.291800
712.000000	80.966500
711.000000	80.645400
710.000000	80.232300
709.000000	79.788200
708.000000	79.382100
707.000000	79.045100
706.000000	78.650200
705.000000	78.082700
704.000000	77.565200
703.000000	77.076000
702.000000	76.528200
701.000000	76.000900
700.000000	75.405800
699.000000	74.797000
698.000000	74.257700
697.000000	73.721200
696.000000	73.123600
695.000000	72.594000
694.000000	71.961600
693.000000	71.379600
692.000000	70.754900
691.000000	70.148000
690.000000	69.576600
689.000000	69.004600
688.000000	68.335400
687.000000	67.797600
686.000000	67.256800
685.000000	66.680200
684.000000	66.186100
683.000000	65.620200
682.000000	65.061400
681.000000	64.605600
680.000000	64.109000
679.000000	63.545100
678.000000	63.094900
677.000000	62.755200
676.000000	62.358300
675.000000	61.970500
674.000000	61.575600
673.000000	61.198800
672.000000	60.906500
671.000000	60.644300
670.000000	60.339300
669.000000	60.068200
668.000000	59.898800
667.000000	59.717200
666.000000	59.579500
665.000000	59.490700
664.000000	59.367800
663.000000	59.420100
662.000000	59.385600
661.000000	59.343800
660.000000	59.453600
659.000000	59.506000
658.000000	59.527500
657.000000	59.618400
656.000000	59.798000
655.000000	59.917200
654.000000	60.078900
653.000000	60.297700
652.000000	60.455200
651.000000	60.685600
650.000000	60.931200
649.000000	61.161200
648.000000	61.427800
647.000000	61.675600
646.000000	61.921700
645.000000	62.239900
644.000000	62.477300
643.000000	62.756700
642.000000	63.014900
641.000000	63.261900
640.000000	63.561000
639.000000	63.772800
638.000000	63.992300
637.000000	64.220400
636.000000	64.430900
635.000000	64.705800
634.000000	64.913200
633.000000	65.192900
632.000000	65.420400
631.000000	65.791200
630.000000	66.018800
629.000000	66.329300
628.000000	66.605500
627.000000	66.839600
626.000000	67.187800
625.000000	67.381300
624.000000	67.693000
623.000000	67.904100
622.000000	68.152200
621.000000	68.359600
620.000000	68.586100
619.000000	68.755000
618.000000	69.043600
617.000000	69.272100
616.000000	69.521500
615.000000	69.783500
614.000000	70.026000
613.000000	70.355200
612.000000	70.655100
611.000000	70.990400
610.000000	71.294200
609.000000	71.606700
608.000000	71.892200
607.000000	72.259100
606.000000	72.450200
605.000000	72.756800
604.000000	73.005600
603.000000	73.237100
602.000000	73.389700
601.000000	73.589300
600.000000	73.815200
599.000000	74.004500
598.000000	74.159000
597.000000	74.262300
596.000000	74.401300
595.000000	74.562700
594.000000	74.700300
593.000000	74.782500
592.000000	74.836800
591.000000	74.957000
590.000000	75.066100
589.000000	75.046300
588.000000	75.127600
587.000000	75.179700
586.000000	75.222800
585.000000	75.218100
584.000000	75.266700
583.000000	75.266500
582.000000	75.251400
581.000000	75.137000
580.000000	75.177800
579.000000	75.084900
578.000000	74.999400
577.000000	74.927400
576.000000	74.832500
575.000000	74.736400
574.000000	74.581600
573.000000	74.477200
572.000000	74.323700
571.000000	74.132400
570.000000	73.979100
569.000000	73.787800
568.000000	73.617900
567.000000	73.440500
566.000000	73.217500
565.000000	73.023600
564.000000	72.789800
563.000000	72.608000
562.000000	72.373300
561.000000	72.118400
560.000000	71.832700
559.000000	71.526400
558.000000	71.245200
557.000000	70.943300
556.000000	70.617800
555.000000	70.312200
554.000000	69.926400
553.000000	69.580400
552.000000	69.165300
551.000000	68.784300
550.000000	68.362100
549.000000	67.964200
548.000000	67.545300
547.000000	67.145000
546.000000	66.741300
545.000000	66.327900
544.000000	65.870500
543.000000	65.438800
542.000000	64.998300
541.000000	64.501700
540.000000	64.011200
539.000000	63.495400
538.000000	62.961500
537.000000	62.418300
536.000000	61.851200
535.000000	61.241800
534.000000	60.611300
533.000000	59.964700
532.000000	59.341500
531.000000	58.676300
530.000000	58.035100
529.000000	57.389000
528.000000	56.723800
527.000000	56.073200
526.000000	55.427000
525.000000	54.777000
524.000000	54.150200
523.000000	53.476700
522.000000	52.799800
521.000000	52.093900
520.000000	51.410400
519.000000	50.703400
518.000000	50.001700
517.000000	49.318000
516.000000	48.634200
515.000000	47.921100
514.000000	47.227400
513.000000	46.520800
512.000000	45.864000
511.000000	45.168500
510.000000	44.489900
509.000000	43.826900
508.000000	43.181000
507.000000	42.509200
506.000000	41.832300
505.000000	41.163700
504.000000	40.453600
503.000000	39.731500
502.000000	39.086000
501.000000	38.426400
500.000000	37.776100
499.000000	37.123600
498.000000	36.505300
497.000000	35.909400
496.000000	35.308100
495.000000	34.736700
494.000000	34.204500
493.000000	33.677300
492.000000	33.181100
491.000000	32.696900
490.000000	32.183000
489.000000	31.741400
488.000000	31.322700
487.000000	30.896500
486.000000	30.473100
485.000000	30.093800
484.000000	29.746400
483.000000	29.375300
482.000000	29.012900
481.000000	28.664800
480.000000	28.314200
479.000000	27.973400
478.000000	27.669800
477.000000	27.349300
476.000000	27.042000
475.000000	26.758900
474.000000	26.489100
473.000000	26.193900
472.000000	25.894800
471.000000	25.617600
470.000000	25.369000
469.000000	25.101900
468.000000	24.844800
467.000000	24.611900
466.000000	24.380400
465.000000	24.154500
464.000000	23.926400
463.000000	23.700400
462.000000	23.477300
461.000000	23.289200
460.000000	23.133300
459.000000	22.961700
458.000000	22.795900
457.000000	22.650300
456.000000	22.516600
455.000000	22.382100
454.000000	22.238900
453.000000	22.094500
452.000000	21.977600
451.000000	21.883700
450.000000	21.782400
449.000000	21.671100
448.000000	21.571900
447.000000	21.480400
446.000000	21.388100
445.000000	21.278600
444.000000	21.171600
443.000000	21.051200
442.000000	20.935300
441.000000	20.820900
440.000000	20.682100
439.000000	20.530600
438.000000	20.359800
437.000000	20.186100
436.000000	20.031300
435.000000	19.874000
434.000000	19.697700
433.000000	19.499100
432.000000	19.281000
431.000000	19.044800
430.000000	18.827200
429.000000	18.589200
428.000000	18.333300
427.000000	18.099500
426.000000	17.835200
425.000000	17.575900
424.000000	17.307500
423.000000	17.019900
422.000000	16.737600
421.000000	16.464200
420.000000	16.149000
419.000000	15.830500
418.000000	15.519100
417.000000	15.218200
416.000000	14.919000
415.000000	14.606500
414.000000	14.272900
413.000000	13.942600
412.000000	13.641400
411.000000	13.324200
410.000000	13.005100
409.000000	12.710700
408.000000	12.403700
407.000000	12.078400
406.000000	11.800900
405.000000	11.543700
404.000000	11.256800
403.000000	11.002800
402.000000	10.716300
401.000000	10.449000
400.000000	10.195600
399.000000	9.980600
398.000000	9.764300
397.000000	9.545700
396.000000	9.330700
395.000000	9.133000
394.000000	8.945600
393.000000	8.775100
392.000000	8.608800
391.000000	8.433300
390.000000	8.272500
389.000000	8.151200
388.000000	8.023100
387.000000	7.884700
386.000000	7.760900
385.000000	7.677600
384.000000	7.571700
383.000000	7.485900
382.000000	7.421700
381.000000	7.335300
380.000000	7.282900
379.000000	7.200600
378.000000	7.133900
377.000000	7.081400
376.000000	7.046500
375.000000	6.495000
374.000000	6.374400
373.000000	6.433300
372.000000	6.428700
371.000000	6.361500
370.000000	6.693200
369.000000	6.499700
368.000000	6.487200
367.000000	6.696300
366.000000	6.676600
365.000000	6.658300
364.000000	6.364600
363.000000	6.335400
362.000000	6.664500
361.000000	6.766500
360.000000	6.721900
359.000000	6.706800
358.000000	6.728700
357.000000	6.728000
356.000000	6.689100
355.000000	6.575300
354.000000	6.531400
353.000000	6.498100
352.000000	6.354600
351.000000	6.375400
350.000000	6.633900
349.000000	6.402100
348.000000	6.719000
347.000000	6.685100
346.000000	6.591000
345.000000	6.588500
344.000000	6.485600
343.000000	6.766500
342.000000	6.873300
341.000000	6.516900
340.000000	6.778000
339.000000	6.670600
338.000000	6.564600
337.000000	6.522300
336.000000	6.842200
335.000000	6.432800
334.000000	6.528900
333.000000	6.268400
332.000000	6.301300
331.000000	6.478100
330.000000	6.527300
329.000000	6.473800
328.000000	6.740400
327.000000	6.850200
326.000000	6.766200
325.000000	7.479400
324.000000	7.620700
323.000000	8.033200
322.000000	7.018600
321.000000	7.127300
320.000000	7.433900
319.000000	7.425400
318.000000	7.926500
317.000000	8.450500
316.000000	6.576700
315.000000	6.343100
314.000000	6.412700
313.000000	6.468000
312.000000	6.442100
311.000000	6.489500
310.000000	6.499500
309.000000	6.530800
308.000000	6.465300
307.000000	6.495700
306.000000	6.476100
305.000000	6.517500
304.000000	6.408600
303.000000	6.433800
302.000000	6.465200
301.000000	6.504200
300.000000	6.491800
299.000000	6.493800
298.000000	6.464800
297.000000	6.474000
296.000000	6.509700
295.000000	6.609800
294.000000	6.551900
293.000000	6.575000
292.000000	6.538800
291.000000	6.558400
290.000000	6.550800
289.000000	6.563500
288.000000	6.573500
287.000000	6.574400
286.000000	6.539200
285.000000	6.578100
284.000000	6.599600
283.000000	6.644300
282.000000	6.569100
281.000000	6.605100
280.000000	6.546000
279.000000	6.572800
278.000000	6.580800
277.000000	6.621600
276.000000	6.574700
275.000000	6.685500
274.000000	6.604500
273.000000	6.656100
272.000000	6.703200
271.000000	6.730000
270.000000	6.712000
269.000000	6.752200
268.000000	6.837400
267.000000	6.812700
266.000000	6.820800
265.000000	6.931600
264.000000	6.965800
263.000000	6.989800
262.000000	7.054300
261.000000	7.019700
260.000000	7.039500
259.000000	7.063200
258.000000	7.116800
257.000000	7.149000
256.000000	7.146800
255.000000	7.255100
254.000000	7.207900
253.000000	7.192700
252.000000	7.251000
251.000000	7.320400
250.000000	7.341500
