PE UV       SUBTECH     SPECTRUM    ASCII       PEDS        4.00        
   -1
CICIMAUCR0214-2.ASC
24/06/12
16:47:15.00
24/06/12
16:47:15.00
Vinicio Soto Monge
C. cupreomarginata. Sex M. Dorsal.
250,000000
1
Lambda 1050
1050L1511233
PerkinElmer UV WinLab 6.3.2.0749 / 2.02.05 Lambda 900 UV/VIS/NIR, Aug  7 2015 09:38:08

0
0
3350/servo 860,8/2
0
0
UV/VIS
1
1
1
DoubleDePol,CommonBeamDepol,RBeamAtt,SBeamAtt,60mm sphere, WB InGaAs Detector
0
0
0
0
Program
Program
3350/servo 860,8/2
3350/0,2 860,8/0,2
3350/0,2 860,8/0,2
0
15.00
 
 
 
0
 
860,8
319,2
860,8
Front
100
on
S:100 R:100
0
0
0
0
 
0
 
 
 
0
 
 
0
0
0
0
0
 
 
 
 
0
0


0
0
#HDR
-1
-1
#GR
nm
%R
1.0
0.0
2500,000000
-1,000000
2251
8
71,600900
6,115900
#DATA
2482.000000	14.582042
2481.000000	14.637347
2480.000000	14.537578
2479.000000	14.510276
2478.000000	14.431585
2477.000000	14.421548
2476.000000	14.486488
2475.000000	14.585355
2474.000000	14.510979
2473.000000	14.502749
2472.000000	14.631425
2471.000000	14.503953
2470.000000	14.626507
2469.000000	14.719753
2468.000000	14.625905
2467.000000	14.664649
2466.000000	14.737920
2465.000000	14.694559
2464.000000	14.742537
2463.000000	14.758697
2462.000000	14.796838
2461.000000	14.849233
2460.000000	14.936556
2459.000000	14.943883
2458.000000	15.050177
2457.000000	15.091531
2456.000000	15.176345
2455.000000	15.304721
2454.000000	15.415030
2453.000000	15.526643
2452.000000	15.560669
2451.000000	15.672484
2450.000000	15.771752
2449.000000	15.901432
2448.000000	16.019068
2447.000000	16.100972
2446.000000	16.217604
2445.000000	16.355013
2444.000000	16.496437
2443.000000	16.575832
2442.000000	16.708423
2441.000000	16.774468
2440.000000	16.896119
2439.000000	16.987357
2438.000000	17.099773
2437.000000	17.223833
2436.000000	17.332034
2435.000000	17.420462
2434.000000	17.523544
2433.000000	17.647403
2432.000000	17.720775
2431.000000	17.836905
2430.000000	17.925835
2429.000000	18.021289
2428.000000	18.060735
2427.000000	18.120456
2426.000000	18.219523
2425.000000	18.296709
2424.000000	18.347096
2423.000000	18.442349
2422.000000	18.495446
2421.000000	18.575844
2420.000000	18.627937
2419.000000	18.696692
2418.000000	18.766350
2417.000000	18.814328
2416.000000	18.849558
2415.000000	18.909781
2414.000000	18.961774
2413.000000	19.009451
2412.000000	19.036451
2411.000000	19.066864
2410.000000	19.116447
2409.000000	19.150473
2408.000000	19.159407
2407.000000	19.201462
2406.000000	19.222340
2405.000000	19.262890
2404.000000	19.292399
2403.000000	19.321909
2402.000000	19.366073
2401.000000	19.374303
2400.000000	19.401403
2399.000000	19.419571
2398.000000	19.445467
2397.000000	19.480697
2396.000000	19.521649
2395.000000	19.551660
2394.000000	19.590705
2393.000000	19.590906
2392.000000	19.601947
2391.000000	19.633162
2390.000000	19.659460
2389.000000	19.667490
2388.000000	19.668293
2387.000000	19.692984
2386.000000	19.710148
2385.000000	19.733936
2384.000000	19.714163
2383.000000	19.693486
2382.000000	19.686259
2381.000000	19.689973
2380.000000	19.664278
2379.000000	19.644103
2378.000000	19.639988
2377.000000	19.636776
2376.000000	19.600642
2375.000000	19.586891
2374.000000	19.573742
2373.000000	19.548047
2372.000000	19.517333
2371.000000	19.489229
2370.000000	19.470760
2369.000000	19.454801
2368.000000	19.422883
2367.000000	19.404916
2366.000000	19.387753
2365.000000	19.339173
2364.000000	19.286176
2363.000000	19.242816
2362.000000	19.211399
2361.000000	19.189518
2360.000000	19.147663
2359.000000	19.080916
2358.000000	19.036150
2357.000000	18.998310
2356.000000	18.932164
2355.000000	18.895027
2354.000000	18.867826
2353.000000	18.839019
2352.000000	18.813424
2351.000000	18.786224
2350.000000	18.784116
2349.000000	18.781606
2348.000000	18.769662
2347.000000	18.775484
2346.000000	18.798770
2345.000000	18.817138
2344.000000	18.824766
2343.000000	18.844138
2342.000000	18.876358
2341.000000	18.900547
2340.000000	18.911488
2339.000000	18.927447
2338.000000	18.942402
2337.000000	18.961473
2336.000000	18.966291
2335.000000	18.959967
2334.000000	18.945915
2333.000000	18.931964
2332.000000	18.912793
2331.000000	18.887499
2330.000000	18.867926
2329.000000	18.840123
2328.000000	18.811216
2327.000000	18.773075
2326.000000	18.728309
2325.000000	18.708235
2324.000000	18.660056
2323.000000	18.595918
2322.000000	18.551052
2321.000000	18.478182
2320.000000	18.402100
2319.000000	18.328327
2318.000000	18.225947
2317.000000	18.130794
2316.000000	18.052705
2315.000000	17.952534
2314.000000	17.846039
2313.000000	17.739846
2312.000000	17.644392
2311.000000	17.544923
2310.000000	17.462317
2309.000000	17.392659
2308.000000	17.304934
2307.000000	17.246517
2306.000000	17.217710
2305.000000	17.175454
2304.000000	17.156484
2303.000000	17.156684
2302.000000	17.168930
2301.000000	17.187197
2300.000000	17.232164
2299.000000	17.263982
2298.000000	17.337053
2297.000000	17.393863
2296.000000	17.431704
2295.000000	17.501261
2294.000000	17.583466
2293.000000	17.640979
2292.000000	17.698593
2291.000000	17.757411
2290.000000	17.791838
2289.000000	17.822552
2288.000000	17.880065
2287.000000	17.899939
2286.000000	17.900943
2285.000000	17.906062
2284.000000	17.915697
2283.000000	17.911381
2282.000000	17.906262
2281.000000	17.877957
2280.000000	17.849853
2279.000000	17.835902
2278.000000	17.808600
2277.000000	17.785615
2276.000000	17.748076
2275.000000	17.734526
2274.000000	17.708429
2273.000000	17.684039
2272.000000	17.682533
2271.000000	17.676210
2270.000000	17.692972
2269.000000	17.720474
2268.000000	17.752091
2267.000000	17.801474
2266.000000	17.893816
2265.000000	17.977326
2264.000000	18.105601
2263.000000	18.236486
2262.000000	18.378513
2261.000000	18.536699
2260.000000	18.733026
2259.000000	18.933570
2258.000000	19.137726
2257.000000	19.369586
2256.000000	19.584181
2255.000000	19.841234
2254.000000	20.052918
2253.000000	20.284577
2252.000000	20.522257
2251.000000	20.728120
2250.000000	20.980456
2249.000000	21.173170
2248.000000	21.361769
2247.000000	21.566829
2246.000000	21.730937
2245.000000	21.916625
2244.000000	22.054737
2243.000000	22.196763
2242.000000	22.304964
2241.000000	22.432437
2240.000000	22.532608
2239.000000	22.610898
2238.000000	22.711672
2237.000000	22.787352
2236.000000	22.860323
2235.000000	22.911512
2234.000000	22.948349
2233.000000	22.997330
2232.000000	23.027944
2231.000000	23.045007
2230.000000	23.058658
2229.000000	23.049524
2228.000000	23.030252
2227.000000	23.023527
2226.000000	23.012486
2225.000000	22.989301
2224.000000	22.971635
2223.000000	22.916430
2222.000000	22.882505
2221.000000	22.851289
2220.000000	22.768884
2219.000000	22.732348
2218.000000	22.644523
2217.000000	22.616820
2216.000000	22.566032
2215.000000	22.491656
2214.000000	22.421295
2213.000000	22.374422
2212.000000	22.321124
2211.000000	22.261303
2210.000000	22.220652
2209.000000	22.168057
2208.000000	22.108837
2207.000000	22.094384
2206.000000	22.043997
2205.000000	22.025830
2204.000000	21.985079
2203.000000	21.951755
2202.000000	21.922949
2201.000000	21.888119
2200.000000	21.883803
2199.000000	21.856101
2198.000000	21.826893
2197.000000	21.809227
2196.000000	21.795878
2195.000000	21.793770
2194.000000	21.771889
2193.000000	21.755327
2192.000000	21.740372
2191.000000	21.731338
2190.000000	21.715480
2189.000000	21.708955
2188.000000	21.686673
2187.000000	21.692796
2186.000000	21.670714
2185.000000	21.655758
2184.000000	21.631870
2183.000000	21.635985
2182.000000	21.615409
2181.000000	21.596238
2180.000000	21.574758
2179.000000	21.560706
2178.000000	21.557896
2177.000000	21.542940
2176.000000	21.540331
2175.000000	21.534107
2174.000000	21.531598
2173.000000	21.542238
2172.000000	21.538725
2171.000000	21.544847
2170.000000	21.554985
2169.000000	21.577870
2168.000000	21.591520
2167.000000	21.619524
2166.000000	21.635584
2165.000000	21.670112
2164.000000	21.690186
2163.000000	21.735454
2162.000000	21.783231
2161.000000	21.816153
2160.000000	21.857506
2159.000000	21.895547
2158.000000	21.978254
2157.000000	22.029644
2156.000000	22.110042
2155.000000	22.181306
2154.000000	22.256585
2153.000000	22.343507
2152.000000	22.425611
2151.000000	22.515746
2150.000000	22.599255
2149.000000	22.673028
2148.000000	22.748609
2147.000000	22.825092
2146.000000	22.904285
2145.000000	22.986189
2144.000000	23.052736
2143.000000	23.126911
2142.000000	23.205703
2141.000000	23.278071
2140.000000	23.364391
2139.000000	23.429934
2138.000000	23.499291
2137.000000	23.586715
2136.000000	23.638607
2135.000000	23.707763
2134.000000	23.743897
2133.000000	23.794585
2132.000000	23.851697
2131.000000	23.904994
2130.000000	23.947251
2129.000000	23.993522
2128.000000	24.043206
2127.000000	24.068701
2126.000000	24.093292
2125.000000	24.133140
2124.000000	24.164657
2123.000000	24.170578
2122.000000	24.193162
2121.000000	24.208720
2120.000000	24.211329
2119.000000	24.225482
2118.000000	24.241943
2117.000000	24.237426
2116.000000	24.224177
2115.000000	24.231504
2114.000000	24.218657
2113.000000	24.200790
2112.000000	24.187039
2111.000000	24.172285
2110.000000	24.158032
2109.000000	24.136051
2108.000000	24.125010
2107.000000	24.108649
2106.000000	24.091385
2105.000000	24.069102
2104.000000	24.046218
2103.000000	24.024236
2102.000000	23.992318
2101.000000	23.964314
2100.000000	23.942433
2099.000000	23.920050
2098.000000	23.896964
2097.000000	23.888031
2096.000000	23.877593
2095.000000	23.866451
2094.000000	23.858321
2093.000000	23.844671
2092.000000	23.828109
2091.000000	23.813154
2090.000000	23.800105
2089.000000	23.782540
2088.000000	23.767786
2087.000000	23.755942
2086.000000	23.743596
2085.000000	23.721916
2084.000000	23.699533
2083.000000	23.681667
2082.000000	23.641618
2081.000000	23.601770
2080.000000	23.565436
2079.000000	23.530807
2078.000000	23.480220
2077.000000	23.406948
2076.000000	23.348833
2075.000000	23.299851
2074.000000	23.244145
2073.000000	23.165152
2072.000000	23.084453
2071.000000	23.011182
2070.000000	22.937007
2069.000000	22.858315
2068.000000	22.772698
2067.000000	22.692099
2066.000000	22.603571
2065.000000	22.506110
2064.000000	22.409753
2063.000000	22.327950
2062.000000	22.250964
2061.000000	22.175786
2060.000000	22.103016
2059.000000	22.038477
2058.000000	21.977651
2057.000000	21.929774
2056.000000	21.902673
2055.000000	21.877580
2054.000000	21.863227
2053.000000	21.864331
2052.000000	21.887618
2051.000000	21.920841
2050.000000	21.978254
2049.000000	22.046808
2048.000000	22.131120
2047.000000	22.221154
2046.000000	22.306570
2045.000000	22.434645
2044.000000	22.535820
2043.000000	22.646430
2042.000000	22.783839
2041.000000	22.901877
2040.000000	23.004156
2039.000000	23.115870
2038.000000	23.224673
2037.000000	23.344818
2036.000000	23.448804
2035.000000	23.529101
2034.000000	23.630176
2033.000000	23.723722
2032.000000	23.800507
2031.000000	23.869262
2030.000000	23.952169
2029.000000	24.020221
2028.000000	24.077132
2027.000000	24.143779
2026.000000	24.181720
2025.000000	24.228493
2024.000000	24.284099
2023.000000	24.343720
2022.000000	24.372025
2021.000000	24.399326
2020.000000	24.434758
2019.000000	24.462761
2018.000000	24.481330
2017.000000	24.498293
2016.000000	24.522784
2015.000000	24.537338
2014.000000	24.535732
2013.000000	24.545568
2012.000000	24.545367
2011.000000	24.528806
2010.000000	24.514453
2009.000000	24.508129
2008.000000	24.482133
2007.000000	24.442687
2006.000000	24.407055
2005.000000	24.391698
2004.000000	24.358174
2003.000000	24.308289
2002.000000	24.250675
2001.000000	24.206913
2000.000000	24.150705
1999.000000	24.088775
1998.000000	24.022831
1997.000000	23.964916
1996.000000	23.886827
1995.000000	23.799804
1994.000000	23.732756
1993.000000	23.664503
1992.000000	23.569049
1991.000000	23.477610
1990.000000	23.401829
1989.000000	23.319524
1988.000000	23.222164
1987.000000	23.136145
1986.000000	23.052836
1985.000000	22.936505
1984.000000	22.858616
1983.000000	22.762359
1982.000000	22.664095
1981.000000	22.573660
1980.000000	22.477705
1979.000000	22.374020
1978.000000	22.296433
1977.000000	22.193953
1976.000000	22.102614
1975.000000	22.019205
1974.000000	21.916525
1973.000000	21.838134
1972.000000	21.748502
1971.000000	21.646524
1970.000000	21.574858
1969.000000	21.463546
1968.000000	21.405230
1967.000000	21.304858
1966.000000	21.219943
1965.000000	21.142958
1964.000000	21.037567
1963.000000	20.979753
1962.000000	20.916719
1961.000000	20.812031
1960.000000	20.750503
1959.000000	20.642302
1958.000000	20.572443
1957.000000	20.493852
1956.000000	20.412250
1955.000000	20.330246
1954.000000	20.244528
1953.000000	20.196450
1952.000000	20.111134
1951.000000	20.022003
1950.000000	19.959773
1949.000000	19.906074
1948.000000	19.816542
1947.000000	19.784021
1946.000000	19.713962
1945.000000	19.681943
1944.000000	19.633062
1943.000000	19.592512
1942.000000	19.542125
1941.000000	19.531184
1940.000000	19.491638
1939.000000	19.465240
1938.000000	19.468352
1937.000000	19.473872
1936.000000	19.491036
1935.000000	19.491236
1934.000000	19.513117
1933.000000	19.540820
1932.000000	19.576553
1931.000000	19.608672
1930.000000	19.673813
1929.000000	19.750598
1928.000000	19.824271
1927.000000	19.910591
1926.000000	20.027424
1925.000000	20.121271
1924.000000	20.226260
1923.000000	20.366982
1922.000000	20.484216
1921.000000	20.639793
1920.000000	20.819760
1919.000000	21.019902
1918.000000	21.159419
1917.000000	21.377126
1916.000000	21.555386
1915.000000	21.712067
1914.000000	21.909198
1913.000000	22.173276
1912.000000	22.457229
1911.000000	22.724419
1910.000000	22.943832
1909.000000	23.188338
1908.000000	23.422205
1907.000000	23.681767
1906.000000	24.017612
1905.000000	24.369014
1904.000000	24.731959
1903.000000	25.066298
1902.000000	25.431050
1901.000000	25.783857
1900.000000	26.138773
1899.000000	26.544376
1898.000000	26.961221
1897.000000	27.405066
1896.000000	27.778851
1895.000000	28.126339
1894.000000	28.482559
1893.000000	28.870898
1892.000000	29.262851
1891.000000	29.738915
1890.000000	30.215783
1889.000000	30.669163
1888.000000	31.056799
1887.000000	31.498537
1886.000000	31.918192
1885.000000	32.352301
1884.000000	32.798053
1883.000000	33.279738
1882.000000	33.708527
1881.000000	34.135710
1880.000000	34.561890
1879.000000	34.947218
1878.000000	35.333048
1877.000000	35.718677
1876.000000	36.093265
1875.000000	36.434630
1874.000000	36.778505
1873.000000	37.115955
1872.000000	37.445577
1871.000000	37.718589
1870.000000	37.978050
1869.000000	38.230285
1868.000000	38.483122
1867.000000	38.633680
1866.000000	38.770788
1865.000000	38.891034
1864.000000	39.015596
1863.000000	39.118577
1862.000000	39.213529
1861.000000	39.344916
1860.000000	39.469377
1859.000000	39.585909
1858.000000	39.665002
1857.000000	39.737571
1856.000000	39.797694
1855.000000	39.819475
1854.000000	39.850992
1853.000000	39.901679
1852.000000	39.902884
1851.000000	39.936709
1850.000000	39.944839
1849.000000	39.965416
1848.000000	39.995025
1847.000000	40.016204
1846.000000	39.994925
1845.000000	39.946144
1844.000000	39.903687
1843.000000	39.865947
1842.000000	39.870564
1841.000000	39.895557
1840.000000	39.916735
1839.000000	39.895858
1838.000000	39.848783
1837.000000	39.812148
1836.000000	39.774107
1835.000000	39.754333
1834.000000	39.692203
1833.000000	39.620136
1832.000000	39.560716
1831.000000	39.518760
1830.000000	39.470983
1829.000000	39.443281
1828.000000	39.392091
1827.000000	39.331466
1826.000000	39.284091
1825.000000	39.238020
1824.000000	39.188536
1823.000000	39.156417
1822.000000	39.159730
1821.000000	39.182012
1820.000000	39.198373
1819.000000	39.177897
1818.000000	39.128815
1817.000000	39.087562
1816.000000	39.071703
1815.000000	39.060763
1814.000000	39.051328
1813.000000	39.029045
1812.000000	39.021919
1811.000000	38.999837
1810.000000	38.964305
1809.000000	38.921748
1808.000000	38.882402
1807.000000	38.865841
1806.000000	38.841952
1805.000000	38.798491
1804.000000	38.759245
1803.000000	38.733851
1802.000000	38.702535
1801.000000	38.662587
1800.000000	38.611799
1799.000000	38.557699
1798.000000	38.512832
1797.000000	38.465657
1796.000000	38.430226
1795.000000	38.398609
1794.000000	38.361170
1793.000000	38.325638
1792.000000	38.273847
1791.000000	38.227575
1790.000000	38.202783
1789.000000	38.176586
1788.000000	38.141657
1787.000000	38.104920
1786.000000	38.075913
1785.000000	38.040281
1784.000000	37.998325
1783.000000	37.960686
1782.000000	37.906585
1781.000000	37.858909
1780.000000	37.818459
1779.000000	37.767570
1778.000000	37.709957
1777.000000	37.650737
1776.000000	37.590213
1775.000000	37.520153
1774.000000	37.445878
1773.000000	37.371904
1772.000000	37.294919
1771.000000	37.219840
1770.000000	37.134022
1769.000000	37.038870
1768.000000	36.964795
1767.000000	36.887509
1766.000000	36.818453
1765.000000	36.757928
1764.000000	36.707943
1763.000000	36.680441
1762.000000	36.659865
1761.000000	36.660166
1760.000000	36.669902
1759.000000	36.705936
1758.000000	36.736148
1757.000000	36.758832
1756.000000	36.796270
1755.000000	36.830698
1754.000000	36.845252
1753.000000	36.873557
1752.000000	36.878776
1751.000000	36.883193
1750.000000	36.891122
1749.000000	36.866029
1748.000000	36.820259
1747.000000	36.780713
1746.000000	36.718884
1745.000000	36.635475
1744.000000	36.550259
1743.000000	36.461229
1742.000000	36.338173
1741.000000	36.202871
1740.000000	36.049302
1739.000000	35.906674
1738.000000	35.758324
1737.000000	35.623123
1736.000000	35.512011
1735.000000	35.402907
1734.000000	35.312170
1733.000000	35.255360
1732.000000	35.232876
1731.000000	35.219728
1730.000000	35.225549
1729.000000	35.243014
1728.000000	35.257367
1727.000000	35.307051
1726.000000	35.340475
1725.000000	35.372795
1724.000000	35.393170
1723.000000	35.426293
1722.000000	35.473669
1721.000000	35.528873
1720.000000	35.606963
1719.000000	35.705729
1718.000000	35.813026
1717.000000	35.928956
1716.000000	36.069477
1715.000000	36.200462
1714.000000	36.326228
1713.000000	36.458719
1712.000000	36.582478
1711.000000	36.692486
1710.000000	36.775795
1709.000000	36.854587
1708.000000	36.898851
1707.000000	36.925349
1706.000000	36.940505
1705.000000	36.963791
1704.000000	36.964594
1703.000000	36.946527
1702.000000	36.898148
1701.000000	36.848364
1700.000000	36.783021
1699.000000	36.697304
1698.000000	36.612389
1697.000000	36.549757
1696.000000	36.450589
1695.000000	36.407731
1694.000000	36.391571
1693.000000	36.404519
1692.000000	36.410942
1691.000000	36.449084
1690.000000	36.490036
1689.000000	36.527073
1688.000000	36.597935
1687.000000	36.643404
1686.000000	36.695798
1685.000000	36.783624
1684.000000	36.884799
1683.000000	37.029535
1682.000000	37.231584
1681.000000	37.491648
1680.000000	37.785336
1679.000000	38.123991
1678.000000	38.485130
1677.000000	38.855201
1676.000000	39.168763
1675.000000	39.486240
1674.000000	39.748913
1673.000000	40.016706
1672.000000	40.253985
1671.000000	40.487049
1670.000000	40.672034
1669.000000	40.869466
1668.000000	41.029559
1667.000000	41.175099
1666.000000	41.321341
1665.000000	41.446204
1664.000000	41.574379
1663.000000	41.694825
1662.000000	41.814067
1661.000000	41.909420
1660.000000	41.989618
1659.000000	42.084871
1658.000000	42.172495
1657.000000	42.232417
1656.000000	42.293343
1655.000000	42.327269
1654.000000	42.359187
1653.000000	42.396526
1652.000000	42.401042
1651.000000	42.427139
1650.000000	42.435972
1649.000000	42.427239
1648.000000	42.419611
1647.000000	42.432760
1646.000000	42.396325
1645.000000	42.372637
1644.000000	42.365310
1643.000000	42.338511
1642.000000	42.323455
1641.000000	42.273068
1640.000000	42.263633
1639.000000	42.232819
1638.000000	42.206722
1637.000000	42.180826
1636.000000	42.149008
1635.000000	42.112874
1634.000000	42.090391
1633.000000	42.033279
1632.000000	41.987811
1631.000000	41.949168
1630.000000	41.883223
1629.000000	41.840665
1628.000000	41.792186
1627.000000	41.729955
1626.000000	41.669431
1625.000000	41.618040
1624.000000	41.563639
1623.000000	41.518973
1622.000000	41.462564
1621.000000	41.411776
1620.000000	41.366207
1619.000000	41.311203
1618.000000	41.251683
1617.000000	41.213541
1616.000000	41.159039
1615.000000	41.107850
1614.000000	41.068805
1613.000000	40.980879
1612.000000	40.954983
1611.000000	40.896667
1610.000000	40.843771
1609.000000	40.783146
1608.000000	40.712886
1607.000000	40.653867
1606.000000	40.592540
1605.000000	40.514049
1604.000000	40.451116
1603.000000	40.394506
1602.000000	40.329364
1601.000000	40.265227
1600.000000	40.197175
1599.000000	40.120490
1598.000000	40.062877
1597.000000	39.991813
1596.000000	39.938917
1595.000000	39.860928
1594.000000	39.791872
1593.000000	39.740181
1592.000000	39.687486
1591.000000	39.619735
1590.000000	39.574667
1589.000000	39.522775
1588.000000	39.468273
1587.000000	39.425314
1586.000000	39.375329
1585.000000	39.329860
1584.000000	39.271544
1583.000000	39.229388
1582.000000	39.179704
1581.000000	39.141061
1580.000000	39.103020
1579.000000	39.077726
1578.000000	39.042294
1577.000000	38.999034
1576.000000	38.987993
1575.000000	38.973740
1574.000000	38.950554
1573.000000	38.936703
1572.000000	38.918837
1571.000000	38.918636
1570.000000	38.903982
1569.000000	38.913116
1568.000000	38.915023
1567.000000	38.922049
1566.000000	38.920443
1565.000000	38.921848
1564.000000	38.925160
1563.000000	38.925261
1562.000000	38.912915
1561.000000	38.917432
1560.000000	38.911309
1559.000000	38.895952
1558.000000	38.876179
1557.000000	38.853093
1556.000000	38.815353
1555.000000	38.795982
1554.000000	38.766472
1553.000000	38.728231
1552.000000	38.691494
1551.000000	38.640305
1550.000000	38.577873
1549.000000	38.515643
1548.000000	38.461643
1547.000000	38.415371
1546.000000	38.384456
1545.000000	38.337583
1544.000000	38.276757
1543.000000	38.232293
1542.000000	38.196962
1541.000000	38.176686
1540.000000	38.148984
1539.000000	38.119876
1538.000000	38.097192
1537.000000	38.070192
1536.000000	38.049917
1535.000000	38.032552
1534.000000	37.997221
1533.000000	37.955567
1532.000000	37.934188
1531.000000	37.895043
1530.000000	37.854693
1529.000000	37.819262
1528.000000	37.789251
1527.000000	37.756630
1526.000000	37.707146
1525.000000	37.666094
1524.000000	37.615607
1523.000000	37.567730
1522.000000	37.529187
1521.000000	37.493555
1520.000000	37.443268
1519.000000	37.392480
1518.000000	37.347815
1517.000000	37.294216
1516.000000	37.246439
1515.000000	37.191636
1514.000000	37.126896
1513.000000	37.078015
1512.000000	37.035156
1511.000000	36.982862
1510.000000	36.920932
1509.000000	36.857297
1508.000000	36.805103
1507.000000	36.751505
1506.000000	36.694493
1505.000000	36.634471
1504.000000	36.579768
1503.000000	36.522456
1502.000000	36.476084
1501.000000	36.437541
1500.000000	36.396087
1499.000000	36.351823
1498.000000	36.313381
1497.000000	36.282968
1496.000000	36.248239
1495.000000	36.227061
1494.000000	36.204477
1493.000000	36.186410
1492.000000	36.176473
1491.000000	36.161920
1490.000000	36.162020
1489.000000	36.158607
1488.000000	36.152284
1487.000000	36.150678
1486.000000	36.145258
1485.000000	36.126689
1484.000000	36.117254
1483.000000	36.124581
1482.000000	36.136726
1481.000000	36.138432
1480.000000	36.152986
1479.000000	36.168042
1478.000000	36.173262
1477.000000	36.186812
1476.000000	36.208592
1475.000000	36.224050
1474.000000	36.261790
1473.000000	36.311474
1472.000000	36.354232
1471.000000	36.391470
1470.000000	36.436939
1469.000000	36.478894
1468.000000	36.495054
1467.000000	36.533898
1466.000000	36.587497
1465.000000	36.632363
1464.000000	36.669902
1463.000000	36.709750
1462.000000	36.761241
1461.000000	36.831601
1460.000000	36.882892
1459.000000	36.936390
1458.000000	37.005646
1457.000000	37.068881
1456.000000	37.146368
1455.000000	37.210606
1454.000000	37.293313
1453.000000	37.358855
1452.000000	37.442465
1451.000000	37.525774
1450.000000	37.617213
1449.000000	37.684362
1448.000000	37.750407
1447.000000	37.817656
1446.000000	37.922645
1445.000000	38.030444
1444.000000	38.118671
1443.000000	38.188028
1442.000000	38.271538
1441.000000	38.367895
1440.000000	38.464955
1439.000000	38.553483
1438.000000	38.647732
1437.000000	38.765268
1436.000000	38.853194
1435.000000	38.952361
1434.000000	39.048216
1433.000000	39.180206
1432.000000	39.304767
1431.000000	39.438061
1430.000000	39.544054
1429.000000	39.657876
1428.000000	39.802010
1427.000000	39.965717
1426.000000	40.100014
1425.000000	40.289617
1424.000000	40.480926
1423.000000	40.658986
1422.000000	40.850195
1421.000000	41.019723
1420.000000	41.251281
1419.000000	41.471798
1418.000000	41.687799
1417.000000	41.894866
1416.000000	42.093201
1415.000000	42.341622
1414.000000	42.636415
1413.000000	42.877609
1412.000000	43.111977
1411.000000	43.325669
1410.000000	43.619558
1409.000000	43.976682
1408.000000	44.294861
1407.000000	44.610029
1406.000000	44.926201
1405.000000	45.235848
1404.000000	45.572195
1403.000000	45.881240
1402.000000	46.208553
1401.000000	46.554736
1400.000000	46.979711
1399.000000	47.256638
1398.000000	47.467921
1397.000000	47.691349
1396.000000	47.996279
1395.000000	48.355510
1394.000000	48.614972
1393.000000	48.802366
1392.000000	49.014251
1391.000000	49.295895
1390.000000	49.566398
1389.000000	49.802473
1388.000000	50.139421
1387.000000	50.501062
1386.000000	50.791237
1385.000000	51.137420
1384.000000	51.516826
1383.000000	51.880072
1382.000000	52.267408
1381.000000	52.570531
1380.000000	52.821060
1379.000000	52.973324
1378.000000	53.142351
1377.000000	53.248645
1376.000000	53.404121
1375.000000	53.536612
1374.000000	53.695200
1373.000000	53.865531
1372.000000	54.107829
1371.000000	54.305361
1370.000000	54.541436
1369.000000	54.727626
1368.000000	54.937203
1367.000000	55.139954
1366.000000	55.301352
1365.000000	55.424408
1364.000000	55.605680
1363.000000	55.727833
1362.000000	55.889532
1361.000000	56.022123
1360.000000	56.122495
1359.000000	56.105332
1358.000000	56.195064
1357.000000	56.284596
1356.000000	56.386474
1355.000000	56.546266
1354.000000	56.748917
1353.000000	56.999245
1352.000000	57.187442
1351.000000	57.534227
1350.000000	57.824804
1349.000000	58.119697
1348.000000	58.410374
1347.000000	58.678368
1346.000000	58.919461
1345.000000	59.118700
1344.000000	59.351763
1343.000000	59.609318
1342.000000	59.837564
1341.000000	60.038609
1340.000000	60.262137
1339.000000	60.467197
1338.000000	60.664830
1337.000000	60.847607
1336.000000	61.029381
1335.000000	61.221292
1334.000000	61.411396
1333.000000	61.575605
1332.000000	61.749249
1331.000000	61.912554
1330.000000	62.052472
1329.000000	62.201826
1328.000000	62.373061
1327.000000	62.490897
1326.000000	62.638946
1325.000000	62.758890
1324.000000	62.875723
1323.000000	62.996069
1322.000000	63.107783
1321.000000	63.230840
1320.000000	63.313646
1319.000000	63.399966
1318.000000	63.499636
1317.000000	63.584651
1316.000000	63.683316
1315.000000	63.789711
1314.000000	63.869607
1313.000000	63.934648
1312.000000	64.013340
1311.000000	64.089422
1310.000000	64.172429
1309.000000	64.223318
1308.000000	64.275812
1307.000000	64.336537
1306.000000	64.386523
1305.000000	64.431088
1304.000000	64.452868
1303.000000	64.492817
1302.000000	64.539088
1301.000000	64.560166
1300.000000	64.575122
1299.000000	64.597103
1298.000000	64.615070
1297.000000	64.616475
1296.000000	64.628519
1295.000000	64.642371
1294.000000	64.654215
1293.000000	64.655319
1292.000000	64.646285
1291.000000	64.634040
1290.000000	64.623702
1289.000000	64.607040
1288.000000	64.589374
1287.000000	64.568597
1286.000000	64.538687
1285.000000	64.504159
1284.000000	64.476155
1283.000000	64.447649
1282.000000	64.409207
1281.000000	64.372370
1280.000000	64.325195
1279.000000	64.288258
1278.000000	64.247608
1277.000000	64.217998
1276.000000	64.182567
1275.000000	64.156570
1274.000000	64.133786
1273.000000	64.107087
1272.000000	64.079786
1271.000000	64.070050
1270.000000	64.058105
1269.000000	64.033615
1268.000000	64.024882
1267.000000	63.991358
1266.000000	63.979313
1265.000000	63.967971
1264.000000	63.955425
1263.000000	63.950707
1262.000000	63.920797
1261.000000	63.897711
1260.000000	63.887272
1259.000000	63.870008
1258.000000	63.843811
1257.000000	63.821228
1256.000000	63.799648
1255.000000	63.774755
1254.000000	63.739224
1253.000000	63.715937
1252.000000	63.681309
1251.000000	63.634435
1250.000000	63.597800
1249.000000	63.548316
1248.000000	63.495119
1247.000000	63.445535
1246.000000	63.377483
1245.000000	63.312843
1244.000000	63.261051
1243.000000	63.193802
1242.000000	63.115713
1241.000000	63.035917
1240.000000	62.963449
1239.000000	62.887868
1238.000000	62.809679
1237.000000	62.737511
1236.000000	62.654504
1235.000000	62.571195
1234.000000	62.489392
1233.000000	62.399960
1232.000000	62.314644
1231.000000	62.226317
1230.000000	62.133473
1229.000000	62.046049
1228.000000	61.948989
1227.000000	61.860561
1226.000000	61.777453
1225.000000	61.678286
1224.000000	61.588854
1223.000000	61.494806
1222.000000	61.400857
1221.000000	61.309017
1220.000000	61.216675
1219.000000	61.124132
1218.000000	61.021752
1217.000000	60.935332
1216.000000	60.861960
1215.000000	60.785376
1214.000000	60.711904
1213.000000	60.633212
1212.000000	60.557532
1211.000000	60.482755
1210.000000	60.408279
1209.000000	60.331795
1208.000000	60.250093
1207.000000	60.176520
1206.000000	60.115895
1205.000000	60.049048
1204.000000	60.003780
1203.000000	59.965036
1202.000000	59.913445
1201.000000	59.879720
1200.000000	59.830036
1199.000000	59.770716
1198.000000	59.715612
1197.000000	59.654184
1196.000000	59.570976
1195.000000	59.456652
1194.000000	59.298867
1193.000000	59.131346
1192.000000	58.937930
1191.000000	58.700851
1190.000000	58.457549
1189.000000	58.245564
1188.000000	58.041608
1187.000000	57.868466
1186.000000	57.767893
1185.000000	57.716202
1184.000000	57.718109
1183.000000	57.798908
1182.000000	57.964723
1181.000000	58.173998
1180.000000	58.414690
1179.000000	58.667527
1178.000000	58.926788
1177.000000	59.157443
1176.000000	59.384585
1175.000000	59.574087
1174.000000	59.745523
1173.000000	59.923281
1172.000000	60.100739
1171.000000	60.269565
1170.000000	60.449833
1169.000000	60.653086
1168.000000	60.854934
1167.000000	61.060697
1166.000000	61.291853
1165.000000	61.507252
1164.000000	61.729275
1163.000000	61.944974
1162.000000	62.181250
1161.000000	62.408893
1160.000000	62.629009
1159.000000	62.862073
1158.000000	63.091824
1157.000000	63.302806
1156.000000	63.504654
1155.000000	63.679603
1154.000000	63.841202
1153.000000	63.988247
1152.000000	64.101567
1151.000000	64.205150
1150.000000	64.269890
1149.000000	64.342861
1148.000000	64.395556
1147.000000	64.477159
1146.000000	64.560568
1145.000000	64.681014
1144.000000	64.808185
1143.000000	64.969282
1142.000000	65.149751
1141.000000	65.344975
1140.000000	65.578741
1139.000000	65.814515
1138.000000	66.048984
1137.000000	66.296401
1136.000000	66.571119
1135.000000	66.842424
1134.000000	67.133905
1133.000000	67.400693
1132.000000	67.596017
1131.000000	67.830185
1130.000000	68.020189
1129.000000	68.234584
1128.000000	68.401502
1127.000000	68.537105
1126.000000	68.646310
1125.000000	68.744373
1124.000000	68.814533
1123.000000	68.924240
1122.000000	68.977136
1121.000000	69.021902
1120.000000	69.066266
1119.000000	69.073091
1118.000000	69.089452
1117.000000	69.128095
1116.000000	69.147869
1115.000000	69.141445
1114.000000	69.139036
1113.000000	69.135322
1112.000000	69.140140
1111.000000	69.168445
1110.000000	69.125185
1109.000000	69.155497
1108.000000	69.145359
1107.000000	69.140642
1106.000000	69.126891
1105.000000	69.143954
1104.000000	69.134921
1103.000000	69.118861
1102.000000	69.112939
1101.000000	69.092965
1100.000000	69.103906
1099.000000	69.089653
1098.000000	69.087344
1097.000000	69.055025
1096.000000	69.035251
1095.000000	69.022303
1094.000000	68.999318
1093.000000	68.981351
1092.000000	68.936686
1091.000000	68.918418
1090.000000	68.889913
1089.000000	68.859299
1088.000000	68.831998
1087.000000	68.808611
1086.000000	68.774384
1085.000000	68.727912
1084.000000	68.682544
1083.000000	68.645607
1082.000000	68.633964
1081.000000	68.575548
1080.000000	68.527570
1079.000000	68.484711
1078.000000	68.466443
1077.000000	68.414551
1076.000000	68.382934
1075.000000	68.359948
1074.000000	68.289186
1073.000000	68.255160
1072.000000	68.244922
1071.000000	68.173457
1070.000000	68.145554
1069.000000	68.103097
1068.000000	68.051305
1067.000000	68.019687
1066.000000	67.978936
1065.000000	67.948724
1064.000000	67.900747
1063.000000	67.865014
1062.000000	67.825066
1061.000000	67.773876
1060.000000	67.748984
1059.000000	67.707832
1058.000000	67.672400
1057.000000	67.612579
1056.000000	67.574136
1055.000000	67.546132
1054.000000	67.515619
1053.000000	67.470653
1052.000000	67.420567
1051.000000	67.418158
1050.000000	67.380519
1049.000000	67.351310
1048.000000	67.346292
1047.000000	67.310459
1046.000000	67.293596
1045.000000	67.257563
1044.000000	67.247425
1043.000000	67.235080
1042.000000	67.210790
1041.000000	67.194931
1040.000000	67.191217
1039.000000	67.175459
1038.000000	67.166325
1037.000000	67.129488
1036.000000	67.119250
1035.000000	67.099276
1034.000000	67.067157
1033.000000	67.059931
1032.000000	67.043771
1031.000000	67.021689
1030.000000	67.000811
1029.000000	66.971904
1028.000000	66.962770
1027.000000	66.943900
1026.000000	66.919610
1025.000000	66.886086
1024.000000	66.857179
1023.000000	66.840216
1022.000000	66.818034
1021.000000	66.795350
1020.000000	66.772164
1019.000000	66.757108
1018.000000	66.736532
1017.000000	66.723182
1016.000000	66.697487
1015.000000	66.706119
1014.000000	66.687049
1013.000000	66.690060
1012.000000	66.694677
1011.000000	66.687550
1010.000000	66.688655
1009.000000	66.704714
1008.000000	66.719669
1007.000000	66.718766
1006.000000	66.743859
1005.000000	66.767346
1004.000000	66.769454
1003.000000	66.788525
1002.000000	66.810807
1001.000000	66.812714
1000.000000	66.823956
999.000000	66.845335
998.000000	66.876852
997.000000	66.894317
996.000000	66.918607
995.000000	66.924729
994.000000	66.947514
993.000000	66.998503
992.000000	67.035239
991.000000	67.067659
990.000000	67.088838
989.000000	67.137920
988.000000	67.174053
987.000000	67.231968
986.000000	67.283258
985.000000	67.319693
984.000000	67.380017
983.000000	67.447366
982.000000	67.507489
981.000000	67.549445
980.000000	67.612980
979.000000	67.670493
978.000000	67.710341
977.000000	67.769862
976.000000	67.845341
975.000000	67.911988
974.000000	67.967896
973.000000	68.024706
972.000000	68.085030
971.000000	68.176569
970.000000	68.257971
969.000000	68.306249
968.000000	68.364365
967.000000	68.455603
966.000000	68.535399
965.000000	68.617302
964.000000	68.695592
963.000000	68.771674
962.000000	68.863013
961.000000	68.937087
960.000000	69.020597
959.000000	69.105712
958.000000	69.180690
957.000000	69.259081
956.000000	69.319003
955.000000	69.397092
954.000000	69.471267
953.000000	69.525568
952.000000	69.590208
951.000000	69.664282
950.000000	69.735245
949.000000	69.782521
948.000000	69.830097
947.000000	69.885000
946.000000	69.946830
945.000000	70.022510
944.000000	70.070689
943.000000	70.115254
942.000000	70.168652
941.000000	70.214020
940.000000	70.278961
939.000000	70.334767
938.000000	70.372306
937.000000	70.415466
936.000000	70.474586
935.000000	70.514935
934.000000	70.547355
933.000000	70.589913
932.000000	70.622032
931.000000	70.663084
930.000000	70.685166
929.000000	70.699419
928.000000	70.726318
927.000000	70.770783
926.000000	70.789854
925.000000	70.805612
924.000000	70.841546
923.000000	70.857204
922.000000	70.908494
921.000000	70.939509
920.000000	70.957174
919.000000	70.989193
918.000000	71.003245
917.000000	71.021412
916.000000	71.035565
915.000000	71.044397
914.000000	71.053933
913.000000	71.064271
912.000000	71.074710
911.000000	71.079728
910.000000	71.083141
909.000000	71.069691
908.000000	71.075412
907.000000	71.072100
906.000000	71.071799
905.000000	71.080933
904.000000	71.088360
903.000000	71.099401
902.000000	71.113554
901.000000	71.137944
900.000000	71.139851
899.000000	71.124394
898.000000	71.133026
897.000000	71.149386
896.000000	71.144468
895.000000	71.145974
894.000000	71.203989
893.000000	71.256584
892.000000	71.279970
891.000000	71.317208
890.000000	71.336781
889.000000	71.346617
888.000000	71.362075
887.000000	71.358361
886.000000	71.378536
885.000000	71.392889
884.000000	71.402725
883.000000	71.404532
882.000000	71.404030
881.000000	71.395699
880.000000	71.407342
879.000000	71.413967
878.000000	71.416978
877.000000	71.418584
876.000000	71.413766
875.000000	71.386465
874.000000	71.401822
873.000000	71.395699
872.000000	71.373517
871.000000	71.366491
870.000000	71.360268
869.000000	71.271138
868.000000	71.239019
867.000000	71.216234
866.000000	71.227777
865.000000	71.210613
864.000000	71.113855
863.000000	71.066881
862.000000	71.044498
861.000000	70.973434
860.000000	70.927865
859.000000	70.882798
858.000000	70.820267
857.000000	70.385600
856.000000	70.474300
855.000000	71.600900
854.000000	71.498000
853.000000	70.895700
852.000000	70.384000
851.000000	70.895100
850.000000	70.316600
849.000000	69.937400
848.000000	70.116600
847.000000	70.837300
846.000000	70.529000
845.000000	69.959600
844.000000	70.353000
843.000000	69.859000
842.000000	69.684400
841.000000	69.895500
840.000000	69.823800
839.000000	69.470900
838.000000	68.950500
837.000000	68.945900
836.000000	68.371000
835.000000	68.639300
834.000000	69.007000
833.000000	68.828300
832.000000	68.361100
831.000000	68.242900
830.000000	68.413900
829.000000	68.728200
828.000000	68.113600
827.000000	68.047600
826.000000	67.813300
825.000000	67.940100
824.000000	67.527300
823.000000	67.385400
822.000000	67.313900
821.000000	67.425600
820.000000	67.433700
819.000000	67.361100
818.000000	67.388500
817.000000	67.440800
816.000000	66.997500
815.000000	66.876100
814.000000	66.743200
813.000000	66.987300
812.000000	66.352200
811.000000	66.788900
810.000000	66.271800
809.000000	66.316200
808.000000	66.168100
807.000000	66.258300
806.000000	66.307100
805.000000	66.297400
804.000000	65.755500
803.000000	65.974200
802.000000	65.935200
801.000000	65.790100
800.000000	65.639900
799.000000	65.376100
798.000000	65.543300
797.000000	65.138300
796.000000	65.280500
795.000000	65.449400
794.000000	64.926100
793.000000	64.953600
792.000000	64.652700
791.000000	64.753900
790.000000	64.586800
789.000000	64.514200
788.000000	64.404700
787.000000	64.280800
786.000000	64.523400
785.000000	64.181200
784.000000	64.078700
783.000000	63.939600
782.000000	63.708900
781.000000	64.001100
780.000000	64.022100
779.000000	63.659000
778.000000	63.616800
777.000000	63.508900
776.000000	63.561500
775.000000	63.321500
774.000000	63.234100
773.000000	63.380400
772.000000	63.203000
771.000000	63.154000
770.000000	62.796000
769.000000	62.871900
768.000000	62.922700
767.000000	62.725700
766.000000	62.564300
765.000000	62.274500
764.000000	62.220100
763.000000	62.353400
762.000000	61.984700
761.000000	62.000800
760.000000	61.930100
759.000000	61.928800
758.000000	61.891100
757.000000	61.735300
756.000000	61.733500
755.000000	61.747500
754.000000	61.561000
753.000000	61.444700
752.000000	61.605500
751.000000	61.499100
750.000000	61.714900
749.000000	61.394300
748.000000	61.341800
747.000000	61.285800
746.000000	61.257000
745.000000	60.998800
744.000000	60.819000
743.000000	60.783500
742.000000	60.703400
741.000000	60.571900
740.000000	60.479100
739.000000	60.418500
738.000000	60.314600
737.000000	60.271500
736.000000	60.196400
735.000000	60.018400
734.000000	60.078000
733.000000	59.942600
732.000000	59.760400
731.000000	59.739000
730.000000	59.623200
729.000000	59.410500
728.000000	59.179700
727.000000	59.249600
726.000000	59.127200
725.000000	58.916100
724.000000	58.774800
723.000000	58.657400
722.000000	58.414500
721.000000	58.165400
720.000000	58.257700
719.000000	57.998100
718.000000	57.855500
717.000000	57.648700
716.000000	57.535600
715.000000	57.520100
714.000000	57.304100
713.000000	57.204300
712.000000	57.107000
711.000000	56.971700
710.000000	56.851800
709.000000	56.806900
708.000000	56.733700
707.000000	56.591100
706.000000	56.497400
705.000000	56.530100
704.000000	56.463500
703.000000	56.428700
702.000000	56.312500
701.000000	56.297300
700.000000	56.218100
699.000000	56.096300
698.000000	56.118200
697.000000	56.007900
696.000000	55.812100
695.000000	55.714500
694.000000	55.676900
693.000000	55.526300
692.000000	55.422600
691.000000	55.342500
690.000000	55.384600
689.000000	55.284700
688.000000	55.297300
687.000000	55.310400
686.000000	55.321200
685.000000	55.239800
684.000000	55.183800
683.000000	55.206000
682.000000	55.251800
681.000000	55.194800
680.000000	55.137300
679.000000	55.059500
678.000000	55.032200
677.000000	54.932200
676.000000	54.784600
675.000000	54.704500
674.000000	54.543300
673.000000	54.352400
672.000000	54.152700
671.000000	53.978900
670.000000	53.721600
669.000000	53.509600
668.000000	53.258600
667.000000	52.944500
666.000000	52.694600
665.000000	52.390800
664.000000	52.045800
663.000000	51.729300
662.000000	51.459300
661.000000	51.241100
660.000000	50.940800
659.000000	50.674700
658.000000	50.423600
657.000000	50.167000
656.000000	50.045300
655.000000	49.956600
654.000000	49.872400
653.000000	49.783800
652.000000	49.737400
651.000000	49.749500
650.000000	49.798800
649.000000	49.952300
648.000000	50.090000
647.000000	50.241800
646.000000	50.447800
645.000000	50.726300
644.000000	51.086300
643.000000	51.450900
642.000000	51.778000
641.000000	52.199100
640.000000	52.649900
639.000000	53.073300
638.000000	53.583900
637.000000	54.086300
636.000000	54.623600
635.000000	55.189100
634.000000	55.764600
633.000000	56.316600
632.000000	56.884200
631.000000	57.478900
630.000000	58.039400
629.000000	58.542200
628.000000	59.031700
627.000000	59.509900
626.000000	59.923400
625.000000	60.274100
624.000000	60.538800
623.000000	60.773100
622.000000	60.981900
621.000000	61.130700
620.000000	61.250300
619.000000	61.352700
618.000000	61.423500
617.000000	61.452300
616.000000	61.528100
615.000000	61.620100
614.000000	61.678600
613.000000	61.815200
612.000000	61.890900
611.000000	61.960900
610.000000	62.113600
609.000000	62.252500
608.000000	62.429300
607.000000	62.549500
606.000000	62.745100
605.000000	62.953600
604.000000	63.152700
603.000000	63.396700
602.000000	63.656500
601.000000	63.824700
600.000000	64.027700
599.000000	64.190700
598.000000	64.322000
597.000000	64.484100
596.000000	64.566200
595.000000	64.581100
594.000000	64.611600
593.000000	64.618100
592.000000	64.490000
591.000000	64.448100
590.000000	64.331100
589.000000	64.219400
588.000000	64.092500
587.000000	64.018900
586.000000	63.959600
585.000000	63.907500
584.000000	63.918000
583.000000	63.943700
582.000000	63.930800
581.000000	63.939900
580.000000	64.020900
579.000000	64.130900
578.000000	64.211900
577.000000	64.235100
576.000000	64.312000
575.000000	64.423500
574.000000	64.466300
573.000000	64.487600
572.000000	64.500600
571.000000	64.458200
570.000000	64.372600
569.000000	64.167900
568.000000	63.952500
567.000000	63.662700
566.000000	63.370000
565.000000	63.079000
564.000000	62.670600
563.000000	62.378300
562.000000	62.017800
561.000000	61.564200
560.000000	61.193100
559.000000	60.696100
558.000000	60.208300
557.000000	59.665500
556.000000	59.136600
555.000000	58.543000
554.000000	57.897500
553.000000	57.145100
552.000000	56.430400
551.000000	55.644700
550.000000	54.860800
549.000000	54.042600
548.000000	53.194500
547.000000	52.385200
546.000000	51.539700
545.000000	50.716200
544.000000	49.884600
543.000000	49.090600
542.000000	48.331500
541.000000	47.565800
540.000000	46.859500
539.000000	46.179200
538.000000	45.534200
537.000000	44.870900
536.000000	44.198000
535.000000	43.579300
534.000000	42.986500
533.000000	42.335100
532.000000	41.729600
531.000000	41.135900
530.000000	40.598800
529.000000	40.083500
528.000000	39.590300
527.000000	39.111300
526.000000	38.640600
525.000000	38.140500
524.000000	37.696000
523.000000	37.289000
522.000000	36.873300
521.000000	36.437100
520.000000	36.032700
519.000000	35.714000
518.000000	35.354600
517.000000	34.969200
516.000000	34.616800
515.000000	34.194000
514.000000	33.832300
513.000000	33.487600
512.000000	33.128300
511.000000	32.747100
510.000000	32.470600
509.000000	32.155300
508.000000	31.789600
507.000000	31.432000
506.000000	31.170700
505.000000	30.746700
504.000000	30.403100
503.000000	30.037400
502.000000	29.664000
501.000000	29.278400
500.000000	28.951700
499.000000	28.533700
498.000000	28.188300
497.000000	27.729900
496.000000	27.375900
495.000000	26.904000
494.000000	26.459700
493.000000	26.037500
492.000000	25.717400
491.000000	25.272600
490.000000	24.807700
489.000000	24.427000
488.000000	23.999000
487.000000	23.600600
486.000000	23.216300
485.000000	22.916000
484.000000	22.605800
483.000000	22.347200
482.000000	22.064100
481.000000	21.804600
480.000000	21.586700
479.000000	21.386900
478.000000	21.240600
477.000000	21.137700
476.000000	21.037700
475.000000	20.927800
474.000000	20.866700
473.000000	20.827100
472.000000	20.745800
471.000000	20.717000
470.000000	20.698600
469.000000	20.749600
468.000000	20.702900
467.000000	20.763200
466.000000	20.771600
465.000000	20.754100
464.000000	20.816200
463.000000	20.802000
462.000000	20.767400
461.000000	20.808600
460.000000	20.831900
459.000000	20.763600
458.000000	20.795000
457.000000	20.693400
456.000000	20.651900
455.000000	20.610700
454.000000	20.552900
453.000000	20.436300
452.000000	20.327200
451.000000	20.212800
450.000000	20.124600
449.000000	20.043000
448.000000	19.860800
447.000000	19.700200
446.000000	19.523000
445.000000	19.327500
444.000000	19.146600
443.000000	18.987200
442.000000	18.723400
441.000000	18.556100
440.000000	18.296400
439.000000	18.015700
438.000000	17.826700
437.000000	17.588800
436.000000	17.308300
435.000000	17.009200
434.000000	16.712700
433.000000	16.466400
432.000000	16.162400
431.000000	15.839000
430.000000	15.557700
429.000000	15.296500
428.000000	14.954900
427.000000	14.669400
426.000000	14.373600
425.000000	14.021400
424.000000	13.734600
423.000000	13.427100
422.000000	13.118200
421.000000	12.791900
420.000000	12.487800
419.000000	12.148900
418.000000	11.865700
417.000000	11.542900
416.000000	11.215700
415.000000	10.975300
414.000000	10.683000
413.000000	10.407300
412.000000	10.151800
411.000000	9.883700
410.000000	9.661100
409.000000	9.426900
408.000000	9.224800
407.000000	9.025500
406.000000	8.813000
405.000000	8.668900
404.000000	8.498900
403.000000	8.338600
402.000000	8.171800
401.000000	8.034200
400.000000	7.927500
399.000000	7.811500
398.000000	7.694500
397.000000	7.601900
396.000000	7.469000
395.000000	7.401000
394.000000	7.319900
393.000000	7.291800
392.000000	7.193700
391.000000	7.153700
390.000000	7.116600
389.000000	7.065700
388.000000	7.014400
387.000000	6.973100
386.000000	6.940400
385.000000	6.892900
384.000000	6.830300
383.000000	6.808600
382.000000	6.774900
381.000000	6.778500
380.000000	6.747600
379.000000	6.734500
378.000000	6.702000
377.000000	6.682800
376.000000	6.670900
375.000000	6.653400
374.000000	6.626700
373.000000	6.719500
372.000000	6.734600
371.000000	6.646500
370.000000	6.589800
369.000000	6.538200
368.000000	6.535500
367.000000	6.430700
366.000000	6.551300
365.000000	6.577100
364.000000	6.457600
363.000000	6.552100
362.000000	6.498600
361.000000	6.512300
360.000000	6.452900
359.000000	6.403800
358.000000	6.528900
357.000000	6.485500
356.000000	6.527300
355.000000	6.403600
354.000000	6.411200
353.000000	6.459200
352.000000	6.454600
351.000000	6.409500
350.000000	6.115900
349.000000	6.226300
348.000000	6.533700
347.000000	6.429600
346.000000	6.285700
345.000000	6.286000
344.000000	6.364300
343.000000	6.391700
342.000000	6.401000
341.000000	6.455900
340.000000	6.306200
339.000000	6.257400
338.000000	6.359900
337.000000	6.444800
336.000000	6.512400
335.000000	6.370800
334.000000	6.261700
333.000000	6.297100
332.000000	6.419500
331.000000	6.436500
330.000000	6.373300
329.000000	6.362900
328.000000	6.240800
327.000000	6.253400
326.000000	6.348900
325.000000	6.370100
324.000000	6.558700
323.000000	6.401200
322.000000	6.146900
321.000000	6.407300
320.000000	6.497600
319.000000	6.209100
318.000000	6.355500
317.000000	6.536000
316.000000	6.403100
315.000000	6.286500
314.000000	6.244900
313.000000	6.266400
312.000000	6.272800
311.000000	6.242800
310.000000	6.235500
309.000000	6.281100
308.000000	6.247000
307.000000	6.254900
306.000000	6.247400
305.000000	6.264900
304.000000	6.296600
303.000000	6.310100
302.000000	6.270300
301.000000	6.254100
300.000000	6.258800
299.000000	6.256800
298.000000	6.262300
297.000000	6.272700
296.000000	6.255100
295.000000	6.262200
294.000000	6.294500
293.000000	6.292400
292.000000	6.302900
291.000000	6.298100
290.000000	6.237100
289.000000	6.229400
288.000000	6.292600
287.000000	6.314100
286.000000	6.266100
285.000000	6.312100
284.000000	6.336500
283.000000	6.378700
282.000000	6.327300
281.000000	6.322500
280.000000	6.361000
279.000000	6.352100
278.000000	6.388000
277.000000	6.394700
276.000000	6.400800
275.000000	6.438600
274.000000	6.479200
273.000000	6.457300
272.000000	6.508400
271.000000	6.553300
270.000000	6.533000
269.000000	6.547200
268.000000	6.560000
267.000000	6.590700
266.000000	6.569600
265.000000	6.616400
264.000000	6.649400
263.000000	6.715100
262.000000	6.724600
261.000000	6.686900
260.000000	6.800900
259.000000	6.824300
258.000000	6.863800
257.000000	6.914600
256.000000	6.920000
255.000000	6.921000
254.000000	6.949800
253.000000	6.950100
252.000000	6.976400
251.000000	6.986800
250.000000	7.017600
