PE UV       SUBTECH     SPECTRUM    ASCII       PEDS        4.00        
   -1
CICIMAUCR0257-1.Sample.ASC
24/06/26
16:47:23.00
24/06/26
16:47:23.00
Vinicio Soto Monge
C. resplendens. Sex F. Ventral
250,000000
1
Lambda 1050
1050L1511233
PerkinElmer UV WinLab 6.3.2.0749 / 2.02.05 Lambda 900 UV/VIS/NIR, Aug  7 2015 09:38:08

0
0
3350/servo 860,8/2
0
0
UV/VIS
1
1
1
DoubleDePol,CommonBeamDepol,RBeamAtt,SBeamAtt,60mm sphere, WB InGaAs Detector
0
0
0
0
Program
Program
3350/servo 860,8/2
3350/0,2 860,8/0,2
3350/0,2 860,8/0,2
0
15.00
 
 
 
0
 
860,8
319,2
860,8
Front
100
on
S:100 R:100
0
0
0
0
 
0
 
 
 
0
 
 
0
0
0
0
0
 
 
 
 
0
0


0
0
#HDR
-1
-1
#GR
nm
%R
1.0
0.0
2500,000000
-1,000000
2251
8
48,927700
4,018200
#DATA
2482.000000	5.045208
2481.000000	5.032666
2480.000000	5.022585
2479.000000	4.969838
2478.000000	4.986249
2477.000000	4.979216
2476.000000	4.919787
2475.000000	4.961047
2474.000000	4.940417
2473.000000	4.942879
2472.000000	4.912168
2471.000000	4.924007
2470.000000	4.852740
2469.000000	4.872784
2468.000000	4.906659
2467.000000	4.865751
2466.000000	4.922718
2465.000000	4.931743
2464.000000	4.883567
2463.000000	4.907245
2462.000000	4.892476
2461.000000	4.902088
2460.000000	4.856373
2459.000000	4.871729
2458.000000	4.916271
2457.000000	4.905370
2456.000000	4.878058
2455.000000	4.922131
2454.000000	4.919670
2453.000000	4.909238
2452.000000	4.926820
2451.000000	4.937721
2450.000000	4.970073
2449.000000	4.982146
2448.000000	4.975816
2447.000000	5.008637
2446.000000	5.005589
2445.000000	5.006058
2444.000000	5.025516
2443.000000	5.041574
2442.000000	5.058688
2441.000000	5.060095
2440.000000	5.096783
2439.000000	5.144490
2438.000000	5.132065
2437.000000	5.121867
2436.000000	5.139333
2435.000000	5.149296
2434.000000	5.187274
2433.000000	5.186219
2432.000000	5.196182
2431.000000	5.222673
2430.000000	5.236270
2429.000000	5.236153
2428.000000	5.247640
2427.000000	5.230644
2426.000000	5.250102
2425.000000	5.250336
2424.000000	5.251977
2423.000000	5.257135
2422.000000	5.285384
2421.000000	5.291127
2420.000000	5.296871
2419.000000	5.310233
2418.000000	5.308124
2417.000000	5.317618
2416.000000	5.318204
2415.000000	5.316680
2414.000000	5.338834
2413.000000	5.355362
2412.000000	5.326175
2411.000000	5.336138
2410.000000	5.360050
2409.000000	5.368138
2408.000000	5.362863
2407.000000	5.380563
2406.000000	5.376695
2405.000000	5.384666
2404.000000	5.400607
2403.000000	5.403068
2402.000000	5.400607
2401.000000	5.419361
2400.000000	5.431083
2399.000000	5.423112
2398.000000	5.437178
2397.000000	5.453002
2396.000000	5.449720
2395.000000	5.463200
2394.000000	5.458863
2393.000000	5.449251
2392.000000	5.438116
2391.000000	5.446907
2390.000000	5.452651
2389.000000	5.455230
2388.000000	5.456167
2387.000000	5.457457
2386.000000	5.449838
2385.000000	5.454057
2384.000000	5.465896
2383.000000	5.460856
2382.000000	5.453120
2381.000000	5.464138
2380.000000	5.457574
2379.000000	5.438116
2378.000000	5.428387
2377.000000	5.421120
2376.000000	5.426980
2375.000000	5.418893
2374.000000	5.407405
2373.000000	5.406819
2372.000000	5.405882
2371.000000	5.397559
2370.000000	5.390057
2369.000000	5.383962
2368.000000	5.369193
2367.000000	5.355479
2366.000000	5.322307
2365.000000	5.306365
2364.000000	5.293589
2363.000000	5.271787
2362.000000	5.255845
2361.000000	5.232050
2360.000000	5.228886
2359.000000	5.221735
2358.000000	5.196300
2357.000000	5.181765
2356.000000	5.168050
2355.000000	5.166644
2354.000000	5.174263
2353.000000	5.158673
2352.000000	5.141091
2351.000000	5.137692
2350.000000	5.143318
2349.000000	5.166409
2348.000000	5.171801
2347.000000	5.176490
2346.000000	5.170981
2345.000000	5.179186
2344.000000	5.200754
2343.000000	5.215757
2342.000000	5.217398
2341.000000	5.220563
2340.000000	5.228886
2339.000000	5.234864
2338.000000	5.241428
2337.000000	5.237091
2336.000000	5.228534
2335.000000	5.209897
2334.000000	5.216695
2333.000000	5.222439
2332.000000	5.214820
2331.000000	5.201223
2330.000000	5.199113
2329.000000	5.181296
2328.000000	5.160783
2327.000000	5.155157
2326.000000	5.125384
2325.000000	5.109560
2324.000000	5.087640
2323.000000	5.057750
2322.000000	5.036534
2321.000000	5.016256
2320.000000	4.997970
2319.000000	4.979216
2318.000000	4.955772
2317.000000	4.948974
2316.000000	4.929164
2315.000000	4.915919
2314.000000	4.871846
2313.000000	4.843831
2312.000000	4.841018
2311.000000	4.822615
2310.000000	4.802220
2309.000000	4.801751
2308.000000	4.785458
2307.000000	4.779245
2306.000000	4.778776
2305.000000	4.772564
2304.000000	4.765883
2303.000000	4.774908
2302.000000	4.781707
2301.000000	4.799289
2300.000000	4.813238
2299.000000	4.826249
2298.000000	4.832930
2297.000000	4.862000
2296.000000	4.876417
2295.000000	4.882395
2294.000000	4.901150
2293.000000	4.918146
2292.000000	4.923772
2291.000000	4.927406
2290.000000	4.931978
2289.000000	4.939011
2288.000000	4.933970
2287.000000	4.948622
2286.000000	4.954600
2285.000000	4.923772
2284.000000	4.925413
2283.000000	4.910293
2282.000000	4.918615
2281.000000	4.920608
2280.000000	4.913106
2279.000000	4.871846
2278.000000	4.864578
2277.000000	4.866688
2276.000000	4.876183
2275.000000	4.867157
2274.000000	4.851685
2273.000000	4.849106
2272.000000	4.856725
2271.000000	4.835626
2270.000000	4.841018
2269.000000	4.869736
2268.000000	4.874893
2267.000000	4.873487
2266.000000	4.915567
2265.000000	4.920139
2264.000000	4.938307
2263.000000	4.978161
2262.000000	5.021999
2261.000000	5.073809
2260.000000	5.109325
2259.000000	5.173911
2258.000000	5.236973
2257.000000	5.287494
2256.000000	5.343523
2255.000000	5.402834
2254.000000	5.471757
2253.000000	5.560021
2252.000000	5.649339
2251.000000	5.716269
2250.000000	5.771009
2249.000000	5.814379
2248.000000	5.911786
2247.000000	5.969925
2246.000000	6.044357
2245.000000	6.100855
2244.000000	6.159228
2243.000000	6.193690
2242.000000	6.267888
2241.000000	6.305748
2240.000000	6.390964
2239.000000	6.415814
2238.000000	6.441836
2237.000000	6.484503
2236.000000	6.553660
2235.000000	6.587887
2234.000000	6.607814
2233.000000	6.658803
2232.000000	6.687521
2231.000000	6.727257
2230.000000	6.706392
2229.000000	6.772502
2228.000000	6.789030
2227.000000	6.807081
2226.000000	6.803916
2225.000000	6.822553
2224.000000	6.846231
2223.000000	6.856663
2222.000000	6.844238
2221.000000	6.844590
2220.000000	6.866275
2219.000000	6.860649
2218.000000	6.855022
2217.000000	6.846817
2216.000000	6.850099
2215.000000	6.830876
2214.000000	6.835095
2213.000000	6.834861
2212.000000	6.829586
2211.000000	6.845176
2210.000000	6.819271
2209.000000	6.822905
2208.000000	6.817161
2207.000000	6.811769
2206.000000	6.822553
2205.000000	6.833103
2204.000000	6.818099
2203.000000	6.813411
2202.000000	6.815286
2201.000000	6.817630
2200.000000	6.827828
2199.000000	6.805557
2198.000000	6.806143
2197.000000	6.793132
2196.000000	6.803330
2195.000000	6.830524
2194.000000	6.829469
2193.000000	6.812707
2192.000000	6.819506
2191.000000	6.804385
2190.000000	6.798524
2189.000000	6.793367
2188.000000	6.787037
2187.000000	6.805440
2186.000000	6.789147
2185.000000	6.776136
2184.000000	6.785630
2183.000000	6.766055
2182.000000	6.737455
2181.000000	6.748942
2180.000000	6.750231
2179.000000	6.737455
2178.000000	6.735931
2177.000000	6.759960
2176.000000	6.741557
2175.000000	6.734055
2174.000000	6.738861
2173.000000	6.729601
2172.000000	6.737103
2171.000000	6.717059
2170.000000	6.714480
2169.000000	6.725967
2168.000000	6.738627
2167.000000	6.749645
2166.000000	6.741792
2165.000000	6.735579
2164.000000	6.765235
2163.000000	6.768048
2162.000000	6.784224
2161.000000	6.797118
2160.000000	6.760429
2159.000000	6.780004
2158.000000	6.784224
2157.000000	6.789030
2156.000000	6.818685
2155.000000	6.845059
2154.000000	6.827828
2153.000000	6.837323
2152.000000	6.857015
2151.000000	6.855843
2150.000000	6.866744
2149.000000	6.878700
2148.000000	6.883857
2147.000000	6.892062
2146.000000	6.897103
2145.000000	6.911286
2144.000000	6.930392
2143.000000	6.941996
2142.000000	6.932033
2141.000000	6.937542
2140.000000	6.934260
2139.000000	6.945396
2138.000000	6.970714
2137.000000	6.964150
2136.000000	6.954890
2135.000000	6.968722
2134.000000	6.980912
2133.000000	6.983725
2132.000000	6.996853
2131.000000	7.000604
2130.000000	6.992399
2129.000000	6.985015
2128.000000	6.973762
2127.000000	6.989586
2126.000000	6.992282
2125.000000	6.969659
2124.000000	6.987007
2123.000000	6.978802
2122.000000	6.964854
2121.000000	6.969308
2120.000000	6.964150
2119.000000	6.950084
2118.000000	6.941762
2117.000000	6.926993
2116.000000	6.907183
2115.000000	6.899447
2114.000000	6.892766
2113.000000	6.879872
2112.000000	6.857835
2111.000000	6.848575
2110.000000	6.849982
2109.000000	6.838729
2108.000000	6.835916
2107.000000	6.826070
2106.000000	6.811066
2105.000000	6.821850
2104.000000	6.819389
2103.000000	6.790553
2102.000000	6.775081
2101.000000	6.766407
2100.000000	6.761484
2099.000000	6.735345
2098.000000	6.722334
2097.000000	6.741909
2096.000000	6.738861
2095.000000	6.715535
2094.000000	6.713191
2093.000000	6.701587
2092.000000	6.681777
2091.000000	6.667711
2090.000000	6.678026
2089.000000	6.689162
2088.000000	6.674627
2087.000000	6.665015
2086.000000	6.671345
2085.000000	6.667711
2084.000000	6.663843
2083.000000	6.666773
2082.000000	6.655286
2081.000000	6.642744
2080.000000	6.639110
2079.000000	6.638524
2078.000000	6.629968
2077.000000	6.627389
2076.000000	6.623755
2075.000000	6.612971
2074.000000	6.597968
2073.000000	6.591872
2072.000000	6.587535
2071.000000	6.579916
2070.000000	6.593279
2069.000000	6.594686
2068.000000	6.587301
2067.000000	6.579213
2066.000000	6.565733
2065.000000	6.550495
2064.000000	6.557645
2063.000000	6.563037
2062.000000	6.543697
2061.000000	6.530451
2060.000000	6.549089
2059.000000	6.562803
2058.000000	6.558114
2057.000000	6.561279
2056.000000	6.567726
2055.000000	6.578979
2054.000000	6.591286
2053.000000	6.632664
2052.000000	6.666773
2051.000000	6.679667
2050.000000	6.707447
2049.000000	6.734641
2048.000000	6.774495
2047.000000	6.827008
2046.000000	6.861938
2045.000000	6.904018
2044.000000	6.959696
2043.000000	7.019828
2042.000000	7.072692
2041.000000	7.109264
2040.000000	7.139974
2039.000000	7.191549
2038.000000	7.252619
2037.000000	7.298216
2036.000000	7.367021
2035.000000	7.413673
2034.000000	7.468765
2033.000000	7.509673
2032.000000	7.517527
2031.000000	7.567461
2030.000000	7.623607
2029.000000	7.638962
2028.000000	7.681394
2027.000000	7.722537
2026.000000	7.734845
2025.000000	7.771534
2024.000000	7.801072
2023.000000	7.841629
2022.000000	7.862962
2021.000000	7.898244
2020.000000	7.924149
2019.000000	7.927548
2018.000000	7.968222
2017.000000	7.997174
2016.000000	8.004559
2015.000000	8.026127
2014.000000	8.058947
2013.000000	8.075943
2012.000000	8.065863
2011.000000	8.066918
2010.000000	8.093995
2009.000000	8.103724
2008.000000	8.109467
2007.000000	8.087196
2006.000000	8.101848
2005.000000	8.106068
2004.000000	8.107357
2003.000000	8.095987
2002.000000	8.103020
2001.000000	8.076647
2000.000000	8.067738
1999.000000	8.065863
1998.000000	8.030932
1997.000000	8.006903
1996.000000	8.004324
1995.000000	7.992017
1994.000000	7.973497
1993.000000	7.945599
1992.000000	7.913013
1991.000000	7.888867
1990.000000	7.876325
1989.000000	7.845497
1988.000000	7.818537
1987.000000	7.775402
1986.000000	7.745277
1985.000000	7.725819
1984.000000	7.693819
1983.000000	7.660530
1982.000000	7.617512
1981.000000	7.610010
1980.000000	7.583871
1979.000000	7.521512
1978.000000	7.496545
1977.000000	7.465717
1976.000000	7.451300
1975.000000	7.413908
1974.000000	7.377571
1973.000000	7.333146
1972.000000	7.321073
1971.000000	7.273717
1970.000000	7.260003
1969.000000	7.226128
1968.000000	7.206670
1967.000000	7.156150
1966.000000	7.158143
1965.000000	7.124502
1964.000000	7.100121
1963.000000	7.095784
1962.000000	7.050773
1961.000000	7.037645
1960.000000	6.996385
1959.000000	6.964150
1958.000000	6.952311
1957.000000	6.906832
1956.000000	6.902377
1955.000000	6.870846
1954.000000	6.862290
1953.000000	6.827008
1952.000000	6.798759
1951.000000	6.797352
1950.000000	6.764063
1949.000000	6.743198
1948.000000	6.722217
1947.000000	6.701821
1946.000000	6.701352
1945.000000	6.685645
1944.000000	6.666187
1943.000000	6.652473
1942.000000	6.656224
1941.000000	6.624576
1940.000000	6.619067
1939.000000	6.604883
1938.000000	6.602891
1937.000000	6.631023
1936.000000	6.624927
1935.000000	6.613088
1934.000000	6.633718
1933.000000	6.663960
1932.000000	6.645088
1931.000000	6.666422
1930.000000	6.708854
1929.000000	6.717176
1928.000000	6.702407
1927.000000	6.752341
1926.000000	6.785396
1925.000000	6.833454
1924.000000	6.878700
1923.000000	6.905308
1922.000000	6.942231
1921.000000	6.995212
1920.000000	7.078553
1919.000000	7.132472
1918.000000	7.197058
1917.000000	7.275593
1916.000000	7.317791
1915.000000	7.395388
1914.000000	7.460442
1913.000000	7.539212
1912.000000	7.666977
1911.000000	7.739651
1910.000000	7.834127
1909.000000	7.903401
1908.000000	8.005731
1907.000000	8.087548
1906.000000	8.187181
1905.000000	8.322331
1904.000000	8.466976
1903.000000	8.589701
1902.000000	8.732470
1901.000000	8.822960
1900.000000	8.961041
1899.000000	9.132411
1898.000000	9.301670
1897.000000	9.437172
1896.000000	9.606315
1895.000000	9.718725
1894.000000	9.870519
1893.000000	10.018446
1892.000000	10.176687
1891.000000	10.341024
1890.000000	10.556115
1889.000000	10.727251
1888.000000	10.908584
1887.000000	11.131059
1886.000000	11.346619
1885.000000	11.594883
1884.000000	11.877608
1883.000000	12.229842
1882.000000	12.598134
1881.000000	12.975335
1880.000000	13.409268
1879.000000	13.775334
1878.000000	14.143040
1877.000000	14.558805
1876.000000	14.926042
1875.000000	15.282262
1874.000000	15.635082
1873.000000	15.941484
1872.000000	16.268399
1871.000000	16.541161
1870.000000	16.814860
1869.000000	17.092779
1868.000000	17.350420
1867.000000	17.524485
1866.000000	17.667020
1865.000000	17.787283
1864.000000	17.880704
1863.000000	17.957364
1862.000000	17.986199
1861.000000	18.069188
1860.000000	18.141158
1859.000000	18.179019
1858.000000	18.223678
1857.000000	18.239620
1856.000000	18.218052
1855.000000	18.195664
1854.000000	18.169759
1853.000000	18.147253
1852.000000	18.107634
1851.000000	18.053598
1850.000000	17.985144
1849.000000	17.924426
1848.000000	17.862536
1847.000000	17.824558
1846.000000	17.768294
1845.000000	17.702185
1844.000000	17.636309
1843.000000	17.577467
1842.000000	17.526243
1841.000000	17.508544
1840.000000	17.488969
1839.000000	17.451694
1838.000000	17.400354
1837.000000	17.363431
1836.000000	17.332251
1835.000000	17.271533
1834.000000	17.206713
1833.000000	17.130054
1832.000000	17.053863
1831.000000	16.989043
1830.000000	16.922230
1829.000000	16.860691
1828.000000	16.766684
1827.000000	16.676545
1826.000000	16.604575
1825.000000	16.545498
1824.000000	16.471769
1823.000000	16.415623
1822.000000	16.388311
1821.000000	16.356311
1820.000000	16.335095
1819.000000	16.300048
1818.000000	16.273791
1817.000000	16.252341
1816.000000	16.244487
1815.000000	16.250582
1814.000000	16.253278
1813.000000	16.237689
1812.000000	16.230890
1811.000000	16.221982
1810.000000	16.205689
1809.000000	16.162319
1808.000000	16.110041
1807.000000	16.073118
1806.000000	16.046392
1805.000000	16.009118
1804.000000	15.947697
1803.000000	15.903975
1802.000000	15.865997
1801.000000	15.809264
1800.000000	15.754407
1799.000000	15.704825
1798.000000	15.668488
1797.000000	15.619726
1796.000000	15.557133
1795.000000	15.513646
1794.000000	15.467697
1793.000000	15.429602
1792.000000	15.374393
1791.000000	15.307111
1790.000000	15.261866
1789.000000	15.200562
1788.000000	15.143595
1787.000000	15.071273
1786.000000	14.985705
1785.000000	14.924167
1784.000000	14.855830
1783.000000	14.775537
1782.000000	14.693486
1781.000000	14.610028
1780.000000	14.534893
1779.000000	14.459054
1778.000000	14.375245
1777.000000	14.291904
1776.000000	14.191450
1775.000000	14.078220
1774.000000	13.968623
1773.000000	13.858323
1772.000000	13.742865
1771.000000	13.614045
1770.000000	13.499525
1769.000000	13.382777
1768.000000	13.266968
1767.000000	13.169796
1766.000000	13.072859
1765.000000	12.983657
1764.000000	12.927276
1763.000000	12.882383
1762.000000	12.872419
1761.000000	12.886251
1760.000000	12.904302
1759.000000	12.949313
1758.000000	13.010617
1757.000000	13.087276
1756.000000	13.138031
1755.000000	13.180814
1754.000000	13.216331
1753.000000	13.223481
1752.000000	13.225825
1751.000000	13.229576
1750.000000	13.201327
1749.000000	13.168507
1748.000000	13.138148
1747.000000	13.064771
1746.000000	12.958221
1745.000000	12.853079
1744.000000	12.757899
1743.000000	12.620171
1742.000000	12.459819
1741.000000	12.288684
1740.000000	12.091410
1739.000000	11.904685
1738.000000	11.725696
1737.000000	11.549989
1736.000000	11.415894
1735.000000	11.279338
1734.000000	11.205609
1733.000000	11.181111
1732.000000	11.187792
1731.000000	11.218971
1730.000000	11.291411
1729.000000	11.359044
1728.000000	11.472041
1727.000000	11.552802
1726.000000	11.642941
1725.000000	11.721828
1724.000000	11.791337
1723.000000	11.826502
1722.000000	11.854868
1721.000000	11.861549
1720.000000	11.881476
1719.000000	11.893549
1718.000000	11.902692
1717.000000	11.891088
1716.000000	11.937857
1715.000000	11.971966
1714.000000	12.014164
1713.000000	12.055541
1712.000000	12.100318
1711.000000	12.124582
1710.000000	12.148376
1709.000000	12.171585
1708.000000	12.158809
1707.000000	12.137944
1706.000000	12.130560
1705.000000	12.106062
1704.000000	12.038662
1703.000000	12.005842
1702.000000	11.942428
1701.000000	11.841271
1700.000000	11.743278
1699.000000	11.633447
1698.000000	11.514473
1697.000000	11.402297
1696.000000	11.309462
1695.000000	11.249916
1694.000000	11.263982
1693.000000	11.305477
1692.000000	11.390107
1691.000000	11.505330
1690.000000	11.644700
1689.000000	11.773754
1688.000000	11.872216
1687.000000	11.914413
1686.000000	11.938912
1685.000000	11.944421
1684.000000	11.979117
1683.000000	12.069959
1682.000000	12.199483
1681.000000	12.451966
1680.000000	12.824712
1679.000000	13.289942
1678.000000	13.766074
1677.000000	14.274556
1676.000000	14.751508
1675.000000	15.187668
1674.000000	15.594173
1673.000000	15.957660
1672.000000	16.242963
1671.000000	16.519827
1670.000000	16.719329
1669.000000	16.909219
1668.000000	17.071680
1667.000000	17.255357
1666.000000	17.354405
1665.000000	17.462244
1664.000000	17.541130
1663.000000	17.627049
1662.000000	17.704998
1661.000000	17.768763
1660.000000	17.793730
1659.000000	17.829716
1658.000000	17.869335
1657.000000	17.893247
1656.000000	17.912118
1655.000000	17.924778
1654.000000	17.932397
1653.000000	17.918682
1652.000000	17.913525
1651.000000	17.865349
1650.000000	17.837335
1649.000000	17.813540
1648.000000	17.757979
1647.000000	17.740163
1646.000000	17.697965
1645.000000	17.633379
1644.000000	17.567621
1643.000000	17.539723
1642.000000	17.467167
1641.000000	17.392735
1640.000000	17.352412
1639.000000	17.289702
1638.000000	17.236955
1637.000000	17.141658
1636.000000	17.095240
1635.000000	17.034405
1634.000000	16.950244
1633.000000	16.884955
1632.000000	16.782157
1631.000000	16.715578
1630.000000	16.641380
1629.000000	16.555344
1628.000000	16.473879
1627.000000	16.428751
1626.000000	16.346582
1625.000000	16.249879
1624.000000	16.174744
1623.000000	16.083433
1622.000000	16.010055
1621.000000	15.922847
1620.000000	15.861074
1619.000000	15.795550
1618.000000	15.720298
1617.000000	15.630862
1616.000000	15.579521
1615.000000	15.492078
1614.000000	15.431478
1613.000000	15.365133
1612.000000	15.319067
1611.000000	15.242994
1610.000000	15.174775
1609.000000	15.122145
1608.000000	15.043141
1607.000000	14.972343
1606.000000	14.929793
1605.000000	14.884665
1604.000000	14.800504
1603.000000	14.742834
1602.000000	14.691376
1601.000000	14.634175
1600.000000	14.561501
1599.000000	14.506058
1598.000000	14.463391
1597.000000	14.409120
1596.000000	14.356256
1595.000000	14.300813
1594.000000	14.252168
1593.000000	14.229663
1592.000000	14.152417
1591.000000	14.114439
1590.000000	14.073414
1589.000000	14.037428
1588.000000	14.023128
1587.000000	13.973077
1586.000000	13.953385
1585.000000	13.920447
1584.000000	13.901575
1583.000000	13.879070
1582.000000	13.857854
1581.000000	13.837341
1580.000000	13.818117
1579.000000	13.795729
1578.000000	13.798660
1577.000000	13.793033
1576.000000	13.786821
1575.000000	13.788345
1574.000000	13.795378
1573.000000	13.804638
1572.000000	13.812139
1571.000000	13.811905
1570.000000	13.798660
1569.000000	13.821282
1568.000000	13.850938
1567.000000	13.877311
1566.000000	13.904974
1565.000000	13.929473
1564.000000	13.931465
1563.000000	13.950571
1562.000000	13.976711
1561.000000	13.997927
1560.000000	14.035201
1559.000000	14.047392
1558.000000	14.053253
1557.000000	14.057004
1556.000000	14.082908
1555.000000	14.088535
1554.000000	14.088535
1553.000000	14.105414
1552.000000	14.103304
1551.000000	14.114557
1550.000000	14.116198
1549.000000	14.103890
1548.000000	14.113970
1547.000000	14.101428
1546.000000	14.103538
1545.000000	14.106937
1544.000000	14.100842
1543.000000	14.093458
1542.000000	14.091348
1541.000000	14.103655
1540.000000	14.120886
1539.000000	14.121121
1538.000000	14.107875
1537.000000	14.102718
1536.000000	14.103421
1535.000000	14.108227
1534.000000	14.111509
1533.000000	14.098146
1532.000000	14.092286
1531.000000	14.093340
1530.000000	14.092520
1529.000000	14.058996
1528.000000	14.043406
1527.000000	14.052901
1526.000000	14.035787
1525.000000	14.012227
1524.000000	13.987612
1523.000000	13.969912
1522.000000	13.948696
1521.000000	13.919275
1520.000000	13.901341
1519.000000	13.889268
1518.000000	13.865004
1517.000000	13.839216
1516.000000	13.833004
1515.000000	13.829487
1514.000000	13.785766
1513.000000	13.745444
1512.000000	13.736301
1511.000000	13.709693
1510.000000	13.686132
1509.000000	13.665971
1508.000000	13.633502
1507.000000	13.616272
1506.000000	13.582982
1505.000000	13.555905
1504.000000	13.535979
1503.000000	13.512301
1502.000000	13.496829
1501.000000	13.477957
1500.000000	13.455451
1499.000000	13.434821
1498.000000	13.430367
1497.000000	13.413957
1496.000000	13.391334
1495.000000	13.382191
1494.000000	13.370587
1493.000000	13.370353
1492.000000	13.376917
1491.000000	13.360272
1490.000000	13.361444
1489.000000	13.368594
1488.000000	13.367188
1487.000000	13.371290
1486.000000	13.384418
1485.000000	13.382191
1484.000000	13.379495
1483.000000	13.391920
1482.000000	13.381371
1481.000000	13.372228
1480.000000	13.399891
1479.000000	13.434352
1478.000000	13.439393
1477.000000	13.437986
1476.000000	13.466118
1475.000000	13.488155
1474.000000	13.512301
1473.000000	13.548990
1472.000000	13.563876
1471.000000	13.573371
1470.000000	13.599041
1469.000000	13.628228
1468.000000	13.642528
1467.000000	13.654250
1466.000000	13.700902
1465.000000	13.732198
1464.000000	13.751773
1463.000000	13.780139
1462.000000	13.829253
1461.000000	13.881883
1460.000000	13.926659
1459.000000	13.978117
1458.000000	14.031216
1457.000000	14.098264
1456.000000	14.188989
1455.000000	14.232945
1454.000000	14.301868
1453.000000	14.380051
1452.000000	14.463391
1451.000000	14.537003
1450.000000	14.648358
1449.000000	14.737325
1448.000000	14.802380
1447.000000	14.908577
1446.000000	14.983361
1445.000000	15.108430
1444.000000	15.227756
1443.000000	15.333485
1442.000000	15.426086
1441.000000	15.526188
1440.000000	15.634964
1439.000000	15.736356
1438.000000	15.847946
1437.000000	15.961762
1436.000000	16.061865
1435.000000	16.178495
1434.000000	16.287974
1433.000000	16.407652
1432.000000	16.519945
1431.000000	16.640912
1430.000000	16.763988
1429.000000	16.873937
1428.000000	17.035226
1427.000000	17.186317
1426.000000	17.341160
1425.000000	17.533276
1424.000000	17.724573
1423.000000	17.905085
1422.000000	18.118653
1421.000000	18.344528
1420.000000	18.530198
1419.000000	18.748923
1418.000000	18.957919
1417.000000	19.166446
1416.000000	19.353992
1415.000000	19.575178
1414.000000	19.826958
1413.000000	20.051661
1412.000000	20.279060
1411.000000	20.461330
1410.000000	20.727528
1409.000000	21.025491
1408.000000	21.356157
1407.000000	21.722105
1406.000000	22.075745
1405.000000	22.509444
1404.000000	22.945722
1403.000000	23.363245
1402.000000	23.766703
1401.000000	24.143552
1400.000000	24.619331
1399.000000	25.043887
1398.000000	25.349469
1397.000000	25.583315
1396.000000	25.830992
1395.000000	26.169864
1394.000000	26.400193
1393.000000	26.569922
1392.000000	26.742112
1391.000000	26.951342
1390.000000	27.177452
1389.000000	27.364177
1388.000000	27.631663
1387.000000	27.993743
1386.000000	28.338007
1385.000000	28.775105
1384.000000	29.214430
1383.000000	29.758781
1382.000000	30.316963
1381.000000	30.828728
1380.000000	31.227262
1379.000000	31.405313
1378.000000	31.619584
1377.000000	31.750866
1376.000000	31.868551
1375.000000	32.059964
1374.000000	32.321004
1373.000000	32.619201
1372.000000	33.024417
1371.000000	33.499610
1370.000000	34.017939
1369.000000	34.482231
1368.000000	34.861894
1367.000000	35.237102
1366.000000	35.585116
1365.000000	35.882727
1364.000000	36.154317
1363.000000	36.391796
1362.000000	36.618843
1361.000000	36.792206
1360.000000	36.998154
1359.000000	37.114081
1358.000000	37.181128
1357.000000	37.303971
1356.000000	37.496322
1355.000000	37.856058
1354.000000	38.364658
1353.000000	39.085887
1352.000000	39.760230
1351.000000	40.546398
1350.000000	41.311114
1349.000000	41.991436
1348.000000	42.578453
1347.000000	43.162540
1346.000000	43.674305
1345.000000	44.189234
1344.000000	44.675681
1343.000000	45.140442
1342.000000	45.561013
1341.000000	45.980294
1340.000000	46.388088
1339.000000	46.809597
1338.000000	47.179647
1337.000000	47.524497
1336.000000	47.864657
1335.000000	48.194972
1334.000000	48.531616
1333.000000	48.833799
1332.000000	49.130238
1331.000000	49.427614
1330.000000	49.680918
1329.000000	49.955555
1328.000000	50.226207
1327.000000	50.457591
1326.000000	50.675495
1325.000000	50.883554
1324.000000	51.086337
1323.000000	51.291817
1322.000000	51.456153
1321.000000	51.596813
1320.000000	51.766424
1319.000000	51.922087
1318.000000	52.064621
1317.000000	52.208094
1316.000000	52.333984
1315.000000	52.463390
1314.000000	52.605925
1313.000000	52.699463
1312.000000	52.799214
1311.000000	52.887126
1310.000000	52.988048
1309.000000	53.075726
1308.000000	53.157191
1307.000000	53.235140
1306.000000	53.290466
1305.000000	53.333249
1304.000000	53.377674
1303.000000	53.414949
1302.000000	53.430070
1301.000000	53.438509
1300.000000	53.449293
1299.000000	53.438744
1298.000000	53.450348
1297.000000	53.459022
1296.000000	53.437454
1295.000000	53.425264
1294.000000	53.398070
1293.000000	53.379901
1292.000000	53.368883
1291.000000	53.336649
1290.000000	53.280268
1289.000000	53.223066
1288.000000	53.161528
1287.000000	53.078422
1286.000000	53.006803
1285.000000	52.934832
1284.000000	52.850437
1283.000000	52.757250
1282.000000	52.648826
1281.000000	52.549192
1280.000000	52.438540
1279.000000	52.345588
1278.000000	52.251464
1277.000000	52.141749
1276.000000	52.045398
1275.000000	51.951625
1274.000000	51.872387
1273.000000	51.795142
1272.000000	51.708871
1271.000000	51.620607
1270.000000	51.549340
1269.000000	51.478776
1268.000000	51.413956
1267.000000	51.328974
1266.000000	51.259348
1265.000000	51.192769
1264.000000	51.108022
1263.000000	51.027378
1262.000000	50.939466
1261.000000	50.852726
1260.000000	50.760711
1259.000000	50.683818
1258.000000	50.606572
1257.000000	50.505181
1256.000000	50.415510
1255.000000	50.321152
1254.000000	50.214016
1253.000000	50.124698
1252.000000	50.009943
1251.000000	49.899995
1250.000000	49.781958
1249.000000	49.645988
1248.000000	49.513768
1247.000000	49.370061
1246.000000	49.216860
1245.000000	49.047249
1244.000000	48.885608
1243.000000	48.706268
1242.000000	48.499264
1241.000000	48.288041
1240.000000	48.077170
1239.000000	47.864892
1238.000000	47.635383
1237.000000	47.406695
1236.000000	47.177186
1235.000000	46.922710
1234.000000	46.661670
1233.000000	46.403443
1232.000000	46.141466
1231.000000	45.879371
1230.000000	45.623840
1229.000000	45.361628
1228.000000	45.086640
1227.000000	44.810362
1226.000000	44.538655
1225.000000	44.256751
1224.000000	43.968634
1223.000000	43.711111
1222.000000	43.457455
1221.000000	43.181998
1220.000000	42.918965
1219.000000	42.667303
1218.000000	42.437208
1217.000000	42.225750
1216.000000	41.999992
1215.000000	41.788769
1214.000000	41.585986
1213.000000	41.386836
1212.000000	41.222968
1211.000000	41.063437
1210.000000	40.885269
1209.000000	40.726441
1208.000000	40.595628
1207.000000	40.468684
1206.000000	40.354867
1205.000000	40.272112
1204.000000	40.221006
1203.000000	40.187483
1202.000000	40.146457
1201.000000	40.109886
1200.000000	40.071908
1199.000000	39.997241
1198.000000	39.894912
1197.000000	39.765622
1196.000000	39.590502
1195.000000	39.332158
1194.000000	38.966092
1193.000000	38.541654
1192.000000	38.032350
1191.000000	37.429157
1190.000000	36.798653
1189.000000	36.188427
1188.000000	35.675607
1187.000000	35.271681
1186.000000	35.028692
1185.000000	34.946407
1184.000000	35.034787
1183.000000	35.296179
1182.000000	35.723665
1181.000000	36.303298
1180.000000	36.992762
1179.000000	37.651516
1178.000000	38.287529
1177.000000	38.868452
1176.000000	39.381037
1175.000000	39.843571
1174.000000	40.264025
1173.000000	40.673108
1172.000000	41.085825
1171.000000	41.492682
1170.000000	41.939861
1169.000000	42.385398
1168.000000	42.845354
1167.000000	43.332386
1166.000000	43.810627
1165.000000	44.261791
1164.000000	44.729014
1163.000000	45.219211
1162.000000	45.729686
1161.000000	46.212733
1160.000000	46.688395
1159.000000	47.139442
1158.000000	47.584863
1157.000000	48.024305
1156.000000	48.412642
1155.000000	48.735689
1154.000000	49.002238
1153.000000	49.186619
1152.000000	49.297622
1151.000000	49.359629
1150.000000	49.369827
1149.000000	49.331966
1148.000000	49.321769
1147.000000	49.315322
1146.000000	49.362560
1145.000000	49.523263
1144.000000	49.750896
1143.000000	50.071599
1142.000000	50.447745
1141.000000	50.872418
1140.000000	51.297912
1139.000000	51.760680
1138.000000	52.224738
1137.000000	52.717280
1136.000000	53.194700
1135.000000	53.706465
1134.000000	54.239563
1133.000000	54.721672
1132.000000	55.130052
1131.000000	55.510184
1130.000000	55.877890
1129.000000	56.158622
1128.000000	56.452014
1127.000000	56.656673
1126.000000	56.834841
1125.000000	56.957683
1124.000000	57.057317
1123.000000	57.126357
1122.000000	57.209697
1121.000000	57.258342
1120.000000	57.304291
1119.000000	57.337580
1118.000000	57.346254
1117.000000	57.351060
1116.000000	57.331016
1115.000000	57.300071
1114.000000	57.261624
1113.000000	57.215324
1112.000000	57.177111
1111.000000	57.162108
1110.000000	57.113229
1109.000000	57.070211
1108.000000	57.009727
1107.000000	56.968702
1106.000000	56.942211
1105.000000	56.894621
1104.000000	56.841288
1103.000000	56.794753
1102.000000	56.736380
1101.000000	56.669918
1100.000000	56.643896
1099.000000	56.570519
1098.000000	56.509332
1097.000000	56.424468
1096.000000	56.362343
1095.000000	56.295179
1094.000000	56.233406
1093.000000	56.152058
1092.000000	56.030154
1091.000000	55.970139
1090.000000	55.887267
1089.000000	55.816469
1088.000000	55.694330
1087.000000	55.611458
1086.000000	55.517099
1085.000000	55.407268
1084.000000	55.317481
1083.000000	55.215151
1082.000000	55.122199
1081.000000	55.026551
1080.000000	54.921642
1079.000000	54.811108
1078.000000	54.728471
1077.000000	54.663650
1076.000000	54.542332
1075.000000	54.436720
1074.000000	54.338259
1073.000000	54.260545
1072.000000	54.160911
1071.000000	54.062098
1070.000000	53.959182
1069.000000	53.867168
1068.000000	53.776560
1067.000000	53.695212
1066.000000	53.601439
1065.000000	53.472150
1064.000000	53.385528
1063.000000	53.291755
1062.000000	53.162349
1061.000000	53.070100
1060.000000	52.957455
1059.000000	52.858056
1058.000000	52.767917
1057.000000	52.651873
1056.000000	52.545441
1055.000000	52.437251
1054.000000	52.317808
1053.000000	52.184768
1052.000000	52.100255
1051.000000	51.985501
1050.000000	51.905090
1049.000000	51.784827
1048.000000	51.692461
1047.000000	51.613809
1046.000000	51.511948
1045.000000	51.432124
1044.000000	51.346322
1043.000000	51.239304
1042.000000	51.158191
1041.000000	51.086923
1040.000000	50.969590
1039.000000	50.895978
1038.000000	50.796462
1037.000000	50.703041
1036.000000	50.622162
1035.000000	50.516199
1034.000000	50.416214
1033.000000	50.287159
1032.000000	50.189987
1031.000000	50.089650
1030.000000	49.984742
1029.000000	49.877958
1028.000000	49.767775
1027.000000	49.639775
1026.000000	49.511072
1025.000000	49.400420
1024.000000	49.263981
1023.000000	49.141608
1022.000000	49.007513
1021.000000	48.889242
1020.000000	48.752685
1019.000000	48.623748
1018.000000	48.521770
1017.000000	48.406195
1016.000000	48.293550
1015.000000	48.197199
1014.000000	48.086547
1013.000000	47.978239
1012.000000	47.906855
1011.000000	47.848716
1010.000000	47.783661
1009.000000	47.717082
1008.000000	47.670079
1007.000000	47.644877
1006.000000	47.608072
1005.000000	47.547354
1004.000000	47.484995
1003.000000	47.436467
1002.000000	47.379383
1001.000000	47.331676
1000.000000	47.286548
999.000000	47.219384
998.000000	47.146358
997.000000	47.102285
996.000000	47.055985
995.000000	47.006402
994.000000	46.930681
993.000000	46.889772
992.000000	46.847926
991.000000	46.797758
990.000000	46.739033
989.000000	46.696952
988.000000	46.656864
987.000000	46.603179
986.000000	46.558403
985.000000	46.503429
984.000000	46.456542
983.000000	46.426066
982.000000	46.376718
981.000000	46.341671
980.000000	46.291151
979.000000	46.230667
978.000000	46.177099
977.000000	46.128572
976.000000	46.053202
975.000000	46.002213
974.000000	45.967283
973.000000	45.909730
972.000000	45.817833
971.000000	45.748206
970.000000	45.721481
969.000000	45.655606
968.000000	45.557965
967.000000	45.496075
966.000000	45.435123
965.000000	45.364559
964.000000	45.308998
963.000000	45.251445
962.000000	45.188031
961.000000	45.145482
960.000000	45.085467
959.000000	45.045848
958.000000	45.013966
957.000000	44.950786
956.000000	44.887021
955.000000	44.820677
954.000000	44.753278
953.000000	44.687519
952.000000	44.618479
951.000000	44.530098
950.000000	44.436677
949.000000	44.350758
948.000000	44.266011
947.000000	44.182202
946.000000	44.097103
945.000000	44.004502
944.000000	43.933000
943.000000	43.858568
942.000000	43.748151
941.000000	43.650862
940.000000	43.582994
939.000000	43.484415
938.000000	43.377749
937.000000	43.301675
936.000000	43.252445
935.000000	43.163009
934.000000	43.065603
933.000000	42.999024
932.000000	42.932211
931.000000	42.860944
930.000000	42.807845
929.000000	42.746072
928.000000	42.660035
927.000000	42.607405
926.000000	42.528636
925.000000	42.433809
924.000000	42.350937
923.000000	42.260798
922.000000	42.187772
921.000000	42.146747
920.000000	42.066102
919.000000	41.975377
918.000000	41.893326
917.000000	41.812095
916.000000	41.720784
915.000000	41.631348
914.000000	41.542264
913.000000	41.437122
912.000000	41.370308
911.000000	41.296697
910.000000	41.215583
909.000000	41.156624
908.000000	41.098133
907.000000	41.041049
906.000000	41.016434
905.000000	40.954544
904.000000	40.925708
903.000000	40.920434
902.000000	40.891950
901.000000	40.902382
900.000000	40.898866
899.000000	40.922075
898.000000	40.939188
897.000000	40.941767
896.000000	40.933679
895.000000	40.923481
894.000000	40.922075
893.000000	40.927232
892.000000	40.917503
891.000000	40.906251
890.000000	40.890309
889.000000	40.877064
888.000000	40.870500
887.000000	40.855613
886.000000	40.805679
885.000000	40.774617
884.000000	40.732068
883.000000	40.702998
882.000000	40.648376
881.000000	40.603716
880.000000	40.555423
879.000000	40.528229
878.000000	40.473021
877.000000	40.377490
876.000000	40.249255
875.000000	40.193578
874.000000	40.079996
873.000000	39.950941
872.000000	39.866897
871.000000	39.844978
870.000000	39.886941
869.000000	40.009080
868.000000	40.103556
867.000000	40.173768
866.000000	40.263438
865.000000	40.327087
864.000000	40.396010
863.000000	40.481577
862.000000	40.591526
861.000000	40.662793
860.000000	40.734881
859.000000	40.840375
858.000000	40.948800
857.000000	40.092400
856.000000	41.373700
855.000000	41.380300
854.000000	41.449100
853.000000	41.679800
852.000000	41.605500
851.000000	41.800000
850.000000	41.604400
849.000000	42.075700
848.000000	42.177600
847.000000	42.019800
846.000000	42.293100
845.000000	42.590100
844.000000	42.747700
843.000000	42.639800
842.000000	42.900900
841.000000	42.886700
840.000000	42.918500
839.000000	43.055700
838.000000	42.967200
837.000000	43.237200
836.000000	43.400200
835.000000	43.274200
834.000000	43.463000
833.000000	43.600700
832.000000	43.724600
831.000000	43.633100
830.000000	43.693500
829.000000	43.919100
828.000000	43.783400
827.000000	43.739300
826.000000	43.698900
825.000000	43.953400
824.000000	44.048900
823.000000	44.031300
822.000000	44.048300
821.000000	44.080500
820.000000	44.092800
819.000000	44.136700
818.000000	44.189900
817.000000	44.288800
816.000000	44.237800
815.000000	44.369900
814.000000	44.257000
813.000000	44.328700
812.000000	44.416800
811.000000	44.458100
810.000000	44.473300
809.000000	44.429200
808.000000	44.371700
807.000000	44.552900
806.000000	44.374200
805.000000	44.414900
804.000000	44.527600
803.000000	44.719900
802.000000	44.601900
801.000000	44.636700
800.000000	44.713000
799.000000	44.489500
798.000000	44.608100
797.000000	44.696100
796.000000	44.561400
795.000000	44.544100
794.000000	44.679500
793.000000	44.570400
792.000000	44.630100
791.000000	44.506700
790.000000	44.585500
789.000000	44.547600
788.000000	44.657300
787.000000	44.546200
786.000000	44.561800
785.000000	44.440300
784.000000	44.526800
783.000000	44.530100
782.000000	44.572400
781.000000	44.442600
780.000000	44.402200
779.000000	44.332900
778.000000	44.304300
777.000000	44.344100
776.000000	44.302200
775.000000	44.142100
774.000000	44.163900
773.000000	44.205600
772.000000	44.131200
771.000000	44.192100
770.000000	44.139900
769.000000	44.075000
768.000000	43.930300
767.000000	44.006100
766.000000	43.923700
765.000000	43.894300
764.000000	43.847200
763.000000	43.784200
762.000000	43.852300
761.000000	43.733000
760.000000	43.699000
759.000000	43.624700
758.000000	43.494600
757.000000	43.502300
756.000000	43.456500
755.000000	43.427300
754.000000	43.376000
753.000000	43.305100
752.000000	43.247600
751.000000	43.145500
750.000000	43.094500
749.000000	43.041200
748.000000	42.889400
747.000000	42.850500
746.000000	42.777900
745.000000	42.651600
744.000000	42.629500
743.000000	42.572000
742.000000	42.488000
741.000000	42.378600
740.000000	42.343100
739.000000	42.214000
738.000000	42.130000
737.000000	42.008600
736.000000	41.921600
735.000000	41.876900
734.000000	41.687200
733.000000	41.573900
732.000000	41.539900
731.000000	41.377900
730.000000	41.322200
729.000000	41.143700
728.000000	41.017400
727.000000	40.881700
726.000000	40.710900
725.000000	40.527600
724.000000	40.384200
723.000000	40.243200
722.000000	40.063800
721.000000	39.917800
720.000000	39.669800
719.000000	39.553100
718.000000	39.374000
717.000000	39.127500
716.000000	38.966900
715.000000	38.780500
714.000000	38.551100
713.000000	38.326300
712.000000	38.107100
711.000000	37.921100
710.000000	37.713600
709.000000	37.501500
708.000000	37.293900
707.000000	37.063100
706.000000	36.836900
705.000000	36.636900
704.000000	36.387600
703.000000	36.166300
702.000000	35.910400
701.000000	35.663300
700.000000	35.393200
699.000000	35.124100
698.000000	34.933100
697.000000	34.656100
696.000000	34.413400
695.000000	34.196100
694.000000	33.978500
693.000000	33.720600
692.000000	33.506400
691.000000	33.271800
690.000000	33.024200
689.000000	32.801800
688.000000	32.585100
687.000000	32.333900
686.000000	32.118000
685.000000	31.885900
684.000000	31.646600
683.000000	31.454100
682.000000	31.225800
681.000000	31.017100
680.000000	30.837500
679.000000	30.653500
678.000000	30.450400
677.000000	30.289200
676.000000	30.115200
675.000000	29.921400
674.000000	29.738700
673.000000	29.576900
672.000000	29.407800
671.000000	29.224500
670.000000	29.043300
669.000000	28.869100
668.000000	28.692900
667.000000	28.556900
666.000000	28.400900
665.000000	28.259400
664.000000	28.133900
663.000000	27.986900
662.000000	27.843200
661.000000	27.699800
660.000000	27.578900
659.000000	27.465400
658.000000	27.352600
657.000000	27.246500
656.000000	27.120900
655.000000	26.998100
654.000000	26.882300
653.000000	26.786100
652.000000	26.681700
651.000000	26.574000
650.000000	26.498800
649.000000	26.415500
648.000000	26.324200
647.000000	26.259500
646.000000	26.194300
645.000000	26.107400
644.000000	26.038500
643.000000	25.985200
642.000000	25.935500
641.000000	25.892700
640.000000	25.840000
639.000000	25.817200
638.000000	25.800400
637.000000	25.779600
636.000000	25.749600
635.000000	25.731700
634.000000	25.727800
633.000000	25.690200
632.000000	25.686400
631.000000	25.687600
630.000000	25.684000
629.000000	25.694700
628.000000	25.714700
627.000000	25.727700
626.000000	25.746200
625.000000	25.788800
624.000000	25.820100
623.000000	25.827600
622.000000	25.862000
621.000000	25.914400
620.000000	25.977000
619.000000	26.024400
618.000000	26.062700
617.000000	26.116500
616.000000	26.182300
615.000000	26.250600
614.000000	26.318700
613.000000	26.376400
612.000000	26.443700
611.000000	26.518500
610.000000	26.603800
609.000000	26.670100
608.000000	26.746900
607.000000	26.838000
606.000000	26.894500
605.000000	26.981800
604.000000	27.081300
603.000000	27.166800
602.000000	27.237200
601.000000	27.332100
600.000000	27.418000
599.000000	27.487700
598.000000	27.579300
597.000000	27.651500
596.000000	27.725600
595.000000	27.828700
594.000000	27.906200
593.000000	27.966000
592.000000	28.052200
591.000000	28.134200
590.000000	28.189400
589.000000	28.237300
588.000000	28.304000
587.000000	28.363400
586.000000	28.394500
585.000000	28.435800
584.000000	28.478100
583.000000	28.505100
582.000000	28.511800
581.000000	28.531800
580.000000	28.557900
579.000000	28.565100
578.000000	28.560300
577.000000	28.551100
576.000000	28.531400
575.000000	28.498600
574.000000	28.468500
573.000000	28.405200
572.000000	28.364400
571.000000	28.310200
570.000000	28.220500
569.000000	28.143700
568.000000	28.065200
567.000000	27.972200
566.000000	27.882700
565.000000	27.802800
564.000000	27.670800
563.000000	27.545300
562.000000	27.403500
561.000000	27.273000
560.000000	27.113600
559.000000	26.928500
558.000000	26.775400
557.000000	26.613400
556.000000	26.461200
555.000000	26.269300
554.000000	26.062300
553.000000	25.859400
552.000000	25.649400
551.000000	25.426500
550.000000	25.204000
549.000000	24.982100
548.000000	24.751000
547.000000	24.529900
546.000000	24.280800
545.000000	24.016300
544.000000	23.734300
543.000000	23.461800
542.000000	23.180500
541.000000	22.888700
540.000000	22.613800
539.000000	22.329300
538.000000	22.031700
537.000000	21.722900
536.000000	21.424600
535.000000	21.106900
534.000000	20.806900
533.000000	20.483100
532.000000	20.164000
531.000000	19.853600
530.000000	19.545100
529.000000	19.220600
528.000000	18.918600
527.000000	18.598000
526.000000	18.287600
525.000000	17.988600
524.000000	17.657900
523.000000	17.359100
522.000000	17.060700
521.000000	16.746700
520.000000	16.460600
519.000000	16.170300
518.000000	15.884100
517.000000	15.598900
516.000000	15.344300
515.000000	15.084300
514.000000	14.825000
513.000000	14.568600
512.000000	14.326800
511.000000	14.114200
510.000000	13.879100
509.000000	13.664900
508.000000	13.444800
507.000000	13.267200
506.000000	13.071400
505.000000	12.882900
504.000000	12.720200
503.000000	12.540000
502.000000	12.374900
501.000000	12.215600
500.000000	12.060000
499.000000	11.928300
498.000000	11.803800
497.000000	11.640800
496.000000	11.524200
495.000000	11.412700
494.000000	11.311300
493.000000	11.170800
492.000000	11.068100
491.000000	10.976100
490.000000	10.847600
489.000000	10.763500
488.000000	10.666100
487.000000	10.590300
486.000000	10.507600
485.000000	10.401300
484.000000	10.305200
483.000000	10.213600
482.000000	10.099600
481.000000	10.004700
480.000000	9.890900
479.000000	9.783900
478.000000	9.679100
477.000000	9.580400
476.000000	9.504600
475.000000	9.384500
474.000000	9.303500
473.000000	9.207700
472.000000	9.112100
471.000000	9.011200
470.000000	8.913300
469.000000	8.842400
468.000000	8.762100
467.000000	8.654800
466.000000	8.586800
465.000000	8.486700
464.000000	8.403900
463.000000	8.339000
462.000000	8.253000
461.000000	8.167700
460.000000	8.087800
459.000000	7.999800
458.000000	7.933400
457.000000	7.857000
456.000000	7.785500
455.000000	7.710200
454.000000	7.630200
453.000000	7.562800
452.000000	7.495200
451.000000	7.413000
450.000000	7.332600
449.000000	7.279600
448.000000	7.206700
447.000000	7.138700
446.000000	7.061900
445.000000	6.995000
444.000000	6.937400
443.000000	6.854000
442.000000	6.785600
441.000000	6.730300
440.000000	6.654700
439.000000	6.587500
438.000000	6.515600
437.000000	6.461100
436.000000	6.398200
435.000000	6.336300
434.000000	6.262300
433.000000	6.228000
432.000000	6.163700
431.000000	6.096400
430.000000	6.047400
429.000000	5.987900
428.000000	5.944700
427.000000	5.895300
426.000000	5.843500
425.000000	5.795300
424.000000	5.745100
423.000000	5.685100
422.000000	5.638700
421.000000	5.596700
420.000000	5.549700
419.000000	5.496700
418.000000	5.469800
417.000000	5.437400
416.000000	5.393700
415.000000	5.373400
414.000000	5.316900
413.000000	5.267700
412.000000	5.234200
411.000000	5.200700
410.000000	5.159200
409.000000	5.128500
408.000000	5.107100
407.000000	5.067500
406.000000	5.032400
405.000000	5.018300
404.000000	4.978700
403.000000	4.954700
402.000000	4.935800
401.000000	4.906100
400.000000	4.877300
399.000000	4.865400
398.000000	4.844300
397.000000	4.821700
396.000000	4.793200
395.000000	4.771800
394.000000	4.769100
393.000000	4.725900
392.000000	4.733300
391.000000	4.706000
390.000000	4.671200
389.000000	4.670000
388.000000	4.657000
387.000000	4.634600
386.000000	4.613300
385.000000	4.608700
384.000000	4.600000
383.000000	4.583200
382.000000	4.574700
381.000000	4.576200
380.000000	4.565500
379.000000	4.567600
378.000000	4.548700
377.000000	4.536000
376.000000	4.548500
375.000000	4.393400
374.000000	4.018200
373.000000	4.048900
372.000000	4.111500
371.000000	4.037500
370.000000	4.274300
369.000000	4.259900
368.000000	4.197500
367.000000	4.130300
366.000000	4.176300
365.000000	4.386700
364.000000	4.478600
363.000000	4.402000
362.000000	4.225600
361.000000	4.212600
360.000000	4.353700
359.000000	4.319500
358.000000	4.390400
357.000000	4.517900
356.000000	4.502600
355.000000	4.444600
354.000000	4.403200
353.000000	4.452400
352.000000	4.712600
351.000000	4.743800
350.000000	4.689200
349.000000	4.653400
348.000000	4.590700
347.000000	4.461100
346.000000	4.259100
345.000000	4.294500
344.000000	4.518000
343.000000	4.492200
342.000000	4.764400
341.000000	4.638500
340.000000	4.459700
339.000000	4.593100
338.000000	4.580800
337.000000	4.844900
336.000000	4.771000
335.000000	4.467100
334.000000	4.469800
333.000000	4.609200
332.000000	4.836500
331.000000	5.120900
330.000000	4.982000
329.000000	4.664100
328.000000	4.655200
327.000000	4.974600
326.000000	4.844500
325.000000	4.896500
324.000000	5.113800
323.000000	5.087400
322.000000	4.869300
321.000000	4.892700
320.000000	5.054300
319.000000	5.428600
318.000000	6.499600
317.000000	6.357400
316.000000	5.080700
315.000000	4.532400
314.000000	4.551300
313.000000	4.525700
312.000000	4.476600
311.000000	4.498500
310.000000	4.554600
309.000000	4.526500
308.000000	4.563500
307.000000	4.605000
306.000000	4.562200
305.000000	4.563900
304.000000	4.558700
303.000000	4.535300
302.000000	4.538700
301.000000	4.540200
300.000000	4.533300
299.000000	4.537300
298.000000	4.547900
297.000000	4.582500
296.000000	4.597700
295.000000	4.592900
294.000000	4.592000
293.000000	4.608300
292.000000	4.593000
291.000000	4.590400
290.000000	4.554200
289.000000	4.539400
288.000000	4.554600
287.000000	4.556700
286.000000	4.585100
285.000000	4.623300
284.000000	4.622000
283.000000	4.623700
282.000000	4.597800
281.000000	4.565800
280.000000	4.571600
279.000000	4.584900
278.000000	4.576900
277.000000	4.606800
276.000000	4.641900
275.000000	4.664900
274.000000	4.663800
273.000000	4.649300
272.000000	4.657200
271.000000	4.667800
270.000000	4.651400
269.000000	4.697000
268.000000	4.682700
267.000000	4.705900
266.000000	4.743100
265.000000	4.764900
264.000000	4.696700
263.000000	4.774400
262.000000	4.768200
261.000000	4.767100
260.000000	4.800200
259.000000	4.828900
258.000000	4.851500
257.000000	4.840200
256.000000	4.835300
255.000000	4.862700
254.000000	4.889000
253.000000	4.909100
252.000000	4.929300
251.000000	4.940700
250.000000	4.945400
