PE UV       SUBTECH     SPECTRUM    ASCII       PEDS        4.00        
   -1
CICIMAUCR0234-1.Sample.ASC
24/06/19
13:27:33.00
24/06/19
13:27:33.00
Vinicio Soto Monge
C. resplendens. Sex M. Ventral
250,000000
1
Lambda 1050
1050L1511233
PerkinElmer UV WinLab 6.3.2.0749 / 2.02.05 Lambda 900 UV/VIS/NIR, Aug  7 2015 09:38:08

0
0
3350/servo 860,8/2
0
0
UV/VIS
1
1
1
DoubleDePol,CommonBeamDepol,RBeamAtt,SBeamAtt,60mm sphere, WB InGaAs Detector
0
0
0
0
Program
Program
3350/servo 860,8/2
3350/0,2 860,8/0,2
3350/0,2 860,8/0,2
0
15.00
 
 
 
0
 
860,8
319,2
860,8
Front
100
on
S:100 R:100
0
0
0
0
 
0
 
 
 
0
 
 
0
0
0
0
0
 
 
 
 
0
0


0
0
#HDR
-1
-1
#GR
nm
%R
1.0
0.0
2500,000000
-1,000000
2251
8
65,898400
4,395000
#DATA
2482.000000	8.387233
2481.000000	8.336763
2480.000000	8.390130
2479.000000	8.392024
2478.000000	8.321165
2477.000000	8.335983
2476.000000	8.292643
2475.000000	8.318602
2474.000000	8.288187
2473.000000	8.267464
2472.000000	8.298437
2471.000000	8.322948
2470.000000	8.351247
2469.000000	8.349576
2468.000000	8.331861
2467.000000	8.306458
2466.000000	8.359937
2465.000000	8.390576
2464.000000	8.353475
2463.000000	8.398375
2462.000000	8.413416
2461.000000	8.442049
2460.000000	8.485723
2459.000000	8.486949
2458.000000	8.531626
2457.000000	8.559479
2456.000000	8.650393
2455.000000	8.654961
2454.000000	8.662091
2453.000000	8.706657
2452.000000	8.759356
2451.000000	8.813168
2450.000000	8.862413
2449.000000	8.932047
2448.000000	8.965917
2447.000000	9.004132
2446.000000	9.055716
2445.000000	9.107747
2444.000000	9.172032
2443.000000	9.236875
2442.000000	9.280327
2441.000000	9.309740
2440.000000	9.375920
2439.000000	9.433966
2438.000000	9.465942
2437.000000	9.499032
2436.000000	9.541815
2435.000000	9.600084
2434.000000	9.645653
2433.000000	9.683422
2432.000000	9.736566
2431.000000	9.766648
2430.000000	9.805532
2429.000000	9.865584
2428.000000	9.884524
2427.000000	9.922405
2426.000000	9.961511
2425.000000	9.979783
2424.000000	10.008416
2423.000000	10.040615
2422.000000	10.078050
2421.000000	10.116265
2420.000000	10.148352
2419.000000	10.181108
2418.000000	10.212303
2417.000000	10.239934
2416.000000	10.269236
2415.000000	10.296421
2414.000000	10.322826
2413.000000	10.340652
2412.000000	10.366834
2411.000000	10.368283
2410.000000	10.392125
2409.000000	10.428223
2408.000000	10.438473
2407.000000	10.490504
2406.000000	10.513009
2405.000000	10.527159
2404.000000	10.562923
2403.000000	10.603366
2402.000000	10.629994
2401.000000	10.656733
2400.000000	10.684141
2399.000000	10.712997
2398.000000	10.727815
2397.000000	10.754332
2396.000000	10.777617
2395.000000	10.812824
2394.000000	10.827419
2393.000000	10.840232
2392.000000	10.854381
2391.000000	10.890368
2390.000000	10.908751
2389.000000	10.906523
2388.000000	10.932371
2387.000000	10.946186
2386.000000	10.952426
2385.000000	10.963901
2384.000000	10.960893
2383.000000	10.968358
2382.000000	10.969360
2381.000000	10.974708
2380.000000	10.977382
2379.000000	10.969472
2378.000000	10.975265
2377.000000	10.964792
2376.000000	10.945518
2375.000000	10.933151
2374.000000	10.931814
2373.000000	10.923458
2372.000000	10.896607
2371.000000	10.882346
2370.000000	10.871093
2369.000000	10.833101
2368.000000	10.805136
2367.000000	10.798117
2366.000000	10.780068
2365.000000	10.757006
2364.000000	10.720796
2363.000000	10.685478
2362.000000	10.667763
2361.000000	10.629882
2360.000000	10.580860
2359.000000	10.547993
2358.000000	10.518246
2357.000000	10.493401
2356.000000	10.469001
2355.000000	10.446830
2354.000000	10.436134
2353.000000	10.439810
2352.000000	10.428001
2351.000000	10.414520
2350.000000	10.431120
2349.000000	10.454517
2348.000000	10.486939
2347.000000	10.505767
2346.000000	10.524039
2345.000000	10.553787
2344.000000	10.585540
2343.000000	10.612502
2342.000000	10.636902
2341.000000	10.663641
2340.000000	10.686815
2339.000000	10.715560
2338.000000	10.721687
2337.000000	10.712440
2336.000000	10.734946
2335.000000	10.735391
2334.000000	10.723581
2333.000000	10.725698
2332.000000	10.705087
2331.000000	10.692386
2330.000000	10.682358
2329.000000	10.648489
2328.000000	10.618852
2327.000000	10.576738
2326.000000	10.529944
2325.000000	10.493401
2324.000000	10.435131
2323.000000	10.383435
2322.000000	10.334302
2321.000000	10.268679
2320.000000	10.201831
2319.000000	10.131194
2318.000000	10.056770
2317.000000	9.990924
2316.000000	9.911263
2315.000000	9.843969
2314.000000	9.775338
2313.000000	9.686096
2312.000000	9.642756
2311.000000	9.584821
2310.000000	9.523209
2309.000000	9.488782
2308.000000	9.451013
2307.000000	9.427059
2306.000000	9.433855
2305.000000	9.422379
2304.000000	9.442545
2303.000000	9.451793
2302.000000	9.481651
2301.000000	9.525326
2300.000000	9.555185
2299.000000	9.618579
2298.000000	9.676180
2297.000000	9.716289
2296.000000	9.763863
2295.000000	9.840070
2294.000000	9.895331
2293.000000	9.952041
2292.000000	9.983237
2291.000000	10.033707
2290.000000	10.064791
2289.000000	10.074930
2288.000000	10.083843
2287.000000	10.090862
2286.000000	10.087074
2285.000000	10.090305
2284.000000	10.079164
2283.000000	10.059889
2282.000000	10.030142
2281.000000	9.989921
2280.000000	9.964630
2279.000000	9.944353
2278.000000	9.900345
2277.000000	9.869260
2276.000000	9.837173
2275.000000	9.818567
2274.000000	9.793387
2273.000000	9.771327
2272.000000	9.776564
2271.000000	9.774447
2270.000000	9.805866
2269.000000	9.818010
2268.000000	9.860347
2267.000000	9.923964
2266.000000	9.976775
2265.000000	10.040058
2264.000000	10.162167
2263.000000	10.255978
2262.000000	10.369843
2261.000000	10.531281
2260.000000	10.683027
2259.000000	10.823743
2258.000000	11.007353
2257.000000	11.187620
2256.000000	11.372790
2255.000000	11.541136
2254.000000	11.723186
2253.000000	11.917046
2252.000000	12.101102
2251.000000	12.287832
2250.000000	12.429996
2249.000000	12.583190
2248.000000	12.746857
2247.000000	12.939825
2246.000000	13.051016
2245.000000	13.179477
2244.000000	13.286768
2243.000000	13.393725
2242.000000	13.515167
2241.000000	13.621455
2240.000000	13.706910
2239.000000	13.757826
2238.000000	13.840718
2237.000000	13.918485
2236.000000	13.967507
2235.000000	14.038366
2234.000000	14.081706
2233.000000	14.110451
2232.000000	14.158693
2231.000000	14.190891
2230.000000	14.203815
2229.000000	14.206712
2228.000000	14.245707
2227.000000	14.230889
2226.000000	14.253283
2225.000000	14.227658
2224.000000	14.209163
2223.000000	14.190557
2222.000000	14.182424
2221.000000	14.168052
2220.000000	14.113236
2219.000000	14.112456
2218.000000	14.078586
2217.000000	14.034689
2216.000000	14.021431
2215.000000	13.991683
2214.000000	13.950795
2213.000000	13.908123
2212.000000	13.879713
2211.000000	13.861998
2210.000000	13.844840
2209.000000	13.812641
2208.000000	13.787908
2207.000000	13.778883
2206.000000	13.762171
2205.000000	13.742451
2204.000000	13.707578
2203.000000	13.709027
2202.000000	13.707355
2201.000000	13.692760
2200.000000	13.681730
2199.000000	13.654879
2198.000000	13.656773
2197.000000	13.646078
2196.000000	13.634045
2195.000000	13.609534
2194.000000	13.600064
2193.000000	13.612988
2192.000000	13.606972
2191.000000	13.577893
2190.000000	13.574662
2189.000000	13.572656
2188.000000	13.562183
2187.000000	13.537338
2186.000000	13.502688
2185.000000	13.514721
2184.000000	13.497006
2183.000000	13.494889
2182.000000	13.486199
2181.000000	13.470044
2180.000000	13.461019
2179.000000	13.436954
2178.000000	13.404198
2177.000000	13.425924
2176.000000	13.429155
2175.000000	13.417345
2174.000000	13.394171
2173.000000	13.408543
2172.000000	13.419239
2171.000000	13.425478
2170.000000	13.422359
2169.000000	13.436843
2168.000000	13.449432
2167.000000	13.457231
2166.000000	13.455672
2165.000000	13.483079
2164.000000	13.493998
2163.000000	13.505028
2162.000000	13.516392
2161.000000	13.542463
2160.000000	13.553716
2159.000000	13.605412
2158.000000	13.624352
2157.000000	13.642513
2156.000000	13.707355
2155.000000	13.732423
2154.000000	13.746796
2153.000000	13.801054
2152.000000	13.839492
2151.000000	13.881718
2150.000000	13.923610
2149.000000	13.956031
2148.000000	14.004719
2147.000000	14.024551
2146.000000	14.061874
2145.000000	14.115130
2144.000000	14.156242
2143.000000	14.185098
2142.000000	14.221642
2141.000000	14.244816
2140.000000	14.281137
2139.000000	14.331161
2138.000000	14.359461
2137.000000	14.378624
2136.000000	14.404695
2135.000000	14.434553
2134.000000	14.458507
2133.000000	14.489815
2132.000000	14.497725
2131.000000	14.515551
2130.000000	14.539728
2129.000000	14.540619
2128.000000	14.562234
2127.000000	14.570256
2126.000000	14.576829
2125.000000	14.583848
2124.000000	14.569587
2123.000000	14.565019
2122.000000	14.579503
2121.000000	14.563348
2120.000000	14.541288
2119.000000	14.542179
2118.000000	14.531818
2117.000000	14.513546
2116.000000	14.496500
2115.000000	14.469537
2114.000000	14.456502
2113.000000	14.442352
2112.000000	14.424192
2111.000000	14.400461
2110.000000	14.368596
2109.000000	14.356341
2108.000000	14.349099
2107.000000	14.326816
2106.000000	14.300411
2105.000000	14.281359
2104.000000	14.252392
2103.000000	14.229775
2102.000000	14.198690
2101.000000	14.163149
2100.000000	14.154905
2099.000000	14.142872
2098.000000	14.107442
2097.000000	14.079366
2096.000000	14.057863
2095.000000	14.030010
2094.000000	14.006502
2093.000000	13.986001
2092.000000	13.979539
2091.000000	13.967618
2090.000000	13.937314
2089.000000	13.900770
2088.000000	13.879824
2087.000000	13.868126
2086.000000	13.841275
2085.000000	13.816541
2084.000000	13.790470
2083.000000	13.766850
2082.000000	13.743008
2081.000000	13.721505
2080.000000	13.683401
2079.000000	13.633488
2078.000000	13.603295
2077.000000	13.577893
2076.000000	13.531879
2075.000000	13.483414
2074.000000	13.444864
2073.000000	13.398739
2072.000000	13.353616
2071.000000	13.305040
2070.000000	13.251784
2069.000000	13.208556
2068.000000	13.163099
2067.000000	13.116528
2066.000000	13.054582
2065.000000	13.004557
2064.000000	12.969907
2063.000000	12.918880
2062.000000	12.872754
2061.000000	12.838885
2060.000000	12.817939
2059.000000	12.790420
2058.000000	12.767357
2057.000000	12.759001
2056.000000	12.740172
2055.000000	12.724797
2054.000000	12.748082
2053.000000	12.782175
2052.000000	12.797439
2051.000000	12.833871
2050.000000	12.879328
2049.000000	12.919325
2048.000000	12.977483
2047.000000	13.045557
2046.000000	13.114411
2045.000000	13.179142
2044.000000	13.259026
2043.000000	13.328437
2042.000000	13.392834
2041.000000	13.453777
2040.000000	13.543131
2039.000000	13.621455
2038.000000	13.680170
2037.000000	13.738774
2036.000000	13.791473
2035.000000	13.847403
2034.000000	13.893862
2033.000000	13.949123
2032.000000	13.986001
2031.000000	14.030010
2030.000000	14.062877
2029.000000	14.088725
2028.000000	14.101203
2027.000000	14.127497
2026.000000	14.162815
2025.000000	14.167829
2024.000000	14.172397
2023.000000	14.191337
2022.000000	14.202701
2021.000000	14.209052
2020.000000	14.228661
2019.000000	14.234231
2018.000000	14.227992
2017.000000	14.213174
2016.000000	14.209275
2015.000000	14.212283
2014.000000	14.218411
2013.000000	14.211057
2012.000000	14.187438
2011.000000	14.155350
2010.000000	14.145100
2009.000000	14.115241
2008.000000	14.080480
2007.000000	14.055078
2006.000000	14.041151
2005.000000	13.987450
2004.000000	13.949680
2003.000000	13.923498
2002.000000	13.884726
2001.000000	13.848851
2000.000000	13.805622
1999.000000	13.758717
1998.000000	13.689863
1997.000000	13.640061
1996.000000	13.582238
1995.000000	13.522408
1994.000000	13.473386
1993.000000	13.406649
1992.000000	13.363978
1991.000000	13.277855
1990.000000	13.245434
1989.000000	13.173126
1988.000000	13.095359
1987.000000	13.028957
1986.000000	12.954198
1985.000000	12.882893
1984.000000	12.817493
1983.000000	12.746857
1982.000000	12.673881
1981.000000	12.615834
1980.000000	12.540073
1979.000000	12.464868
1978.000000	12.399357
1977.000000	12.344764
1976.000000	12.290394
1975.000000	12.202043
1974.000000	12.136309
1973.000000	12.067010
1972.000000	11.999604
1971.000000	11.941223
1970.000000	11.885851
1969.000000	11.808864
1968.000000	11.754605
1967.000000	11.694999
1966.000000	11.653887
1965.000000	11.587707
1964.000000	11.546707
1963.000000	11.452674
1962.000000	11.419027
1961.000000	11.368668
1960.000000	11.306387
1959.000000	11.240207
1958.000000	11.215919
1957.000000	11.166897
1956.000000	11.107291
1955.000000	11.045679
1954.000000	11.020834
1953.000000	10.964347
1952.000000	10.906300
1951.000000	10.860175
1950.000000	10.822963
1949.000000	10.784859
1948.000000	10.755780
1947.000000	10.720239
1946.000000	10.680687
1945.000000	10.649714
1944.000000	10.615844
1943.000000	10.605037
1942.000000	10.590888
1941.000000	10.574176
1940.000000	10.529164
1939.000000	10.530947
1938.000000	10.552450
1937.000000	10.546322
1936.000000	10.522591
1935.000000	10.540974
1934.000000	10.556684
1933.000000	10.568271
1932.000000	10.585094
1931.000000	10.662750
1930.000000	10.669657
1929.000000	10.727927
1928.000000	10.778954
1927.000000	10.846805
1926.000000	10.924795
1925.000000	10.974151
1924.000000	11.058714
1923.000000	11.129685
1922.000000	11.202438
1921.000000	11.310844
1920.000000	11.439304
1919.000000	11.551832
1918.000000	11.657229
1917.000000	11.747363
1916.000000	11.878720
1915.000000	11.999827
1914.000000	12.137869
1913.000000	12.310337
1912.000000	12.488934
1911.000000	12.667084
1910.000000	12.836991
1909.000000	12.952749
1908.000000	13.135134
1907.000000	13.302700
1906.000000	13.520960
1905.000000	13.772421
1904.000000	14.019426
1903.000000	14.253617
1902.000000	14.487586
1901.000000	14.748295
1900.000000	15.022596
1899.000000	15.337006
1898.000000	15.633255
1897.000000	15.944322
1896.000000	16.231213
1895.000000	16.517324
1894.000000	16.823935
1893.000000	17.141910
1892.000000	17.534978
1891.000000	17.978070
1890.000000	18.403671
1889.000000	18.819913
1888.000000	19.276376
1887.000000	19.721363
1886.000000	20.195429
1885.000000	20.697682
1884.000000	21.268344
1883.000000	21.869310
1882.000000	22.468716
1881.000000	23.023112
1880.000000	23.575947
1879.000000	24.109062
1878.000000	24.648082
1877.000000	25.188774
1876.000000	25.703951
1875.000000	26.222026
1874.000000	26.730630
1873.000000	27.205698
1872.000000	27.684109
1871.000000	28.109822
1870.000000	28.543221
1869.000000	28.919912
1868.000000	29.297382
1867.000000	29.570234
1866.000000	29.791502
1865.000000	29.974666
1864.000000	30.155825
1863.000000	30.342109
1862.000000	30.510121
1861.000000	30.705318
1860.000000	30.891825
1859.000000	31.062957
1858.000000	31.208575
1857.000000	31.320657
1856.000000	31.419592
1855.000000	31.484658
1854.000000	31.561756
1853.000000	31.616461
1852.000000	31.625931
1851.000000	31.639523
1850.000000	31.645317
1849.000000	31.656013
1848.000000	31.699018
1847.000000	31.730994
1846.000000	31.705480
1845.000000	31.642197
1844.000000	31.604985
1843.000000	31.582145
1842.000000	31.588050
1841.000000	31.608662
1840.000000	31.587716
1839.000000	31.575349
1838.000000	31.549724
1837.000000	31.505492
1836.000000	31.468503
1835.000000	31.441875
1834.000000	31.369011
1833.000000	31.287567
1832.000000	31.217488
1831.000000	31.156322
1830.000000	31.099612
1829.000000	31.048919
1828.000000	30.975497
1827.000000	30.895056
1826.000000	30.824531
1825.000000	30.758017
1824.000000	30.685710
1823.000000	30.633679
1822.000000	30.618973
1821.000000	30.624878
1820.000000	30.590116
1819.000000	30.555244
1818.000000	30.514355
1817.000000	30.474692
1816.000000	30.438371
1815.000000	30.432466
1814.000000	30.419096
1813.000000	30.393248
1812.000000	30.371300
1811.000000	30.338321
1810.000000	30.289745
1809.000000	30.234149
1808.000000	30.197605
1807.000000	30.151592
1806.000000	30.104575
1805.000000	30.055664
1804.000000	29.996058
1803.000000	29.947147
1802.000000	29.893446
1801.000000	29.844089
1800.000000	29.788382
1799.000000	29.721089
1798.000000	29.661148
1797.000000	29.602878
1796.000000	29.551405
1795.000000	29.509068
1794.000000	29.444559
1793.000000	29.394646
1792.000000	29.358437
1791.000000	29.294039
1790.000000	29.225520
1789.000000	29.170370
1788.000000	29.124467
1787.000000	29.058176
1786.000000	29.001689
1785.000000	28.946317
1784.000000	28.879468
1783.000000	28.808164
1782.000000	28.721595
1781.000000	28.646391
1780.000000	28.581771
1779.000000	28.502778
1778.000000	28.407854
1777.000000	28.316717
1776.000000	28.240287
1775.000000	28.140572
1774.000000	28.019911
1773.000000	27.916964
1772.000000	27.807110
1771.000000	27.680767
1770.000000	27.565899
1769.000000	27.434654
1768.000000	27.315107
1767.000000	27.206033
1766.000000	27.114896
1765.000000	27.033230
1764.000000	26.969501
1763.000000	26.911566
1762.000000	26.902096
1761.000000	26.913906
1760.000000	26.940199
1759.000000	26.995572
1758.000000	27.068214
1757.000000	27.121470
1756.000000	27.179182
1755.000000	27.244916
1754.000000	27.299955
1753.000000	27.331039
1752.000000	27.343963
1751.000000	27.344520
1750.000000	27.318338
1749.000000	27.298395
1748.000000	27.264302
1747.000000	27.202579
1746.000000	27.117681
1745.000000	27.032004
1744.000000	26.923264
1743.000000	26.792576
1742.000000	26.643616
1741.000000	26.445745
1740.000000	26.247539
1739.000000	26.039975
1738.000000	25.844667
1737.000000	25.652144
1736.000000	25.486026
1735.000000	25.350101
1734.000000	25.245372
1733.000000	25.211836
1732.000000	25.187771
1731.000000	25.214176
1730.000000	25.281581
1729.000000	25.349544
1728.000000	25.443911
1727.000000	25.549086
1726.000000	25.655375
1725.000000	25.727794
1724.000000	25.802775
1723.000000	25.881545
1722.000000	25.918089
1721.000000	25.973796
1720.000000	26.048332
1719.000000	26.097131
1718.000000	26.132003
1717.000000	26.197849
1716.000000	26.312159
1715.000000	26.413546
1714.000000	26.520615
1713.000000	26.621110
1712.000000	26.698543
1711.000000	26.757926
1710.000000	26.817310
1709.000000	26.872014
1708.000000	26.868337
1707.000000	26.880481
1706.000000	26.872905
1705.000000	26.835359
1704.000000	26.778092
1703.000000	26.716035
1702.000000	26.625455
1701.000000	26.527634
1700.000000	26.405858
1699.000000	26.260909
1698.000000	26.124650
1697.000000	25.991288
1696.000000	25.895249
1695.000000	25.835865
1694.000000	25.824835
1693.000000	25.907393
1692.000000	25.991065
1691.000000	26.151835
1690.000000	26.319067
1689.000000	26.470033
1688.000000	26.615205
1687.000000	26.727287
1686.000000	26.817867
1685.000000	26.905772
1684.000000	27.002257
1683.000000	27.186647
1682.000000	27.445127
1681.000000	27.810230
1680.000000	28.258782
1679.000000	28.757916
1678.000000	29.314428
1677.000000	29.845538
1676.000000	30.346677
1675.000000	30.804254
1674.000000	31.246010
1673.000000	31.578803
1672.000000	31.900455
1671.000000	32.196147
1670.000000	32.420089
1669.000000	32.649935
1668.000000	32.826192
1667.000000	33.039995
1666.000000	33.164222
1665.000000	33.322764
1664.000000	33.425821
1663.000000	33.526651
1662.000000	33.630489
1661.000000	33.709147
1660.000000	33.763517
1659.000000	33.807637
1658.000000	33.895988
1657.000000	33.934314
1656.000000	33.938659
1655.000000	33.969187
1654.000000	33.949801
1653.000000	33.956820
1652.000000	33.954926
1651.000000	33.930080
1650.000000	33.920499
1649.000000	33.877939
1648.000000	33.832482
1647.000000	33.788139
1646.000000	33.739006
1645.000000	33.681293
1644.000000	33.631937
1643.000000	33.555953
1642.000000	33.504814
1641.000000	33.453229
1640.000000	33.404987
1639.000000	33.336467
1638.000000	33.262266
1637.000000	33.206002
1636.000000	33.083892
1635.000000	33.034870
1634.000000	32.989748
1633.000000	32.878334
1632.000000	32.807363
1631.000000	32.733607
1630.000000	32.642359
1629.000000	32.522589
1628.000000	32.440812
1627.000000	32.367613
1626.000000	32.257647
1625.000000	32.176649
1624.000000	32.077157
1623.000000	31.992371
1622.000000	31.903463
1621.000000	31.797062
1620.000000	31.711385
1619.000000	31.627602
1618.000000	31.533792
1617.000000	31.461707
1616.000000	31.375807
1615.000000	31.286787
1614.000000	31.198770
1613.000000	31.109416
1612.000000	31.043236
1611.000000	30.952546
1610.000000	30.877564
1609.000000	30.796455
1608.000000	30.701307
1607.000000	30.624320
1606.000000	30.525608
1605.000000	30.429792
1604.000000	30.363946
1603.000000	30.251753
1602.000000	30.153040
1601.000000	30.068588
1600.000000	29.994164
1599.000000	29.897568
1598.000000	29.803980
1597.000000	29.721980
1596.000000	29.635857
1595.000000	29.552074
1594.000000	29.452358
1593.000000	29.381945
1592.000000	29.319999
1591.000000	29.238110
1590.000000	29.161123
1589.000000	29.081685
1588.000000	29.029097
1587.000000	28.974950
1586.000000	28.898297
1585.000000	28.832340
1584.000000	28.766829
1583.000000	28.717918
1582.000000	28.667894
1581.000000	28.613969
1580.000000	28.555143
1579.000000	28.498767
1578.000000	28.463895
1577.000000	28.427017
1576.000000	28.400723
1575.000000	28.362508
1574.000000	28.338331
1573.000000	28.318054
1572.000000	28.294434
1571.000000	28.288195
1570.000000	28.280173
1569.000000	28.276051
1568.000000	28.278502
1567.000000	28.259228
1566.000000	28.253768
1565.000000	28.260899
1564.000000	28.272152
1563.000000	28.268698
1562.000000	28.256219
1561.000000	28.248532
1560.000000	28.230706
1559.000000	28.229926
1558.000000	28.202629
1557.000000	28.174442
1556.000000	28.136895
1555.000000	28.101354
1554.000000	28.062359
1553.000000	28.017905
1552.000000	27.965207
1551.000000	27.929888
1550.000000	27.876187
1549.000000	27.808336
1548.000000	27.762322
1547.000000	27.710180
1546.000000	27.653471
1545.000000	27.619935
1544.000000	27.585397
1543.000000	27.556318
1542.000000	27.520442
1541.000000	27.489358
1540.000000	27.458608
1539.000000	27.429417
1538.000000	27.380618
1537.000000	27.343740
1536.000000	27.318004
1535.000000	27.297058
1534.000000	27.252381
1533.000000	27.216506
1532.000000	27.177288
1531.000000	27.116679
1530.000000	27.073562
1529.000000	27.027325
1528.000000	26.985322
1527.000000	26.931843
1526.000000	26.871234
1525.000000	26.818201
1524.000000	26.754807
1523.000000	26.693418
1522.000000	26.633143
1521.000000	26.570640
1520.000000	26.508248
1519.000000	26.439840
1518.000000	26.375554
1517.000000	26.309151
1516.000000	26.253890
1515.000000	26.195732
1514.000000	26.118411
1513.000000	26.037524
1512.000000	25.976358
1511.000000	25.924885
1510.000000	25.852132
1509.000000	25.777262
1508.000000	25.717767
1507.000000	25.650918
1506.000000	25.575046
1505.000000	25.506749
1504.000000	25.432547
1503.000000	25.359126
1502.000000	25.287709
1501.000000	25.205932
1500.000000	25.140420
1499.000000	25.093626
1498.000000	25.046833
1497.000000	24.990123
1496.000000	24.930517
1495.000000	24.875589
1494.000000	24.821220
1493.000000	24.784119
1492.000000	24.751586
1491.000000	24.716825
1490.000000	24.672259
1489.000000	24.626580
1488.000000	24.582571
1487.000000	24.553381
1486.000000	24.510709
1485.000000	24.475614
1484.000000	24.443192
1483.000000	24.416342
1482.000000	24.384143
1481.000000	24.368322
1480.000000	24.349159
1479.000000	24.326876
1478.000000	24.308493
1477.000000	24.294232
1476.000000	24.279637
1475.000000	24.266824
1474.000000	24.265599
1473.000000	24.263148
1472.000000	24.282534
1471.000000	24.289330
1470.000000	24.295235
1469.000000	24.293341
1468.000000	24.284651
1467.000000	24.301251
1466.000000	24.324425
1465.000000	24.354061
1464.000000	24.381803
1463.000000	24.413891
1462.000000	24.443861
1461.000000	24.478399
1460.000000	24.509372
1459.000000	24.564522
1458.000000	24.617555
1457.000000	24.676270
1456.000000	24.744344
1455.000000	24.807738
1454.000000	24.901772
1453.000000	24.972408
1452.000000	25.064547
1451.000000	25.164040
1450.000000	25.264090
1449.000000	25.346647
1448.000000	25.423634
1447.000000	25.523127
1446.000000	25.636323
1445.000000	25.752973
1444.000000	25.859931
1443.000000	25.958198
1442.000000	26.078525
1441.000000	26.206093
1440.000000	26.328983
1439.000000	26.464462
1438.000000	26.600164
1437.000000	26.718040
1436.000000	26.856973
1435.000000	26.989110
1434.000000	27.129714
1433.000000	27.309313
1432.000000	27.487798
1431.000000	27.642329
1430.000000	27.800760
1429.000000	27.985818
1428.000000	28.176670
1427.000000	28.392256
1426.000000	28.614192
1425.000000	28.842256
1424.000000	29.066978
1423.000000	29.330137
1422.000000	29.588172
1421.000000	29.842864
1420.000000	30.150032
1419.000000	30.464442
1418.000000	30.770718
1417.000000	31.034212
1416.000000	31.346171
1415.000000	31.678852
1414.000000	32.064679
1413.000000	32.431230
1412.000000	32.770931
1411.000000	33.113194
1410.000000	33.532110
1409.000000	34.022442
1408.000000	34.488375
1407.000000	34.960993
1406.000000	35.424140
1405.000000	35.931518
1404.000000	36.482460
1403.000000	36.965773
1402.000000	37.406081
1401.000000	37.955351
1400.000000	38.553086
1399.000000	39.049769
1398.000000	39.428019
1397.000000	39.794570
1396.000000	40.285460
1395.000000	40.852333
1394.000000	41.306790
1393.000000	41.670779
1392.000000	42.119220
1391.000000	42.591280
1390.000000	43.054093
1389.000000	43.535847
1388.000000	44.142607
1387.000000	44.753711
1386.000000	45.362365
1385.000000	45.933473
1384.000000	46.611091
1383.000000	47.275452
1382.000000	47.916193
1381.000000	48.510252
1380.000000	48.899532
1379.000000	49.271988
1378.000000	49.585952
1377.000000	49.816245
1376.000000	50.069711
1375.000000	50.332982
1374.000000	50.587228
1373.000000	50.927486
1372.000000	51.281225
1371.000000	51.679975
1370.000000	52.056443
1369.000000	52.397258
1368.000000	52.748880
1367.000000	53.054822
1366.000000	53.310405
1365.000000	53.547940
1364.000000	53.813327
1363.000000	53.978331
1362.000000	54.212969
1361.000000	54.395576
1360.000000	54.562697
1359.000000	54.623417
1358.000000	54.774160
1357.000000	54.899724
1356.000000	55.077874
1355.000000	55.379137
1354.000000	55.720955
1353.000000	56.112129
1352.000000	56.533050
1351.000000	56.968456
1350.000000	57.439625
1349.000000	57.849071
1348.000000	58.269101
1347.000000	58.672530
1346.000000	59.015796
1345.000000	59.343464
1344.000000	59.705559
1343.000000	60.063643
1342.000000	60.384515
1341.000000	60.714634
1340.000000	61.026036
1339.000000	61.338886
1338.000000	61.646945
1337.000000	61.949434
1336.000000	62.253371
1335.000000	62.550512
1334.000000	62.802641
1333.000000	63.076496
1332.000000	63.357371
1331.000000	63.622758
1330.000000	63.873662
1329.000000	64.108745
1328.000000	64.340041
1327.000000	64.565876
1326.000000	64.777674
1325.000000	64.981561
1324.000000	65.190240
1323.000000	65.383431
1322.000000	65.556680
1321.000000	65.751431
1320.000000	65.936712
1319.000000	66.098151
1318.000000	66.264158
1317.000000	66.406433
1316.000000	66.567649
1315.000000	66.690872
1314.000000	66.822786
1313.000000	66.975535
1312.000000	67.107226
1311.000000	67.218863
1310.000000	67.322923
1309.000000	67.440576
1308.000000	67.534498
1307.000000	67.624632
1306.000000	67.697942
1305.000000	67.767576
1304.000000	67.844229
1303.000000	67.899267
1302.000000	67.950072
1301.000000	68.008898
1300.000000	68.042768
1299.000000	68.074744
1298.000000	68.112179
1297.000000	68.149725
1296.000000	68.174236
1295.000000	68.195628
1294.000000	68.204207
1293.000000	68.221476
1292.000000	68.224150
1291.000000	68.228049
1290.000000	68.226267
1289.000000	68.217576
1288.000000	68.205321
1287.000000	68.189500
1286.000000	68.167106
1285.000000	68.116524
1284.000000	68.083657
1283.000000	68.019594
1282.000000	67.981602
1281.000000	67.943387
1280.000000	67.887568
1279.000000	67.842446
1278.000000	67.800666
1277.000000	67.764122
1276.000000	67.740725
1275.000000	67.705853
1274.000000	67.661733
1273.000000	67.636442
1272.000000	67.624855
1271.000000	67.606694
1270.000000	67.582629
1269.000000	67.544860
1268.000000	67.516783
1267.000000	67.494612
1266.000000	67.467538
1265.000000	67.437345
1264.000000	67.418739
1263.000000	67.377627
1262.000000	67.332059
1261.000000	67.313564
1260.000000	67.270670
1259.000000	67.210952
1258.000000	67.169506
1257.000000	67.135414
1256.000000	67.081601
1255.000000	67.020769
1254.000000	66.954923
1253.000000	66.879385
1252.000000	66.811199
1251.000000	66.744797
1250.000000	66.662239
1249.000000	66.572885
1248.000000	66.474284
1247.000000	66.373566
1246.000000	66.280090
1245.000000	66.175138
1244.000000	66.069629
1243.000000	65.950639
1242.000000	65.826078
1241.000000	65.718118
1240.000000	65.590549
1239.000000	65.473676
1238.000000	65.355689
1237.000000	65.222661
1236.000000	65.095983
1235.000000	64.959724
1234.000000	64.822685
1233.000000	64.683752
1232.000000	64.553732
1231.000000	64.407446
1230.000000	64.253026
1229.000000	64.096936
1228.000000	63.933603
1227.000000	63.769379
1226.000000	63.609612
1225.000000	63.439148
1224.000000	63.262780
1223.000000	63.080841
1222.000000	62.888207
1221.000000	62.715404
1220.000000	62.545944
1219.000000	62.361665
1218.000000	62.189085
1217.000000	62.022521
1216.000000	61.856292
1215.000000	61.711120
1214.000000	61.557369
1213.000000	61.398047
1212.000000	61.247638
1211.000000	61.080295
1210.000000	60.941584
1209.000000	60.812790
1208.000000	60.671294
1207.000000	60.551190
1206.000000	60.432646
1205.000000	60.339727
1204.000000	60.257058
1203.000000	60.180851
1202.000000	60.112331
1201.000000	60.039689
1200.000000	59.958914
1199.000000	59.881370
1198.000000	59.787671
1197.000000	59.667122
1196.000000	59.515822
1195.000000	59.329203
1194.000000	59.110387
1193.000000	58.830515
1192.000000	58.513097
1191.000000	58.165040
1190.000000	57.798043
1189.000000	57.459345
1188.000000	57.157636
1187.000000	56.919099
1186.000000	56.777715
1185.000000	56.762452
1184.000000	56.836096
1183.000000	57.020932
1182.000000	57.308825
1181.000000	57.675042
1180.000000	58.084042
1179.000000	58.515994
1178.000000	58.944603
1177.000000	59.315165
1176.000000	59.655423
1175.000000	59.963148
1174.000000	60.247031
1173.000000	60.509967
1172.000000	60.797192
1171.000000	61.071493
1170.000000	61.355264
1169.000000	61.656193
1168.000000	61.971271
1167.000000	62.259833
1166.000000	62.588281
1165.000000	62.913498
1164.000000	63.232030
1163.000000	63.563041
1162.000000	63.913994
1161.000000	64.243445
1160.000000	64.580026
1159.000000	64.916384
1158.000000	65.233580
1157.000000	65.529829
1156.000000	65.811483
1155.000000	66.093583
1154.000000	66.307609
1153.000000	66.499241
1152.000000	66.658674
1151.000000	66.789919
1150.000000	66.905567
1149.000000	67.009850
1148.000000	67.100987
1147.000000	67.241591
1146.000000	67.389103
1145.000000	67.569705
1144.000000	67.804120
1143.000000	68.043659
1142.000000	68.314952
1141.000000	68.640615
1140.000000	68.972405
1139.000000	69.304864
1138.000000	69.640777
1137.000000	70.009779
1136.000000	70.387695
1135.000000	70.775972
1134.000000	71.161241
1133.000000	71.522668
1132.000000	71.780034
1131.000000	72.058234
1130.000000	72.340000
1129.000000	72.566950
1128.000000	72.758358
1127.000000	72.917792
1126.000000	73.031768
1125.000000	73.149867
1124.000000	73.225405
1123.000000	73.291919
1122.000000	73.352751
1121.000000	73.373251
1120.000000	73.410129
1119.000000	73.405784
1118.000000	73.418597
1117.000000	73.419934
1116.000000	73.415923
1115.000000	73.398542
1114.000000	73.360662
1113.000000	73.340607
1112.000000	73.330246
1111.000000	73.310303
1110.000000	73.281558
1109.000000	73.242452
1108.000000	73.228636
1107.000000	73.197997
1106.000000	73.175269
1105.000000	73.158557
1104.000000	73.128921
1103.000000	73.079787
1102.000000	73.062295
1101.000000	73.023969
1100.000000	72.990545
1099.000000	72.972496
1098.000000	72.919240
1097.000000	72.879800
1096.000000	72.822087
1095.000000	72.794679
1094.000000	72.746883
1093.000000	72.700535
1092.000000	72.659534
1091.000000	72.591238
1090.000000	72.548343
1089.000000	72.480604
1088.000000	72.410079
1087.000000	72.349024
1086.000000	72.302342
1085.000000	72.211762
1084.000000	72.125751
1083.000000	72.082522
1082.000000	72.002750
1081.000000	71.941806
1080.000000	71.861811
1079.000000	71.772457
1078.000000	71.730789
1077.000000	71.652576
1076.000000	71.574029
1075.000000	71.502836
1074.000000	71.432868
1073.000000	71.356215
1072.000000	71.288253
1071.000000	71.191991
1070.000000	71.143526
1069.000000	71.041248
1068.000000	70.972618
1067.000000	70.893737
1066.000000	70.795135
1065.000000	70.733969
1064.000000	70.647289
1063.000000	70.557712
1062.000000	70.482842
1061.000000	70.404296
1060.000000	70.315833
1059.000000	70.220797
1058.000000	70.131889
1057.000000	70.029834
1056.000000	69.946830
1055.000000	69.871737
1054.000000	69.782718
1053.000000	69.688239
1052.000000	69.598996
1051.000000	69.519335
1050.000000	69.418952
1049.000000	69.341073
1048.000000	69.259296
1047.000000	69.174287
1046.000000	69.087050
1045.000000	69.039365
1044.000000	68.957364
1043.000000	68.867342
1042.000000	68.784116
1041.000000	68.716822
1040.000000	68.618777
1039.000000	68.538671
1038.000000	68.467143
1037.000000	68.381020
1036.000000	68.294897
1035.000000	68.211671
1034.000000	68.112513
1033.000000	68.050344
1032.000000	67.949292
1031.000000	67.834201
1030.000000	67.738720
1029.000000	67.678556
1028.000000	67.570708
1027.000000	67.481242
1026.000000	67.395676
1025.000000	67.304651
1024.000000	67.175523
1023.000000	67.096642
1022.000000	66.984337
1021.000000	66.878382
1020.000000	66.794265
1019.000000	66.688199
1018.000000	66.605864
1017.000000	66.497792
1016.000000	66.412561
1015.000000	66.331117
1014.000000	66.245329
1013.000000	66.184385
1012.000000	66.122662
1011.000000	66.056705
1010.000000	65.969802
1009.000000	65.924345
1008.000000	65.848584
1007.000000	65.815160
1006.000000	65.775385
1005.000000	65.713885
1004.000000	65.651938
1003.000000	65.618069
1002.000000	65.566707
1001.000000	65.501418
1000.000000	65.442592
999.000000	65.400923
998.000000	65.365048
997.000000	65.316026
996.000000	65.267561
995.000000	65.218539
994.000000	65.173750
993.000000	65.141663
992.000000	65.090747
991.000000	65.034483
990.000000	65.007075
989.000000	64.974654
988.000000	64.935659
987.000000	64.894324
986.000000	64.843185
985.000000	64.808313
984.000000	64.781685
983.000000	64.744807
982.000000	64.712163
981.000000	64.663698
980.000000	64.642306
979.000000	64.617795
978.000000	64.578132
977.000000	64.536129
976.000000	64.512175
975.000000	64.481202
974.000000	64.463599
973.000000	64.438085
972.000000	64.405552
971.000000	64.369231
970.000000	64.350848
969.000000	64.319986
968.000000	64.289459
967.000000	64.286451
966.000000	64.249127
965.000000	64.232192
964.000000	64.214923
963.000000	64.192417
962.000000	64.163338
961.000000	64.139161
960.000000	64.125903
959.000000	64.110528
958.000000	64.089582
957.000000	64.084457
956.000000	64.068525
955.000000	64.056047
954.000000	64.035324
953.000000	64.005576
952.000000	63.998891
951.000000	63.979283
950.000000	63.933492
949.000000	63.896391
948.000000	63.883578
947.000000	63.867200
946.000000	63.821632
945.000000	63.804920
944.000000	63.783863
943.000000	63.728490
942.000000	63.670221
941.000000	63.644595
940.000000	63.610948
939.000000	63.565603
938.000000	63.527054
937.000000	63.491736
936.000000	63.448730
935.000000	63.394360
934.000000	63.347232
933.000000	63.295424
932.000000	63.240163
931.000000	63.211753
930.000000	63.164513
929.000000	63.101453
928.000000	63.040621
927.000000	63.005637
926.000000	62.967311
925.000000	62.892775
924.000000	62.819576
923.000000	62.761752
922.000000	62.740249
921.000000	62.693790
920.000000	62.620145
919.000000	62.540262
918.000000	62.465503
917.000000	62.424391
916.000000	62.378043
915.000000	62.302504
914.000000	62.239333
913.000000	62.165131
912.000000	62.097726
911.000000	62.040905
910.000000	61.973499
909.000000	61.909102
908.000000	61.882140
907.000000	61.826545
906.000000	61.766158
905.000000	61.728835
904.000000	61.696302
903.000000	61.665997
902.000000	61.636027
901.000000	61.610959
900.000000	61.607394
899.000000	61.593912
898.000000	61.556366
897.000000	61.499099
896.000000	61.478599
895.000000	61.442055
894.000000	61.367631
893.000000	61.336546
892.000000	61.320726
891.000000	61.268138
890.000000	61.217557
889.000000	61.144803
888.000000	61.063917
887.000000	60.990384
886.000000	60.912951
885.000000	60.825603
884.000000	60.743936
883.000000	60.619264
882.000000	60.503394
881.000000	60.384627
880.000000	60.274550
879.000000	60.118570
878.000000	59.927050
877.000000	59.757367
876.000000	59.518607
875.000000	59.231382
874.000000	58.937250
873.000000	58.624845
872.000000	58.421738
871.000000	58.396670
870.000000	58.431654
869.000000	58.469869
868.000000	58.496162
867.000000	58.533597
866.000000	58.555880
865.000000	58.575266
864.000000	58.601560
863.000000	58.638995
862.000000	58.649579
861.000000	58.649133
860.000000	58.685789
859.000000	58.724115
858.000000	58.743167
857.000000	57.956500
856.000000	59.274700
855.000000	58.998300
854.000000	59.140900
853.000000	59.399100
852.000000	58.995400
851.000000	58.738800
850.000000	58.980000
849.000000	58.927700
848.000000	58.911800
847.000000	58.790300
846.000000	59.212200
845.000000	59.116600
844.000000	59.197500
843.000000	59.142800
842.000000	58.930800
841.000000	58.886500
840.000000	58.917200
839.000000	58.851500
838.000000	58.728200
837.000000	58.836400
836.000000	58.876400
835.000000	58.694000
834.000000	58.585100
833.000000	58.614600
832.000000	58.511300
831.000000	58.359700
830.000000	58.397700
829.000000	58.393300
828.000000	58.311500
827.000000	58.106700
826.000000	58.114400
825.000000	58.034000
824.000000	58.010000
823.000000	57.843500
822.000000	57.785600
821.000000	57.600600
820.000000	57.611200
819.000000	57.485300
818.000000	57.253600
817.000000	57.163700
816.000000	57.195300
815.000000	57.008500
814.000000	57.083300
813.000000	56.808300
812.000000	56.732600
811.000000	56.455200
810.000000	56.505100
809.000000	56.343600
808.000000	56.222600
807.000000	56.052700
806.000000	55.802000
805.000000	55.808400
804.000000	55.636700
803.000000	55.566100
802.000000	55.391100
801.000000	55.300000
800.000000	55.030200
799.000000	54.966500
798.000000	54.642300
797.000000	54.556700
796.000000	54.500800
795.000000	54.299400
794.000000	54.146700
793.000000	53.967600
792.000000	53.712100
791.000000	53.637100
790.000000	53.369100
789.000000	53.097700
788.000000	53.068700
787.000000	52.800000
786.000000	52.639000
785.000000	52.335700
784.000000	52.366800
783.000000	52.057400
782.000000	51.772100
781.000000	51.456200
780.000000	51.307700
779.000000	51.164700
778.000000	50.736200
777.000000	50.605300
776.000000	50.320300
775.000000	50.066000
774.000000	49.814900
773.000000	49.579900
772.000000	49.358300
771.000000	48.967300
770.000000	48.805900
769.000000	48.533400
768.000000	48.201300
767.000000	47.976100
766.000000	47.729600
765.000000	47.386600
764.000000	47.212200
763.000000	46.895000
762.000000	46.557500
761.000000	46.278600
760.000000	45.965500
759.000000	45.667100
758.000000	45.357800
757.000000	45.045500
756.000000	44.779400
755.000000	44.435500
754.000000	44.267200
753.000000	43.853600
752.000000	43.655800
751.000000	43.317800
750.000000	43.015400
749.000000	42.734400
748.000000	42.447200
747.000000	42.126400
746.000000	41.833900
745.000000	41.541000
744.000000	41.295800
743.000000	40.939300
742.000000	40.617300
741.000000	40.404900
740.000000	40.140400
739.000000	39.815000
738.000000	39.545300
737.000000	39.249500
736.000000	39.021000
735.000000	38.708600
734.000000	38.413700
733.000000	38.164100
732.000000	37.929600
731.000000	37.665700
730.000000	37.334400
729.000000	37.112800
728.000000	36.901400
727.000000	36.619900
726.000000	36.362300
725.000000	36.143100
724.000000	35.884500
723.000000	35.613600
722.000000	35.388700
721.000000	35.191400
720.000000	34.959000
719.000000	34.663900
718.000000	34.481200
717.000000	34.228000
716.000000	34.037700
715.000000	33.798500
714.000000	33.607300
713.000000	33.420100
712.000000	33.228100
711.000000	33.023100
710.000000	32.836700
709.000000	32.609100
708.000000	32.422400
707.000000	32.250800
706.000000	32.039900
705.000000	31.891900
704.000000	31.683600
703.000000	31.491000
702.000000	31.335400
701.000000	31.142700
700.000000	30.944300
699.000000	30.741900
698.000000	30.575100
697.000000	30.421300
696.000000	30.291600
695.000000	30.119100
694.000000	29.928200
693.000000	29.773100
692.000000	29.581100
691.000000	29.461000
690.000000	29.321000
689.000000	29.154100
688.000000	28.993500
687.000000	28.837700
686.000000	28.682200
685.000000	28.543900
684.000000	28.402700
683.000000	28.272000
682.000000	28.139300
681.000000	27.999600
680.000000	27.854100
679.000000	27.706300
678.000000	27.566100
677.000000	27.450200
676.000000	27.345000
675.000000	27.250800
674.000000	27.139700
673.000000	27.032900
672.000000	26.916900
671.000000	26.776000
670.000000	26.679500
669.000000	26.585200
668.000000	26.491700
667.000000	26.415000
666.000000	26.326800
665.000000	26.247900
664.000000	26.160900
663.000000	26.091900
662.000000	26.026700
661.000000	25.942100
660.000000	25.876100
659.000000	25.800300
658.000000	25.734000
657.000000	25.651300
656.000000	25.581000
655.000000	25.544700
654.000000	25.489400
653.000000	25.426900
652.000000	25.375400
651.000000	25.337800
650.000000	25.308600
649.000000	25.271600
648.000000	25.230500
647.000000	25.220200
646.000000	25.206800
645.000000	25.173700
644.000000	25.142100
643.000000	25.156000
642.000000	25.171500
641.000000	25.174700
640.000000	25.172600
639.000000	25.176600
638.000000	25.201100
637.000000	25.221200
636.000000	25.240800
635.000000	25.288900
634.000000	25.322000
633.000000	25.344400
632.000000	25.380600
631.000000	25.424800
630.000000	25.483600
629.000000	25.560800
628.000000	25.617800
627.000000	25.680100
626.000000	25.745800
625.000000	25.809100
624.000000	25.882300
623.000000	25.953700
622.000000	26.043300
621.000000	26.138800
620.000000	26.210700
619.000000	26.295100
618.000000	26.380900
617.000000	26.475100
616.000000	26.562200
615.000000	26.662200
614.000000	26.745500
613.000000	26.842200
612.000000	26.947100
611.000000	27.009900
610.000000	27.095900
609.000000	27.190900
608.000000	27.270200
607.000000	27.349300
606.000000	27.423200
605.000000	27.507700
604.000000	27.601400
603.000000	27.678400
602.000000	27.727500
601.000000	27.810600
600.000000	27.879100
599.000000	27.943600
598.000000	27.993000
597.000000	28.030900
596.000000	28.089000
595.000000	28.120100
594.000000	28.168700
593.000000	28.201400
592.000000	28.227400
591.000000	28.274500
590.000000	28.283900
589.000000	28.313700
588.000000	28.322400
587.000000	28.315700
586.000000	28.324700
585.000000	28.302400
584.000000	28.287400
583.000000	28.262800
582.000000	28.245400
581.000000	28.230700
580.000000	28.206300
579.000000	28.173800
578.000000	28.122000
577.000000	28.056400
576.000000	27.991000
575.000000	27.939200
574.000000	27.860400
573.000000	27.779000
572.000000	27.670800
571.000000	27.597100
570.000000	27.506900
569.000000	27.411100
568.000000	27.291500
567.000000	27.171300
566.000000	27.063000
565.000000	26.922200
564.000000	26.797900
563.000000	26.660900
562.000000	26.519900
561.000000	26.371900
560.000000	26.201200
559.000000	26.047100
558.000000	25.891000
557.000000	25.711200
556.000000	25.557600
555.000000	25.353400
554.000000	25.161300
553.000000	24.954800
552.000000	24.753100
551.000000	24.543600
550.000000	24.330100
549.000000	24.125300
548.000000	23.896400
547.000000	23.674300
546.000000	23.443700
545.000000	23.203100
544.000000	22.973200
543.000000	22.713200
542.000000	22.455300
541.000000	22.201400
540.000000	21.941200
539.000000	21.687800
538.000000	21.433400
537.000000	21.171900
536.000000	20.920800
535.000000	20.619400
534.000000	20.341600
533.000000	20.070800
532.000000	19.822900
531.000000	19.552400
530.000000	19.268700
529.000000	18.998300
528.000000	18.717000
527.000000	18.460000
526.000000	18.198800
525.000000	17.913600
524.000000	17.630900
523.000000	17.374800
522.000000	17.116500
521.000000	16.841900
520.000000	16.603700
519.000000	16.353000
518.000000	16.101600
517.000000	15.849000
516.000000	15.624500
515.000000	15.387000
514.000000	15.153000
513.000000	14.953900
512.000000	14.755900
511.000000	14.541800
510.000000	14.340000
509.000000	14.158800
508.000000	13.978900
507.000000	13.791500
506.000000	13.615300
505.000000	13.457700
504.000000	13.323400
503.000000	13.168900
502.000000	13.004300
501.000000	12.860100
500.000000	12.755800
499.000000	12.596200
498.000000	12.500700
497.000000	12.382500
496.000000	12.280100
495.000000	12.168900
494.000000	12.081700
493.000000	11.984800
492.000000	11.912500
491.000000	11.813200
490.000000	11.710500
489.000000	11.652400
488.000000	11.586300
487.000000	11.502000
486.000000	11.433000
485.000000	11.377000
484.000000	11.310600
483.000000	11.242300
482.000000	11.160600
481.000000	11.099000
480.000000	11.016300
479.000000	10.956300
478.000000	10.881700
477.000000	10.802100
476.000000	10.712100
475.000000	10.662600
474.000000	10.607700
473.000000	10.515500
472.000000	10.449500
471.000000	10.395800
470.000000	10.325200
469.000000	10.276300
468.000000	10.193800
467.000000	10.129800
466.000000	10.072400
465.000000	10.024100
464.000000	9.953700
463.000000	9.886800
462.000000	9.841500
461.000000	9.762200
460.000000	9.722200
459.000000	9.664700
458.000000	9.588000
457.000000	9.537200
456.000000	9.472700
455.000000	9.409800
454.000000	9.348700
453.000000	9.295100
452.000000	9.191500
451.000000	9.147300
450.000000	9.109200
449.000000	9.035200
448.000000	8.966400
447.000000	8.898100
446.000000	8.823500
445.000000	8.765300
444.000000	8.663100
443.000000	8.611200
442.000000	8.531100
441.000000	8.455900
440.000000	8.383800
439.000000	8.302600
438.000000	8.217900
437.000000	8.143400
436.000000	8.072100
435.000000	8.013300
434.000000	7.909100
433.000000	7.856300
432.000000	7.787700
431.000000	7.707000
430.000000	7.626900
429.000000	7.538600
428.000000	7.479700
427.000000	7.407300
426.000000	7.341600
425.000000	7.277200
424.000000	7.219500
423.000000	7.145100
422.000000	7.067400
421.000000	7.001100
420.000000	6.927000
419.000000	6.862200
418.000000	6.803100
417.000000	6.742800
416.000000	6.670900
415.000000	6.607000
414.000000	6.561400
413.000000	6.502200
412.000000	6.438000
411.000000	6.382800
410.000000	6.323500
409.000000	6.247000
408.000000	6.196800
407.000000	6.150900
406.000000	6.108300
405.000000	6.038100
404.000000	5.980100
403.000000	5.942900
402.000000	5.880300
401.000000	5.831700
400.000000	5.789800
399.000000	5.741000
398.000000	5.687700
397.000000	5.642100
396.000000	5.587000
395.000000	5.540000
394.000000	5.502600
393.000000	5.464700
392.000000	5.400100
391.000000	5.347500
390.000000	5.327300
389.000000	5.300600
388.000000	5.253400
387.000000	5.201100
386.000000	5.187800
385.000000	5.177800
384.000000	5.133600
383.000000	5.076400
382.000000	5.052400
381.000000	5.042800
380.000000	5.025600
379.000000	4.996000
378.000000	4.969800
377.000000	4.954700
376.000000	4.877700
375.000000	4.635200
374.000000	4.395000
373.000000	4.407000
372.000000	4.554900
371.000000	4.554500
370.000000	4.456100
369.000000	4.605200
368.000000	4.760100
367.000000	4.716100
366.000000	4.585600
365.000000	4.680500
364.000000	4.648700
363.000000	4.556100
362.000000	4.627700
361.000000	4.728300
360.000000	4.704500
359.000000	4.532200
358.000000	4.541400
357.000000	4.634400
356.000000	4.680300
355.000000	4.783700
354.000000	4.711900
353.000000	4.602500
352.000000	4.638800
351.000000	4.711800
350.000000	4.763100
349.000000	4.705700
348.000000	4.586700
347.000000	4.540800
346.000000	4.603400
345.000000	4.669500
344.000000	4.598100
343.000000	4.439000
342.000000	4.495700
341.000000	4.732800
340.000000	4.759900
339.000000	4.671100
338.000000	4.626700
337.000000	4.741100
336.000000	4.868300
335.000000	4.589000
334.000000	4.524500
333.000000	4.853400
332.000000	4.889500
331.000000	4.689400
330.000000	4.636400
329.000000	4.867700
328.000000	4.850300
327.000000	4.735200
326.000000	4.598500
325.000000	4.806400
324.000000	5.009500
323.000000	4.957400
322.000000	4.477900
321.000000	4.656800
320.000000	5.300800
319.000000	5.442800
318.000000	5.165700
317.000000	4.920500
316.000000	4.696000
315.000000	4.507200
314.000000	4.472700
313.000000	4.473900
312.000000	4.505400
311.000000	4.541000
310.000000	4.577100
309.000000	4.531700
308.000000	4.479500
307.000000	4.514600
306.000000	4.533000
305.000000	4.519100
304.000000	4.542000
303.000000	4.556700
302.000000	4.548900
301.000000	4.574600
300.000000	4.557300
299.000000	4.553200
298.000000	4.533800
297.000000	4.538800
296.000000	4.569700
295.000000	4.577000
294.000000	4.543700
293.000000	4.554000
292.000000	4.579300
291.000000	4.619900
290.000000	4.624700
289.000000	4.605300
288.000000	4.596500
287.000000	4.649000
286.000000	4.645400
285.000000	4.662100
284.000000	4.680500
283.000000	4.693500
282.000000	4.711400
281.000000	4.707400
280.000000	4.683000
279.000000	4.688900
278.000000	4.661300
277.000000	4.705600
276.000000	4.724200
275.000000	4.723700
274.000000	4.751300
273.000000	4.753500
272.000000	4.785200
271.000000	4.796700
270.000000	4.807000
269.000000	4.808900
268.000000	4.841000
267.000000	4.882300
266.000000	4.876500
265.000000	4.888200
264.000000	4.881900
263.000000	4.932600
262.000000	4.972200
261.000000	4.996000
260.000000	4.988500
259.000000	4.996500
258.000000	4.993700
257.000000	4.968300
256.000000	5.030900
255.000000	5.032800
254.000000	4.968600
253.000000	5.048600
252.000000	5.036800
251.000000	5.062500
250.000000	5.071300
