PE UV       SUBTECH     SPECTRUM    ASCII       PEDS        4.00        
   -1
CICIMAUCR0158-4.Sample.ASC
24/04/25
13:19:11.00
24/04/25
13:19:11.00
Vinicio Soto Monge
C. cupreomarginata
250,000000
1
Lambda 1050
1050L1511233
PerkinElmer UV WinLab 6.3.2.0749 / 2.02.05 Lambda 900 UV/VIS/NIR, Aug  7 2015 09:38:08

0
0
3350/servo 860,8/2
0
0
UV/VIS
1
1
1
DoubleDePol,CommonBeamDepol,RBeamAtt,SBeamAtt,60mm sphere, WB InGaAs Detector
0
0
0
0
Program
Program
3350/servo 860,8/2
3350/0,2 860,8/0,2
3350/0,2 860,8/0,2
0
15.00
 
 
 
0
 
860,8
319,2
860,8
Front
100
on
S:100 R:100
0
0
0
0
 
0
 
 
 
0
 
 
0
0
0
0
0
 
 
 
 
0
0


0
0
#HDR
-1
-1
#GR
nm
%R
1.0
0.0
2500,000000
-1,000000
2251
8
71,606100
5,632000
#DATA
2482.000000	17.737590
2481.000000	17.653251
2480.000000	17.687543
2479.000000	17.723341
2478.000000	17.753578
2477.000000	17.730755
2476.000000	17.757401
2475.000000	17.826563
2474.000000	17.776400
2473.000000	17.858538
2472.000000	17.883677
2471.000000	17.925731
2470.000000	17.967321
2469.000000	18.020149
2468.000000	18.047374
2467.000000	18.092787
2466.000000	18.150828
2465.000000	18.232966
2464.000000	18.317536
2463.000000	18.329585
2462.000000	18.375346
2461.000000	18.426204
2460.000000	18.466288
2459.000000	18.573102
2458.000000	18.635313
2457.000000	18.684086
2456.000000	18.778388
2455.000000	18.873154
2454.000000	18.976145
2453.000000	19.065002
2452.000000	19.174133
2451.000000	19.248856
2450.000000	19.324274
2449.000000	19.424948
2448.000000	19.545085
2447.000000	19.656649
2446.000000	19.774237
2445.000000	19.885684
2444.000000	19.985663
2443.000000	20.099312
2442.000000	20.206474
2441.000000	20.343061
2440.000000	20.436089
2439.000000	20.535372
2438.000000	20.628632
2437.000000	20.759079
2436.000000	20.876783
2435.000000	20.975835
2434.000000	21.070137
2433.000000	21.162122
2432.000000	21.263607
2431.000000	21.359762
2430.000000	21.466576
2429.000000	21.548598
2428.000000	21.649851
2427.000000	21.735464
2426.000000	21.804743
2425.000000	21.871009
2424.000000	21.960677
2423.000000	22.050229
2422.000000	22.123215
2421.000000	22.187975
2420.000000	22.265711
2419.000000	22.326184
2418.000000	22.379591
2417.000000	22.462424
2416.000000	22.540739
2415.000000	22.588006
2414.000000	22.654156
2413.000000	22.713587
2412.000000	22.764330
2411.000000	22.836157
2410.000000	22.926868
2409.000000	23.043529
2408.000000	23.156251
2407.000000	23.257620
2406.000000	23.283223
2405.000000	23.312185
2404.000000	23.363855
2403.000000	23.408225
2402.000000	23.453638
2401.000000	23.501485
2400.000000	23.558019
2399.000000	23.574354
2398.000000	23.627298
2397.000000	23.680357
2396.000000	23.715923
2395.000000	23.768751
2394.000000	23.796323
2393.000000	23.805475
2392.000000	23.837566
2391.000000	23.899546
2390.000000	23.934417
2389.000000	23.945654
2388.000000	23.955038
2387.000000	23.949477
2386.000000	23.982263
2385.000000	24.013195
2384.000000	24.025823
2383.000000	24.052005
2382.000000	24.047486
2381.000000	24.045285
2380.000000	24.052931
2379.000000	24.074595
2378.000000	24.065675
2377.000000	24.067876
2376.000000	24.086412
2375.000000	24.073900
2374.000000	24.060462
2373.000000	24.064980
2372.000000	24.082242
2371.000000	24.072974
2370.000000	24.083748
2369.000000	24.102863
2368.000000	24.092205
2367.000000	24.084906
2366.000000	24.089772
2365.000000	24.108540
2364.000000	24.123368
2363.000000	24.142368
2362.000000	24.148160
2361.000000	24.136344
2360.000000	24.142136
2359.000000	24.157312
2358.000000	24.144569
2357.000000	24.129393
2356.000000	24.142136
2355.000000	24.152215
2354.000000	24.129277
2353.000000	24.118387
2352.000000	24.131362
2351.000000	24.130899
2350.000000	24.109466
2349.000000	24.104601
2348.000000	24.114332
2347.000000	24.111204
2346.000000	24.119198
2345.000000	24.119893
2344.000000	24.120704
2343.000000	24.136459
2342.000000	24.133679
2341.000000	24.113174
2340.000000	24.140514
2339.000000	24.157197
2338.000000	24.155806
2337.000000	24.181062
2336.000000	24.200409
2335.000000	24.229487
2334.000000	24.273510
2333.000000	24.307338
2332.000000	24.316375
2331.000000	24.315564
2330.000000	24.357154
2329.000000	24.412762
2328.000000	24.437902
2327.000000	24.461883
2326.000000	24.494668
2325.000000	24.529076
2324.000000	24.590013
2323.000000	24.600439
2322.000000	24.596964
2321.000000	24.611329
2320.000000	24.653035
2319.000000	24.638554
2318.000000	24.649097
2317.000000	24.645853
2316.000000	24.618860
2315.000000	24.597080
2314.000000	24.583757
2313.000000	24.564989
2312.000000	24.528844
2311.000000	24.499302
2310.000000	24.460724
2309.000000	24.421335
2308.000000	24.384726
2307.000000	24.357038
2306.000000	24.316606
2305.000000	24.305485
2304.000000	24.283589
2303.000000	24.268644
2302.000000	24.231688
2301.000000	24.236206
2300.000000	24.240840
2299.000000	24.233310
2298.000000	24.238871
2297.000000	24.241188
2296.000000	24.242462
2295.000000	24.259029
2294.000000	24.276059
2293.000000	24.306180
2292.000000	24.347654
2291.000000	24.369434
2290.000000	24.402451
2289.000000	24.428749
2288.000000	24.480534
2287.000000	24.528844
2286.000000	24.565221
2285.000000	24.597311
2284.000000	24.666242
2283.000000	24.705400
2282.000000	24.751508
2281.000000	24.813488
2280.000000	24.857511
2279.000000	24.868864
2278.000000	24.916131
2277.000000	24.967105
2276.000000	25.005683
2275.000000	25.044841
2274.000000	25.077279
2273.000000	25.127789
2272.000000	25.154087
2271.000000	25.184556
2270.000000	25.231012
2269.000000	25.274456
2268.000000	25.333308
2267.000000	25.390306
2266.000000	25.451359
2265.000000	25.537088
2264.000000	25.641238
2263.000000	25.721638
2262.000000	25.848146
2261.000000	25.938972
2260.000000	26.060383
2259.000000	26.234970
2258.000000	26.364722
2257.000000	26.516022
2256.000000	26.670335
2255.000000	26.870060
2254.000000	27.010587
2253.000000	27.155863
2252.000000	27.324425
2251.000000	27.494261
2250.000000	27.673597
2249.000000	27.834050
2248.000000	27.963223
2247.000000	28.106182
2246.000000	28.251574
2245.000000	28.344022
2244.000000	28.478640
2243.000000	28.583369
2242.000000	28.656586
2241.000000	28.764559
2240.000000	28.859092
2239.000000	28.892573
2238.000000	28.927791
2237.000000	28.949571
2236.000000	29.024990
2235.000000	29.039123
2234.000000	29.043526
2233.000000	29.048739
2232.000000	29.059397
2231.000000	29.030087
2230.000000	29.021051
2229.000000	28.976101
2228.000000	28.958955
2227.000000	28.881683
2226.000000	28.832794
2225.000000	28.798039
2224.000000	28.736059
2223.000000	28.650678
2222.000000	28.572595
2221.000000	28.509456
2220.000000	28.412722
2219.000000	28.360010
2218.000000	28.275323
2217.000000	28.185887
2216.000000	28.109194
2215.000000	28.013270
2214.000000	27.933333
2213.000000	27.876451
2212.000000	27.783539
2211.000000	27.729785
2210.000000	27.650659
2209.000000	27.591807
2208.000000	27.545004
2207.000000	27.476189
2206.000000	27.420696
2205.000000	27.384088
2204.000000	27.353387
2203.000000	27.303108
2202.000000	27.270207
2201.000000	27.226184
2200.000000	27.191313
2199.000000	27.153314
2198.000000	27.114273
2197.000000	27.100371
2196.000000	27.054378
2195.000000	27.058549
2194.000000	27.016263
2193.000000	27.013135
2192.000000	26.974557
2191.000000	26.952893
2190.000000	26.923004
2189.000000	26.899950
2188.000000	26.901340
2187.000000	26.871798
2186.000000	26.841330
2185.000000	26.847701
2184.000000	26.819666
2183.000000	26.798233
2182.000000	26.779350
2181.000000	26.764173
2180.000000	26.729998
2179.000000	26.730461
2178.000000	26.729882
2177.000000	26.704742
2176.000000	26.705669
2175.000000	26.698602
2174.000000	26.727333
2173.000000	26.722931
2172.000000	26.716211
2171.000000	26.735790
2170.000000	26.765679
2169.000000	26.794294
2168.000000	26.823720
2167.000000	26.855347
2166.000000	26.891145
2165.000000	26.945131
2164.000000	26.996105
2163.000000	27.027269
2162.000000	27.117169
2161.000000	27.192356
2160.000000	27.270670
2159.000000	27.330797
2158.000000	27.404130
2157.000000	27.505151
2156.000000	27.607447
2155.000000	27.726425
2154.000000	27.831965
2153.000000	27.915029
2152.000000	28.039105
2151.000000	28.149973
2150.000000	28.277177
2149.000000	28.401832
2148.000000	28.521505
2147.000000	28.617081
2146.000000	28.731889
2145.000000	28.829319
2144.000000	28.939724
2143.000000	29.047001
2142.000000	29.165400
2141.000000	29.292140
2140.000000	29.412972
2139.000000	29.508664
2138.000000	29.625325
2137.000000	29.726578
2136.000000	29.829453
2135.000000	29.916109
2134.000000	30.008674
2133.000000	30.086525
2132.000000	30.170632
2131.000000	30.264587
2130.000000	30.321933
2129.000000	30.390052
2128.000000	30.477751
2127.000000	30.539847
2126.000000	30.591284
2125.000000	30.641795
2124.000000	30.692537
2123.000000	30.736560
2122.000000	30.785681
2121.000000	30.840594
2120.000000	30.880562
2119.000000	30.903500
2118.000000	30.940688
2117.000000	30.970925
2116.000000	31.005680
2115.000000	31.036149
2114.000000	31.030241
2113.000000	31.039740
2112.000000	31.064648
2111.000000	31.085038
2110.000000	31.098824
2109.000000	31.099519
2108.000000	31.094306
2107.000000	31.096970
2106.000000	31.090599
2105.000000	31.099056
2104.000000	31.106354
2103.000000	31.095464
2102.000000	31.103805
2101.000000	31.102647
2100.000000	31.097550
2099.000000	31.107744
2098.000000	31.112726
2097.000000	31.104964
2096.000000	31.118403
2095.000000	31.129640
2094.000000	31.125122
2093.000000	31.130567
2092.000000	31.130799
2091.000000	31.149682
2090.000000	31.158487
2089.000000	31.151536
2088.000000	31.165206
2087.000000	31.161846
2086.000000	31.135780
2085.000000	31.117244
2084.000000	31.107049
2083.000000	31.093842
2082.000000	31.051094
2081.000000	31.007997
2080.000000	30.955517
2079.000000	30.897476
2078.000000	30.832832
2077.000000	30.757182
2076.000000	30.680373
2075.000000	30.607387
2074.000000	30.520268
2073.000000	30.409399
2072.000000	30.293897
2071.000000	30.194845
2070.000000	30.072507
2069.000000	29.958163
2068.000000	29.839880
2067.000000	29.723914
2066.000000	29.596595
2065.000000	29.468117
2064.000000	29.369412
2063.000000	29.265495
2062.000000	29.142230
2061.000000	29.032752
2060.000000	28.952236
2059.000000	28.878555
2058.000000	28.800240
2057.000000	28.745212
2056.000000	28.700030
2055.000000	28.686128
2054.000000	28.699451
2053.000000	28.709298
2052.000000	28.726560
2051.000000	28.788308
2050.000000	28.869287
2049.000000	28.944358
2048.000000	29.038544
2047.000000	29.158565
2046.000000	29.283336
2045.000000	29.409033
2044.000000	29.535542
2043.000000	29.667958
2042.000000	29.830496
2041.000000	29.952370
2040.000000	30.075751
2039.000000	30.202723
2038.000000	30.323439
2037.000000	30.462459
2036.000000	30.561279
2035.000000	30.669831
2034.000000	30.775949
2033.000000	30.858203
2032.000000	30.959804
2031.000000	31.030936
2030.000000	31.115622
2029.000000	31.193705
2028.000000	31.267733
2027.000000	31.342920
2026.000000	31.384626
2025.000000	31.425753
2024.000000	31.489818
2023.000000	31.538591
2022.000000	31.580066
2021.000000	31.610534
2020.000000	31.618991
2019.000000	31.661740
2018.000000	31.675642
2017.000000	31.679928
2016.000000	31.713988
2015.000000	31.712482
2014.000000	31.722098
2013.000000	31.694757
2012.000000	31.683288
2011.000000	31.676569
2010.000000	31.665100
2009.000000	31.611229
2008.000000	31.579950
2007.000000	31.532219
2006.000000	31.494105
2005.000000	31.447881
2004.000000	31.379992
2003.000000	31.329250
2002.000000	31.265880
2001.000000	31.196022
2000.000000	31.126280
1999.000000	31.036728
1998.000000	30.968840
1997.000000	30.851600
1996.000000	30.772242
1995.000000	30.670642
1994.000000	30.572864
1993.000000	30.477635
1992.000000	30.371748
1991.000000	30.281617
1990.000000	30.160785
1989.000000	30.053392
1988.000000	29.946462
1987.000000	29.822271
1986.000000	29.715804
1985.000000	29.589991
1984.000000	29.488159
1983.000000	29.364778
1982.000000	29.249044
1981.000000	29.143736
1980.000000	29.037733
1979.000000	28.923042
1978.000000	28.810667
1977.000000	28.701188
1976.000000	28.605033
1975.000000	28.490573
1974.000000	28.384222
1973.000000	28.283201
1972.000000	28.182411
1971.000000	28.076524
1970.000000	27.971448
1969.000000	27.846562
1968.000000	27.774735
1967.000000	27.674292
1966.000000	27.552418
1965.000000	27.475841
1964.000000	27.355589
1963.000000	27.264183
1962.000000	27.182740
1961.000000	27.075115
1960.000000	26.959497
1959.000000	26.848165
1958.000000	26.738339
1957.000000	26.638360
1956.000000	26.570472
1955.000000	26.467829
1954.000000	26.343869
1953.000000	26.235549
1952.000000	26.174264
1951.000000	26.052158
1950.000000	25.952759
1949.000000	25.882901
1948.000000	25.792770
1947.000000	25.720131
1946.000000	25.649347
1945.000000	25.569526
1944.000000	25.492138
1943.000000	25.443365
1942.000000	25.409074
1941.000000	25.378721
1940.000000	25.330875
1939.000000	25.297047
1938.000000	25.283724
1937.000000	25.276889
1936.000000	25.254993
1935.000000	25.266230
1934.000000	25.309558
1933.000000	25.340722
1932.000000	25.379532
1931.000000	25.446146
1930.000000	25.498858
1929.000000	25.594782
1928.000000	25.684218
1927.000000	25.786514
1926.000000	25.880932
1925.000000	26.029567
1924.000000	26.151905
1923.000000	26.313980
1922.000000	26.485322
1921.000000	26.712504
1920.000000	26.897864
1919.000000	27.091914
1918.000000	27.335199
1917.000000	27.545119
1916.000000	27.748900
1915.000000	28.034471
1914.000000	28.380747
1913.000000	28.705822
1912.000000	29.028697
1911.000000	29.322377
1910.000000	29.662861
1909.000000	29.979364
1908.000000	30.372443
1907.000000	30.807808
1906.000000	31.307238
1905.000000	31.804815
1904.000000	32.294977
1903.000000	32.756640
1902.000000	33.253753
1901.000000	33.779829
1900.000000	34.388042
1899.000000	34.952349
1898.000000	35.542026
1897.000000	36.137612
1896.000000	36.630670
1895.000000	37.130796
1894.000000	37.682938
1893.000000	38.277481
1892.000000	38.938638
1891.000000	39.550211
1890.000000	40.120773
1889.000000	40.639318
1888.000000	41.175589
1887.000000	41.675135
1886.000000	42.175608
1885.000000	42.681989
1884.000000	43.195321
1883.000000	43.630454
1882.000000	44.031180
1881.000000	44.422638
1880.000000	44.756866
1879.000000	45.093063
1878.000000	45.447217
1877.000000	45.753872
1876.000000	46.041760
1875.000000	46.347489
1874.000000	46.645108
1873.000000	46.931258
1872.000000	47.191110
1871.000000	47.415512
1870.000000	47.644432
1869.000000	47.868370
1868.000000	47.996037
1867.000000	48.111540
1866.000000	48.179659
1865.000000	48.275931
1864.000000	48.351002
1863.000000	48.426073
1862.000000	48.533350
1861.000000	48.658816
1860.000000	48.782891
1859.000000	48.865608
1858.000000	48.938594
1857.000000	49.015519
1856.000000	49.044018
1855.000000	49.102870
1854.000000	49.151179
1853.000000	49.171453
1852.000000	49.216634
1851.000000	49.223006
1850.000000	49.258688
1849.000000	49.314528
1848.000000	49.378825
1847.000000	49.406860
1846.000000	49.355655
1845.000000	49.283712
1844.000000	49.236213
1843.000000	49.259962
1842.000000	49.323448
1841.000000	49.338625
1840.000000	49.310473
1839.000000	49.274096
1838.000000	49.249768
1837.000000	49.246640
1836.000000	49.244439
1835.000000	49.193928
1834.000000	49.120247
1833.000000	49.046451
1832.000000	49.016214
1831.000000	49.028262
1830.000000	49.008915
1829.000000	48.981343
1828.000000	48.941722
1827.000000	48.912412
1826.000000	48.898046
1825.000000	48.877541
1824.000000	48.847072
1823.000000	48.874992
1822.000000	48.931295
1821.000000	48.947051
1820.000000	48.936277
1819.000000	48.895614
1818.000000	48.852749
1817.000000	48.834561
1816.000000	48.829347
1815.000000	48.822049
1814.000000	48.815098
1813.000000	48.803165
1812.000000	48.803513
1811.000000	48.770843
1810.000000	48.722418
1809.000000	48.710253
1808.000000	48.717436
1807.000000	48.712107
1806.000000	48.683029
1805.000000	48.630317
1804.000000	48.604250
1803.000000	48.609695
1802.000000	48.598110
1801.000000	48.586989
1800.000000	48.567526
1799.000000	48.531265
1798.000000	48.500333
1797.000000	48.492339
1796.000000	48.478090
1795.000000	48.464883
1794.000000	48.466157
1793.000000	48.453529
1792.000000	48.430359
1791.000000	48.429780
1790.000000	48.406610
1789.000000	48.412055
1788.000000	48.403019
1787.000000	48.401397
1786.000000	48.413561
1785.000000	48.405567
1784.000000	48.420628
1783.000000	48.407537
1782.000000	48.405336
1781.000000	48.400702
1780.000000	48.385062
1779.000000	48.367568
1778.000000	48.347411
1777.000000	48.299912
1776.000000	48.271297
1775.000000	48.241176
1774.000000	48.203756
1773.000000	48.179891
1772.000000	48.128801
1771.000000	48.101692
1770.000000	48.067169
1769.000000	48.024652
1768.000000	48.001250
1767.000000	47.974952
1766.000000	47.931624
1765.000000	47.898607
1764.000000	47.877290
1763.000000	47.857712
1762.000000	47.835237
1761.000000	47.830719
1760.000000	47.816585
1759.000000	47.813573
1758.000000	47.800250
1757.000000	47.797122
1756.000000	47.793763
1755.000000	47.803494
1754.000000	47.787043
1753.000000	47.775458
1752.000000	47.774068
1751.000000	47.769086
1750.000000	47.733405
1749.000000	47.697839
1748.000000	47.650803
1747.000000	47.616859
1746.000000	47.570867
1745.000000	47.517692
1744.000000	47.457102
1743.000000	47.397671
1742.000000	47.356660
1741.000000	47.298271
1740.000000	47.239419
1739.000000	47.181958
1738.000000	47.164696
1737.000000	47.121600
1736.000000	47.086150
1735.000000	47.058925
1734.000000	47.013975
1733.000000	46.983506
1732.000000	46.951184
1731.000000	46.939136
1730.000000	46.899515
1729.000000	46.882948
1728.000000	46.863370
1727.000000	46.864992
1726.000000	46.854797
1725.000000	46.842632
1724.000000	46.892216
1723.000000	46.937977
1722.000000	47.031932
1721.000000	47.141178
1720.000000	47.294796
1719.000000	47.460346
1718.000000	47.639218
1717.000000	47.815195
1716.000000	47.990824
1715.000000	48.168770
1714.000000	48.321228
1713.000000	48.455035
1712.000000	48.578648
1711.000000	48.719290
1710.000000	48.783007
1709.000000	48.898973
1708.000000	48.973465
1707.000000	49.068810
1706.000000	49.126735
1705.000000	49.127198
1704.000000	49.155581
1703.000000	49.183733
1702.000000	49.185702
1701.000000	49.198562
1700.000000	49.206556
1699.000000	49.184196
1698.000000	49.207714
1697.000000	49.173422
1696.000000	49.155118
1695.000000	49.118741
1694.000000	49.094528
1693.000000	49.040311
1692.000000	49.001269
1691.000000	48.963502
1690.000000	48.945313
1689.000000	48.943460
1688.000000	48.986093
1687.000000	49.059889
1686.000000	49.177825
1685.000000	49.346039
1684.000000	49.521668
1683.000000	49.705059
1682.000000	49.889029
1681.000000	50.086438
1680.000000	50.263457
1679.000000	50.439897
1678.000000	50.610891
1677.000000	50.756631
1676.000000	50.919401
1675.000000	51.095609
1674.000000	51.221654
1673.000000	51.387783
1672.000000	51.536998
1671.000000	51.690963
1670.000000	51.839251
1669.000000	51.972131
1668.000000	52.115554
1667.000000	52.276585
1666.000000	52.395679
1665.000000	52.528096
1664.000000	52.632477
1663.000000	52.756205
1662.000000	52.868116
1661.000000	52.959059
1660.000000	53.010149
1659.000000	53.084988
1658.000000	53.163650
1657.000000	53.230032
1656.000000	53.275562
1655.000000	53.304872
1654.000000	53.328853
1653.000000	53.371949
1652.000000	53.385967
1651.000000	53.391064
1650.000000	53.378900
1649.000000	53.386430
1648.000000	53.378668
1647.000000	53.376815
1646.000000	53.356077
1645.000000	53.341944
1644.000000	53.325261
1643.000000	53.330243
1642.000000	53.317499
1641.000000	53.302902
1640.000000	53.292939
1639.000000	53.274867
1638.000000	53.279501
1637.000000	53.266409
1636.000000	53.245441
1635.000000	53.220185
1634.000000	53.179753
1633.000000	53.128084
1632.000000	53.103640
1631.000000	53.087653
1630.000000	53.034709
1629.000000	53.000186
1628.000000	52.966010
1627.000000	52.920712
1626.000000	52.881208
1625.000000	52.841239
1624.000000	52.814825
1623.000000	52.784009
1622.000000	52.744157
1621.000000	52.716237
1620.000000	52.691445
1619.000000	52.664336
1618.000000	52.619850
1617.000000	52.583473
1616.000000	52.563894
1615.000000	52.523230
1614.000000	52.490792
1613.000000	52.465305
1612.000000	52.431941
1611.000000	52.384442
1610.000000	52.330803
1609.000000	52.287012
1608.000000	52.241135
1607.000000	52.179966
1606.000000	52.106633
1605.000000	52.046275
1604.000000	51.998777
1603.000000	51.936218
1602.000000	51.874933
1601.000000	51.802063
1600.000000	51.737535
1599.000000	51.671847
1598.000000	51.612300
1597.000000	51.546613
1596.000000	51.500273
1595.000000	51.445360
1594.000000	51.391258
1593.000000	51.343065
1592.000000	51.298578
1591.000000	51.248647
1590.000000	51.215398
1589.000000	51.179137
1588.000000	51.120285
1587.000000	51.073134
1586.000000	51.030733
1585.000000	50.995514
1584.000000	50.961570
1583.000000	50.927973
1582.000000	50.883139
1581.000000	50.834598
1580.000000	50.808532
1579.000000	50.773198
1578.000000	50.753040
1577.000000	50.746320
1576.000000	50.731028
1575.000000	50.710523
1574.000000	50.682023
1573.000000	50.676231
1572.000000	50.702645
1571.000000	50.711449
1570.000000	50.706700
1569.000000	50.707974
1568.000000	50.722687
1567.000000	50.750375
1566.000000	50.760454
1565.000000	50.770301
1564.000000	50.775283
1563.000000	50.763350
1562.000000	50.753851
1561.000000	50.739485
1560.000000	50.720486
1559.000000	50.704846
1558.000000	50.668121
1557.000000	50.633482
1556.000000	50.589112
1555.000000	50.523656
1554.000000	50.466542
1553.000000	50.408154
1552.000000	50.335747
1551.000000	50.260676
1550.000000	50.186764
1549.000000	50.106016
1548.000000	50.024574
1547.000000	49.951241
1546.000000	49.896791
1545.000000	49.829366
1544.000000	49.770283
1543.000000	49.723363
1542.000000	49.680614
1541.000000	49.631957
1540.000000	49.582026
1539.000000	49.550978
1538.000000	49.511010
1537.000000	49.474633
1536.000000	49.423427
1535.000000	49.375002
1534.000000	49.343259
1533.000000	49.297845
1532.000000	49.239109
1531.000000	49.183849
1530.000000	49.141795
1529.000000	49.079700
1528.000000	49.013897
1527.000000	48.960721
1526.000000	48.905808
1525.000000	48.854834
1524.000000	48.790190
1523.000000	48.710833
1522.000000	48.647810
1521.000000	48.589885
1520.000000	48.529411
1519.000000	48.464883
1518.000000	48.405567
1517.000000	48.338374
1516.000000	48.270370
1515.000000	48.193561
1514.000000	48.123588
1513.000000	48.062419
1512.000000	47.992561
1511.000000	47.920271
1510.000000	47.862346
1509.000000	47.806738
1508.000000	47.740703
1507.000000	47.664937
1506.000000	47.608055
1505.000000	47.548855
1504.000000	47.476101
1503.000000	47.419103
1502.000000	47.372879
1501.000000	47.333837
1500.000000	47.290973
1499.000000	47.246255
1498.000000	47.202116
1497.000000	47.198988
1496.000000	47.170952
1495.000000	47.161220
1494.000000	47.154038
1493.000000	47.143148
1492.000000	47.150910
1491.000000	47.176744
1490.000000	47.190646
1489.000000	47.199914
1488.000000	47.221926
1487.000000	47.241273
1486.000000	47.255407
1485.000000	47.261547
1484.000000	47.283442
1483.000000	47.312289
1482.000000	47.332910
1481.000000	47.337544
1480.000000	47.350983
1479.000000	47.383421
1478.000000	47.402073
1477.000000	47.409835
1476.000000	47.463010
1475.000000	47.491394
1474.000000	47.525917
1473.000000	47.593921
1472.000000	47.632499
1471.000000	47.677681
1470.000000	47.726801
1469.000000	47.743252
1468.000000	47.821103
1467.000000	47.895479
1466.000000	47.975068
1465.000000	48.008085
1464.000000	48.063693
1463.000000	48.130771
1462.000000	48.218585
1461.000000	48.290181
1460.000000	48.354825
1459.000000	48.435225
1458.000000	48.506009
1457.000000	48.584672
1456.000000	48.672254
1455.000000	48.776983
1454.000000	48.846030
1453.000000	48.938478
1452.000000	49.020037
1451.000000	49.110979
1450.000000	49.180026
1449.000000	49.221964
1448.000000	49.328662
1447.000000	49.437329
1446.000000	49.543448
1445.000000	49.596044
1444.000000	49.638793
1443.000000	49.756960
1442.000000	49.838402
1441.000000	49.921583
1440.000000	50.035927
1439.000000	50.135558
1438.000000	50.255579
1437.000000	50.342814
1436.000000	50.436074
1435.000000	50.561887
1434.000000	50.714346
1433.000000	50.826605
1432.000000	50.986941
1431.000000	51.091901
1430.000000	51.259421
1429.000000	51.422074
1428.000000	51.601758
1427.000000	51.773680
1426.000000	51.928108
1425.000000	52.144632
1424.000000	52.384094
1423.000000	52.570266
1422.000000	52.768485
1421.000000	53.020575
1420.000000	53.314024
1419.000000	53.579437
1418.000000	53.793064
1417.000000	54.016887
1416.000000	54.320530
1415.000000	54.711409
1414.000000	55.028027
1413.000000	55.301318
1412.000000	55.560707
1411.000000	55.945097
1410.000000	56.360652
1409.000000	56.723842
1408.000000	57.095374
1407.000000	57.443967
1406.000000	57.813066
1405.000000	58.184482
1404.000000	58.549525
1403.000000	58.862205
1402.000000	59.251578
1401.000000	59.728417
1400.000000	60.112692
1399.000000	60.322960
1398.000000	60.559179
1397.000000	60.938009
1396.000000	61.409287
1395.000000	61.728107
1394.000000	61.927717
1393.000000	62.182124
1392.000000	62.544735
1391.000000	62.796014
1390.000000	63.035708
1389.000000	63.394033
1388.000000	63.723163
1387.000000	63.952199
1386.000000	64.232672
1385.000000	64.541645
1384.000000	64.747974
1383.000000	65.015819
1382.000000	65.223886
1381.000000	65.370900
1380.000000	65.432069
1379.000000	65.557303
1378.000000	65.662611
1377.000000	65.787961
1376.000000	65.879483
1375.000000	65.980041
1374.000000	66.103769
1373.000000	66.279745
1372.000000	66.381114
1371.000000	66.508897
1370.000000	66.578059
1369.000000	66.698196
1368.000000	66.840228
1367.000000	66.918427
1366.000000	67.004156
1365.000000	67.123829
1364.000000	67.210485
1363.000000	67.281502
1362.000000	67.413339
1361.000000	67.469295
1360.000000	67.446009
1359.000000	67.527220
1358.000000	67.581669
1357.000000	67.647356
1356.000000	67.760890
1355.000000	67.885197
1354.000000	67.955170
1353.000000	68.003016
1352.000000	68.156750
1351.000000	68.310135
1350.000000	68.441278
1349.000000	68.577865
1348.000000	68.732525
1347.000000	68.860771
1346.000000	68.963067
1345.000000	69.094325
1344.000000	69.228711
1343.000000	69.339928
1342.000000	69.466204
1341.000000	69.583676
1340.000000	69.691185
1339.000000	69.792207
1338.000000	69.894734
1337.000000	70.002938
1336.000000	70.099094
1335.000000	70.190152
1334.000000	70.282832
1333.000000	70.369952
1332.000000	70.443517
1331.000000	70.516966
1330.000000	70.583116
1329.000000	70.662242
1328.000000	70.730825
1327.000000	70.785970
1326.000000	70.832310
1325.000000	70.881083
1324.000000	70.939124
1323.000000	70.995890
1322.000000	71.044316
1321.000000	71.101198
1320.000000	71.145916
1319.000000	71.176732
1318.000000	71.220524
1317.000000	71.253309
1316.000000	71.296290
1315.000000	71.343557
1314.000000	71.379007
1313.000000	71.408085
1312.000000	71.437048
1311.000000	71.470065
1310.000000	71.497174
1309.000000	71.523935
1308.000000	71.549075
1307.000000	71.563788
1306.000000	71.585915
1305.000000	71.605146
1304.000000	71.622640
1303.000000	71.644304
1302.000000	71.652297
1301.000000	71.659596
1300.000000	71.666431
1299.000000	71.661450
1298.000000	71.660986
1297.000000	71.667474
1296.000000	71.671876
1295.000000	71.677553
1294.000000	71.681260
1293.000000	71.682534
1292.000000	71.683924
1291.000000	71.683693
1290.000000	71.677321
1289.000000	71.667821
1288.000000	71.645926
1287.000000	71.643377
1286.000000	71.636889
1285.000000	71.619512
1284.000000	71.613372
1283.000000	71.596226
1282.000000	71.584757
1281.000000	71.577226
1280.000000	71.567611
1279.000000	71.556373
1278.000000	71.559617
1277.000000	71.554636
1276.000000	71.558227
1275.000000	71.562861
1274.000000	71.581513
1273.000000	71.606189
1272.000000	71.598311
1271.000000	71.612677
1270.000000	71.638395
1269.000000	71.656236
1268.000000	71.667242
1267.000000	71.683693
1266.000000	71.685778
1265.000000	71.698406
1264.000000	71.721692
1263.000000	71.731307
1262.000000	71.736868
1261.000000	71.757373
1260.000000	71.762355
1259.000000	71.772897
1258.000000	71.791665
1257.000000	71.789348
1256.000000	71.797110
1255.000000	71.793982
1254.000000	71.807768
1253.000000	71.786799
1252.000000	71.792013
1251.000000	71.770928
1250.000000	71.763050
1249.000000	71.750422
1248.000000	71.730149
1247.000000	71.696552
1246.000000	71.666315
1245.000000	71.649517
1244.000000	71.634920
1243.000000	71.606652
1242.000000	71.575257
1241.000000	71.563672
1240.000000	71.554636
1239.000000	71.526368
1238.000000	71.505283
1237.000000	71.497985
1236.000000	71.479333
1235.000000	71.473888
1234.000000	71.453730
1233.000000	71.446432
1232.000000	71.428243
1231.000000	71.437048
1230.000000	71.417006
1229.000000	71.397079
1228.000000	71.383525
1227.000000	71.354447
1226.000000	71.330466
1225.000000	71.324557
1224.000000	71.317722
1223.000000	71.298838
1222.000000	71.260492
1221.000000	71.234194
1220.000000	71.208012
1219.000000	71.179629
1218.000000	71.156922
1217.000000	71.137691
1216.000000	71.098418
1215.000000	71.067949
1214.000000	71.042462
1213.000000	70.989287
1212.000000	70.946075
1211.000000	70.937038
1210.000000	70.893131
1209.000000	70.833005
1208.000000	70.784232
1207.000000	70.744727
1206.000000	70.667918
1205.000000	70.625401
1204.000000	70.571183
1203.000000	70.534227
1202.000000	70.467845
1201.000000	70.419883
1200.000000	70.359641
1199.000000	70.301368
1198.000000	70.251089
1197.000000	70.194091
1196.000000	70.154007
1195.000000	70.068046
1194.000000	70.015218
1193.000000	69.945129
1192.000000	69.887667
1191.000000	69.848394
1190.000000	69.793713
1189.000000	69.751659
1188.000000	69.739263
1187.000000	69.741117
1186.000000	69.740653
1185.000000	69.735556
1184.000000	69.764750
1183.000000	69.787341
1182.000000	69.827889
1181.000000	69.863802
1180.000000	69.914429
1179.000000	69.980927
1178.000000	70.029584
1177.000000	70.081716
1176.000000	70.135355
1175.000000	70.167909
1174.000000	70.258735
1173.000000	70.303801
1172.000000	70.376323
1171.000000	70.443748
1170.000000	70.503874
1169.000000	70.613932
1168.000000	70.704295
1167.000000	70.810762
1166.000000	70.928002
1165.000000	71.030182
1164.000000	71.132825
1163.000000	71.227938
1162.000000	71.346221
1161.000000	71.450834
1160.000000	71.538069
1159.000000	71.664809
1158.000000	71.773592
1157.000000	71.847968
1156.000000	71.927789
1155.000000	72.026378
1154.000000	72.101796
1153.000000	72.182544
1152.000000	72.230506
1151.000000	72.306967
1150.000000	72.358404
1149.000000	72.409262
1148.000000	72.461511
1147.000000	72.535887
1146.000000	72.595202
1145.000000	72.655328
1144.000000	72.729704
1143.000000	72.780794
1142.000000	72.870115
1141.000000	72.931283
1140.000000	73.017360
1139.000000	73.084553
1138.000000	73.181056
1137.000000	73.308492
1136.000000	73.399550
1135.000000	73.510418
1134.000000	73.584331
1133.000000	73.620940
1132.000000	73.678401
1131.000000	73.755094
1130.000000	73.816147
1129.000000	73.887974
1128.000000	73.922266
1127.000000	73.959801
1126.000000	74.006489
1125.000000	74.037305
1124.000000	74.079011
1123.000000	74.085731
1122.000000	74.092450
1121.000000	74.078548
1120.000000	74.083529
1119.000000	74.101370
1118.000000	74.108901
1117.000000	74.076347
1116.000000	74.078664
1115.000000	74.068701
1114.000000	74.059896
1113.000000	74.050744
1112.000000	74.054567
1111.000000	74.041012
1110.000000	74.016336
1109.000000	73.999770
1108.000000	73.995947
1107.000000	73.995599
1106.000000	73.961539
1105.000000	73.966173
1104.000000	73.931534
1103.000000	73.908943
1102.000000	73.895968
1101.000000	73.897706
1100.000000	73.865268
1099.000000	73.848817
1098.000000	73.821940
1097.000000	73.822287
1096.000000	73.796337
1095.000000	73.783825
1094.000000	73.736442
1093.000000	73.717327
1092.000000	73.703657
1091.000000	73.667164
1090.000000	73.621751
1089.000000	73.590355
1088.000000	73.581087
1087.000000	73.539033
1086.000000	73.508681
1085.000000	73.486901
1084.000000	73.435695
1083.000000	73.414263
1082.000000	73.387270
1081.000000	73.344173
1080.000000	73.319150
1079.000000	73.272926
1078.000000	73.242920
1077.000000	73.219982
1076.000000	73.177581
1075.000000	73.126491
1074.000000	73.080730
1073.000000	73.048524
1072.000000	73.020604
1071.000000	72.987123
1070.000000	72.944838
1069.000000	72.916802
1068.000000	72.895254
1067.000000	72.827945
1066.000000	72.790525
1065.000000	72.765386
1064.000000	72.720089
1063.000000	72.695297
1062.000000	72.669578
1061.000000	72.640268
1060.000000	72.588483
1059.000000	72.564618
1058.000000	72.541448
1057.000000	72.511674
1056.000000	72.466029
1055.000000	72.431158
1054.000000	72.404976
1053.000000	72.365934
1052.000000	72.333265
1051.000000	72.301985
1050.000000	72.281943
1049.000000	72.252517
1048.000000	72.215098
1047.000000	72.190769
1046.000000	72.172928
1045.000000	72.141880
1044.000000	72.116161
1043.000000	72.094845
1042.000000	72.059511
1041.000000	72.024292
1040.000000	72.002628
1039.000000	71.986525
1038.000000	71.948179
1037.000000	71.911918
1036.000000	71.887705
1035.000000	71.859437
1034.000000	71.827347
1033.000000	71.791781
1032.000000	71.770233
1031.000000	71.738374
1030.000000	71.712076
1029.000000	71.693192
1028.000000	71.638279
1027.000000	71.601787
1026.000000	71.571781
1025.000000	71.517448
1024.000000	71.484083
1023.000000	71.455700
1022.000000	71.416890
1021.000000	71.376806
1020.000000	71.342977
1019.000000	71.303936
1018.000000	71.272077
1017.000000	71.241377
1016.000000	71.201177
1015.000000	71.164336
1014.000000	71.135142
1013.000000	71.093668
1012.000000	71.066327
1011.000000	71.036554
1010.000000	70.997975
1009.000000	70.952562
1008.000000	70.913984
1007.000000	70.884558
1006.000000	70.858839
1005.000000	70.812499
1004.000000	70.764190
1003.000000	70.734996
1002.000000	70.698155
1001.000000	70.632236
1000.000000	70.589835
999.000000	70.552184
998.000000	70.538514
997.000000	70.505381
996.000000	70.442010
995.000000	70.378293
994.000000	70.358714
993.000000	70.338440
992.000000	70.284686
991.000000	70.247961
990.000000	70.230816
989.000000	70.194439
988.000000	70.162001
987.000000	70.122496
986.000000	70.091216
985.000000	70.074650
984.000000	70.074881
983.000000	70.023907
982.000000	69.990311
981.000000	70.003749
980.000000	69.969458
979.000000	69.959031
978.000000	69.947678
977.000000	69.958104
976.000000	69.935513
975.000000	69.943160
974.000000	69.937946
973.000000	69.948720
972.000000	69.939336
971.000000	69.946056
970.000000	69.950690
969.000000	69.954049
968.000000	69.983939
967.000000	70.005950
966.000000	70.029468
965.000000	70.029931
964.000000	70.059241
963.000000	70.082411
962.000000	70.087625
961.000000	70.131532
960.000000	70.138831
959.000000	70.156324
958.000000	70.199073
957.000000	70.232437
956.000000	70.233017
955.000000	70.277040
954.000000	70.305191
953.000000	70.329983
952.000000	70.383390
951.000000	70.393469
950.000000	70.428456
949.000000	70.408993
948.000000	70.428688
947.000000	70.465412
946.000000	70.496344
945.000000	70.500167
944.000000	70.540947
943.000000	70.525654
942.000000	70.510130
941.000000	70.531447
940.000000	70.526349
939.000000	70.564117
938.000000	70.573500
937.000000	70.561800
936.000000	70.567129
935.000000	70.593658
934.000000	70.643011
933.000000	70.646602
932.000000	70.650193
931.000000	70.659809
930.000000	70.731404
929.000000	70.736038
928.000000	70.757934
927.000000	70.820145
926.000000	70.847370
925.000000	70.857797
924.000000	70.890351
923.000000	70.915143
922.000000	70.981061
921.000000	71.078723
920.000000	71.102588
919.000000	71.144989
918.000000	71.191793
917.000000	71.245895
916.000000	71.290381
915.000000	71.365221
914.000000	71.429402
913.000000	71.480028
912.000000	71.575720
911.000000	71.646041
910.000000	71.711497
909.000000	71.789232
908.000000	71.956057
907.000000	72.008189
906.000000	72.058468
905.000000	72.119637
904.000000	72.216488
903.000000	72.273254
902.000000	72.327820
901.000000	72.408683
900.000000	72.453749
899.000000	72.505766
898.000000	72.494065
897.000000	72.541563
896.000000	72.591842
895.000000	72.608756
894.000000	72.605744
893.000000	72.629957
892.000000	72.553612
891.000000	72.565081
890.000000	72.578056
889.000000	72.551063
888.000000	72.468809
887.000000	72.452706
886.000000	72.415634
885.000000	72.341027
884.000000	72.177446
883.000000	72.052560
882.000000	71.894077
881.000000	71.735362
880.000000	71.504588
879.000000	71.418396
878.000000	71.239987
877.000000	70.974574
876.000000	70.766739
875.000000	70.413511
874.000000	70.139641
873.000000	69.652028
872.000000	69.231028
871.000000	68.884405
870.000000	68.308398
869.000000	67.692886
868.000000	67.059301
867.000000	66.522219
866.000000	66.282294
865.000000	66.320177
864.000000	66.412741
863.000000	66.540871
862.000000	66.626485
861.000000	66.718354
860.000000	66.812424
859.000000	66.863746
858.000000	68.892167
857.000000	69.088400
856.000000	68.339100
855.000000	69.249000
854.000000	69.272600
853.000000	69.176300
852.000000	69.600000
851.000000	69.449700
850.000000	69.587400
849.000000	69.713400
848.000000	70.016300
847.000000	70.324000
846.000000	70.501000
845.000000	70.526100
844.000000	70.538200
843.000000	70.732600
842.000000	70.761200
841.000000	70.758000
840.000000	70.641600
839.000000	70.903500
838.000000	71.006800
837.000000	71.120600
836.000000	71.115300
835.000000	71.054100
834.000000	71.168700
833.000000	71.463500
832.000000	71.175500
831.000000	71.144100
830.000000	71.447100
829.000000	71.606100
828.000000	71.503300
827.000000	71.324500
826.000000	71.335400
825.000000	71.264000
824.000000	71.203500
823.000000	71.236300
822.000000	71.079400
821.000000	71.046600
820.000000	71.070500
819.000000	71.121600
818.000000	71.128200
817.000000	70.904000
816.000000	71.072800
815.000000	70.953300
814.000000	70.833300
813.000000	70.764100
812.000000	70.777300
811.000000	70.727900
810.000000	70.732000
809.000000	70.637600
808.000000	70.622000
807.000000	70.585000
806.000000	70.417300
805.000000	70.343100
804.000000	70.293900
803.000000	70.220900
802.000000	70.134300
801.000000	70.086900
800.000000	70.136600
799.000000	69.961300
798.000000	69.944100
797.000000	69.819500
796.000000	69.753100
795.000000	69.726600
794.000000	69.613100
793.000000	69.674700
792.000000	69.574900
791.000000	69.479600
790.000000	69.348700
789.000000	69.267500
788.000000	69.199500
787.000000	69.124100
786.000000	68.957200
785.000000	68.776200
784.000000	68.704400
783.000000	68.519300
782.000000	68.421100
781.000000	68.307400
780.000000	68.238000
779.000000	68.175200
778.000000	67.995300
777.000000	67.804000
776.000000	67.658600
775.000000	67.541500
774.000000	67.521600
773.000000	67.392400
772.000000	67.172500
771.000000	66.973900
770.000000	66.857500
769.000000	66.623500
768.000000	66.444300
767.000000	66.337600
766.000000	66.222500
765.000000	66.062500
764.000000	65.918500
763.000000	65.802200
762.000000	65.656300
761.000000	65.513000
760.000000	65.376300
759.000000	65.242800
758.000000	65.131800
757.000000	65.070400
756.000000	64.927600
755.000000	64.791900
754.000000	64.793300
753.000000	64.632700
752.000000	64.589900
751.000000	64.608100
750.000000	64.486800
749.000000	64.365700
748.000000	64.245400
747.000000	64.169500
746.000000	64.069900
745.000000	64.006200
744.000000	63.899900
743.000000	63.838400
742.000000	63.839400
741.000000	63.768100
740.000000	63.678900
739.000000	63.670400
738.000000	63.645000
737.000000	63.560700
736.000000	63.557300
735.000000	63.463300
734.000000	63.351800
733.000000	63.334600
732.000000	63.283100
731.000000	63.203200
730.000000	63.161200
729.000000	63.172300
728.000000	63.093600
727.000000	62.993900
726.000000	62.917100
725.000000	62.793700
724.000000	62.681300
723.000000	62.670500
722.000000	62.597300
721.000000	62.460400
720.000000	62.325200
719.000000	62.251400
718.000000	62.118800
717.000000	62.007800
716.000000	61.863900
715.000000	61.719200
714.000000	61.564700
713.000000	61.448300
712.000000	61.249200
711.000000	61.061200
710.000000	60.964300
709.000000	60.773500
708.000000	60.549800
707.000000	60.384800
706.000000	60.224800
705.000000	60.028200
704.000000	59.846700
703.000000	59.714800
702.000000	59.562900
701.000000	59.416000
700.000000	59.272300
699.000000	59.098700
698.000000	58.967800
697.000000	58.862000
696.000000	58.777200
695.000000	58.691100
694.000000	58.618900
693.000000	58.547000
692.000000	58.468200
691.000000	58.468500
690.000000	58.413000
689.000000	58.385400
688.000000	58.313300
687.000000	58.301600
686.000000	58.339800
685.000000	58.304400
684.000000	58.308800
683.000000	58.281500
682.000000	58.273700
681.000000	58.251000
680.000000	58.238400
679.000000	58.238400
678.000000	58.272200
677.000000	58.267700
676.000000	58.282800
675.000000	58.234900
674.000000	58.241600
673.000000	58.188700
672.000000	58.172600
671.000000	58.146500
670.000000	58.112100
669.000000	58.077000
668.000000	57.963500
667.000000	57.825300
666.000000	57.726500
665.000000	57.584100
664.000000	57.393300
663.000000	57.182000
662.000000	57.004600
661.000000	56.737600
660.000000	56.550300
659.000000	56.236900
658.000000	55.915700
657.000000	55.577200
656.000000	55.267600
655.000000	54.909300
654.000000	54.542900
653.000000	54.197000
652.000000	53.870700
651.000000	53.436600
650.000000	53.034800
649.000000	52.718100
648.000000	52.326800
647.000000	51.980300
646.000000	51.592400
645.000000	51.225400
644.000000	50.934400
643.000000	50.613800
642.000000	50.281400
641.000000	50.030700
640.000000	49.844500
639.000000	49.666500
638.000000	49.567300
637.000000	49.497600
636.000000	49.518900
635.000000	49.564800
634.000000	49.727200
633.000000	49.948400
632.000000	50.260400
631.000000	50.596800
630.000000	50.970300
629.000000	51.457200
628.000000	51.935000
627.000000	52.405800
626.000000	52.887000
625.000000	53.454000
624.000000	53.949100
623.000000	54.508800
622.000000	55.008800
621.000000	55.506500
620.000000	56.011200
619.000000	56.456200
618.000000	56.906300
617.000000	57.360300
616.000000	57.806100
615.000000	58.226400
614.000000	58.693200
613.000000	59.132400
612.000000	59.639600
611.000000	60.173000
610.000000	60.644100
609.000000	61.160300
608.000000	61.638200
607.000000	62.066200
606.000000	62.516900
605.000000	62.959200
604.000000	63.408700
603.000000	63.770300
602.000000	64.133500
601.000000	64.480800
600.000000	64.815200
599.000000	65.040400
598.000000	65.290200
597.000000	65.543800
596.000000	65.674100
595.000000	65.839500
594.000000	66.014200
593.000000	66.196600
592.000000	66.391700
591.000000	66.514300
590.000000	66.666300
589.000000	66.785700
588.000000	66.924800
587.000000	67.026800
586.000000	67.140500
585.000000	67.194700
584.000000	67.375200
583.000000	67.461400
582.000000	67.532500
581.000000	67.688400
580.000000	67.836000
579.000000	67.941200
578.000000	68.099300
577.000000	68.206200
576.000000	68.335900
575.000000	68.395000
574.000000	68.539100
573.000000	68.633300
572.000000	68.708200
571.000000	68.769200
570.000000	68.804400
569.000000	68.816600
568.000000	68.824300
567.000000	68.781300
566.000000	68.718200
565.000000	68.614600
564.000000	68.515600
563.000000	68.356900
562.000000	68.207100
561.000000	68.091600
560.000000	67.933400
559.000000	67.713400
558.000000	67.587000
557.000000	67.463600
556.000000	67.293800
555.000000	67.077300
554.000000	66.900400
553.000000	66.664800
552.000000	66.400300
551.000000	66.092400
550.000000	65.729200
549.000000	65.309500
548.000000	64.853000
547.000000	64.296100
546.000000	63.749100
545.000000	63.061100
544.000000	62.357300
543.000000	61.591200
542.000000	60.782800
541.000000	59.915700
540.000000	59.003800
539.000000	58.081700
538.000000	57.141600
537.000000	56.207300
536.000000	55.272400
535.000000	54.314500
534.000000	53.362600
533.000000	52.425000
532.000000	51.491500
531.000000	50.616800
530.000000	49.759300
529.000000	48.932600
528.000000	48.134500
527.000000	47.336200
526.000000	46.571400
525.000000	45.825600
524.000000	45.093100
523.000000	44.348500
522.000000	43.649600
521.000000	42.966200
520.000000	42.272900
519.000000	41.595000
518.000000	40.979000
517.000000	40.389900
516.000000	39.778500
515.000000	39.183200
514.000000	38.598500
513.000000	38.043600
512.000000	37.495600
511.000000	36.979300
510.000000	36.495100
509.000000	36.010600
508.000000	35.551500
507.000000	35.139900
506.000000	34.743500
505.000000	34.351600
504.000000	33.960500
503.000000	33.586800
502.000000	33.202000
501.000000	32.862800
500.000000	32.514400
499.000000	32.177200
498.000000	31.840700
497.000000	31.536900
496.000000	31.168100
495.000000	30.806800
494.000000	30.428400
493.000000	30.081500
492.000000	29.720800
491.000000	29.356400
490.000000	28.979800
489.000000	28.595800
488.000000	28.231000
487.000000	27.853600
486.000000	27.480400
485.000000	27.125700
484.000000	26.764200
483.000000	26.426800
482.000000	26.069000
481.000000	25.728300
480.000000	25.394700
479.000000	25.091400
478.000000	24.789400
477.000000	24.501300
476.000000	24.226400
475.000000	23.963000
474.000000	23.710500
473.000000	23.480400
472.000000	23.278500
471.000000	23.068500
470.000000	22.845700
469.000000	22.656000
468.000000	22.462100
467.000000	22.266800
466.000000	22.083100
465.000000	21.891600
464.000000	21.702400
463.000000	21.494200
462.000000	21.270100
461.000000	21.028400
460.000000	20.773500
459.000000	20.526300
458.000000	20.251900
457.000000	19.963300
456.000000	19.659200
455.000000	19.329600
454.000000	18.980500
453.000000	18.606900
452.000000	18.245100
451.000000	17.882000
450.000000	17.511800
449.000000	17.151000
448.000000	16.796900
447.000000	16.467000
446.000000	16.157900
445.000000	15.870000
444.000000	15.603700
443.000000	15.357300
442.000000	15.140300
441.000000	14.963700
440.000000	14.816600
439.000000	14.706200
438.000000	14.605700
437.000000	14.550900
436.000000	14.551300
435.000000	14.543500
434.000000	14.538000
433.000000	14.559000
432.000000	14.616600
431.000000	14.662900
430.000000	14.696300
429.000000	14.759100
428.000000	14.834700
427.000000	14.893900
426.000000	14.941500
425.000000	14.992600
424.000000	15.032500
423.000000	15.076900
422.000000	15.102300
421.000000	15.117400
420.000000	15.129500
419.000000	15.121900
418.000000	15.087600
417.000000	15.064000
416.000000	15.019000
415.000000	14.950300
414.000000	14.889300
413.000000	14.806100
412.000000	14.684600
411.000000	14.596500
410.000000	14.498800
409.000000	14.390400
408.000000	14.265000
407.000000	14.131100
406.000000	13.982900
405.000000	13.816500
404.000000	13.641200
403.000000	13.453400
402.000000	13.280100
401.000000	13.075900
400.000000	12.877600
399.000000	12.661300
398.000000	12.449200
397.000000	12.218600
396.000000	11.970900
395.000000	11.711000
394.000000	11.451700
393.000000	11.209800
392.000000	10.949800
391.000000	10.680400
390.000000	10.402000
389.000000	10.149200
388.000000	9.889900
387.000000	9.613900
386.000000	9.376700
385.000000	9.119900
384.000000	8.873900
383.000000	8.642700
382.000000	8.415400
381.000000	8.220500
380.000000	8.003800
379.000000	7.807700
378.000000	7.645600
377.000000	7.479000
376.000000	7.329100
375.000000	6.744400
374.000000	6.580800
373.000000	6.615500
372.000000	6.316800
371.000000	6.479300
370.000000	6.371300
369.000000	6.422200
368.000000	6.380600
367.000000	6.227000
366.000000	6.101700
365.000000	6.183200
364.000000	6.176800
363.000000	6.046000
362.000000	6.017400
361.000000	6.103800
360.000000	6.132800
359.000000	6.014100
358.000000	5.983000
357.000000	5.907500
356.000000	5.797900
355.000000	5.719500
354.000000	5.873000
353.000000	5.813600
352.000000	5.926500
351.000000	5.741500
350.000000	5.698300
349.000000	5.643000
348.000000	5.673100
347.000000	5.818400
346.000000	5.800000
345.000000	5.756900
344.000000	5.716800
343.000000	5.811300
342.000000	5.777300
341.000000	5.747300
340.000000	5.900300
339.000000	5.731600
338.000000	5.703200
337.000000	5.976400
336.000000	5.837900
335.000000	5.632000
334.000000	6.118300
333.000000	5.958700
332.000000	5.883200
331.000000	5.668600
330.000000	5.779100
329.000000	5.933300
328.000000	5.833200
327.000000	5.803000
326.000000	6.335300
325.000000	5.988100
324.000000	5.860700
323.000000	5.707200
322.000000	5.788800
321.000000	6.072100
320.000000	6.476300
319.000000	6.600900
318.000000	6.470100
317.000000	6.650500
316.000000	5.780000
315.000000	5.730500
314.000000	5.748000
313.000000	5.678600
312.000000	5.700500
311.000000	5.734600
310.000000	5.748000
309.000000	5.713400
308.000000	5.650100
307.000000	5.670500
306.000000	5.682500
305.000000	5.730000
304.000000	5.692900
303.000000	5.698600
302.000000	5.664800
301.000000	5.696400
300.000000	5.714500
299.000000	5.685100
298.000000	5.684900
297.000000	5.720600
296.000000	5.686300
295.000000	5.732400
294.000000	5.679500
293.000000	5.633700
292.000000	5.718100
291.000000	5.691200
290.000000	5.706700
289.000000	5.665000
288.000000	5.760700
287.000000	5.737900
286.000000	5.764300
285.000000	5.748600
284.000000	5.754000
283.000000	5.730300
282.000000	5.744000
281.000000	5.721400
280.000000	5.863500
279.000000	5.800100
278.000000	5.753600
277.000000	5.861700
276.000000	5.830300
275.000000	5.855500
274.000000	5.847400
273.000000	5.886100
272.000000	5.893300
271.000000	5.968100
270.000000	5.942700
269.000000	5.939300
268.000000	6.033300
267.000000	6.032300
266.000000	6.067300
265.000000	6.009700
264.000000	6.080800
263.000000	6.120000
262.000000	6.064900
261.000000	6.147700
260.000000	6.205200
259.000000	6.252900
258.000000	6.254700
257.000000	6.227000
256.000000	6.301800
255.000000	6.274800
254.000000	6.247300
253.000000	6.322500
252.000000	6.338600
251.000000	6.361300
250.000000	6.370900
