PE UV       SUBTECH     SPECTRUM    ASCII       PEDS        4.00        
   -1
CICIMAUCR0071-1.Sample.ASC
24/04/18
15:05:09.00
24/04/18
15:05:09.00
Vinicio Soto Monge
C. resplendens
250,000000
1
Lambda 1050
1050L1511233
PerkinElmer UV WinLab 6.3.2.0749 / 2.02.05 Lambda 900 UV/VIS/NIR, Aug  7 2015 09:38:08

0
0
3350/servo 860,8/2
0
0
UV/VIS
1
1
1
DoubleDePol,CommonBeamDepol,RBeamAtt,SBeamAtt,60mm sphere, WB InGaAs Detector
0
0
0
0
Program
Program
3350/servo 860,8/2
3350/0,2 860,8/0,2
3350/0,2 860,8/0,2
0
15.00
 
 
 
0
 
860,8
319,2
860,8
Front
100
on
S:100 R:100
0
0
0
0
 
0
 
 
 
0
 
 
0
0
0
0
0
 
 
 
 
0
0


0
0
#HDR
-1
-1
#GR
nm
%R
1.0
0.0
2500,000000
-1,000000
2251
8
93,363700
5,885500
#DATA
2482.000000	15.441109
2481.000000	15.435535
2480.000000	15.468154
2479.000000	15.498089
2478.000000	15.501082
2477.000000	15.525237
2476.000000	15.557030
2475.000000	15.557959
2474.000000	15.607919
2473.000000	15.628668
2472.000000	15.626810
2471.000000	15.696279
2470.000000	15.731685
2469.000000	15.748821
2468.000000	15.799297
2467.000000	15.838316
2466.000000	15.872999
2465.000000	15.900044
2464.000000	15.972611
2463.000000	16.024636
2462.000000	16.068609
2461.000000	16.127034
2460.000000	16.175550
2459.000000	16.245845
2458.000000	16.319444
2457.000000	16.399443
2456.000000	16.467777
2455.000000	16.543028
2454.000000	16.639130
2453.000000	16.713142
2452.000000	16.810688
2451.000000	16.881707
2450.000000	16.976879
2449.000000	17.097445
2448.000000	17.204489
2447.000000	17.300281
2446.000000	17.393802
2445.000000	17.505491
2444.000000	17.602728
2443.000000	17.694391
2442.000000	17.820428
2441.000000	17.924994
2440.000000	18.044425
2439.000000	18.151984
2438.000000	18.244783
2437.000000	18.362768
2436.000000	18.475076
2435.000000	18.569217
2434.000000	18.650454
2433.000000	18.750995
2432.000000	18.866503
2431.000000	18.965804
2430.000000	19.058293
2429.000000	19.161827
2428.000000	19.226446
2427.000000	19.331321
2426.000000	19.424636
2425.000000	19.513512
2424.000000	19.596298
2423.000000	19.668349
2422.000000	19.700967
2421.000000	19.737922
2420.000000	19.756089
2419.000000	19.800166
2418.000000	19.863029
2417.000000	19.920938
2416.000000	19.978434
2415.000000	20.023130
2414.000000	20.052756
2413.000000	20.098690
2412.000000	20.147206
2411.000000	20.177038
2410.000000	20.193450
2409.000000	20.222250
2408.000000	20.251875
2407.000000	20.285836
2406.000000	20.304726
2405.000000	20.311745
2404.000000	20.322894
2403.000000	20.356854
2402.000000	20.394634
2401.000000	20.392363
2400.000000	20.405163
2399.000000	20.427150
2398.000000	20.432311
2397.000000	20.461937
2396.000000	20.450582
2395.000000	20.443356
2394.000000	20.480723
2393.000000	20.484233
2392.000000	20.465137
2391.000000	20.481549
2390.000000	20.483510
2389.000000	20.473704
2388.000000	20.487949
2387.000000	20.496826
2386.000000	20.485265
2385.000000	20.474530
2384.000000	20.487020
2383.000000	20.477730
2382.000000	20.453472
2381.000000	20.455537
2380.000000	20.436853
2379.000000	20.426324
2378.000000	20.418376
2377.000000	20.411563
2376.000000	20.398660
2375.000000	20.363977
2374.000000	20.346635
2373.000000	20.344261
2372.000000	20.308855
2371.000000	20.284391
2370.000000	20.284391
2369.000000	20.275617
2368.000000	20.266636
2367.000000	20.258275
2366.000000	20.248985
2365.000000	20.224624
2364.000000	20.213476
2363.000000	20.202431
2362.000000	20.188908
2361.000000	20.191696
2360.000000	20.176831
2359.000000	20.151851
2358.000000	20.121297
2357.000000	20.090123
2356.000000	20.079284
2355.000000	20.061014
2354.000000	20.039337
2353.000000	20.016008
2352.000000	19.986486
2351.000000	19.961815
2350.000000	19.911132
2349.000000	19.879029
2348.000000	19.861481
2347.000000	19.848268
2346.000000	19.812450
2345.000000	19.784063
2344.000000	19.783650
2343.000000	19.772192
2342.000000	19.747212
2341.000000	19.747418
2340.000000	19.731728
2339.000000	19.711600
2338.000000	19.698696
2337.000000	19.687135
2336.000000	19.681045
2335.000000	19.677019
2334.000000	19.688064
2333.000000	19.688993
2332.000000	19.684761
2331.000000	19.687445
2330.000000	19.707161
2329.000000	19.705406
2328.000000	19.707367
2327.000000	19.705303
2326.000000	19.723057
2325.000000	19.743083
2324.000000	19.757328
2323.000000	19.762489
2322.000000	19.747418
2321.000000	19.760631
2320.000000	19.744528
2319.000000	19.726361
2318.000000	19.701174
2317.000000	19.652452
2316.000000	19.616220
2315.000000	19.589795
2314.000000	19.539318
2313.000000	19.486055
2312.000000	19.444868
2311.000000	19.402546
2310.000000	19.338960
2309.000000	19.316767
2308.000000	19.282600
2307.000000	19.249774
2306.000000	19.221078
2305.000000	19.201569
2304.000000	19.183711
2303.000000	19.163066
2302.000000	19.157905
2301.000000	19.149337
2300.000000	19.141698
2299.000000	19.142524
2298.000000	19.137879
2297.000000	19.148821
2296.000000	19.156150
2295.000000	19.160176
2294.000000	19.173801
2293.000000	19.203427
2292.000000	19.219013
2291.000000	19.245852
2290.000000	19.275167
2289.000000	19.307167
2288.000000	19.335244
2287.000000	19.358160
2286.000000	19.404817
2285.000000	19.435268
2284.000000	19.465616
2283.000000	19.490080
2282.000000	19.533538
2281.000000	19.546234
2280.000000	19.614466
2279.000000	19.629639
2278.000000	19.648942
2277.000000	19.669071
2276.000000	19.691368
2275.000000	19.712529
2274.000000	19.722851
2273.000000	19.767341
2272.000000	19.781998
2271.000000	19.818437
2270.000000	19.828862
2269.000000	19.876449
2268.000000	19.909480
2267.000000	19.948809
2266.000000	20.011156
2265.000000	20.060704
2264.000000	20.140909
2263.000000	20.208728
2262.000000	20.291307
2261.000000	20.381835
2260.000000	20.489497
2259.000000	20.624721
2258.000000	20.737132
2257.000000	20.860382
2256.000000	21.020380
2255.000000	21.165410
2254.000000	21.333975
2253.000000	21.468992
2252.000000	21.611855
2251.000000	21.781349
2250.000000	21.960443
2249.000000	22.101241
2248.000000	22.210349
2247.000000	22.355173
2246.000000	22.486680
2245.000000	22.606317
2244.000000	22.724199
2243.000000	22.835888
2242.000000	22.912171
2241.000000	22.992582
2240.000000	23.063704
2239.000000	23.126671
2238.000000	23.176218
2237.000000	23.200166
2236.000000	23.247856
2235.000000	23.278204
2234.000000	23.285429
2233.000000	23.295855
2232.000000	23.295752
2231.000000	23.277688
2230.000000	23.249198
2229.000000	23.198308
2228.000000	23.179625
2227.000000	23.135445
2226.000000	23.099523
2225.000000	23.060710
2224.000000	23.008066
2223.000000	22.933332
2222.000000	22.844456
2221.000000	22.761050
2220.000000	22.681877
2219.000000	22.611994
2218.000000	22.529622
2217.000000	22.456332
2216.000000	22.356102
2215.000000	22.290967
2214.000000	22.178453
2213.000000	22.102892
2212.000000	22.054274
2211.000000	21.977991
2210.000000	21.902947
2209.000000	21.826664
2208.000000	21.765659
2207.000000	21.685247
2206.000000	21.628887
2205.000000	21.578307
2204.000000	21.517301
2203.000000	21.458670
2202.000000	21.420580
2201.000000	21.376400
2200.000000	21.315911
2199.000000	21.264092
2198.000000	21.228067
2197.000000	21.178106
2196.000000	21.138262
2195.000000	21.096456
2194.000000	21.063011
2193.000000	21.037515
2192.000000	21.003761
2191.000000	20.981361
2190.000000	20.939349
2189.000000	20.911788
2188.000000	20.905182
2187.000000	20.893517
2186.000000	20.853466
2185.000000	20.819609
2184.000000	20.805777
2183.000000	20.772538
2182.000000	20.747352
2181.000000	20.740126
2180.000000	20.705752
2179.000000	20.675920
2178.000000	20.670140
2177.000000	20.664772
2176.000000	20.660230
2175.000000	20.652282
2174.000000	20.652489
2173.000000	20.643405
2172.000000	20.664050
2171.000000	20.677675
2170.000000	20.699352
2169.000000	20.721236
2168.000000	20.739610
2167.000000	20.762526
2166.000000	20.825699
2165.000000	20.856253
2164.000000	20.901053
2163.000000	20.962058
2162.000000	21.009851
2161.000000	21.058263
2160.000000	21.137643
2159.000000	21.203190
2158.000000	21.278957
2157.000000	21.371136
2156.000000	21.448244
2155.000000	21.552707
2154.000000	21.647157
2153.000000	21.746149
2152.000000	21.851025
2151.000000	21.958688
2150.000000	22.062325
2149.000000	22.192078
2148.000000	22.324928
2147.000000	22.417417
2146.000000	22.529622
2145.000000	22.645439
2144.000000	22.759708
2143.000000	22.866855
2142.000000	22.980505
2141.000000	23.083110
2140.000000	23.186850
2139.000000	23.286255
2138.000000	23.389686
2137.000000	23.483207
2136.000000	23.569709
2135.000000	23.675101
2134.000000	23.774093
2133.000000	23.851718
2132.000000	23.911897
2131.000000	23.986116
2130.000000	24.076953
2129.000000	24.147146
2128.000000	24.195764
2127.000000	24.264924
2126.000000	24.309827
2125.000000	24.358549
2124.000000	24.420483
2123.000000	24.461876
2122.000000	24.503476
2121.000000	24.535475
2120.000000	24.566133
2119.000000	24.598029
2118.000000	24.635190
2117.000000	24.649641
2116.000000	24.671009
2115.000000	24.685460
2114.000000	24.694750
2113.000000	24.708995
2112.000000	24.713331
2111.000000	24.723963
2110.000000	24.735730
2109.000000	24.740375
2108.000000	24.738104
2107.000000	24.730259
2106.000000	24.737588
2105.000000	24.733356
2104.000000	24.729124
2103.000000	24.726027
2102.000000	24.720143
2101.000000	24.717563
2100.000000	24.720143
2099.000000	24.710647
2098.000000	24.708582
2097.000000	24.715085
2096.000000	24.723756
2095.000000	24.730569
2094.000000	24.742543
2093.000000	24.762878
2092.000000	24.777433
2091.000000	24.798697
2090.000000	24.810361
2089.000000	24.824090
2088.000000	24.845354
2087.000000	24.842877
2086.000000	24.851135
2085.000000	24.855780
2084.000000	24.839471
2083.000000	24.805716
2082.000000	24.781459
2081.000000	24.761330
2080.000000	24.735421
2079.000000	24.700634
2078.000000	24.647164
2077.000000	24.585229
2076.000000	24.509566
2075.000000	24.438135
2074.000000	24.358652
2073.000000	24.258524
2072.000000	24.159223
2071.000000	24.067973
2070.000000	23.956387
2069.000000	23.834479
2068.000000	23.728881
2067.000000	23.619153
2066.000000	23.485168
2065.000000	23.361093
2064.000000	23.245895
2063.000000	23.127187
2062.000000	23.010337
2061.000000	22.892352
2060.000000	22.770547
2059.000000	22.705206
2058.000000	22.620459
2057.000000	22.540150
2056.000000	22.476564
2055.000000	22.438887
2054.000000	22.402140
2053.000000	22.403791
2052.000000	22.421133
2051.000000	22.462939
2050.000000	22.499274
2049.000000	22.579066
2048.000000	22.674032
2047.000000	22.771579
2046.000000	22.884919
2045.000000	23.016117
2044.000000	23.144115
2043.000000	23.287184
2042.000000	23.431801
2041.000000	23.562380
2040.000000	23.707617
2039.000000	23.853473
2038.000000	23.975484
2037.000000	24.109159
2036.000000	24.229931
2035.000000	24.332949
2034.000000	24.459605
2033.000000	24.568817
2032.000000	24.666570
2031.000000	24.755240
2030.000000	24.844012
2029.000000	24.932063
2028.000000	24.997507
2027.000000	25.059441
2026.000000	25.137273
2025.000000	25.196110
2024.000000	25.257632
2023.000000	25.326483
2022.000000	25.366430
2021.000000	25.407204
2020.000000	25.455100
2019.000000	25.481113
2018.000000	25.503512
2017.000000	25.518686
2016.000000	25.524983
2015.000000	25.552750
2014.000000	25.553163
2013.000000	25.525809
2012.000000	25.521370
2011.000000	25.498867
2010.000000	25.496699
2009.000000	25.466145
2008.000000	25.418042
2007.000000	25.391927
2006.000000	25.365398
2005.000000	25.309967
2004.000000	25.259800
2003.000000	25.175053
2002.000000	25.102383
2001.000000	25.044061
2000.000000	24.943417
1999.000000	24.869715
1998.000000	24.802310
1997.000000	24.700531
1996.000000	24.611345
1995.000000	24.515656
1994.000000	24.423890
1993.000000	24.309724
1992.000000	24.183171
1991.000000	24.097908
1990.000000	23.984154
1989.000000	23.873704
1988.000000	23.753655
1987.000000	23.663333
1986.000000	23.536884
1985.000000	23.418795
1984.000000	23.309790
1983.000000	23.198102
1982.000000	23.040169
1981.000000	22.938906
1980.000000	22.837849
1979.000000	22.725644
1978.000000	22.598679
1977.000000	22.493287
1976.000000	22.383559
1975.000000	22.268464
1974.000000	22.149137
1973.000000	22.048287
1972.000000	21.967462
1971.000000	21.842974
1970.000000	21.760188
1969.000000	21.645299
1968.000000	21.520708
1967.000000	21.433174
1966.000000	21.349149
1965.000000	21.240041
1964.000000	21.146726
1963.000000	21.068689
1962.000000	20.964123
1961.000000	20.885569
1960.000000	20.775635
1959.000000	20.677159
1958.000000	20.589728
1957.000000	20.490633
1956.000000	20.401034
1955.000000	20.306481
1954.000000	20.220289
1953.000000	20.127077
1952.000000	20.047182
1951.000000	19.947673
1950.000000	19.871184
1949.000000	19.769095
1948.000000	19.747418
1947.000000	19.661536
1946.000000	19.598879
1945.000000	19.554286
1944.000000	19.494416
1943.000000	19.457978
1942.000000	19.422159
1941.000000	19.384688
1940.000000	19.380456
1939.000000	19.366005
1938.000000	19.356095
1937.000000	19.346289
1936.000000	19.347528
1935.000000	19.375192
1934.000000	19.392740
1933.000000	19.436920
1932.000000	19.468506
1931.000000	19.564711
1930.000000	19.638207
1929.000000	19.727290
1928.000000	19.846927
1927.000000	19.936938
1926.000000	20.055027
1925.000000	20.161967
1924.000000	20.287694
1923.000000	20.428285
1922.000000	20.637624
1921.000000	20.830860
1920.000000	21.057437
1919.000000	21.254079
1918.000000	21.450515
1917.000000	21.631880
1916.000000	21.870844
1915.000000	22.129731
1914.000000	22.439300
1913.000000	22.790985
1912.000000	23.117793
1911.000000	23.437169
1910.000000	23.764596
1909.000000	24.067044
1908.000000	24.445051
1907.000000	24.867960
1906.000000	25.355076
1905.000000	25.937054
1904.000000	26.478259
1903.000000	26.941529
1902.000000	27.471070
1901.000000	28.004636
1900.000000	28.623568
1899.000000	29.267997
1898.000000	29.866492
1897.000000	30.499566
1896.000000	31.075970
1895.000000	31.628633
1894.000000	32.237965
1893.000000	32.872795
1892.000000	33.562745
1891.000000	34.260438
1890.000000	34.888248
1889.000000	35.474459
1888.000000	36.080178
1887.000000	36.639654
1886.000000	37.184575
1885.000000	37.720412
1884.000000	38.273384
1883.000000	38.785583
1882.000000	39.224389
1881.000000	39.669182
1880.000000	40.087241
1879.000000	40.484138
1878.000000	40.860700
1877.000000	41.231998
1876.000000	41.600611
1875.000000	41.941458
1874.000000	42.251337
1873.000000	42.550687
1872.000000	42.830012
1871.000000	43.066912
1870.000000	43.257361
1869.000000	43.407758
1868.000000	43.564246
1867.000000	43.688735
1866.000000	43.767804
1865.000000	43.848732
1864.000000	43.953092
1863.000000	44.081090
1862.000000	44.210843
1861.000000	44.328312
1860.000000	44.448465
1859.000000	44.541573
1858.000000	44.605160
1857.000000	44.654914
1856.000000	44.709829
1855.000000	44.758241
1854.000000	44.795092
1853.000000	44.788073
1852.000000	44.798395
1851.000000	44.852278
1850.000000	44.940019
1849.000000	45.009489
1848.000000	44.994831
1847.000000	44.923710
1846.000000	44.828537
1845.000000	44.774241
1844.000000	44.794679
1843.000000	44.838137
1842.000000	44.873749
1841.000000	44.847530
1840.000000	44.787350
1839.000000	44.735222
1838.000000	44.695997
1837.000000	44.641082
1836.000000	44.564386
1835.000000	44.490787
1834.000000	44.409653
1833.000000	44.355357
1832.000000	44.333577
1831.000000	44.324080
1830.000000	44.282584
1829.000000	44.239643
1828.000000	44.187618
1827.000000	44.129193
1826.000000	44.094716
1825.000000	44.048781
1824.000000	44.029788
1823.000000	44.071077
1822.000000	44.133734
1821.000000	44.142921
1820.000000	44.104832
1819.000000	44.052600
1818.000000	44.011207
1817.000000	44.008111
1816.000000	44.010588
1815.000000	43.986227
1814.000000	43.955363
1813.000000	43.949169
1812.000000	43.939983
1811.000000	43.902306
1810.000000	43.852861
1809.000000	43.822926
1808.000000	43.798875
1807.000000	43.777198
1806.000000	43.751495
1805.000000	43.697922
1804.000000	43.661174
1803.000000	43.666748
1802.000000	43.678206
1801.000000	43.644452
1800.000000	43.580143
1799.000000	43.531111
1798.000000	43.513563
1797.000000	43.502208
1796.000000	43.480738
1795.000000	43.466493
1794.000000	43.434287
1793.000000	43.408997
1792.000000	43.389075
1791.000000	43.382262
1790.000000	43.380714
1789.000000	43.383088
1788.000000	43.371114
1787.000000	43.384326
1786.000000	43.398158
1785.000000	43.397023
1784.000000	43.387010
1783.000000	43.380920
1782.000000	43.377926
1781.000000	43.363578
1780.000000	43.341901
1779.000000	43.317127
1778.000000	43.288844
1777.000000	43.251786
1776.000000	43.208329
1775.000000	43.157852
1774.000000	43.112331
1773.000000	43.067531
1772.000000	43.001158
1771.000000	42.960901
1770.000000	42.899689
1769.000000	42.857986
1768.000000	42.802555
1767.000000	42.761368
1766.000000	42.697163
1765.000000	42.641215
1764.000000	42.621602
1763.000000	42.612932
1762.000000	42.592803
1761.000000	42.603435
1760.000000	42.609938
1759.000000	42.619125
1758.000000	42.618609
1757.000000	42.631615
1756.000000	42.656183
1755.000000	42.671769
1754.000000	42.678789
1753.000000	42.679614
1752.000000	42.691382
1751.000000	42.686014
1750.000000	42.671357
1749.000000	42.648028
1748.000000	42.621499
1747.000000	42.583719
1746.000000	42.520339
1745.000000	42.440960
1744.000000	42.353013
1743.000000	42.285401
1742.000000	42.178874
1741.000000	42.076269
1740.000000	41.968090
1739.000000	41.857846
1738.000000	41.751319
1737.000000	41.633953
1736.000000	41.548690
1735.000000	41.457233
1734.000000	41.335944
1733.000000	41.255636
1732.000000	41.154270
1731.000000	41.060955
1730.000000	40.983640
1729.000000	40.906841
1728.000000	40.841191
1727.000000	40.787617
1726.000000	40.743231
1725.000000	40.717115
1724.000000	40.702251
1723.000000	40.728470
1722.000000	40.810120
1721.000000	40.934299
1720.000000	41.105238
1719.000000	41.314061
1718.000000	41.548380
1717.000000	41.809434
1716.000000	42.056966
1715.000000	42.291904
1714.000000	42.537475
1713.000000	42.757136
1712.000000	42.953468
1711.000000	43.115634
1710.000000	43.263864
1709.000000	43.422106
1708.000000	43.548866
1707.000000	43.660864
1706.000000	43.754901
1705.000000	43.840371
1704.000000	43.902822
1703.000000	43.959595
1702.000000	44.018330
1701.000000	44.053736
1700.000000	44.073864
1699.000000	44.104109
1698.000000	44.128883
1697.000000	44.111644
1696.000000	44.089348
1695.000000	44.019362
1694.000000	43.952782
1693.000000	43.879080
1692.000000	43.784630
1691.000000	43.672735
1690.000000	43.595420
1689.000000	43.533176
1688.000000	43.525021
1687.000000	43.565485
1686.000000	43.681406
1685.000000	43.817042
1684.000000	44.012033
1683.000000	44.232210
1682.000000	44.468800
1681.000000	44.716435
1680.000000	44.972948
1679.000000	45.202725
1678.000000	45.399677
1677.000000	45.610151
1676.000000	45.803490
1675.000000	45.987332
1674.000000	46.159097
1673.000000	46.338708
1672.000000	46.532460
1671.000000	46.714754
1670.000000	46.895190
1669.000000	47.083264
1668.000000	47.315106
1667.000000	47.483671
1666.000000	47.649140
1665.000000	47.834530
1664.000000	47.993186
1663.000000	48.165983
1662.000000	48.322162
1661.000000	48.454495
1660.000000	48.606132
1659.000000	48.738465
1658.000000	48.860992
1657.000000	48.953688
1656.000000	49.049686
1655.000000	49.138769
1654.000000	49.190690
1653.000000	49.240135
1652.000000	49.281218
1651.000000	49.325295
1650.000000	49.355436
1649.000000	49.367823
1648.000000	49.377320
1647.000000	49.375255
1646.000000	49.369578
1645.000000	49.374326
1644.000000	49.370094
1643.000000	49.361733
1642.000000	49.367720
1641.000000	49.374017
1640.000000	49.369785
1639.000000	49.363075
1638.000000	49.357914
1637.000000	49.329734
1636.000000	49.319824
1635.000000	49.308779
1634.000000	49.282663
1633.000000	49.255206
1632.000000	49.222587
1631.000000	49.174071
1630.000000	49.150227
1629.000000	49.109969
1628.000000	49.080963
1627.000000	49.030074
1626.000000	48.980423
1625.000000	48.942849
1624.000000	48.900940
1623.000000	48.860579
1622.000000	48.808038
1621.000000	48.765407
1620.000000	48.735884
1619.000000	48.697898
1618.000000	48.667653
1617.000000	48.603344
1616.000000	48.558442
1615.000000	48.511578
1614.000000	48.470701
1613.000000	48.422702
1612.000000	48.379554
1611.000000	48.339607
1610.000000	48.276846
1609.000000	48.201183
1608.000000	48.127894
1607.000000	48.056153
1606.000000	47.983896
1605.000000	47.900284
1604.000000	47.814814
1603.000000	47.723771
1602.000000	47.627772
1601.000000	47.552831
1600.000000	47.475516
1599.000000	47.394589
1598.000000	47.296732
1597.000000	47.210953
1596.000000	47.142308
1595.000000	47.082025
1594.000000	47.002233
1593.000000	46.934415
1592.000000	46.871861
1591.000000	46.797643
1590.000000	46.734469
1589.000000	46.681619
1588.000000	46.622471
1587.000000	46.561982
1586.000000	46.510163
1585.000000	46.443583
1584.000000	46.386604
1583.000000	46.338088
1582.000000	46.283070
1581.000000	46.220000
1580.000000	46.169730
1579.000000	46.127924
1578.000000	46.090144
1577.000000	46.064338
1576.000000	46.038325
1575.000000	46.018919
1574.000000	45.999513
1573.000000	45.993010
1572.000000	45.984132
1571.000000	45.981861
1570.000000	45.983410
1569.000000	45.978558
1568.000000	45.980932
1567.000000	45.994558
1566.000000	46.009526
1565.000000	46.023874
1564.000000	46.028828
1563.000000	46.030686
1562.000000	46.032338
1561.000000	46.019229
1560.000000	45.996726
1559.000000	45.972262
1558.000000	45.936856
1557.000000	45.898559
1556.000000	45.854483
1555.000000	45.794613
1554.000000	45.726485
1553.000000	45.647621
1552.000000	45.566693
1551.000000	45.470076
1550.000000	45.384090
1549.000000	45.296865
1548.000000	45.204686
1547.000000	45.120042
1546.000000	45.041385
1545.000000	44.970883
1544.000000	44.908226
1543.000000	44.853207
1542.000000	44.791273
1541.000000	44.746474
1540.000000	44.708487
1539.000000	44.665855
1538.000000	44.626424
1537.000000	44.585444
1536.000000	44.521445
1535.000000	44.466529
1534.000000	44.421317
1533.000000	44.362892
1532.000000	44.315822
1531.000000	44.250791
1530.000000	44.188856
1529.000000	44.127438
1528.000000	44.055387
1527.000000	44.001091
1526.000000	43.939363
1525.000000	43.877016
1524.000000	43.802385
1523.000000	43.730644
1522.000000	43.652193
1521.000000	43.593459
1520.000000	43.538853
1519.000000	43.467215
1518.000000	43.386597
1517.000000	43.314960
1516.000000	43.233825
1515.000000	43.146498
1514.000000	43.069802
1513.000000	42.981752
1512.000000	42.907017
1511.000000	42.821032
1510.000000	42.726581
1509.000000	42.649267
1508.000000	42.585990
1507.000000	42.498043
1506.000000	42.416083
1505.000000	42.335258
1504.000000	42.263827
1503.000000	42.180525
1502.000000	42.107030
1501.000000	42.048398
1500.000000	41.998231
1499.000000	41.940426
1498.000000	41.893046
1497.000000	41.859704
1496.000000	41.834930
1495.000000	41.815834
1494.000000	41.792815
1493.000000	41.787860
1492.000000	41.772789
1491.000000	41.774544
1490.000000	41.768351
1489.000000	41.789718
1488.000000	41.786828
1487.000000	41.804273
1486.000000	41.803860
1485.000000	41.812015
1484.000000	41.802931
1483.000000	41.831524
1482.000000	41.855678
1481.000000	41.868685
1480.000000	41.894078
1479.000000	41.895729
1478.000000	41.924323
1477.000000	41.954361
1476.000000	41.983780
1475.000000	42.026515
1474.000000	42.089275
1473.000000	42.161842
1472.000000	42.234408
1471.000000	42.291388
1470.000000	42.363542
1469.000000	42.388006
1468.000000	42.468418
1467.000000	42.572984
1466.000000	42.667950
1465.000000	42.745678
1464.000000	42.817832
1463.000000	42.898966
1462.000000	43.004358
1461.000000	43.087970
1460.000000	43.185104
1459.000000	43.279863
1458.000000	43.377307
1457.000000	43.489099
1456.000000	43.582414
1455.000000	43.687806
1454.000000	43.799598
1453.000000	43.903854
1452.000000	44.053632
1451.000000	44.172237
1450.000000	44.253578
1449.000000	44.334402
1448.000000	44.420698
1447.000000	44.582347
1446.000000	44.697958
1445.000000	44.811608
1444.000000	44.908742
1443.000000	45.011037
1442.000000	45.159577
1441.000000	45.291911
1440.000000	45.414644
1439.000000	45.549042
1438.000000	45.708627
1437.000000	45.839412
1436.000000	45.989603
1435.000000	46.137833
1434.000000	46.338708
1433.000000	46.526060
1432.000000	46.705257
1431.000000	46.873306
1430.000000	47.067264
1429.000000	47.289403
1428.000000	47.524445
1427.000000	47.750609
1426.000000	47.975431
1425.000000	48.290162
1424.000000	48.586106
1423.000000	48.871521
1422.000000	49.133091
1421.000000	49.448029
1420.000000	49.840074
1419.000000	50.200637
1418.000000	50.516399
1417.000000	50.773841
1416.000000	51.208415
1415.000000	51.654240
1414.000000	52.116995
1413.000000	52.492834
1412.000000	52.908105
1411.000000	53.347841
1410.000000	53.894413
1409.000000	54.443773
1408.000000	54.930681
1407.000000	55.431629
1406.000000	55.920395
1405.000000	56.441575
1404.000000	56.884407
1403.000000	57.406205
1402.000000	57.903024
1401.000000	58.515660
1400.000000	59.064090
1399.000000	59.404936
1398.000000	59.711925
1397.000000	60.215350
1396.000000	60.760374
1395.000000	61.204135
1394.000000	61.516492
1393.000000	61.860435
1392.000000	62.257229
1391.000000	62.615830
1390.000000	62.961838
1389.000000	63.384644
1388.000000	63.830986
1387.000000	64.183084
1386.000000	64.527749
1385.000000	64.873344
1384.000000	65.287067
1383.000000	65.572585
1382.000000	65.851910
1381.000000	65.996424
1380.000000	66.098100
1379.000000	66.313632
1378.000000	66.482817
1377.000000	66.637137
1376.000000	66.797960
1375.000000	66.948358
1374.000000	67.065208
1373.000000	67.258547
1372.000000	67.467370
1371.000000	67.628606
1370.000000	67.758152
1369.000000	67.926511
1368.000000	68.128521
1367.000000	68.229474
1366.000000	68.375950
1365.000000	68.560102
1364.000000	68.657442
1363.000000	68.768821
1362.000000	68.939244
1361.000000	69.023062
1360.000000	69.047630
1359.000000	69.115035
1358.000000	69.212272
1357.000000	69.329845
1356.000000	69.475907
1355.000000	69.656343
1354.000000	69.819231
1353.000000	69.947023
1352.000000	70.139226
1351.000000	70.376952
1350.000000	70.606729
1349.000000	70.850132
1348.000000	71.133172
1347.000000	71.380085
1346.000000	71.586637
1345.000000	71.807124
1344.000000	72.048668
1343.000000	72.265955
1342.000000	72.459707
1341.000000	72.660375
1340.000000	72.853921
1339.000000	73.038692
1338.000000	73.207361
1337.000000	73.372932
1336.000000	73.544078
1335.000000	73.707895
1334.000000	73.859531
1333.000000	73.995581
1332.000000	74.144637
1331.000000	74.261693
1330.000000	74.376995
1329.000000	74.497664
1328.000000	74.593869
1327.000000	74.692654
1326.000000	74.782666
1325.000000	74.867826
1324.000000	74.950405
1323.000000	75.043926
1322.000000	75.122274
1321.000000	75.189473
1320.000000	75.261317
1319.000000	75.320774
1318.000000	75.374657
1317.000000	75.438966
1316.000000	75.515352
1315.000000	75.583583
1314.000000	75.644382
1313.000000	75.694136
1312.000000	75.728200
1311.000000	75.768664
1310.000000	75.823166
1309.000000	75.859295
1308.000000	75.884791
1307.000000	75.931552
1306.000000	75.964274
1305.000000	75.976454
1304.000000	75.993486
1303.000000	76.022802
1302.000000	76.053253
1301.000000	76.054285
1300.000000	76.055008
1299.000000	76.068943
1298.000000	76.061924
1297.000000	76.049124
1296.000000	76.049950
1295.000000	76.050776
1294.000000	76.045821
1293.000000	76.027241
1292.000000	75.997202
1291.000000	75.980170
1290.000000	75.962932
1289.000000	75.932378
1288.000000	75.909358
1287.000000	75.877875
1286.000000	75.838650
1285.000000	75.811605
1284.000000	75.780328
1283.000000	75.741000
1282.000000	75.703426
1281.000000	75.665336
1280.000000	75.630034
1279.000000	75.607015
1278.000000	75.592357
1277.000000	75.579660
1276.000000	75.572744
1275.000000	75.560770
1274.000000	75.553751
1273.000000	75.563144
1272.000000	75.571093
1271.000000	75.574396
1270.000000	75.591221
1269.000000	75.604847
1268.000000	75.602060
1267.000000	75.609286
1266.000000	75.617337
1265.000000	75.624356
1264.000000	75.629001
1263.000000	75.634472
1262.000000	75.633440
1261.000000	75.624253
1260.000000	75.625905
1259.000000	75.624047
1258.000000	75.624666
1257.000000	75.622911
1256.000000	75.621673
1255.000000	75.585338
1254.000000	75.570680
1253.000000	75.575944
1252.000000	75.545183
1251.000000	75.487378
1250.000000	75.446191
1249.000000	75.391792
1248.000000	75.330580
1247.000000	75.250478
1246.000000	75.186066
1245.000000	75.120106
1244.000000	75.038043
1243.000000	74.967850
1242.000000	74.895800
1241.000000	74.817349
1240.000000	74.756757
1239.000000	74.670977
1238.000000	74.612965
1237.000000	74.553302
1236.000000	74.481664
1235.000000	74.416323
1234.000000	74.356246
1233.000000	74.274803
1232.000000	74.209358
1231.000000	74.149282
1230.000000	74.068148
1229.000000	74.003632
1228.000000	73.935298
1227.000000	73.854164
1226.000000	73.775920
1225.000000	73.689624
1224.000000	73.606013
1223.000000	73.530865
1222.000000	73.451176
1221.000000	73.359410
1220.000000	73.270431
1219.000000	73.189709
1218.000000	73.090304
1217.000000	73.022692
1216.000000	72.956422
1215.000000	72.897585
1214.000000	72.818618
1213.000000	72.755238
1212.000000	72.699704
1211.000000	72.633227
1210.000000	72.568093
1209.000000	72.497178
1208.000000	72.417695
1207.000000	72.334600
1206.000000	72.301877
1205.000000	72.242730
1204.000000	72.201853
1203.000000	72.108229
1202.000000	72.059507
1201.000000	71.984050
1200.000000	71.929857
1199.000000	71.877213
1198.000000	71.805678
1197.000000	71.736828
1196.000000	71.645681
1195.000000	71.557837
1194.000000	71.473090
1193.000000	71.391749
1192.000000	71.299467
1191.000000	71.225868
1190.000000	71.168475
1189.000000	71.113353
1188.000000	71.071960
1187.000000	71.069690
1186.000000	71.054619
1185.000000	71.071548
1184.000000	71.106024
1183.000000	71.157843
1182.000000	71.213687
1181.000000	71.265506
1180.000000	71.341479
1179.000000	71.430768
1178.000000	71.477529
1177.000000	71.561140
1176.000000	71.612959
1175.000000	71.694609
1174.000000	71.773989
1173.000000	71.832310
1172.000000	71.905909
1171.000000	72.011817
1170.000000	72.101932
1169.000000	72.229930
1168.000000	72.334083
1167.000000	72.467036
1166.000000	72.620840
1165.000000	72.809121
1164.000000	72.949506
1163.000000	73.130046
1162.000000	73.287463
1161.000000	73.462324
1160.000000	73.614374
1159.000000	73.798939
1158.000000	73.947891
1157.000000	74.096534
1156.000000	74.225461
1155.000000	74.368014
1154.000000	74.491986
1153.000000	74.610901
1152.000000	74.700499
1151.000000	74.794846
1150.000000	74.867206
1149.000000	74.946586
1148.000000	75.036081
1147.000000	75.137551
1146.000000	75.222195
1145.000000	75.304155
1144.000000	75.351328
1143.000000	75.443817
1142.000000	75.524951
1141.000000	75.641595
1140.000000	75.738935
1139.000000	75.817386
1138.000000	75.947861
1137.000000	76.100839
1136.000000	76.271469
1135.000000	76.384190
1134.000000	76.516627
1133.000000	76.550071
1132.000000	76.640909
1131.000000	76.762920
1130.000000	76.879254
1129.000000	76.951511
1128.000000	77.011897
1127.000000	77.067431
1126.000000	77.128540
1125.000000	77.165081
1124.000000	77.189649
1123.000000	77.238990
1122.000000	77.248074
1121.000000	77.222681
1120.000000	77.227842
1119.000000	77.213700
1118.000000	77.192229
1117.000000	77.177572
1116.000000	77.152488
1115.000000	77.130295
1114.000000	77.096231
1113.000000	77.080954
1112.000000	77.063199
1111.000000	77.024697
1110.000000	76.994658
1109.000000	76.965136
1108.000000	76.919511
1107.000000	76.891950
1106.000000	76.862325
1105.000000	76.824132
1104.000000	76.779023
1103.000000	76.758584
1102.000000	76.718224
1101.000000	76.672082
1100.000000	76.639980
1099.000000	76.590329
1098.000000	76.562768
1097.000000	76.505272
1096.000000	76.469763
1095.000000	76.436731
1094.000000	76.383984
1093.000000	76.346307
1092.000000	76.300888
1091.000000	76.259805
1090.000000	76.181251
1089.000000	76.138826
1088.000000	76.087420
1087.000000	76.041589
1086.000000	75.980067
1085.000000	75.914726
1084.000000	75.870030
1083.000000	75.818521
1082.000000	75.749361
1081.000000	75.690007
1080.000000	75.638188
1079.000000	75.580796
1078.000000	75.515868
1077.000000	75.461262
1076.000000	75.400050
1075.000000	75.351225
1074.000000	75.289394
1073.000000	75.219304
1072.000000	75.140957
1071.000000	75.071487
1070.000000	74.995927
1069.000000	74.933993
1068.000000	74.877013
1067.000000	74.818691
1066.000000	74.750873
1065.000000	74.678925
1064.000000	74.616681
1063.000000	74.541740
1062.000000	74.461638
1061.000000	74.392891
1060.000000	74.328376
1059.000000	74.257151
1058.000000	74.197900
1057.000000	74.127398
1056.000000	74.064638
1055.000000	74.002290
1054.000000	73.936124
1053.000000	73.868409
1052.000000	73.805235
1051.000000	73.755275
1050.000000	73.696747
1049.000000	73.631715
1048.000000	73.573291
1047.000000	73.532414
1046.000000	73.480802
1045.000000	73.424028
1044.000000	73.364571
1043.000000	73.321114
1042.000000	73.268985
1041.000000	73.223360
1040.000000	73.184238
1039.000000	73.131904
1038.000000	73.071414
1037.000000	73.018357
1036.000000	72.972938
1035.000000	72.925145
1034.000000	72.877766
1033.000000	72.808089
1032.000000	72.749561
1031.000000	72.699188
1030.000000	72.628995
1029.000000	72.576247
1028.000000	72.530829
1027.000000	72.474675
1026.000000	72.420482
1025.000000	72.350806
1024.000000	72.279065
1023.000000	72.226317
1022.000000	72.172950
1021.000000	72.099042
1020.000000	72.034527
1019.000000	71.993134
1018.000000	71.931612
1017.000000	71.872361
1016.000000	71.836542
1015.000000	71.784414
1014.000000	71.742092
1013.000000	71.693990
1012.000000	71.639281
1011.000000	71.599230
1010.000000	71.565785
1009.000000	71.531515
1008.000000	71.487541
1007.000000	71.439129
1006.000000	71.404239
1005.000000	71.381324
1004.000000	71.353866
1003.000000	71.344885
1002.000000	71.328679
1001.000000	71.297402
1000.000000	71.266951
999.000000	71.259209
998.000000	71.260448
997.000000	71.240939
996.000000	71.229171
995.000000	71.224113
994.000000	71.218126
993.000000	71.198720
992.000000	71.193972
991.000000	71.207184
990.000000	71.223494
989.000000	71.219055
988.000000	71.225868
987.000000	71.239081
986.000000	71.269945
985.000000	71.285635
984.000000	71.282951
983.000000	71.302563
982.000000	71.315776
981.000000	71.349324
980.000000	71.375543
979.000000	71.409091
978.000000	71.420962
977.000000	71.439232
976.000000	71.465761
975.000000	71.512522
974.000000	71.533063
973.000000	71.555463
972.000000	71.597372
971.000000	71.633191
970.000000	71.656107
969.000000	71.686351
968.000000	71.737963
967.000000	71.760157
966.000000	71.792466
965.000000	71.819510
964.000000	71.862761
963.000000	71.898271
962.000000	71.949263
961.000000	71.998398
960.000000	72.018320
959.000000	72.068178
958.000000	72.132796
957.000000	72.171712
956.000000	72.228382
955.000000	72.302187
954.000000	72.325619
953.000000	72.389412
952.000000	72.464146
951.000000	72.514210
950.000000	72.571189
949.000000	72.618363
948.000000	72.677923
947.000000	72.758438
946.000000	72.810876
945.000000	72.893456
944.000000	72.964061
943.000000	73.005764
942.000000	73.076472
941.000000	73.156368
940.000000	73.238431
939.000000	73.287359
938.000000	73.357552
937.000000	73.439925
936.000000	73.527975
935.000000	73.609935
934.000000	73.690863
933.000000	73.789958
932.000000	73.887195
931.000000	73.945930
930.000000	74.007968
929.000000	74.090341
928.000000	74.166830
927.000000	74.230519
926.000000	74.328789
925.000000	74.383394
924.000000	74.440581
923.000000	74.529250
922.000000	74.589843
921.000000	74.674590
920.000000	74.774821
919.000000	74.811362
918.000000	74.864316
917.000000	74.932444
916.000000	75.040933
915.000000	75.052184
914.000000	75.126919
913.000000	75.186066
912.000000	75.234375
911.000000	75.299819
910.000000	75.342038
909.000000	75.383741
908.000000	75.444746
907.000000	75.468281
906.000000	75.520719
905.000000	75.561286
904.000000	75.597208
903.000000	75.634679
902.000000	75.677207
901.000000	75.707658
900.000000	75.735632
899.000000	75.772173
898.000000	75.802005
897.000000	75.829773
896.000000	75.854340
895.000000	75.891397
894.000000	75.927526
893.000000	75.932997
892.000000	75.952609
891.000000	75.966132
890.000000	76.013305
889.000000	76.053872
888.000000	76.090724
887.000000	76.119213
886.000000	76.137484
885.000000	76.166077
884.000000	76.192090
883.000000	76.234308
882.000000	76.281585
881.000000	76.308114
880.000000	76.349300
879.000000	76.386564
878.000000	76.425893
877.000000	76.466047
876.000000	76.509195
875.000000	76.530252
874.000000	76.608600
873.000000	76.633477
872.000000	76.650302
871.000000	76.681476
870.000000	76.703359
869.000000	76.728236
868.000000	76.749707
867.000000	76.729062
866.000000	76.735256
865.000000	76.709966
864.000000	76.713475
863.000000	76.665579
862.000000	76.579284
861.000000	76.520033
860.000000	76.383261
859.000000	76.226257
858.000000	76.579800
857.000000	76.712900
856.000000	76.503000
855.000000	76.523500
854.000000	76.962600
853.000000	77.300500
852.000000	77.418900
851.000000	77.405900
850.000000	77.545400
849.000000	77.237000
848.000000	76.964000
847.000000	77.174500
846.000000	77.278300
845.000000	77.373900
844.000000	77.241500
843.000000	77.536400
842.000000	77.524300
841.000000	77.444800
840.000000	77.599500
839.000000	77.482900
838.000000	77.750100
837.000000	77.793000
836.000000	77.858500
835.000000	77.833000
834.000000	78.148500
833.000000	78.299600
832.000000	78.493300
831.000000	78.569800
830.000000	78.586800
829.000000	78.930300
828.000000	79.234400
827.000000	79.365200
826.000000	79.429800
825.000000	79.711400
824.000000	80.122600
823.000000	80.535400
822.000000	80.560700
821.000000	80.836800
820.000000	81.245300
819.000000	81.370600
818.000000	81.734300
817.000000	81.914800
816.000000	82.238300
815.000000	82.542500
814.000000	82.852200
813.000000	83.160100
812.000000	83.313800
811.000000	83.486100
810.000000	83.660900
809.000000	84.086000
808.000000	84.157200
807.000000	84.253300
806.000000	84.450100
805.000000	84.507800
804.000000	84.667800
803.000000	84.794100
802.000000	85.083600
801.000000	85.131300
800.000000	85.119100
799.000000	85.393100
798.000000	85.538100
797.000000	85.707100
796.000000	85.868800
795.000000	85.930100
794.000000	86.062600
793.000000	86.409600
792.000000	86.548400
791.000000	86.662600
790.000000	86.923700
789.000000	87.174800
788.000000	87.463400
787.000000	87.755900
786.000000	88.044100
785.000000	88.341000
784.000000	88.596000
783.000000	88.727400
782.000000	88.986700
781.000000	89.284900
780.000000	89.604600
779.000000	89.774100
778.000000	89.884400
777.000000	90.040900
776.000000	90.227100
775.000000	90.358400
774.000000	90.534100
773.000000	90.659400
772.000000	90.781100
771.000000	90.915500
770.000000	91.058900
769.000000	91.087900
768.000000	91.008500
767.000000	91.055000
766.000000	91.137900
765.000000	91.235900
764.000000	91.313000
763.000000	91.342400
762.000000	91.292600
761.000000	91.362400
760.000000	91.435500
759.000000	91.483200
758.000000	91.482700
757.000000	91.547700
756.000000	91.643100
755.000000	91.707000
754.000000	91.913800
753.000000	92.053800
752.000000	92.125000
751.000000	92.270700
750.000000	92.478300
749.000000	92.659500
748.000000	92.685900
747.000000	92.846200
746.000000	93.010700
745.000000	93.043700
744.000000	93.177100
743.000000	93.226200
742.000000	93.260400
741.000000	93.363700
740.000000	93.350400
739.000000	93.221100
738.000000	93.168000
737.000000	93.192700
736.000000	93.104100
735.000000	92.977500
734.000000	92.877100
733.000000	92.775700
732.000000	92.582400
731.000000	92.395000
730.000000	92.207300
729.000000	91.995600
728.000000	91.820400
727.000000	91.616800
726.000000	91.338400
725.000000	91.109900
724.000000	90.910300
723.000000	90.706200
722.000000	90.490800
721.000000	90.240700
720.000000	90.100600
719.000000	89.885700
718.000000	89.664800
717.000000	89.577500
716.000000	89.403800
715.000000	89.238500
714.000000	89.132300
713.000000	88.974500
712.000000	88.795800
711.000000	88.601500
710.000000	88.487800
709.000000	88.332800
708.000000	88.179700
707.000000	87.987900
706.000000	87.781000
705.000000	87.545700
704.000000	87.361200
703.000000	87.168400
702.000000	86.916200
701.000000	86.732200
700.000000	86.502500
699.000000	86.220700
698.000000	86.010900
697.000000	85.851500
696.000000	85.605600
695.000000	85.405000
694.000000	85.167800
693.000000	84.974600
692.000000	84.765400
691.000000	84.561200
690.000000	84.425000
689.000000	84.278600
688.000000	84.007600
687.000000	83.900800
686.000000	83.695800
685.000000	83.459600
684.000000	83.327700
683.000000	83.136300
682.000000	82.847800
681.000000	82.612500
680.000000	82.369500
679.000000	82.089700
678.000000	81.773200
677.000000	81.497600
676.000000	81.208600
675.000000	80.925900
674.000000	80.551600
673.000000	80.233600
672.000000	79.863400
671.000000	79.402000
670.000000	79.022700
669.000000	78.521900
668.000000	78.023700
667.000000	77.553400
666.000000	76.978400
665.000000	76.358600
664.000000	75.734300
663.000000	75.057600
662.000000	74.343300
661.000000	73.563400
660.000000	72.802600
659.000000	71.959200
658.000000	71.180900
657.000000	70.358300
656.000000	69.472500
655.000000	68.601000
654.000000	67.745600
653.000000	66.840800
652.000000	65.995200
651.000000	65.148800
650.000000	64.301300
649.000000	63.520700
648.000000	62.763400
647.000000	62.110800
646.000000	61.529500
645.000000	60.985500
644.000000	60.553100
643.000000	60.225900
642.000000	59.973200
641.000000	59.851300
640.000000	59.806400
639.000000	59.865200
638.000000	60.039100
637.000000	60.274200
636.000000	60.626000
635.000000	61.025100
634.000000	61.544100
633.000000	62.102800
632.000000	62.755000
631.000000	63.386100
630.000000	64.060600
629.000000	64.777900
628.000000	65.512600
627.000000	66.203200
626.000000	66.944600
625.000000	67.711400
624.000000	68.450200
623.000000	69.250200
622.000000	69.955600
621.000000	70.694100
620.000000	71.469300
619.000000	72.185700
618.000000	72.906400
617.000000	73.673300
616.000000	74.373300
615.000000	75.072100
614.000000	75.728800
613.000000	76.399600
612.000000	77.069200
611.000000	77.598400
610.000000	78.186600
609.000000	78.760200
608.000000	79.280700
607.000000	79.777000
606.000000	80.270900
605.000000	80.731200
604.000000	81.204400
603.000000	81.651900
602.000000	82.134300
601.000000	82.586200
600.000000	83.114500
599.000000	83.505600
598.000000	83.903000
597.000000	84.351700
596.000000	84.742800
595.000000	85.107400
594.000000	85.437600
593.000000	85.799600
592.000000	86.088000
591.000000	86.381500
590.000000	86.573100
589.000000	86.736100
588.000000	86.967200
587.000000	87.002500
586.000000	87.090000
585.000000	87.168500
584.000000	87.172100
583.000000	87.198900
582.000000	87.193300
581.000000	87.199700
580.000000	87.213000
579.000000	87.154400
578.000000	87.114500
577.000000	87.067700
576.000000	87.050400
575.000000	86.993800
574.000000	87.013000
573.000000	86.919900
572.000000	86.904000
571.000000	86.819500
570.000000	86.772100
569.000000	86.641300
568.000000	86.497800
567.000000	86.385000
566.000000	86.228200
565.000000	86.007800
564.000000	85.784300
563.000000	85.598900
562.000000	85.338600
561.000000	85.020000
560.000000	84.737500
559.000000	84.557900
558.000000	84.304900
557.000000	83.978500
556.000000	83.609300
555.000000	83.310100
554.000000	82.988800
553.000000	82.605700
552.000000	82.244600
551.000000	81.893500
550.000000	81.538100
549.000000	81.139800
548.000000	80.741800
547.000000	80.294100
546.000000	79.840600
545.000000	79.375400
544.000000	78.883400
543.000000	78.298300
542.000000	77.713400
541.000000	77.129700
540.000000	76.491400
539.000000	75.815500
538.000000	75.126600
537.000000	74.422400
536.000000	73.711400
535.000000	72.919600
534.000000	72.167900
533.000000	71.386000
532.000000	70.577900
531.000000	69.745400
530.000000	68.903100
529.000000	68.033200
528.000000	67.123100
527.000000	66.183100
526.000000	65.169200
525.000000	64.114000
524.000000	63.000800
523.000000	61.832900
522.000000	60.663100
521.000000	59.464100
520.000000	58.217500
519.000000	56.954500
518.000000	55.737500
517.000000	54.560100
516.000000	53.420500
515.000000	52.296700
514.000000	51.209400
513.000000	50.119900
512.000000	49.081500
511.000000	48.064400
510.000000	47.084900
509.000000	46.134400
508.000000	45.251400
507.000000	44.416400
506.000000	43.566700
505.000000	42.780800
504.000000	42.041500
503.000000	41.312700
502.000000	40.625800
501.000000	39.961700
500.000000	39.339800
499.000000	38.747700
498.000000	38.188800
497.000000	37.641700
496.000000	37.118400
495.000000	36.616800
494.000000	36.113800
493.000000	35.624900
492.000000	35.155400
491.000000	34.688800
490.000000	34.210900
489.000000	33.743400
488.000000	33.266900
487.000000	32.794000
486.000000	32.345600
485.000000	31.879700
484.000000	31.419300
483.000000	30.983400
482.000000	30.559100
481.000000	30.174000
480.000000	29.831500
479.000000	29.514500
478.000000	29.219200
477.000000	28.959100
476.000000	28.757500
475.000000	28.557000
474.000000	28.377700
473.000000	28.237300
472.000000	28.112500
471.000000	28.004600
470.000000	27.899300
469.000000	27.833300
468.000000	27.794700
467.000000	27.755500
466.000000	27.730600
465.000000	27.723700
464.000000	27.728700
463.000000	27.732300
462.000000	27.731200
461.000000	27.738100
460.000000	27.744200
459.000000	27.738500
458.000000	27.744600
457.000000	27.737200
456.000000	27.727100
455.000000	27.701100
454.000000	27.663200
453.000000	27.624000
452.000000	27.565300
451.000000	27.488000
450.000000	27.409500
449.000000	27.324000
448.000000	27.242200
447.000000	27.137600
446.000000	27.005200
445.000000	26.885500
444.000000	26.762400
443.000000	26.615000
442.000000	26.417000
441.000000	26.220000
440.000000	26.028000
439.000000	25.815500
438.000000	25.598600
437.000000	25.358000
436.000000	25.107600
435.000000	24.863000
434.000000	24.603300
433.000000	24.327300
432.000000	24.034700
431.000000	23.743300
430.000000	23.451500
429.000000	23.135900
428.000000	22.794900
427.000000	22.451800
426.000000	22.111600
425.000000	21.740600
424.000000	21.358300
423.000000	20.969400
422.000000	20.566400
421.000000	20.154200
420.000000	19.725400
419.000000	19.269800
418.000000	18.848500
417.000000	18.424600
416.000000	17.967300
415.000000	17.507400
414.000000	17.044500
413.000000	16.571300
412.000000	16.125900
411.000000	15.656400
410.000000	15.191600
409.000000	14.747200
408.000000	14.321000
407.000000	13.904100
406.000000	13.488200
405.000000	13.069200
404.000000	12.682600
403.000000	12.312800
402.000000	11.940900
401.000000	11.602500
400.000000	11.280500
399.000000	10.959900
398.000000	10.652800
397.000000	10.392600
396.000000	10.137000
395.000000	9.873900
394.000000	9.626500
393.000000	9.402000
392.000000	9.192600
391.000000	8.993800
390.000000	8.809700
389.000000	8.634100
388.000000	8.482500
387.000000	8.333400
386.000000	8.174100
385.000000	8.055900
384.000000	7.922100
383.000000	7.816800
382.000000	7.707300
381.000000	7.605200
380.000000	7.507800
379.000000	7.433500
378.000000	7.351400
377.000000	7.279200
376.000000	7.219200
375.000000	7.034400
374.000000	6.918200
373.000000	7.063200
372.000000	7.024000
371.000000	6.886800
370.000000	6.830300
369.000000	6.753500
368.000000	6.762600
367.000000	6.719500
366.000000	6.751300
365.000000	6.672600
364.000000	6.673700
363.000000	6.624900
362.000000	6.553100
361.000000	6.505100
360.000000	6.474400
359.000000	6.462900
358.000000	6.440600
357.000000	6.353000
356.000000	6.280300
355.000000	6.258300
354.000000	6.298400
353.000000	6.312600
352.000000	6.175900
351.000000	6.224700
350.000000	6.067200
349.000000	6.147200
348.000000	6.138800
347.000000	6.080700
346.000000	6.108300
345.000000	6.062000
344.000000	6.009400
343.000000	6.000200
342.000000	6.095500
341.000000	6.126600
340.000000	6.020600
339.000000	6.033600
338.000000	6.058800
337.000000	6.085900
336.000000	6.093500
335.000000	6.016300
334.000000	6.019500
333.000000	6.049100
332.000000	5.987900
331.000000	5.947800
330.000000	6.214300
329.000000	6.094300
328.000000	5.926800
327.000000	6.099400
326.000000	6.164700
325.000000	6.162900
324.000000	5.987000
323.000000	6.072800
322.000000	6.239500
321.000000	6.364500
320.000000	5.977500
319.000000	6.054600
318.000000	6.298200
317.000000	6.163100
316.000000	5.997400
315.000000	5.885500
314.000000	5.935900
313.000000	5.963100
312.000000	5.980500
311.000000	6.015900
310.000000	6.028500
309.000000	5.970000
308.000000	6.013600
307.000000	5.997000
306.000000	5.979800
305.000000	5.986300
304.000000	6.030100
303.000000	6.060000
302.000000	6.063200
301.000000	6.017400
300.000000	6.041100
299.000000	6.006500
298.000000	6.081100
297.000000	6.017100
296.000000	6.088800
295.000000	6.084300
294.000000	6.050400
293.000000	6.087600
292.000000	6.050100
291.000000	6.079100
290.000000	6.033800
289.000000	6.044600
288.000000	6.006200
287.000000	6.058600
286.000000	6.041600
285.000000	6.110000
284.000000	6.078300
283.000000	6.069000
282.000000	6.090600
281.000000	6.148300
280.000000	6.140100
279.000000	6.139200
278.000000	6.129100
277.000000	6.153800
276.000000	6.151300
275.000000	6.201800
274.000000	6.178800
273.000000	6.240600
272.000000	6.204700
271.000000	6.267300
270.000000	6.295000
269.000000	6.315600
268.000000	6.327800
267.000000	6.347700
266.000000	6.341300
265.000000	6.376400
264.000000	6.413700
263.000000	6.470300
262.000000	6.441600
261.000000	6.526400
260.000000	6.550500
259.000000	6.668300
258.000000	6.623800
257.000000	6.676600
256.000000	6.657000
255.000000	6.647200
254.000000	6.673000
253.000000	6.746700
252.000000	6.769000
251.000000	6.701200
250.000000	6.781000
