PE UV       SUBTECH     SPECTRUM    ASCII       PEDS        4.00        
   -1
CICIMAUCR0001-3.Sample.ASC
24/04/11
16:53:49.00
24/04/11
16:53:49.00
Vinicio Soto Monge
C. kalinini
250,000000
1
Lambda 1050
1050L1511233
PerkinElmer UV WinLab 6.3.2.0749 / 2.02.05 Lambda 900 UV/VIS/NIR, Aug  7 2015 09:38:08

0
0
3350/2 860,8/2
0
0
UV/VIS
1
1
1
DoubleDePol,CommonBeamDepol,RBeamAtt,SBeamAtt,60mm sphere, WB InGaAs Detector
0
0
0
0
Program
Program
3350/2 860,8/2
3350/0,2 860,8/0,2
3350/0,2 860,8/0,2
0
15.00
 
 
 
0
 
860,8
319,2
860,8
Front
100
on
S:100 R:100
0
0
0
0
 
0
 
 
 
0
 
 
0
0
0
0
0
 
 
 
 
0
0


0
0
#HDR
-1
-1
#GR
nm
%R
1.0
0.0
2400,000000
-1,000000
2151
8
102,016800
5,507100
#DATA
2382.000000	24.508764
2381.000000	23.482340
2380.000000	23.016786
2379.000000	23.607640
2378.000000	24.111221
2377.000000	23.685977
2376.000000	23.030487
2375.000000	23.314844
2374.000000	22.759435
2373.000000	23.827162
2372.000000	23.172864
2371.000000	23.285852
2370.000000	23.584407
2369.000000	23.475092
2368.000000	24.144779
2367.000000	23.222905
2366.000000	23.315638
2365.000000	23.229160
2364.000000	23.332318
2363.000000	23.633752
2362.000000	23.553826
2361.000000	22.989879
2360.000000	23.194707
2359.000000	23.446498
2358.000000	23.036842
2357.000000	22.399820
2356.000000	23.278306
2355.000000	23.015793
2354.000000	22.989184
2353.000000	23.294093
2352.000000	23.071195
2351.000000	22.156568
2350.000000	23.350091
2349.000000	23.408967
2348.000000	23.617469
2347.000000	23.563259
2346.000000	23.213870
2345.000000	22.717437
2344.000000	23.080925
2343.000000	22.821986
2342.000000	22.629966
2341.000000	23.002389
2340.000000	22.978362
2339.000000	22.580521
2338.000000	22.603258
2337.000000	22.658461
2336.000000	22.615271
2335.000000	22.524027
2334.000000	22.461179
2333.000000	22.433974
2332.000000	22.416004
2331.000000	22.484908
2330.000000	22.518964
2329.000000	22.098585
2328.000000	22.232919
2327.000000	22.130059
2326.000000	22.600180
2325.000000	22.712572
2324.000000	22.797363
2323.000000	22.600279
2322.000000	22.882650
2321.000000	22.636320
2320.000000	22.650121
2319.000000	22.786938
2318.000000	22.739975
2317.000000	22.577543
2316.000000	22.411734
2315.000000	22.328433
2314.000000	22.477164
2313.000000	22.131250
2312.000000	22.126683
2311.000000	22.184765
2310.000000	22.091833
2309.000000	22.474285
2308.000000	22.392175
2307.000000	22.437449
2306.000000	22.154582
2305.000000	21.736189
2304.000000	21.606521
2303.000000	21.814427
2302.000000	21.554793
2301.000000	21.784144
2300.000000	21.744331
2299.000000	21.691907
2298.000000	21.575544
2297.000000	21.804995
2296.000000	21.907061
2295.000000	21.779577
2294.000000	21.592124
2293.000000	21.469804
2292.000000	21.527092
2291.000000	21.725764
2290.000000	21.721793
2289.000000	21.742246
2288.000000	21.421153
2287.000000	21.498795
2286.000000	21.660533
2285.000000	21.590139
2284.000000	21.696872
2283.000000	21.776797
2282.000000	21.928110
2281.000000	22.122811
2280.000000	22.170766
2279.000000	22.112683
2278.000000	22.129562
2277.000000	22.152398
2276.000000	22.123307
2275.000000	22.012007
2274.000000	21.847291
2273.000000	21.846596
2272.000000	21.860496
2271.000000	22.020843
2270.000000	22.226466
2269.000000	22.327639
2268.000000	22.125193
2267.000000	22.035637
2266.000000	22.092628
2265.000000	22.389693
2264.000000	22.722104
2263.000000	22.948278
2262.000000	22.727962
2261.000000	22.237486
2260.000000	22.542892
2259.000000	22.956122
2258.000000	22.945300
2257.000000	23.039026
2256.000000	23.228266
2255.000000	23.374416
2254.000000	23.602377
2253.000000	23.650929
2252.000000	23.637823
2251.000000	23.987112
2250.000000	24.253002
2249.000000	24.383563
2248.000000	24.676061
2247.000000	24.678841
2246.000000	24.843756
2245.000000	25.032797
2244.000000	24.908491
2243.000000	25.084923
2242.000000	25.159586
2241.000000	25.217669
2240.000000	25.343366
2239.000000	25.260858
2238.000000	25.403136
2237.000000	25.503614
2236.000000	25.490806
2235.000000	25.425475
2234.000000	25.405320
2233.000000	25.411178
2232.000000	25.467970
2231.000000	25.769702
2230.000000	25.792041
2229.000000	25.728101
2228.000000	25.534194
2227.000000	25.494678
2226.000000	25.250831
2225.000000	25.159983
2224.000000	25.111929
2223.000000	24.936490
2222.000000	25.169217
2221.000000	25.055038
2220.000000	25.018401
2219.000000	25.031209
2218.000000	25.214392
2217.000000	24.950886
2216.000000	24.810396
2215.000000	24.677054
2214.000000	24.477290
2213.000000	24.140411
2212.000000	24.322899
2211.000000	24.301751
2210.000000	24.234534
2209.000000	24.343650
2208.000000	24.324389
2207.000000	24.197500
2206.000000	24.379790
2205.000000	23.730258
2204.000000	23.801248
2203.000000	24.033579
2202.000000	23.892095
2201.000000	23.668602
2200.000000	23.866976
2199.000000	23.786653
2198.000000	23.584704
2197.000000	23.787348
2196.000000	23.762824
2195.000000	23.759647
2194.000000	23.853473
2193.000000	23.826070
2192.000000	23.520466
2191.000000	23.598704
2190.000000	23.598605
2189.000000	23.431803
2188.000000	23.185275
2187.000000	23.601186
2186.000000	23.181304
2185.000000	23.806808
2184.000000	23.557798
2183.000000	23.839374
2182.000000	23.613994
2181.000000	23.572790
2180.000000	23.560876
2179.000000	23.708217
2178.000000	23.808000
2177.000000	23.924761
2176.000000	23.567726
2175.000000	23.645865
2174.000000	23.502495
2173.000000	23.401819
2172.000000	23.636135
2171.000000	23.663637
2170.000000	23.932207
2169.000000	23.940249
2168.000000	23.438654
2167.000000	23.790525
2166.000000	23.827758
2165.000000	23.992772
2164.000000	24.062074
2163.000000	24.115291
2162.000000	24.164140
2161.000000	24.136439
2160.000000	24.075477
2159.000000	24.224705
2158.000000	24.531302
2157.000000	24.265512
2156.000000	24.525344
2155.000000	24.881882
2154.000000	24.530706
2153.000000	24.887740
2152.000000	25.228193
2151.000000	24.961510
2150.000000	25.115404
2149.000000	25.339990
2148.000000	25.706357
2147.000000	25.610148
2146.000000	25.883682
2145.000000	25.361237
2144.000000	25.876137
2143.000000	25.804849
2142.000000	26.343180
2141.000000	26.529243
2140.000000	26.189584
2139.000000	25.995975
2138.000000	26.232377
2137.000000	26.794934
2136.000000	26.373463
2135.000000	26.425290
2134.000000	27.031930
2133.000000	26.721759
2132.000000	26.641040
2131.000000	26.943069
2130.000000	27.445955
2129.000000	27.188406
2128.000000	27.436523
2127.000000	27.041164
2126.000000	27.008102
2125.000000	27.113445
2124.000000	27.556560
2123.000000	27.069957
2122.000000	27.482989
2121.000000	27.587140
2120.000000	27.291465
2119.000000	27.821853
2118.000000	27.441288
2117.000000	27.242219
2116.000000	27.397602
2115.000000	27.506917
2114.000000	27.419148
2113.000000	27.434636
2112.000000	27.489641
2111.000000	27.526079
2110.000000	27.498378
2109.000000	27.560829
2108.000000	27.549610
2107.000000	27.379731
2106.000000	27.202505
2105.000000	27.450621
2104.000000	27.422325
2103.000000	27.487457
2102.000000	27.650882
2101.000000	27.555567
2100.000000	27.469585
2099.000000	27.378242
2098.000000	27.365731
2097.000000	27.801003
2096.000000	27.361264
2095.000000	27.076311
2094.000000	26.872774
2093.000000	27.211440
2092.000000	27.315890
2091.000000	27.289579
2090.000000	27.380426
2089.000000	27.389262
2088.000000	27.302883
2087.000000	27.408127
2086.000000	27.227028
2085.000000	27.388964
2084.000000	27.240730
2083.000000	27.313606
2082.000000	27.188704
2081.000000	27.207469
2080.000000	27.120196
2079.000000	27.073333
2078.000000	26.992117
2077.000000	26.877540
2076.000000	26.814989
2075.000000	26.864732
2074.000000	26.861257
2073.000000	26.532917
2072.000000	26.532619
2071.000000	26.454778
2070.000000	26.455473
2069.000000	26.265340
2068.000000	26.126041
2067.000000	26.075603
2066.000000	25.893611
2065.000000	25.464495
2064.000000	25.481672
2063.000000	25.547499
2062.000000	25.346741
2061.000000	25.304247
2060.000000	25.223130
2059.000000	25.013139
2058.000000	24.972531
2057.000000	24.923086
2056.000000	24.882180
2055.000000	24.856167
2054.000000	24.758171
2053.000000	24.773461
2052.000000	24.864706
2051.000000	24.898066
2050.000000	25.073902
2049.000000	25.127815
2048.000000	25.146977
2047.000000	25.320927
2046.000000	25.352401
2045.000000	25.483161
2044.000000	25.705860
2043.000000	25.887356
2042.000000	25.948715
2041.000000	26.053363
2040.000000	26.219171
2039.000000	26.465104
2038.000000	26.563100
2037.000000	26.608871
2036.000000	26.787289
2035.000000	26.824322
2034.000000	26.931850
2033.000000	27.137670
2032.000000	27.304968
2031.000000	27.320159
2030.000000	27.318570
2029.000000	27.485570
2028.000000	27.660017
2027.000000	27.649393
2026.000000	27.639564
2025.000000	27.732198
2024.000000	27.869610
2023.000000	27.860476
2022.000000	27.831683
2021.000000	27.914289
2020.000000	28.035021
2019.000000	28.065304
2018.000000	28.130634
2017.000000	28.104423
2016.000000	28.115741
2015.000000	28.070864
2014.000000	28.009008
2013.000000	28.017845
2012.000000	28.108891
2011.000000	28.161612
2010.000000	28.121004
2009.000000	28.042964
2008.000000	27.983988
2007.000000	27.992924
2006.000000	27.960755
2005.000000	27.901481
2004.000000	27.876362
2003.000000	27.866334
2002.000000	27.730808
2001.000000	27.641649
2000.000000	27.614543
1999.000000	27.585850
1998.000000	27.538688
1997.000000	27.473159
1996.000000	27.384497
1995.000000	27.215213
1994.000000	27.143032
1993.000000	27.105700
1992.000000	26.965706
1991.000000	26.819358
1990.000000	26.745489
1989.000000	26.601126
1988.000000	26.438694
1987.000000	26.448722
1986.000000	26.399178
1985.000000	26.216292
1984.000000	26.086128
1983.000000	25.974629
1982.000000	25.879314
1981.000000	25.783701
1980.000000	25.635665
1979.000000	25.491203
1978.000000	25.386257
1977.000000	25.289949
1976.000000	25.194237
1975.000000	25.066952
1974.000000	25.024457
1973.000000	24.948007
1972.000000	24.798779
1971.000000	24.647467
1970.000000	24.545698
1969.000000	24.490495
1968.000000	24.419505
1967.000000	24.308801
1966.000000	24.204252
1965.000000	24.089775
1964.000000	23.955142
1963.000000	23.850693
1962.000000	23.798071
1961.000000	23.670984
1960.000000	23.554621
1959.000000	23.493162
1958.000000	23.375607
1957.000000	23.235117
1956.000000	23.089166
1955.000000	23.045778
1954.000000	23.010729
1953.000000	22.877189
1952.000000	22.711480
1951.000000	22.620633
1950.000000	22.524027
1949.000000	22.393962
1948.000000	22.327043
1947.000000	22.247217
1946.000000	22.162525
1945.000000	22.129761
1944.000000	22.036233
1943.000000	21.916096
1942.000000	21.874793
1941.000000	21.891572
1940.000000	21.894551
1939.000000	21.842525
1938.000000	21.815320
1937.000000	21.767167
1936.000000	21.673242
1935.000000	21.638888
1934.000000	21.704020
1933.000000	21.810555
1932.000000	21.792286
1931.000000	21.895047
1930.000000	22.044672
1929.000000	22.016971
1928.000000	22.087167
1927.000000	22.276307
1926.000000	22.285343
1925.000000	22.374204
1924.000000	22.501390
1923.000000	22.615966
1922.000000	22.741564
1921.000000	23.260137
1920.000000	23.433690
1919.000000	23.212579
1918.000000	23.415719
1917.000000	23.832821
1916.000000	24.160665
1915.000000	24.280107
1914.000000	24.657296
1913.000000	24.951383
1912.000000	25.196819
1911.000000	25.438780
1910.000000	25.833245
1909.000000	26.151855
1908.000000	26.541356
1907.000000	27.064596
1906.000000	27.709362
1905.000000	28.141556
1904.000000	28.421742
1903.000000	28.890374
1902.000000	29.331603
1901.000000	30.008340
1900.000000	30.679814
1899.000000	31.398946
1898.000000	31.755583
1897.000000	32.227392
1896.000000	32.750036
1895.000000	33.451495
1894.000000	34.077298
1893.000000	34.791068
1892.000000	35.491038
1891.000000	36.071069
1890.000000	36.610492
1889.000000	37.196183
1888.000000	37.683382
1887.000000	38.368856
1886.000000	38.960404
1885.000000	39.530706
1884.000000	40.126623
1883.000000	40.482664
1882.000000	40.910093
1881.000000	41.356485
1880.000000	41.778154
1879.000000	42.133997
1878.000000	42.520519
1877.000000	43.193284
1876.000000	43.286415
1875.000000	43.666285
1874.000000	44.060253
1873.000000	44.428507
1872.000000	44.471895
1871.000000	44.761712
1870.000000	44.924741
1869.000000	45.079925
1868.000000	45.451058
1867.000000	45.325858
1866.000000	45.249308
1865.000000	45.527012
1864.000000	45.812163
1863.000000	45.656780
1862.000000	45.793199
1861.000000	46.149340
1860.000000	46.521465
1859.000000	46.258952
1858.000000	46.173169
1857.000000	46.580442
1856.000000	46.495552
1855.000000	46.440646
1854.000000	46.690451
1853.000000	46.766802
1852.000000	46.413938
1851.000000	46.572995
1850.000000	46.808006
1849.000000	46.951078
1848.000000	47.316154
1847.000000	47.085413
1846.000000	46.567435
1845.000000	46.504289
1844.000000	46.646467
1843.000000	46.887535
1842.000000	47.063570
1841.000000	46.916030
1840.000000	46.712493
1839.000000	46.650538
1838.000000	46.783979
1837.000000	46.938270
1836.000000	46.817041
1835.000000	46.499027
1834.000000	46.319815
1833.000000	46.350991
1832.000000	46.533281
1831.000000	46.498431
1830.000000	46.344438
1829.000000	46.334807
1828.000000	46.345530
1827.000000	46.328850
1826.000000	46.360621
1825.000000	46.100789
1824.000000	46.057103
1823.000000	46.215167
1822.000000	46.374124
1821.000000	46.450178
1820.000000	46.349998
1819.000000	46.115682
1818.000000	46.159268
1817.000000	46.214869
1816.000000	46.239194
1815.000000	46.233237
1814.000000	46.106349
1813.000000	46.122632
1812.000000	46.196402
1811.000000	46.127795
1810.000000	46.000509
1809.000000	45.951958
1808.000000	45.978468
1807.000000	45.994453
1806.000000	45.965759
1805.000000	45.833410
1804.000000	45.815936
1803.000000	45.894174
1802.000000	45.877791
1801.000000	45.845424
1800.000000	45.746138
1799.000000	45.679218
1798.000000	45.646255
1797.000000	45.627987
1796.000000	45.624512
1795.000000	45.605051
1794.000000	45.556500
1793.000000	45.541905
1792.000000	45.522942
1791.000000	45.511325
1790.000000	45.471908
1789.000000	45.438548
1788.000000	45.452845
1787.000000	45.473596
1786.000000	45.459100
1785.000000	45.456916
1784.000000	45.472405
1783.000000	45.426733
1782.000000	45.426832
1781.000000	45.409457
1780.000000	45.362693
1779.000000	45.349687
1778.000000	45.309972
1777.000000	45.276513
1776.000000	45.226075
1775.000000	45.185963
1774.000000	45.138107
1773.000000	45.084294
1772.000000	45.032268
1771.000000	44.983816
1770.000000	44.916500
1769.000000	44.883537
1768.000000	44.825553
1767.000000	44.778591
1766.000000	44.754762
1765.000000	44.690226
1764.000000	44.647930
1763.000000	44.663121
1762.000000	44.638597
1761.000000	44.579224
1760.000000	44.572472
1759.000000	44.520545
1758.000000	44.494036
1757.000000	44.533850
1756.000000	44.543679
1755.000000	44.519155
1754.000000	44.497511
1753.000000	44.487086
1752.000000	44.491653
1751.000000	44.468321
1750.000000	44.408947
1749.000000	44.409642
1748.000000	44.360694
1747.000000	44.298640
1746.000000	44.266372
1745.000000	44.202432
1744.000000	44.154873
1743.000000	44.099273
1742.000000	44.038113
1741.000000	43.964243
1740.000000	43.868333
1739.000000	43.789896
1738.000000	43.725062
1737.000000	43.683461
1736.000000	43.644839
1735.000000	43.585366
1734.000000	43.540489
1733.000000	43.504349
1732.000000	43.482903
1731.000000	43.430479
1730.000000	43.403970
1729.000000	43.375375
1728.000000	43.327817
1727.000000	43.311534
1726.000000	43.313321
1725.000000	43.314513
1724.000000	43.310343
1723.000000	43.335363
1722.000000	43.403573
1721.000000	43.514079
1720.000000	43.687830
1719.000000	43.888587
1718.000000	44.109698
1717.000000	44.345603
1716.000000	44.556487
1715.000000	44.790009
1714.000000	44.992851
1713.000000	45.174942
1712.000000	45.363190
1711.000000	45.522147
1710.000000	45.652411
1709.000000	45.767981
1708.000000	45.857140
1707.000000	45.978865
1706.000000	46.036948
1705.000000	46.097711
1704.000000	46.188260
1703.000000	46.241577
1702.000000	46.235918
1701.000000	46.247733
1700.000000	46.292114
1699.000000	46.297277
1698.000000	46.286057
1697.000000	46.285561
1696.000000	46.285859
1695.000000	46.282682
1694.000000	46.202657
1693.000000	46.140603
1692.000000	46.108533
1691.000000	46.060181
1690.000000	45.960100
1689.000000	45.924059
1688.000000	45.935675
1687.000000	46.031090
1686.000000	46.142886
1685.000000	46.292213
1684.000000	46.465666
1683.000000	46.667814
1682.000000	46.891804
1681.000000	47.113809
1680.000000	47.322111
1679.000000	47.526542
1678.000000	47.745668
1677.000000	47.952481
1676.000000	48.116403
1675.000000	48.235348
1674.000000	48.408703
1673.000000	48.605488
1672.000000	48.792147
1671.000000	48.988535
1670.000000	49.153450
1669.000000	49.297316
1668.000000	49.459153
1667.000000	49.654450
1666.000000	49.795536
1665.000000	49.942083
1664.000000	50.074729
1663.000000	50.199135
1662.000000	50.322945
1661.000000	50.428487
1660.000000	50.543262
1659.000000	50.612167
1658.000000	50.725354
1657.000000	50.821761
1656.000000	50.859490
1655.000000	50.886495
1654.000000	50.941202
1653.000000	50.977541
1652.000000	50.994618
1651.000000	50.993030
1650.000000	51.019142
1649.000000	51.053396
1648.000000	51.011696
1647.000000	50.987668
1646.000000	50.982009
1645.000000	50.948053
1644.000000	50.914792
1643.000000	50.898410
1642.000000	50.867929
1641.000000	50.892750
1640.000000	50.863759
1639.000000	50.860681
1638.000000	50.822654
1637.000000	50.826427
1636.000000	50.806073
1635.000000	50.769834
1634.000000	50.731311
1633.000000	50.732403
1632.000000	50.692390
1631.000000	50.645924
1630.000000	50.560737
1629.000000	50.541276
1628.000000	50.511193
1627.000000	50.486768
1626.000000	50.433153
1625.000000	50.417268
1624.000000	50.360774
1623.000000	50.328803
1622.000000	50.260991
1621.000000	50.259700
1620.000000	50.229418
1619.000000	50.187122
1618.000000	50.167463
1617.000000	50.109777
1616.000000	50.090218
1615.000000	50.081084
1614.000000	50.045440
1613.000000	49.994307
1612.000000	49.942182
1611.000000	49.908722
1610.000000	49.873674
1609.000000	49.806755
1608.000000	49.761282
1607.000000	49.740333
1606.000000	49.646408
1605.000000	49.597161
1604.000000	49.516839
1603.000000	49.487946
1602.000000	49.393624
1601.000000	49.344577
1600.000000	49.276963
1599.000000	49.236156
1598.000000	49.169932
1597.000000	49.098843
1596.000000	49.042647
1595.000000	48.983174
1594.000000	48.947133
1593.000000	48.944452
1592.000000	48.860158
1591.000000	48.836031
1590.000000	48.788970
1589.000000	48.746376
1588.000000	48.713611
1587.000000	48.674492
1586.000000	48.629218
1585.000000	48.629516
1584.000000	48.567462
1583.000000	48.525066
1582.000000	48.481976
1581.000000	48.477806
1580.000000	48.458048
1579.000000	48.432631
1578.000000	48.407610
1577.000000	48.375839
1576.000000	48.391129
1575.000000	48.394703
1574.000000	48.376037
1573.000000	48.394107
1572.000000	48.388349
1571.000000	48.384973
1570.000000	48.407710
1569.000000	48.434815
1568.000000	48.442460
1567.000000	48.464998
1566.000000	48.482572
1565.000000	48.472345
1564.000000	48.482175
1563.000000	48.490415
1562.000000	48.480784
1561.000000	48.482075
1560.000000	48.473934
1559.000000	48.441666
1558.000000	48.424588
1557.000000	48.407015
1556.000000	48.336521
1555.000000	48.283899
1554.000000	48.221051
1553.000000	48.152643
1552.000000	48.062590
1551.000000	47.982764
1550.000000	47.912072
1549.000000	47.795807
1548.000000	47.718959
1547.000000	47.624935
1546.000000	47.558711
1545.000000	47.497451
1544.000000	47.432220
1543.000000	47.372450
1542.000000	47.320523
1541.000000	47.274255
1540.000000	47.223222
1539.000000	47.183805
1538.000000	47.140219
1537.000000	47.107752
1536.000000	47.068037
1535.000000	47.022664
1534.000000	46.957829
1533.000000	46.899846
1532.000000	46.851394
1531.000000	46.787454
1530.000000	46.728081
1529.000000	46.680622
1528.000000	46.628397
1527.000000	46.544897
1526.000000	46.513820
1525.000000	46.461000
1524.000000	46.391003
1523.000000	46.319616
1522.000000	46.261335
1521.000000	46.198189
1520.000000	46.140305
1519.000000	46.087385
1518.000000	46.007360
1517.000000	45.961589
1516.000000	45.912442
1515.000000	45.825269
1514.000000	45.773640
1513.000000	45.685970
1512.000000	45.609519
1511.000000	45.553919
1510.000000	45.504971
1509.000000	45.445399
1508.000000	45.378579
1507.000000	45.316823
1506.000000	45.269761
1505.000000	45.209693
1504.000000	45.143568
1503.000000	45.079032
1502.000000	45.033062
1501.000000	44.999702
1500.000000	44.963562
1499.000000	44.938244
1498.000000	44.894061
1497.000000	44.874601
1496.000000	44.873906
1495.000000	44.868644
1494.000000	44.883835
1493.000000	44.874005
1492.000000	44.885423
1491.000000	44.896940
1490.000000	44.909153
1489.000000	44.943605
1488.000000	44.985305
1487.000000	45.010226
1486.000000	45.034651
1485.000000	45.051331
1484.000000	45.061259
1483.000000	45.084890
1482.000000	45.131852
1481.000000	45.160745
1480.000000	45.183878
1479.000000	45.220813
1478.000000	45.260230
1477.000000	45.299547
1476.000000	45.318610
1475.000000	45.350183
1474.000000	45.408564
1473.000000	45.486206
1472.000000	45.553422
1471.000000	45.613590
1470.000000	45.680608
1469.000000	45.721713
1468.000000	45.771158
1467.000000	45.855353
1466.000000	45.929520
1465.000000	46.006864
1464.000000	46.074676
1463.000000	46.139510
1462.000000	46.227379
1461.000000	46.331431
1460.000000	46.410860
1459.000000	46.479467
1458.000000	46.571407
1457.000000	46.671388
1456.000000	46.751611
1455.000000	46.831041
1454.000000	46.911264
1453.000000	47.017203
1452.000000	47.137538
1451.000000	47.238016
1450.000000	47.300070
1449.000000	47.345345
1448.000000	47.422887
1447.000000	47.546300
1446.000000	47.699599
1445.000000	47.751923
1444.000000	47.784191
1443.000000	47.896980
1442.000000	48.014237
1441.000000	48.100219
1440.000000	48.200797
1439.000000	48.314579
1438.000000	48.454970
1437.000000	48.561207
1436.000000	48.650465
1435.000000	48.799990
1434.000000	48.955870
1433.000000	49.107282
1432.000000	49.277757
1431.000000	49.424701
1430.000000	49.573333
1429.000000	49.764161
1428.000000	49.958167
1427.000000	50.128046
1426.000000	50.326917
1425.000000	50.572651
1424.000000	50.850752
1423.000000	51.074246
1422.000000	51.276493
1421.000000	51.566211
1420.000000	51.900508
1419.000000	52.217033
1418.000000	52.442314
1417.000000	52.682588
1416.000000	53.057692
1415.000000	53.510637
1414.000000	53.860026
1413.000000	54.104270
1412.000000	54.442142
1411.000000	54.893995
1410.000000	55.389732
1409.000000	55.784694
1408.000000	56.167741
1407.000000	56.603906
1406.000000	57.008995
1405.000000	57.483088
1404.000000	57.853228
1403.000000	58.193780
1402.000000	58.716722
1401.000000	59.328327
1400.000000	59.642072
1399.000000	59.766081
1398.000000	60.149128
1397.000000	60.728266
1396.000000	61.222911
1395.000000	61.468446
1394.000000	61.643488
1393.000000	62.007870
1392.000000	62.416930
1391.000000	62.607064
1390.000000	62.897079
1389.000000	63.387852
1388.000000	63.786984
1387.000000	63.939686
1386.000000	64.241418
1385.000000	64.654152
1384.000000	64.949430
1383.000000	65.252253
1382.000000	65.397410
1381.000000	65.484584
1380.000000	65.605912
1379.000000	65.623883
1378.000000	65.805378
1377.000000	65.975357
1376.000000	66.092217
1375.000000	66.190312
1374.000000	66.290790
1373.000000	66.484200
1372.000000	66.735395
1371.000000	66.831206
1370.000000	66.828327
1369.000000	67.003170
1368.000000	67.223090
1367.000000	67.180694
1366.000000	67.321483
1365.000000	67.560366
1364.000000	67.488780
1363.000000	67.621526
1362.000000	67.998517
1361.000000	67.864877
1360.000000	67.739280
1359.000000	67.839261
1358.000000	67.945101
1357.000000	68.038033
1356.000000	68.112895
1355.000000	68.237599
1354.000000	68.277512
1353.000000	68.389706
1352.000000	68.543600
1351.000000	68.685877
1350.000000	68.871245
1349.000000	69.056414
1348.000000	69.254094
1347.000000	69.403619
1346.000000	69.533585
1345.000000	69.732356
1344.000000	69.894392
1343.000000	70.043123
1342.000000	70.189372
1341.000000	70.339394
1340.000000	70.503415
1339.000000	70.589894
1338.000000	70.751234
1337.000000	70.858960
1336.000000	70.992599
1335.000000	71.119488
1334.000000	71.217086
1333.000000	71.302671
1332.000000	71.396397
1331.000000	71.506109
1330.000000	71.579780
1329.000000	71.667648
1328.000000	71.740028
1327.000000	71.798111
1326.000000	71.881313
1325.000000	71.954586
1324.000000	72.014059
1323.000000	72.063205
1322.000000	72.118607
1321.000000	72.165868
1320.000000	72.240134
1319.000000	72.283721
1318.000000	72.331180
1317.000000	72.372483
1316.000000	72.416963
1315.000000	72.456678
1314.000000	72.508207
1313.000000	72.556163
1312.000000	72.603919
1311.000000	72.618316
1310.000000	72.658031
1309.000000	72.662399
1308.000000	72.701419
1307.000000	72.734084
1306.000000	72.732198
1305.000000	72.754835
1304.000000	72.767047
1303.000000	72.774494
1302.000000	72.787997
1301.000000	72.796039
1300.000000	72.797131
1299.000000	72.805570
1298.000000	72.803088
1297.000000	72.817286
1296.000000	72.783330
1295.000000	72.785018
1294.000000	72.777671
1293.000000	72.759799
1292.000000	72.754636
1291.000000	72.739247
1290.000000	72.699334
1289.000000	72.692384
1288.000000	72.657633
1287.000000	72.631720
1286.000000	72.602331
1285.000000	72.553581
1284.000000	72.537993
1283.000000	72.496293
1282.000000	72.471074
1281.000000	72.450025
1280.000000	72.396907
1279.000000	72.374369
1278.000000	72.349548
1277.000000	72.330782
1276.000000	72.314499
1275.000000	72.292656
1274.000000	72.279153
1273.000000	72.272104
1272.000000	72.267239
1271.000000	72.272898
1270.000000	72.280146
1269.000000	72.283423
1268.000000	72.288188
1267.000000	72.282728
1266.000000	72.286997
1265.000000	72.264062
1264.000000	72.280841
1263.000000	72.274288
1262.000000	72.269324
1261.000000	72.285111
1260.000000	72.293550
1259.000000	72.269125
1258.000000	72.269820
1257.000000	72.268728
1256.000000	72.268033
1255.000000	72.255722
1254.000000	72.236659
1253.000000	72.202206
1252.000000	72.196249
1251.000000	72.178775
1250.000000	72.151570
1249.000000	72.104707
1248.000000	72.055163
1247.000000	72.020810
1246.000000	71.976032
1245.000000	71.924701
1244.000000	71.880717
1243.000000	71.820649
1242.000000	71.789473
1241.000000	71.750354
1240.000000	71.699221
1239.000000	71.660003
1238.000000	71.624558
1237.000000	71.582063
1236.000000	71.559327
1235.000000	71.541058
1234.000000	71.495883
1233.000000	71.451402
1232.000000	71.413673
1231.000000	71.364924
1230.000000	71.329478
1229.000000	71.291253
1228.000000	71.254219
1227.000000	71.218575
1226.000000	71.180052
1225.000000	71.145898
1224.000000	71.100425
1223.000000	71.060809
1222.000000	71.019010
1221.000000	70.971749
1220.000000	70.924191
1219.000000	70.860052
1218.000000	70.806934
1217.000000	70.755007
1216.000000	70.718867
1215.000000	70.680542
1214.000000	70.621864
1213.000000	70.558122
1212.000000	70.496961
1211.000000	70.430638
1210.000000	70.363421
1209.000000	70.282900
1208.000000	70.207740
1207.000000	70.149459
1206.000000	70.077973
1205.000000	70.006188
1204.000000	69.937085
1203.000000	69.859344
1202.000000	69.788453
1201.000000	69.712400
1200.000000	69.627510
1199.000000	69.551357
1198.000000	69.491587
1197.000000	69.402030
1196.000000	69.310786
1195.000000	69.248037
1194.000000	69.172976
1193.000000	69.092455
1192.000000	69.025437
1191.000000	68.955440
1190.000000	68.890904
1189.000000	68.835303
1188.000000	68.794000
1187.000000	68.780696
1186.000000	68.776526
1185.000000	68.772455
1184.000000	68.776129
1183.000000	68.811574
1182.000000	68.863898
1181.000000	68.901627
1180.000000	68.938660
1179.000000	69.005877
1178.000000	69.081732
1177.000000	69.128893
1176.000000	69.179629
1175.000000	69.242973
1174.000000	69.323793
1173.000000	69.398952
1172.000000	69.459716
1171.000000	69.537060
1170.000000	69.613908
1169.000000	69.722527
1168.000000	69.833132
1167.000000	69.927454
1166.000000	70.041237
1165.000000	70.134665
1164.000000	70.248050
1163.000000	70.393902
1162.000000	70.492196
1161.000000	70.597340
1160.000000	70.726710
1159.000000	70.825401
1158.000000	70.931240
1157.000000	71.007989
1156.000000	71.104992
1155.000000	71.220958
1154.000000	71.272885
1153.000000	71.344769
1152.000000	71.405730
1151.000000	71.417943
1150.000000	71.464905
1149.000000	71.526165
1148.000000	71.554164
1147.000000	71.626544
1146.000000	71.652457
1145.000000	71.679463
1144.000000	71.709051
1143.000000	71.735560
1142.000000	71.799004
1141.000000	71.842690
1140.000000	71.892036
1139.000000	71.956572
1138.000000	72.017732
1137.000000	72.111459
1136.000000	72.246389
1135.000000	72.375660
1134.000000	72.407332
1133.000000	72.412793
1132.000000	72.468890
1131.000000	72.562418
1130.000000	72.636783
1129.000000	72.693972
1128.000000	72.697745
1127.000000	72.736070
1126.000000	72.751161
1125.000000	72.756423
1124.000000	72.787798
1123.000000	72.838136
1122.000000	72.854618
1121.000000	72.800705
1120.000000	72.813315
1119.000000	72.825527
1118.000000	72.789585
1117.000000	72.791670
1116.000000	72.759104
1115.000000	72.745800
1114.000000	72.726737
1113.000000	72.723361
1112.000000	72.680668
1111.000000	72.634698
1110.000000	72.610373
1109.000000	72.585353
1108.000000	72.576219
1107.000000	72.560035
1106.000000	72.552787
1105.000000	72.546532
1104.000000	72.522505
1103.000000	72.486960
1102.000000	72.447444
1101.000000	72.415176
1100.000000	72.382014
1099.000000	72.350540
1098.000000	72.304769
1097.000000	72.272501
1096.000000	72.262275
1095.000000	72.238446
1094.000000	72.215610
1093.000000	72.191483
1092.000000	72.174704
1091.000000	72.104409
1090.000000	72.098353
1089.000000	72.048312
1088.000000	71.984074
1087.000000	71.978613
1086.000000	71.890745
1085.000000	71.886277
1084.000000	71.813003
1083.000000	71.779743
1082.000000	71.771502
1081.000000	71.739829
1080.000000	71.702994
1079.000000	71.638557
1078.000000	71.593779
1077.000000	71.613537
1076.000000	71.564390
1075.000000	71.515938
1074.000000	71.486649
1073.000000	71.484365
1072.000000	71.488039
1071.000000	71.417645
1070.000000	71.392724
1069.000000	71.368597
1068.000000	71.332953
1067.000000	71.279239
1066.000000	71.273580
1065.000000	71.248461
1064.000000	71.258489
1063.000000	71.214505
1062.000000	71.161883
1061.000000	71.128622
1060.000000	71.067561
1059.000000	71.080170
1058.000000	71.014343
1057.000000	70.964998
1056.000000	70.977508
1055.000000	70.935907
1054.000000	70.893015
1053.000000	70.862931
1052.000000	70.798594
1051.000000	70.764340
1050.000000	70.680741
1049.000000	70.752922
1048.000000	70.671904
1047.000000	70.673294
1046.000000	70.637452
1045.000000	70.600914
1044.000000	70.560505
1043.000000	70.548491
1042.000000	70.477998
1041.000000	70.497061
1040.000000	70.504904
1039.000000	70.484054
1038.000000	70.426865
1037.000000	70.418227
1036.000000	70.414057
1035.000000	70.363520
1034.000000	70.396484
1033.000000	70.381392
1032.000000	70.363918
1031.000000	70.328174
1030.000000	70.297892
1029.000000	70.274063
1028.000000	70.255596
1027.000000	70.283893
1026.000000	70.270489
1025.000000	70.292531
1024.000000	70.272475
1023.000000	70.253511
1022.000000	70.253412
1021.000000	70.245568
1020.000000	70.239313
1019.000000	70.218761
1018.000000	70.181727
1017.000000	70.173983
1016.000000	70.188876
1015.000000	70.183911
1014.000000	70.196620
1013.000000	70.183415
1012.000000	70.171798
1011.000000	70.161572
1010.000000	70.133573
1009.000000	70.179543
1008.000000	70.173089
1007.000000	70.154324
1006.000000	70.125630
1005.000000	70.108751
1004.000000	70.089490
1003.000000	70.044215
1002.000000	70.081547
1001.000000	70.081448
1000.000000	70.036471
999.000000	70.027833
998.000000	70.035180
997.000000	70.024656
996.000000	69.999338
995.000000	70.027138
994.000000	70.009862
993.000000	70.000331
992.000000	70.038059
991.000000	70.008075
990.000000	70.027039
989.000000	69.983253
988.000000	69.976800
987.000000	69.987920
986.000000	70.067150
985.000000	70.072015
984.000000	70.013536
983.000000	70.009961
982.000000	70.070129
981.000000	70.041534
980.000000	70.068044
979.000000	70.091674
978.000000	70.082143
977.000000	70.102298
976.000000	70.111531
975.000000	70.167628
974.000000	70.189571
973.000000	70.198109
972.000000	70.169912
971.000000	70.180734
970.000000	70.222832
969.000000	70.228789
968.000000	70.151544
967.000000	70.240405
966.000000	70.263539
965.000000	70.298686
964.000000	70.356670
963.000000	70.341777
962.000000	70.384966
961.000000	70.333238
960.000000	70.351805
959.000000	70.364811
958.000000	70.344855
957.000000	70.388342
956.000000	70.378413
955.000000	70.406214
954.000000	70.399264
953.000000	70.392909
952.000000	70.452481
951.000000	70.428355
950.000000	70.481671
949.000000	70.565072
948.000000	70.487629
947.000000	70.432127
946.000000	70.462310
945.000000	70.557427
944.000000	70.601907
943.000000	70.658203
942.000000	70.687492
941.000000	70.612729
940.000000	70.586716
939.000000	70.657706
938.000000	70.790949
937.000000	70.797502
936.000000	70.721845
935.000000	70.791544
934.000000	70.840393
933.000000	70.784197
932.000000	70.862038
931.000000	70.898674
930.000000	70.891824
929.000000	70.878321
928.000000	70.859754
927.000000	70.816068
926.000000	70.880306
925.000000	71.067362
924.000000	71.092879
923.000000	71.086227
922.000000	71.009776
921.000000	71.086028
920.000000	71.234858
919.000000	71.269112
918.000000	71.364030
917.000000	71.553469
916.000000	71.453785
915.000000	71.525668
914.000000	71.735163
913.000000	71.807741
912.000000	71.782026
911.000000	71.876150
910.000000	71.909808
909.000000	71.985365
908.000000	72.180066
907.000000	72.294046
906.000000	72.137174
905.000000	72.138465
904.000000	72.463727
903.000000	72.631422
902.000000	72.711645
901.000000	72.625961
900.000000	72.660513
899.000000	72.909821
898.000000	73.258118
897.000000	73.247792
896.000000	73.226743
895.000000	73.497597
894.000000	73.693290
893.000000	73.436734
892.000000	73.448946
891.000000	73.373985
890.000000	73.984299
889.000000	73.968612
888.000000	74.006539
887.000000	74.467427
886.000000	74.592329
885.000000	74.864474
884.000000	74.927818
883.000000	75.175737
882.000000	75.426236
881.000000	75.651120
880.000000	75.799355
879.000000	75.707813
878.000000	76.088576
877.000000	76.400634
876.000000	76.613305
875.000000	76.412151
874.000000	76.182799
873.000000	76.704550
872.000000	76.841366
871.000000	76.907094
870.000000	77.914156
869.000000	78.098829
868.000000	78.168528
867.000000	78.601715
866.000000	78.990521
865.000000	78.601020
864.000000	77.965785
863.000000	78.718575
862.000000	79.636578
861.000000	80.278266
860.000000	79.880426
859.000000	79.799904
858.000000	77.778233
857.000000	77.845000
856.000000	77.805400
855.000000	77.684300
854.000000	77.873500
853.000000	78.274600
852.000000	78.626100
851.000000	78.771100
850.000000	79.009400
849.000000	78.844100
848.000000	79.078500
847.000000	79.176300
846.000000	79.656400
845.000000	79.857500
844.000000	80.096200
843.000000	80.338300
842.000000	80.619700
841.000000	80.989800
840.000000	81.363400
839.000000	81.870800
838.000000	82.018300
837.000000	82.444300
836.000000	82.813700
835.000000	83.048400
834.000000	83.328100
833.000000	83.890200
832.000000	84.121300
831.000000	84.814700
830.000000	85.220000
829.000000	85.687900
828.000000	85.875800
827.000000	86.569900
826.000000	86.908800
825.000000	87.516400
824.000000	87.910800
823.000000	88.135300
822.000000	88.622900
821.000000	89.186000
820.000000	89.594900
819.000000	90.011800
818.000000	90.755400
817.000000	91.016100
816.000000	91.067900
815.000000	91.590400
814.000000	92.219300
813.000000	92.432200
812.000000	92.693900
811.000000	93.035700
810.000000	93.400800
809.000000	93.952300
808.000000	94.257200
807.000000	94.513500
806.000000	94.931200
805.000000	95.237000
804.000000	95.505000
803.000000	95.799600
802.000000	96.299100
801.000000	96.628800
800.000000	96.739700
799.000000	97.298200
798.000000	97.639800
797.000000	97.842700
796.000000	98.230700
795.000000	98.310500
794.000000	98.498500
793.000000	98.852200
792.000000	99.215700
791.000000	99.273100
790.000000	99.439300
789.000000	99.823200
788.000000	100.208600
787.000000	100.189400
786.000000	100.396400
785.000000	100.374900
784.000000	100.526300
783.000000	100.739000
782.000000	100.930600
781.000000	101.073800
780.000000	101.136000
779.000000	101.232700
778.000000	101.218600
777.000000	101.445000
776.000000	101.600700
775.000000	101.564300
774.000000	101.662100
773.000000	101.678800
772.000000	101.697700
771.000000	101.840100
770.000000	101.705100
769.000000	101.852400
768.000000	102.016800
767.000000	101.851700
766.000000	101.955500
765.000000	101.962500
764.000000	101.885400
763.000000	101.787700
762.000000	101.803800
761.000000	101.783200
760.000000	101.713900
759.000000	101.568700
758.000000	101.362900
757.000000	101.378900
756.000000	101.173200
755.000000	101.198100
754.000000	101.019300
753.000000	100.820400
752.000000	100.734000
751.000000	100.451400
750.000000	100.436900
749.000000	100.387500
748.000000	100.211600
747.000000	100.143900
746.000000	99.882300
745.000000	99.849700
744.000000	99.643700
743.000000	99.474100
742.000000	99.332600
741.000000	99.143500
740.000000	98.912900
739.000000	98.788100
738.000000	98.464600
737.000000	98.305000
736.000000	98.031800
735.000000	97.761600
734.000000	97.424300
733.000000	97.252100
732.000000	96.983900
731.000000	96.543300
730.000000	96.185600
729.000000	96.019700
728.000000	95.633700
727.000000	95.241400
726.000000	95.024200
725.000000	94.682300
724.000000	94.360300
723.000000	93.980200
722.000000	93.580000
721.000000	93.274000
720.000000	92.873400
719.000000	92.445100
718.000000	92.013500
717.000000	91.659500
716.000000	91.212500
715.000000	90.763300
714.000000	90.299000
713.000000	89.786200
712.000000	89.275600
711.000000	88.800700
710.000000	88.263700
709.000000	87.699400
708.000000	87.149200
707.000000	86.615800
706.000000	86.059800
705.000000	85.531400
704.000000	84.963200
703.000000	84.494600
702.000000	83.971200
701.000000	83.466900
700.000000	83.009200
699.000000	82.598300
698.000000	82.132000
697.000000	81.717500
696.000000	81.341100
695.000000	80.921600
694.000000	80.539500
693.000000	80.176800
692.000000	79.771600
691.000000	79.337200
690.000000	78.889400
689.000000	78.375500
688.000000	77.886000
687.000000	77.375000
686.000000	76.849400
685.000000	76.264200
684.000000	75.712500
683.000000	75.154700
682.000000	74.630300
681.000000	74.011000
680.000000	73.392700
679.000000	72.878900
678.000000	72.297700
677.000000	71.788100
676.000000	71.297300
675.000000	70.814500
674.000000	70.365300
673.000000	69.919700
672.000000	69.508500
671.000000	69.088900
670.000000	68.684500
669.000000	68.265600
668.000000	67.890400
667.000000	67.523200
666.000000	67.127900
665.000000	66.735300
664.000000	66.371800
663.000000	65.969500
662.000000	65.537500
661.000000	65.152700
660.000000	64.808100
659.000000	64.423800
658.000000	64.104700
657.000000	63.810000
656.000000	63.533600
655.000000	63.324900
654.000000	63.104600
653.000000	62.948100
652.000000	62.843700
651.000000	62.753100
650.000000	62.715800
649.000000	62.698700
648.000000	62.680900
647.000000	62.687200
646.000000	62.732300
645.000000	62.739800
644.000000	62.712500
643.000000	62.671200
642.000000	62.547400
641.000000	62.403400
640.000000	62.234000
639.000000	61.994600
638.000000	61.735700
637.000000	61.442900
636.000000	61.114100
635.000000	60.755600
634.000000	60.417400
633.000000	60.073200
632.000000	59.699300
631.000000	59.350000
630.000000	59.027800
629.000000	58.753900
628.000000	58.503000
627.000000	58.295500
626.000000	58.113300
625.000000	57.984400
624.000000	57.895400
623.000000	57.860000
622.000000	57.858300
621.000000	57.863100
620.000000	57.890900
619.000000	57.945100
618.000000	58.026700
617.000000	58.123500
616.000000	58.241400
615.000000	58.401300
614.000000	58.555300
613.000000	58.723600
612.000000	58.937200
611.000000	59.202400
610.000000	59.535400
609.000000	59.906800
608.000000	60.309000
607.000000	60.771600
606.000000	61.283700
605.000000	61.852800
604.000000	62.439900
603.000000	63.082800
602.000000	63.738300
601.000000	64.396000
600.000000	65.075100
599.000000	65.755300
598.000000	66.413900
597.000000	67.082900
596.000000	67.711300
595.000000	68.334700
594.000000	68.977600
593.000000	69.571600
592.000000	70.157900
591.000000	70.759900
590.000000	71.306300
589.000000	71.797400
588.000000	72.308200
587.000000	72.747700
586.000000	73.169900
585.000000	73.577600
584.000000	73.975000
583.000000	74.333700
582.000000	74.640700
581.000000	74.951100
580.000000	75.238100
579.000000	75.482700
578.000000	75.699300
577.000000	75.864600
576.000000	76.082400
575.000000	76.208700
574.000000	76.293300
573.000000	76.437700
572.000000	76.560600
571.000000	76.615000
570.000000	76.683300
569.000000	76.731200
568.000000	76.736600
567.000000	76.747900
566.000000	76.717100
565.000000	76.644900
564.000000	76.572300
563.000000	76.525200
562.000000	76.401600
561.000000	76.267100
560.000000	76.110200
559.000000	76.025200
558.000000	75.853700
557.000000	75.687400
556.000000	75.510500
555.000000	75.271500
554.000000	75.029400
553.000000	74.781400
552.000000	74.482300
551.000000	74.193200
550.000000	73.865900
549.000000	73.530000
548.000000	73.187900
547.000000	72.820000
546.000000	72.426800
545.000000	71.966200
544.000000	71.509500
543.000000	71.030500
542.000000	70.470200
541.000000	69.917000
540.000000	69.271100
539.000000	68.606500
538.000000	67.925700
537.000000	67.185100
536.000000	66.411100
535.000000	65.584800
534.000000	64.703700
533.000000	63.805700
532.000000	62.860800
531.000000	61.916900
530.000000	60.923800
529.000000	59.946500
528.000000	58.923000
527.000000	57.921700
526.000000	56.904400
525.000000	55.937700
524.000000	54.979000
523.000000	54.011200
522.000000	53.034500
521.000000	52.098300
520.000000	51.204600
519.000000	50.344400
518.000000	49.485900
517.000000	48.649300
516.000000	47.848800
515.000000	47.054700
514.000000	46.317800
513.000000	45.575500
512.000000	44.860500
511.000000	44.177200
510.000000	43.555900
509.000000	42.938600
508.000000	42.335500
507.000000	41.768300
506.000000	41.219300
505.000000	40.680300
504.000000	40.205900
503.000000	39.688700
502.000000	39.217600
501.000000	38.753400
500.000000	38.272500
499.000000	37.873400
498.000000	37.465800
497.000000	37.072600
496.000000	36.721700
495.000000	36.372400
494.000000	36.035600
493.000000	35.719100
492.000000	35.407600
491.000000	35.098100
490.000000	34.826500
489.000000	34.554900
488.000000	34.286300
487.000000	34.056000
486.000000	33.811200
485.000000	33.554000
484.000000	33.311400
483.000000	33.061000
482.000000	32.842400
481.000000	32.570600
480.000000	32.347700
479.000000	32.086400
478.000000	31.823500
477.000000	31.576000
476.000000	31.300100
475.000000	31.051800
474.000000	30.826500
473.000000	30.586600
472.000000	30.316400
471.000000	30.068100
470.000000	29.806300
469.000000	29.559600
468.000000	29.290900
467.000000	29.030200
466.000000	28.770100
465.000000	28.490500
464.000000	28.205500
463.000000	27.873500
462.000000	27.574000
461.000000	27.272800
460.000000	26.926000
459.000000	26.578300
458.000000	26.241200
457.000000	25.863900
456.000000	25.483300
455.000000	25.100000
454.000000	24.698400
453.000000	24.262500
452.000000	23.837100
451.000000	23.406200
450.000000	22.949700
449.000000	22.533400
448.000000	22.043600
447.000000	21.540600
446.000000	21.061400
445.000000	20.532400
444.000000	20.022100
443.000000	19.532200
442.000000	19.018500
441.000000	18.496300
440.000000	17.972100
439.000000	17.451500
438.000000	16.941800
437.000000	16.471300
436.000000	15.984500
435.000000	15.486400
434.000000	15.012000
433.000000	14.536900
432.000000	14.083100
431.000000	13.648500
430.000000	13.225300
429.000000	12.812000
428.000000	12.429700
427.000000	12.054400
426.000000	11.691300
425.000000	11.367200
424.000000	11.042300
423.000000	10.738900
422.000000	10.438800
421.000000	10.183500
420.000000	9.934500
419.000000	9.681300
418.000000	9.463100
417.000000	9.256200
416.000000	9.052200
415.000000	8.858700
414.000000	8.700000
413.000000	8.548500
412.000000	8.412700
411.000000	8.282700
410.000000	8.161900
409.000000	8.042600
408.000000	7.934100
407.000000	7.849800
406.000000	7.752200
405.000000	7.662100
404.000000	7.599800
403.000000	7.528400
402.000000	7.448200
401.000000	7.409500
400.000000	7.349700
399.000000	7.307700
398.000000	7.247900
397.000000	7.203000
396.000000	7.170000
395.000000	7.131100
394.000000	7.108300
393.000000	7.058000
392.000000	7.007000
391.000000	6.976500
390.000000	6.935700
389.000000	6.917500
388.000000	6.889600
387.000000	6.841100
386.000000	6.796700
385.000000	6.772000
384.000000	6.743800
383.000000	6.699000
382.000000	6.644800
381.000000	6.608700
380.000000	6.584000
379.000000	6.560100
378.000000	6.544600
377.000000	6.500500
376.000000	6.435000
375.000000	6.288000
374.000000	6.191600
373.000000	6.215100
372.000000	6.266000
371.000000	6.219000
370.000000	6.211700
369.000000	6.162300
368.000000	6.220400
367.000000	6.193500
366.000000	6.157600
365.000000	6.188800
364.000000	6.149700
363.000000	6.062100
362.000000	6.069300
361.000000	6.069500
360.000000	5.992500
359.000000	5.985500
358.000000	6.001800
357.000000	5.945900
356.000000	5.911500
355.000000	5.905300
354.000000	5.909500
353.000000	5.883600
352.000000	5.856400
351.000000	5.799800
350.000000	5.796900
349.000000	5.816400
348.000000	5.792300
347.000000	5.725400
346.000000	5.757600
345.000000	5.758200
344.000000	5.788500
343.000000	5.733500
342.000000	5.647200
341.000000	5.680200
340.000000	5.747100
339.000000	5.769300
338.000000	5.812900
337.000000	5.734500
336.000000	5.681800
335.000000	5.713100
334.000000	5.778300
333.000000	5.850500
332.000000	5.819800
331.000000	5.787800
330.000000	5.778700
329.000000	5.781500
328.000000	5.780400
327.000000	5.732000
326.000000	5.787300
325.000000	5.831800
324.000000	5.887700
323.000000	5.904000
322.000000	5.847200
321.000000	5.844200
320.000000	5.831100
319.000000	5.689800
318.000000	5.672700
317.000000	5.952700
316.000000	5.784400
315.000000	5.507100
314.000000	5.555600
313.000000	5.565000
312.000000	5.543300
311.000000	5.573300
310.000000	5.568000
309.000000	5.590600
308.000000	5.605000
307.000000	5.593100
306.000000	5.594600
305.000000	5.559800
304.000000	5.550900
303.000000	5.541500
302.000000	5.535600
301.000000	5.541300
300.000000	5.566100
299.000000	5.600800
298.000000	5.643000
297.000000	5.620100
296.000000	5.600300
295.000000	5.622000
294.000000	5.646000
293.000000	5.653200
292.000000	5.639900
291.000000	5.621100
290.000000	5.635000
289.000000	5.688500
288.000000	5.676000
287.000000	5.641400
286.000000	5.638000
285.000000	5.623100
284.000000	5.662100
283.000000	5.679300
282.000000	5.695500
281.000000	5.683500
280.000000	5.708700
279.000000	5.732000
278.000000	5.737900
277.000000	5.751000
276.000000	5.687300
275.000000	5.726400
274.000000	5.756500
273.000000	5.774600
272.000000	5.799700
271.000000	5.809900
270.000000	5.819700
269.000000	5.867700
268.000000	5.866700
267.000000	5.848200
266.000000	5.889300
265.000000	5.927300
264.000000	5.929100
263.000000	5.967000
262.000000	5.974400
261.000000	6.023700
260.000000	6.074100
259.000000	6.093900
258.000000	6.099200
257.000000	6.117700
256.000000	6.143700
255.000000	6.184800
254.000000	6.157100
253.000000	6.149100
252.000000	6.232400
251.000000	6.240000
250.000000	6.230900
