PE UV       SUBTECH     SPECTRUM    ASCII       PEDS        4.00        
   -1
CICIMAUCR0008-2.Sample.ASC
24/04/12
14:36:05.00
24/04/12
14:36:05.00
Vinicio Soto Monge
C. kalinini
250,000000
1
Lambda 1050
1050L1511233
PerkinElmer UV WinLab 6.3.2.0749 / 2.02.05 Lambda 900 UV/VIS/NIR, Aug  7 2015 09:38:08

0
0
3350/servo 860,8/2
0
0
UV/VIS
1
1
1
DoubleDePol,CommonBeamDepol,RBeamAtt,SBeamAtt,60mm sphere, WB InGaAs Detector
0
0
0
0
Program
Program
3350/servo 860,8/2
3350/0,2 860,8/0,2
3350/0,2 860,8/0,2
0
15.00
 
 
 
0
 
860,8
319,2
860,8
Front
100
on
S:100 R:100
0
0
0
0
 
0
 
 
 
0
 
 
0
0
0
0
0
 
 
 
 
0
0


0
0
#HDR
-1
-1
#GR
nm
%R
1.0
0.0
2500,000000
-1,000000
2251
8
20,801700
1,178000
#DATA
2482.000000	4.385375
2481.000000	4.356714
2480.000000	4.393882
2479.000000	4.388134
2478.000000	4.383536
2477.000000	4.366063
2476.000000	4.379704
2475.000000	4.388671
2474.000000	4.442622
2473.000000	4.423770
2472.000000	4.464233
2471.000000	4.451971
2470.000000	4.466379
2469.000000	4.457183
2468.000000	4.475269
2467.000000	4.499179
2466.000000	4.545466
2465.000000	4.582711
2464.000000	4.607081
2463.000000	4.602177
2462.000000	4.628692
2461.000000	4.666167
2460.000000	4.699197
2459.000000	4.722647
2458.000000	4.746251
2457.000000	4.792768
2456.000000	4.813460
2455.000000	4.833692
2454.000000	4.863503
2453.000000	4.894693
2452.000000	4.929103
2451.000000	4.962209
2450.000000	4.975007
2449.000000	5.016084
2448.000000	5.049803
2447.000000	5.094098
2446.000000	5.111954
2445.000000	5.129657
2444.000000	5.164066
2443.000000	5.196866
2442.000000	5.207059
2441.000000	5.248058
2440.000000	5.285533
2439.000000	5.301013
2438.000000	5.321935
2437.000000	5.354658
2436.000000	5.390370
2435.000000	5.411751
2434.000000	5.437424
2433.000000	5.468461
2432.000000	5.527087
2431.000000	5.556285
2430.000000	5.569467
2429.000000	5.576057
2428.000000	5.555749
2427.000000	5.580655
2426.000000	5.601194
2425.000000	5.623418
2424.000000	5.632461
2423.000000	5.650317
2422.000000	5.679821
2421.000000	5.693539
2420.000000	5.694689
2419.000000	5.709326
2418.000000	5.719212
2417.000000	5.731857
2416.000000	5.766266
2415.000000	5.766879
2414.000000	5.767416
2413.000000	5.784122
2412.000000	5.797993
2411.000000	5.800445
2410.000000	5.810101
2409.000000	5.823359
2408.000000	5.830640
2407.000000	5.846350
2406.000000	5.858688
2405.000000	5.866658
2404.000000	5.870030
2403.000000	5.872789
2402.000000	5.877081
2401.000000	5.883365
2400.000000	5.891335
2399.000000	5.899841
2398.000000	5.904056
2397.000000	5.917544
2396.000000	5.923138
2395.000000	5.918310
2394.000000	5.912486
2393.000000	5.910877
2392.000000	5.917851
2391.000000	5.919077
2390.000000	5.917774
2389.000000	5.912793
2388.000000	5.913865
2387.000000	5.916854
2386.000000	5.920839
2385.000000	5.912793
2384.000000	5.900838
2383.000000	5.898845
2382.000000	5.898309
2381.000000	5.902447
2380.000000	5.904056
2379.000000	5.886430
2378.000000	5.882062
2377.000000	5.892254
2376.000000	5.872176
2375.000000	5.850948
2374.000000	5.852251
2373.000000	5.846197
2372.000000	5.836081
2371.000000	5.828954
2370.000000	5.823206
2369.000000	5.810791
2368.000000	5.803357
2367.000000	5.807266
2366.000000	5.795464
2365.000000	5.777531
2364.000000	5.762817
2363.000000	5.751552
2362.000000	5.743582
2361.000000	5.735918
2360.000000	5.730631
2359.000000	5.726109
2358.000000	5.712545
2357.000000	5.692466
2356.000000	5.688864
2355.000000	5.691163
2354.000000	5.680664
2353.000000	5.678978
2352.000000	5.686949
2351.000000	5.691317
2350.000000	5.692390
2349.000000	5.693079
2348.000000	5.689861
2347.000000	5.689707
2346.000000	5.690550
2345.000000	5.698674
2344.000000	5.703272
2343.000000	5.702429
2342.000000	5.701509
2341.000000	5.696605
2340.000000	5.703808
2339.000000	5.697448
2338.000000	5.688711
2337.000000	5.687485
2336.000000	5.680818
2335.000000	5.685416
2334.000000	5.690244
2333.000000	5.688175
2332.000000	5.692006
2331.000000	5.693309
2330.000000	5.691777
2329.000000	5.694152
2328.000000	5.701739
2327.000000	5.701433
2326.000000	5.703425
2325.000000	5.701739
2324.000000	5.705648
2323.000000	5.703195
2322.000000	5.703655
2321.000000	5.704728
2320.000000	5.704651
2319.000000	5.705341
2318.000000	5.700513
2317.000000	5.696681
2316.000000	5.707333
2315.000000	5.701126
2314.000000	5.714154
2313.000000	5.713158
2312.000000	5.717833
2311.000000	5.737298
2310.000000	5.739750
2309.000000	5.757300
2308.000000	5.766573
2307.000000	5.774849
2306.000000	5.800369
2305.000000	5.820524
2304.000000	5.843131
2303.000000	5.876774
2302.000000	5.891028
2301.000000	5.915858
2300.000000	5.949807
2299.000000	5.963832
2298.000000	5.993643
2297.000000	6.007054
2296.000000	6.035256
2295.000000	6.055487
2294.000000	6.058476
2293.000000	6.069971
2292.000000	6.073957
2291.000000	6.079321
2290.000000	6.088747
2289.000000	6.076945
2288.000000	6.064224
2287.000000	6.080394
2286.000000	6.081697
2285.000000	6.069282
2284.000000	6.044375
2283.000000	6.038704
2282.000000	6.029585
2281.000000	6.012189
2280.000000	6.016710
2279.000000	5.979312
2278.000000	5.970882
2277.000000	5.956551
2276.000000	5.959770
2275.000000	5.957624
2274.000000	5.939692
2273.000000	5.957011
2272.000000	5.970346
2271.000000	5.985136
2270.000000	6.003452
2269.000000	6.038551
2268.000000	6.052729
2267.000000	6.072117
2266.000000	6.124766
2265.000000	6.170594
2264.000000	6.222629
2263.000000	6.270679
2262.000000	6.315434
2261.000000	6.391226
2260.000000	6.443645
2259.000000	6.492232
2258.000000	6.564039
2257.000000	6.637532
2256.000000	6.692250
2255.000000	6.755321
2254.000000	6.809502
2253.000000	6.870810
2252.000000	6.932348
2251.000000	6.982544
2250.000000	7.038105
2249.000000	7.073050
2248.000000	7.133745
2247.000000	7.180263
2246.000000	7.227087
2245.000000	7.253296
2244.000000	7.296289
2243.000000	7.331234
2242.000000	7.367483
2241.000000	7.400513
2240.000000	7.440363
2239.000000	7.487570
2238.000000	7.491939
2237.000000	7.514316
2236.000000	7.546426
2235.000000	7.577693
2234.000000	7.597772
2233.000000	7.612562
2232.000000	7.638005
2231.000000	7.659463
2230.000000	7.655555
2229.000000	7.667740
2228.000000	7.700770
2227.000000	7.697091
2226.000000	7.710119
2225.000000	7.704908
2224.000000	7.709123
2223.000000	7.734259
2222.000000	7.728588
2221.000000	7.730504
2220.000000	7.736558
2219.000000	7.730274
2218.000000	7.745141
2217.000000	7.727898
2216.000000	7.720465
2215.000000	7.718932
2214.000000	7.714794
2213.000000	7.686515
2212.000000	7.697781
2211.000000	7.690424
2210.000000	7.665364
2209.000000	7.660076
2208.000000	7.647815
2207.000000	7.650037
2206.000000	7.645745
2205.000000	7.650497
2204.000000	7.629652
2203.000000	7.625514
2202.000000	7.622218
2201.000000	7.622602
2200.000000	7.607964
2199.000000	7.599994
2198.000000	7.598538
2197.000000	7.582981
2196.000000	7.603060
2195.000000	7.580606
2194.000000	7.577847
2193.000000	7.568574
2192.000000	7.565202
2191.000000	7.570796
2190.000000	7.577004
2189.000000	7.554933
2188.000000	7.552940
2187.000000	7.526501
2186.000000	7.541215
2185.000000	7.538226
2184.000000	7.512553
2183.000000	7.508492
2182.000000	7.489716
2181.000000	7.487111
2180.000000	7.482359
2179.000000	7.456686
2178.000000	7.454081
2177.000000	7.435842
2176.000000	7.443199
2175.000000	7.422890
2174.000000	7.412621
2173.000000	7.397524
2172.000000	7.406260
2171.000000	7.388787
2170.000000	7.388481
2169.000000	7.364034
2168.000000	7.359666
2167.000000	7.357903
2166.000000	7.345565
2165.000000	7.339588
2164.000000	7.332614
2163.000000	7.324491
2162.000000	7.311233
2161.000000	7.297668
2160.000000	7.291691
2159.000000	7.284947
2158.000000	7.259657
2157.000000	7.266784
2156.000000	7.265711
2155.000000	7.244866
2154.000000	7.235824
2153.000000	7.233141
2152.000000	7.230766
2151.000000	7.217891
2150.000000	7.199039
2149.000000	7.188923
2148.000000	7.189689
2147.000000	7.180570
2146.000000	7.179037
2145.000000	7.167235
2144.000000	7.156659
2143.000000	7.154054
2142.000000	7.138190
2141.000000	7.126005
2140.000000	7.115430
2139.000000	7.115123
2138.000000	7.107766
2137.000000	7.091826
2136.000000	7.080407
2135.000000	7.073740
2134.000000	7.044619
2133.000000	7.041936
2132.000000	7.037798
2131.000000	7.028832
2130.000000	7.024770
2129.000000	7.014194
2128.000000	6.996415
2127.000000	6.986452
2126.000000	6.961086
2125.000000	6.945376
2124.000000	6.942694
2123.000000	6.922692
2122.000000	6.906752
2121.000000	6.900698
2120.000000	6.886214
2119.000000	6.871193
2118.000000	6.873569
2117.000000	6.857858
2116.000000	6.838623
2115.000000	6.824905
2114.000000	6.824675
2113.000000	6.830270
2112.000000	6.818161
2111.000000	6.806283
2110.000000	6.798313
2109.000000	6.789960
2108.000000	6.793408
2107.000000	6.793562
2106.000000	6.791033
2105.000000	6.793485
2104.000000	6.790803
2103.000000	6.785668
2102.000000	6.793868
2101.000000	6.790190
2100.000000	6.787431
2099.000000	6.791186
2098.000000	6.801302
2097.000000	6.822836
2096.000000	6.834868
2095.000000	6.832799
2094.000000	6.833948
2093.000000	6.835021
2092.000000	6.846210
2091.000000	6.864756
2090.000000	6.868817
2089.000000	6.874258
2088.000000	6.881156
2087.000000	6.886597
2086.000000	6.909741
2085.000000	6.913112
2084.000000	6.914262
2083.000000	6.926064
2082.000000	6.929819
2081.000000	6.944150
2080.000000	6.958481
2079.000000	6.967600
2078.000000	6.984690
2077.000000	7.003006
2076.000000	7.014348
2075.000000	7.028985
2074.000000	7.042856
2073.000000	7.066919
2072.000000	7.075579
2071.000000	7.097803
2070.000000	7.112058
2069.000000	7.124396
2068.000000	7.158422
2067.000000	7.171373
2066.000000	7.188769
2065.000000	7.222566
2064.000000	7.240652
2063.000000	7.251227
2062.000000	7.282111
2061.000000	7.311233
2060.000000	7.318206
2059.000000	7.347711
2058.000000	7.372311
2057.000000	7.400283
2056.000000	7.436914
2055.000000	7.456073
2054.000000	7.480443
2053.000000	7.512247
2052.000000	7.553170
2051.000000	7.578843
2050.000000	7.611566
2049.000000	7.660689
2048.000000	7.694869
2047.000000	7.740697
2046.000000	7.786065
2045.000000	7.813960
2044.000000	7.843694
2043.000000	7.892664
2042.000000	7.942401
2041.000000	7.977193
2040.000000	8.008230
2039.000000	8.037505
2038.000000	8.072604
2037.000000	8.109312
2036.000000	8.166099
2035.000000	8.190009
2034.000000	8.218900
2033.000000	8.247026
2032.000000	8.280362
2031.000000	8.313852
2030.000000	8.327339
2029.000000	8.342207
2028.000000	8.363435
2027.000000	8.382593
2026.000000	8.407883
2025.000000	8.433326
2024.000000	8.445741
2023.000000	8.465513
2022.000000	8.480763
2021.000000	8.499232
2020.000000	8.511724
2019.000000	8.511724
2018.000000	8.531342
2017.000000	8.544217
2016.000000	8.557552
2015.000000	8.565982
2014.000000	8.566441
2013.000000	8.583378
2012.000000	8.587516
2011.000000	8.575178
2010.000000	8.573798
2009.000000	8.567974
2008.000000	8.568894
2007.000000	8.555099
2006.000000	8.567821
2005.000000	8.557475
2004.000000	8.543144
2003.000000	8.529503
2002.000000	8.520537
2001.000000	8.513410
2000.000000	8.498696
1999.000000	8.484135
1998.000000	8.468042
1997.000000	8.458156
1996.000000	8.444898
1995.000000	8.413861
1994.000000	8.386272
1993.000000	8.383206
1992.000000	8.372401
1991.000000	8.349487
1990.000000	8.332780
1989.000000	8.307567
1988.000000	8.281741
1987.000000	8.248328
1986.000000	8.243194
1985.000000	8.216372
1984.000000	8.186637
1983.000000	8.165639
1982.000000	8.145484
1981.000000	8.115290
1980.000000	8.082336
1979.000000	8.062181
1978.000000	8.034133
1977.000000	8.004552
1976.000000	7.980642
1975.000000	7.963475
1974.000000	7.942554
1973.000000	7.918414
1972.000000	7.881246
1971.000000	7.860324
1970.000000	7.824382
1969.000000	7.801008
1968.000000	7.777635
1967.000000	7.758706
1966.000000	7.745295
1965.000000	7.705598
1964.000000	7.685289
1963.000000	7.662145
1962.000000	7.621299
1961.000000	7.598538
1960.000000	7.584131
1959.000000	7.549492
1958.000000	7.522746
1957.000000	7.505350
1956.000000	7.477148
1955.000000	7.452855
1954.000000	7.430477
1953.000000	7.382657
1952.000000	7.345335
1951.000000	7.332920
1950.000000	7.336829
1949.000000	7.317057
1948.000000	7.295906
1947.000000	7.262723
1946.000000	7.233371
1945.000000	7.199345
1944.000000	7.185168
1943.000000	7.174132
1942.000000	7.170454
1941.000000	7.159801
1940.000000	7.120411
1939.000000	7.111981
1938.000000	7.077342
1937.000000	7.062321
1936.000000	7.048144
1935.000000	7.053202
1934.000000	7.054275
1933.000000	7.060635
1932.000000	7.071594
1931.000000	7.091673
1930.000000	7.090446
1929.000000	7.090753
1928.000000	7.084469
1927.000000	7.083549
1926.000000	7.090600
1925.000000	7.124856
1924.000000	7.166392
1923.000000	7.227624
1922.000000	7.256668
1921.000000	7.255366
1920.000000	7.285713
1919.000000	7.295906
1918.000000	7.347711
1917.000000	7.436531
1916.000000	7.537843
1915.000000	7.595396
1914.000000	7.643830
1913.000000	7.672644
1912.000000	7.720312
1911.000000	7.768515
1910.000000	7.884847
1909.000000	8.005855
1908.000000	8.117129
1907.000000	8.196140
1906.000000	8.293313
1905.000000	8.353625
1904.000000	8.419072
1903.000000	8.529120
1902.000000	8.650434
1901.000000	8.780867
1900.000000	8.868154
1899.000000	8.952300
1898.000000	9.030851
1897.000000	9.165806
1896.000000	9.303443
1895.000000	9.440007
1894.000000	9.570516
1893.000000	9.682557
1892.000000	9.772144
1891.000000	9.858282
1890.000000	9.919896
1889.000000	9.991780
1888.000000	10.117615
1887.000000	10.226361
1886.000000	10.347061
1885.000000	10.428755
1884.000000	10.505237
1883.000000	10.576507
1882.000000	10.639195
1881.000000	10.724413
1880.000000	10.829097
1879.000000	10.921519
1878.000000	11.008577
1877.000000	11.084446
1876.000000	11.134795
1875.000000	11.176331
1874.000000	11.227754
1873.000000	11.251051
1872.000000	11.256415
1871.000000	11.271053
1870.000000	11.275191
1869.000000	11.275651
1868.000000	11.303086
1867.000000	11.339948
1866.000000	11.373820
1865.000000	11.413288
1864.000000	11.451835
1863.000000	11.490153
1862.000000	11.533375
1861.000000	11.541652
1860.000000	11.528164
1859.000000	11.515059
1858.000000	11.493065
1857.000000	11.499502
1856.000000	11.529160
1855.000000	11.524255
1854.000000	11.504407
1853.000000	11.485401
1852.000000	11.476512
1851.000000	11.495057
1850.000000	11.537667
1849.000000	11.551461
1848.000000	11.500269
1847.000000	11.416276
1846.000000	11.351136
1845.000000	11.367766
1844.000000	11.438577
1843.000000	11.486474
1842.000000	11.485248
1841.000000	11.437198
1840.000000	11.391983
1839.000000	11.381024
1838.000000	11.379798
1837.000000	11.347764
1836.000000	11.304006
1835.000000	11.282701
1834.000000	11.288066
1833.000000	11.308451
1832.000000	11.315194
1831.000000	11.307071
1830.000000	11.281781
1829.000000	11.254499
1828.000000	11.236490
1827.000000	11.231892
1826.000000	11.208595
1825.000000	11.192731
1824.000000	11.217331
1823.000000	11.248752
1822.000000	11.258101
1821.000000	11.226298
1820.000000	11.172270
1819.000000	11.144374
1818.000000	11.163073
1817.000000	11.193804
1816.000000	11.204073
1815.000000	11.193191
1814.000000	11.191658
1813.000000	11.213499
1812.000000	11.209361
1811.000000	11.184225
1810.000000	11.175029
1809.000000	11.178247
1808.000000	11.181466
1807.000000	11.191275
1806.000000	11.181543
1805.000000	11.158169
1804.000000	11.159855
1803.000000	11.164070
1802.000000	11.160545
1801.000000	11.145984
1800.000000	11.122687
1799.000000	11.112264
1798.000000	11.107819
1797.000000	11.116786
1796.000000	11.106593
1795.000000	11.096554
1794.000000	11.087818
1793.000000	11.078775
1792.000000	11.079694
1791.000000	11.070115
1790.000000	11.074636
1789.000000	11.070268
1788.000000	11.059539
1787.000000	11.049960
1786.000000	11.044979
1785.000000	11.041070
1784.000000	11.017773
1783.000000	11.012409
1782.000000	11.013481
1781.000000	10.996775
1780.000000	10.987962
1779.000000	10.977233
1778.000000	10.961983
1777.000000	10.942671
1776.000000	10.934471
1775.000000	10.914009
1774.000000	10.896919
1773.000000	10.889562
1772.000000	10.875385
1771.000000	10.858525
1770.000000	10.851858
1769.000000	10.837450
1768.000000	10.823963
1767.000000	10.821127
1766.000000	10.804727
1765.000000	10.798136
1764.000000	10.799209
1763.000000	10.800819
1762.000000	10.803271
1761.000000	10.804880
1760.000000	10.812850
1759.000000	10.843504
1758.000000	10.867032
1757.000000	10.864426
1756.000000	10.873469
1755.000000	10.869177
1754.000000	10.879906
1753.000000	10.896459
1752.000000	10.891555
1751.000000	10.894544
1750.000000	10.898912
1749.000000	10.883968
1748.000000	10.876534
1747.000000	10.873086
1746.000000	10.864579
1745.000000	10.843351
1744.000000	10.833619
1743.000000	10.825572
1742.000000	10.797830
1741.000000	10.769551
1740.000000	10.752079
1739.000000	10.728628
1738.000000	10.719125
1737.000000	10.707937
1736.000000	10.682187
1735.000000	10.670079
1734.000000	10.661496
1733.000000	10.664255
1732.000000	10.678969
1731.000000	10.689621
1730.000000	10.684333
1729.000000	10.700350
1728.000000	10.719815
1727.000000	10.721118
1726.000000	10.745871
1725.000000	10.753611
1724.000000	10.751466
1723.000000	10.745181
1722.000000	10.745641
1721.000000	10.751925
1720.000000	10.769475
1719.000000	10.789170
1718.000000	10.796757
1717.000000	10.800972
1716.000000	10.801049
1715.000000	10.834155
1714.000000	10.820054
1713.000000	10.850555
1712.000000	10.847030
1711.000000	10.845727
1710.000000	10.870403
1709.000000	10.857146
1708.000000	10.854540
1707.000000	10.841895
1706.000000	10.845574
1705.000000	10.854387
1704.000000	10.844501
1703.000000	10.834155
1702.000000	10.840899
1701.000000	10.827334
1700.000000	10.831779
1699.000000	10.809249
1698.000000	10.816835
1697.000000	10.807026
1696.000000	10.802658
1695.000000	10.812544
1694.000000	10.827488
1693.000000	10.850402
1692.000000	10.849329
1691.000000	10.871630
1690.000000	10.891555
1689.000000	10.911786
1688.000000	10.929949
1687.000000	10.932938
1686.000000	10.947269
1685.000000	10.951560
1684.000000	10.983977
1683.000000	11.004132
1682.000000	11.039078
1681.000000	11.095481
1680.000000	11.142075
1679.000000	11.201238
1678.000000	11.251204
1677.000000	11.310750
1676.000000	11.342477
1675.000000	11.390144
1674.000000	11.434362
1673.000000	11.467469
1672.000000	11.501341
1671.000000	11.536211
1670.000000	11.551078
1669.000000	11.563799
1668.000000	11.584031
1667.000000	11.620356
1666.000000	11.642580
1665.000000	11.642963
1664.000000	11.644036
1663.000000	11.659440
1662.000000	11.676300
1661.000000	11.672085
1660.000000	11.677909
1659.000000	11.685573
1658.000000	11.679135
1657.000000	11.686186
1656.000000	11.694079
1655.000000	11.686645
1654.000000	11.686032
1653.000000	11.667946
1652.000000	11.678982
1651.000000	11.662505
1650.000000	11.653079
1649.000000	11.643730
1648.000000	11.630472
1647.000000	11.627330
1646.000000	11.626793
1645.000000	11.608248
1644.000000	11.601197
1643.000000	11.588093
1642.000000	11.577823
1641.000000	11.564336
1640.000000	11.546939
1639.000000	11.524025
1638.000000	11.510844
1637.000000	11.503027
1636.000000	11.490766
1635.000000	11.466856
1634.000000	11.451682
1633.000000	11.434516
1632.000000	11.423020
1631.000000	11.409532
1630.000000	11.389607
1629.000000	11.364624
1628.000000	11.358340
1627.000000	11.347535
1626.000000	11.321249
1625.000000	11.297492
1624.000000	11.285000
1623.000000	11.263159
1622.000000	11.254959
1621.000000	11.234957
1620.000000	11.208288
1619.000000	11.194571
1618.000000	11.167212
1617.000000	11.152728
1616.000000	11.134872
1615.000000	11.100539
1614.000000	11.084369
1613.000000	11.069962
1612.000000	11.038694
1611.000000	11.017007
1610.000000	11.001603
1609.000000	10.972865
1608.000000	10.955775
1607.000000	10.925504
1606.000000	10.911327
1605.000000	10.893547
1604.000000	10.873775
1603.000000	10.831933
1602.000000	10.801892
1601.000000	10.790243
1600.000000	10.770165
1599.000000	10.754454
1598.000000	10.738361
1597.000000	10.722421
1596.000000	10.706174
1595.000000	10.669926
1594.000000	10.652453
1593.000000	10.631991
1592.000000	10.614978
1591.000000	10.596509
1590.000000	10.577887
1589.000000	10.565472
1588.000000	10.568537
1587.000000	10.547003
1586.000000	10.529990
1585.000000	10.528150
1584.000000	10.521330
1583.000000	10.519874
1582.000000	10.520793
1581.000000	10.510908
1580.000000	10.505160
1579.000000	10.493128
1578.000000	10.488607
1577.000000	10.484392
1576.000000	10.474966
1575.000000	10.469295
1574.000000	10.469065
1573.000000	10.473739
1572.000000	10.475732
1571.000000	10.475272
1570.000000	10.473816
1569.000000	10.473126
1568.000000	10.466612
1567.000000	10.459025
1566.000000	10.469371
1565.000000	10.467685
1564.000000	10.458259
1563.000000	10.453508
1562.000000	10.452665
1561.000000	10.462014
1560.000000	10.464696
1559.000000	10.457493
1558.000000	10.450672
1557.000000	10.447913
1556.000000	10.433429
1555.000000	10.429751
1554.000000	10.434502
1553.000000	10.427528
1552.000000	10.414807
1551.000000	10.415573
1550.000000	10.415190
1549.000000	10.414117
1548.000000	10.405764
1547.000000	10.401932
1546.000000	10.392429
1545.000000	10.385762
1544.000000	10.388291
1543.000000	10.387908
1542.000000	10.371891
1541.000000	10.375570
1540.000000	10.375876
1539.000000	10.370129
1538.000000	10.364228
1537.000000	10.366833
1536.000000	10.375646
1535.000000	10.371355
1534.000000	10.366910
1533.000000	10.360932
1532.000000	10.359170
1531.000000	10.359553
1530.000000	10.350663
1529.000000	10.338861
1528.000000	10.328209
1527.000000	10.330968
1526.000000	10.330968
1525.000000	10.327213
1524.000000	10.318017
1523.000000	10.303226
1522.000000	10.302230
1521.000000	10.286136
1520.000000	10.278396
1519.000000	10.273645
1518.000000	10.268587
1517.000000	10.259237
1516.000000	10.243221
1515.000000	10.231649
1514.000000	10.227664
1513.000000	10.214406
1512.000000	10.201761
1511.000000	10.177774
1510.000000	10.151565
1509.000000	10.152714
1508.000000	10.155473
1507.000000	10.131486
1506.000000	10.116619
1505.000000	10.123286
1504.000000	10.103131
1503.000000	10.099376
1502.000000	10.090180
1501.000000	10.072860
1500.000000	10.061135
1499.000000	10.056690
1498.000000	10.055771
1497.000000	10.044812
1496.000000	10.034849
1495.000000	10.023124
1494.000000	10.011859
1493.000000	10.013775
1492.000000	10.010863
1491.000000	10.001513
1490.000000	9.999444
1489.000000	9.990171
1488.000000	9.988255
1487.000000	10.006188
1486.000000	10.001896
1485.000000	9.995919
1484.000000	10.003122
1483.000000	9.994922
1482.000000	9.997528
1481.000000	10.001206
1480.000000	10.014158
1479.000000	10.020212
1478.000000	10.028029
1477.000000	10.037838
1476.000000	10.040827
1475.000000	10.055081
1474.000000	10.058453
1473.000000	10.065274
1472.000000	10.079604
1471.000000	10.089490
1470.000000	10.109875
1469.000000	10.115546
1468.000000	10.115163
1467.000000	10.145664
1466.000000	10.159612
1465.000000	10.160914
1464.000000	10.184135
1463.000000	10.194710
1462.000000	10.201838
1461.000000	10.225978
1460.000000	10.242454
1459.000000	10.264908
1458.000000	10.274718
1457.000000	10.306981
1456.000000	10.316561
1455.000000	10.326370
1454.000000	10.345682
1453.000000	10.372198
1452.000000	10.415803
1451.000000	10.427145
1450.000000	10.451285
1449.000000	10.452052
1448.000000	10.469601
1447.000000	10.502631
1446.000000	10.536810
1445.000000	10.566928
1444.000000	10.592218
1443.000000	10.606012
1442.000000	10.629922
1441.000000	10.655288
1440.000000	10.683490
1439.000000	10.716213
1438.000000	10.747174
1437.000000	10.789630
1436.000000	10.812620
1435.000000	10.855383
1434.000000	10.883202
1433.000000	10.904583
1432.000000	10.958457
1431.000000	11.008807
1430.000000	11.054558
1429.000000	11.081840
1428.000000	11.135332
1427.000000	11.170584
1426.000000	11.216488
1425.000000	11.292357
1424.000000	11.359566
1423.000000	11.409456
1422.000000	11.453751
1421.000000	11.531612
1420.000000	11.595833
1419.000000	11.657294
1418.000000	11.712318
1417.000000	11.742283
1416.000000	11.810411
1415.000000	11.878234
1414.000000	11.943987
1413.000000	12.013495
1412.000000	12.079018
1411.000000	12.141093
1410.000000	12.231216
1409.000000	12.311683
1408.000000	12.358967
1407.000000	12.431387
1406.000000	12.497676
1405.000000	12.588796
1404.000000	12.646042
1403.000000	12.708117
1402.000000	12.793335
1401.000000	12.893421
1400.000000	12.936413
1399.000000	12.956492
1398.000000	12.992280
1397.000000	13.033357
1396.000000	13.107156
1395.000000	13.127848
1394.000000	13.148156
1393.000000	13.176818
1392.000000	13.230463
1391.000000	13.251384
1390.000000	13.284107
1389.000000	13.333230
1388.000000	13.388331
1387.000000	13.439983
1386.000000	13.455464
1385.000000	13.520527
1384.000000	13.594327
1383.000000	13.644523
1382.000000	13.685676
1381.000000	13.707747
1380.000000	13.720852
1379.000000	13.724683
1378.000000	13.743076
1377.000000	13.750433
1376.000000	13.770818
1375.000000	13.790360
1374.000000	13.816799
1373.000000	13.860251
1372.000000	13.907382
1371.000000	13.970069
1370.000000	14.005475
1369.000000	14.040421
1368.000000	14.094218
1367.000000	14.135985
1366.000000	14.171007
1365.000000	14.196220
1364.000000	14.227027
1363.000000	14.240209
1362.000000	14.277223
1361.000000	14.313319
1360.000000	14.327803
1359.000000	14.328339
1358.000000	14.358304
1357.000000	14.375930
1356.000000	14.407273
1355.000000	14.487051
1354.000000	14.541845
1353.000000	14.590049
1352.000000	14.656721
1351.000000	14.721861
1350.000000	14.776579
1349.000000	14.849689
1348.000000	14.901954
1347.000000	14.949161
1346.000000	14.976750
1345.000000	15.022348
1344.000000	15.068789
1343.000000	15.128488
1342.000000	15.156690
1341.000000	15.194547
1340.000000	15.231945
1339.000000	15.259304
1338.000000	15.288196
1337.000000	15.323065
1336.000000	15.348891
1335.000000	15.383913
1334.000000	15.410735
1333.000000	15.433496
1332.000000	15.462158
1331.000000	15.484152
1330.000000	15.506070
1329.000000	15.530746
1328.000000	15.548985
1327.000000	15.560251
1326.000000	15.579486
1325.000000	15.599795
1324.000000	15.617421
1323.000000	15.643707
1322.000000	15.663019
1321.000000	15.673058
1320.000000	15.688538
1319.000000	15.698424
1318.000000	15.706931
1317.000000	15.718886
1316.000000	15.736512
1315.000000	15.742949
1314.000000	15.745248
1313.000000	15.763258
1312.000000	15.770385
1311.000000	15.762568
1310.000000	15.764024
1309.000000	15.763411
1308.000000	15.760345
1307.000000	15.776286
1306.000000	15.780730
1305.000000	15.767089
1304.000000	15.767089
1303.000000	15.764560
1302.000000	15.763181
1301.000000	15.765710
1300.000000	15.758430
1299.000000	15.754215
1298.000000	15.758276
1297.000000	15.749693
1296.000000	15.735132
1295.000000	15.733063
1294.000000	15.728542
1293.000000	15.714134
1292.000000	15.714134
1291.000000	15.707544
1290.000000	15.699190
1289.000000	15.684323
1288.000000	15.676736
1287.000000	15.671295
1286.000000	15.659493
1285.000000	15.659800
1284.000000	15.648535
1283.000000	15.636426
1282.000000	15.631522
1281.000000	15.613589
1280.000000	15.605466
1279.000000	15.602477
1278.000000	15.590598
1277.000000	15.585387
1276.000000	15.572742
1275.000000	15.555116
1274.000000	15.539636
1273.000000	15.540939
1272.000000	15.541015
1271.000000	15.533275
1270.000000	15.526838
1269.000000	15.523542
1268.000000	15.521933
1267.000000	15.510591
1266.000000	15.501318
1265.000000	15.497486
1264.000000	15.482696
1263.000000	15.466449
1262.000000	15.455567
1261.000000	15.446677
1260.000000	15.442232
1259.000000	15.438631
1258.000000	15.430047
1257.000000	15.407210
1256.000000	15.398091
1255.000000	15.374257
1254.000000	15.357167
1253.000000	15.358777
1252.000000	15.361995
1251.000000	15.342530
1250.000000	15.307738
1249.000000	15.297392
1248.000000	15.285130
1247.000000	15.288119
1246.000000	15.260684
1245.000000	15.235854
1244.000000	15.232022
1243.000000	15.208802
1242.000000	15.197843
1241.000000	15.183818
1240.000000	15.165043
1239.000000	15.144811
1238.000000	15.125422
1237.000000	15.127185
1236.000000	15.104348
1235.000000	15.091473
1234.000000	15.054535
1233.000000	15.027176
1232.000000	15.019666
1231.000000	14.992920
1230.000000	14.971769
1229.000000	14.935827
1228.000000	14.920960
1227.000000	14.910154
1226.000000	14.879883
1225.000000	14.866548
1224.000000	14.844784
1223.000000	14.784702
1222.000000	14.761635
1221.000000	14.747227
1220.000000	14.729065
1219.000000	14.719256
1218.000000	14.686532
1217.000000	14.669902
1216.000000	14.641164
1215.000000	14.627906
1214.000000	14.618404
1213.000000	14.611583
1212.000000	14.579856
1211.000000	14.564836
1210.000000	14.552344
1209.000000	14.535331
1208.000000	14.527514
1207.000000	14.516402
1206.000000	14.507742
1205.000000	14.503604
1204.000000	14.502991
1203.000000	14.498853
1202.000000	14.497856
1201.000000	14.499159
1200.000000	14.486744
1199.000000	14.476935
1198.000000	14.467279
1197.000000	14.474253
1196.000000	14.444442
1195.000000	14.414630
1194.000000	14.387195
1193.000000	14.337382
1192.000000	14.308721
1191.000000	14.245803
1190.000000	14.199822
1189.000000	14.153687
1188.000000	14.141273
1187.000000	14.113837
1186.000000	14.131157
1185.000000	14.142192
1184.000000	14.158362
1183.000000	14.198289
1182.000000	14.265498
1181.000000	14.311633
1180.000000	14.365890
1179.000000	14.420761
1178.000000	14.458006
1177.000000	14.504983
1176.000000	14.555716
1175.000000	14.585757
1174.000000	14.622772
1173.000000	14.654039
1172.000000	14.693966
1171.000000	14.711209
1170.000000	14.758799
1169.000000	14.800259
1168.000000	14.848386
1167.000000	14.882872
1166.000000	14.918507
1165.000000	14.974144
1164.000000	15.037139
1163.000000	15.070628
1162.000000	15.102355
1161.000000	15.155770
1160.000000	15.201138
1159.000000	15.235087
1158.000000	15.286280
1157.000000	15.307431
1156.000000	15.341457
1155.000000	15.373491
1154.000000	15.373337
1153.000000	15.392573
1152.000000	15.388128
1151.000000	15.386902
1150.000000	15.392956
1149.000000	15.382150
1148.000000	15.399700
1147.000000	15.400466
1146.000000	15.418246
1145.000000	15.433496
1144.000000	15.456487
1143.000000	15.487371
1142.000000	15.506453
1141.000000	15.544924
1140.000000	15.569140
1139.000000	15.619873
1138.000000	15.641867
1137.000000	15.673518
1136.000000	15.720342
1135.000000	15.759809
1134.000000	15.797360
1133.000000	15.813070
1132.000000	15.838130
1131.000000	15.852538
1130.000000	15.878517
1129.000000	15.894610
1128.000000	15.922122
1127.000000	15.916911
1126.000000	15.922812
1125.000000	15.926644
1124.000000	15.931778
1123.000000	15.941434
1122.000000	15.941358
1121.000000	15.936990
1120.000000	15.940592
1119.000000	15.934997
1118.000000	15.932928
1117.000000	15.929249
1116.000000	15.925341
1115.000000	15.921203
1114.000000	15.917064
1113.000000	15.905493
1112.000000	15.900971
1111.000000	15.885261
1110.000000	15.877904
1109.000000	15.875681
1108.000000	15.867788
1107.000000	15.876908
1106.000000	15.851848
1105.000000	15.840506
1104.000000	15.831386
1103.000000	15.818358
1102.000000	15.820964
1101.000000	15.828474
1100.000000	15.823186
1099.000000	15.801805
1098.000000	15.796671
1097.000000	15.786631
1096.000000	15.776669
1095.000000	15.760958
1094.000000	15.746245
1093.000000	15.740574
1092.000000	15.730611
1091.000000	15.728082
1090.000000	15.715437
1089.000000	15.691604
1088.000000	15.677809
1087.000000	15.666544
1086.000000	15.650297
1085.000000	15.629069
1084.000000	15.635890
1083.000000	15.620256
1082.000000	15.606079
1081.000000	15.603550
1080.000000	15.585081
1079.000000	15.567301
1078.000000	15.567454
1077.000000	15.550825
1076.000000	15.533888
1075.000000	15.534271
1074.000000	15.524309
1073.000000	15.503924
1072.000000	15.490053
1071.000000	15.471584
1070.000000	15.460472
1069.000000	15.451505
1068.000000	15.434262
1067.000000	15.412728
1066.000000	15.405294
1065.000000	15.394259
1064.000000	15.371575
1063.000000	15.360079
1062.000000	15.338009
1061.000000	15.319463
1060.000000	15.307738
1059.000000	15.297315
1058.000000	15.293713
1057.000000	15.272179
1056.000000	15.253250
1055.000000	15.246889
1054.000000	15.230643
1053.000000	15.215316
1052.000000	15.210104
1051.000000	15.206962
1050.000000	15.196233
1049.000000	15.171404
1048.000000	15.156536
1047.000000	15.147263
1046.000000	15.124196
1045.000000	15.115383
1044.000000	15.116533
1043.000000	15.100133
1042.000000	15.093542
1041.000000	15.084423
1040.000000	15.066720
1039.000000	15.053692
1038.000000	15.034073
1037.000000	15.025567
1036.000000	15.016677
1035.000000	15.000507
1034.000000	14.988169
1033.000000	14.979815
1032.000000	14.965408
1031.000000	14.950081
1030.000000	14.935980
1029.000000	14.920576
1028.000000	14.907778
1027.000000	14.892298
1026.000000	14.875362
1025.000000	14.859805
1024.000000	14.846164
1023.000000	14.835588
1022.000000	14.823863
1021.000000	14.811371
1020.000000	14.795124
1019.000000	14.776196
1018.000000	14.759566
1017.000000	14.743396
1016.000000	14.734583
1015.000000	14.719869
1014.000000	14.698871
1013.000000	14.693966
1012.000000	14.688525
1011.000000	14.678102
1010.000000	14.659940
1009.000000	14.643080
1008.000000	14.639785
1007.000000	14.630435
1006.000000	14.622619
1005.000000	14.610050
1004.000000	14.592577
1003.000000	14.592194
1002.000000	14.579473
1001.000000	14.557862
1000.000000	14.547516
999.000000	14.534871
998.000000	14.528970
997.000000	14.525598
996.000000	14.512034
995.000000	14.493258
994.000000	14.478391
993.000000	14.447507
992.000000	14.451799
991.000000	14.444442
990.000000	14.428348
989.000000	14.420915
988.000000	14.419612
987.000000	14.401296
986.000000	14.393402
985.000000	14.380911
984.000000	14.365967
983.000000	14.352556
982.000000	14.342057
981.000000	14.330102
980.000000	14.311863
979.000000	14.309257
978.000000	14.297455
977.000000	14.285040
976.000000	14.274311
975.000000	14.261437
974.000000	14.240822
973.000000	14.240822
972.000000	14.230706
971.000000	14.211087
970.000000	14.204420
969.000000	14.199132
968.000000	14.185338
967.000000	14.165796
966.000000	14.149089
965.000000	14.137058
964.000000	14.134529
963.000000	14.111002
962.000000	14.105714
961.000000	14.098357
960.000000	14.068162
959.000000	14.067319
958.000000	14.035439
957.000000	14.021568
956.000000	14.006011
955.000000	13.997198
954.000000	13.973901
953.000000	13.965701
952.000000	13.939185
951.000000	13.916425
950.000000	13.904010
949.000000	13.870444
948.000000	13.864696
947.000000	13.836341
946.000000	13.822163
945.000000	13.794268
944.000000	13.796644
943.000000	13.763921
942.000000	13.731734
941.000000	13.714567
940.000000	13.697631
939.000000	13.693033
938.000000	13.680311
937.000000	13.647358
936.000000	13.632031
935.000000	13.613409
934.000000	13.603753
933.000000	13.589652
932.000000	13.566355
931.000000	13.546736
930.000000	13.527807
929.000000	13.494088
928.000000	13.480907
927.000000	13.480830
926.000000	13.450252
925.000000	13.435692
924.000000	13.416226
923.000000	13.396761
922.000000	13.380055
921.000000	13.370322
920.000000	13.352236
919.000000	13.332847
918.000000	13.314531
917.000000	13.317214
916.000000	13.287479
915.000000	13.266481
914.000000	13.251691
913.000000	13.224255
912.000000	13.220807
911.000000	13.219197
910.000000	13.192222
909.000000	13.176741
908.000000	13.164480
907.000000	13.187777
906.000000	13.175745
905.000000	13.171607
904.000000	13.165936
903.000000	13.167238
902.000000	13.175975
901.000000	13.156586
900.000000	13.173216
899.000000	13.172910
898.000000	13.163253
897.000000	13.174672
896.000000	13.177124
895.000000	13.183409
894.000000	13.185861
893.000000	13.208698
892.000000	13.241728
891.000000	13.241651
890.000000	13.247706
889.000000	13.274604
888.000000	13.296905
887.000000	13.304416
886.000000	13.349477
885.000000	13.394998
884.000000	13.399060
883.000000	13.443432
882.000000	13.466039
881.000000	13.500065
880.000000	13.549418
879.000000	13.615708
878.000000	13.669659
877.000000	13.689354
876.000000	13.739704
875.000000	13.831206
874.000000	13.872666
873.000000	13.957884
872.000000	14.052452
871.000000	14.106863
870.000000	14.193614
869.000000	14.295233
868.000000	14.381064
867.000000	14.499696
866.000000	14.613882
865.000000	14.739947
864.000000	14.804704
863.000000	14.924485
862.000000	15.068406
861.000000	15.202901
860.000000	15.363835
859.000000	15.515036
858.000000	15.017367
857.000000	14.994200
856.000000	15.067400
855.000000	14.990500
854.000000	14.925900
853.000000	15.098600
852.000000	15.011700
851.000000	15.041600
850.000000	14.941900
849.000000	14.878900
848.000000	14.969000
847.000000	14.924400
846.000000	14.897800
845.000000	14.852500
844.000000	14.849200
843.000000	14.855000
842.000000	14.847300
841.000000	14.767700
840.000000	14.729300
839.000000	14.715100
838.000000	14.707200
837.000000	14.636600
836.000000	14.717400
835.000000	14.685600
834.000000	14.644500
833.000000	14.621800
832.000000	14.534800
831.000000	14.557700
830.000000	14.582600
829.000000	14.535400
828.000000	14.419100
827.000000	14.487200
826.000000	14.397800
825.000000	14.365800
824.000000	14.368200
823.000000	14.403200
822.000000	14.351100
821.000000	14.324800
820.000000	14.230000
819.000000	14.214500
818.000000	14.190100
817.000000	14.220500
816.000000	14.177800
815.000000	14.145600
814.000000	14.138700
813.000000	14.094800
812.000000	14.094500
811.000000	14.058300
810.000000	14.032400
809.000000	13.994400
808.000000	13.990400
807.000000	13.915100
806.000000	13.872700
805.000000	13.848600
804.000000	13.817100
803.000000	13.812600
802.000000	13.764300
801.000000	13.703500
800.000000	13.690700
799.000000	13.651100
798.000000	13.620100
797.000000	13.586200
796.000000	13.562500
795.000000	13.534400
794.000000	13.464300
793.000000	13.472200
792.000000	13.473800
791.000000	13.415900
790.000000	13.365300
789.000000	13.325300
788.000000	13.297500
787.000000	13.275500
786.000000	13.267100
785.000000	13.208800
784.000000	13.203000
783.000000	13.146500
782.000000	13.100500
781.000000	13.091000
780.000000	13.079200
779.000000	13.054100
778.000000	13.048100
777.000000	13.024800
776.000000	12.979800
775.000000	12.951000
774.000000	12.956500
773.000000	12.938200
772.000000	12.908900
771.000000	12.878500
770.000000	12.865300
769.000000	12.830700
768.000000	12.823800
767.000000	12.838500
766.000000	12.827300
765.000000	12.814900
764.000000	12.785500
763.000000	12.750900
762.000000	12.737400
761.000000	12.719200
760.000000	12.693300
759.000000	12.685800
758.000000	12.702500
757.000000	12.686600
756.000000	12.656100
755.000000	12.637500
754.000000	12.626700
753.000000	12.619800
752.000000	12.605500
751.000000	12.589500
750.000000	12.557300
749.000000	12.546100
748.000000	12.531900
747.000000	12.516400
746.000000	12.508500
745.000000	12.493200
744.000000	12.495200
743.000000	12.484700
742.000000	12.471100
741.000000	12.434000
740.000000	12.390100
739.000000	12.371800
738.000000	12.346400
737.000000	12.336900
736.000000	12.314900
735.000000	12.281800
734.000000	12.248900
733.000000	12.228500
732.000000	12.210700
731.000000	12.183600
730.000000	12.160800
729.000000	12.132800
728.000000	12.097500
727.000000	12.076900
726.000000	12.052300
725.000000	12.023400
724.000000	11.995300
723.000000	11.972800
722.000000	11.940900
721.000000	11.881200
720.000000	11.850100
719.000000	11.825700
718.000000	11.791500
717.000000	11.760200
716.000000	11.725000
715.000000	11.764400
714.000000	11.705800
713.000000	11.622300
712.000000	11.598300
711.000000	11.588700
710.000000	11.560400
709.000000	11.484200
708.000000	11.454200
707.000000	11.434100
706.000000	11.409100
705.000000	11.361000
704.000000	11.331500
703.000000	11.292200
702.000000	11.256900
701.000000	11.205400
700.000000	11.168500
699.000000	11.071600
698.000000	11.065900
697.000000	11.073900
696.000000	11.045500
695.000000	10.991800
694.000000	10.954200
693.000000	10.917000
692.000000	10.882000
691.000000	10.832400
690.000000	10.779500
689.000000	10.721700
688.000000	10.668900
687.000000	10.633900
686.000000	10.600300
685.000000	10.558900
684.000000	10.510700
683.000000	10.467400
682.000000	10.439100
681.000000	10.393800
680.000000	10.352600
679.000000	10.315000
678.000000	10.260600
677.000000	10.211500
676.000000	10.179600
675.000000	10.145600
674.000000	10.108000
673.000000	10.045800
672.000000	10.014000
671.000000	9.988500
670.000000	9.948700
669.000000	9.904700
668.000000	9.873800
667.000000	9.851800
666.000000	9.815700
665.000000	9.791000
664.000000	9.765800
663.000000	9.743500
662.000000	9.708200
661.000000	9.678300
660.000000	9.661700
659.000000	9.628400
658.000000	9.579400
657.000000	9.573900
656.000000	9.552000
655.000000	9.502600
654.000000	9.483100
653.000000	9.464900
652.000000	9.438900
651.000000	9.404300
650.000000	9.381000
649.000000	9.348200
648.000000	9.316500
647.000000	9.281800
646.000000	9.259300
645.000000	9.228300
644.000000	9.192700
643.000000	9.146200
642.000000	9.115300
641.000000	9.079700
640.000000	9.043400
639.000000	9.003400
638.000000	8.958900
637.000000	8.920900
636.000000	8.879300
635.000000	8.824200
634.000000	8.778700
633.000000	8.744600
632.000000	8.684600
631.000000	8.662800
630.000000	8.603700
629.000000	8.555000
628.000000	8.531400
627.000000	8.476800
626.000000	8.435800
625.000000	8.397400
624.000000	8.353800
623.000000	8.301900
622.000000	8.264000
621.000000	8.255400
620.000000	8.215000
619.000000	8.167300
618.000000	8.145200
617.000000	8.091800
616.000000	8.059500
615.000000	8.036900
614.000000	8.003000
613.000000	7.965600
612.000000	7.927900
611.000000	7.902800
610.000000	7.858500
609.000000	7.828000
608.000000	7.788100
607.000000	7.753800
606.000000	7.725700
605.000000	7.693500
604.000000	7.663800
603.000000	7.639000
602.000000	7.582500
601.000000	7.550500
600.000000	7.527800
599.000000	7.482400
598.000000	7.465000
597.000000	7.428400
596.000000	7.404400
595.000000	7.368500
594.000000	7.341100
593.000000	7.306600
592.000000	7.285200
591.000000	7.263800
590.000000	7.246900
589.000000	7.212600
588.000000	7.197500
587.000000	7.179200
586.000000	7.152000
585.000000	7.134300
584.000000	7.115100
583.000000	7.105700
582.000000	7.090500
581.000000	7.073900
580.000000	7.064500
579.000000	7.039700
578.000000	7.028800
577.000000	7.019700
576.000000	6.987400
575.000000	6.985600
574.000000	6.964000
573.000000	6.945100
572.000000	6.934800
571.000000	6.921400
570.000000	6.905700
569.000000	6.883800
568.000000	6.879500
567.000000	6.861500
566.000000	6.837900
565.000000	6.826300
564.000000	6.814100
563.000000	6.803500
562.000000	6.778500
561.000000	6.764300
560.000000	6.765100
559.000000	6.894000
558.000000	6.875800
557.000000	6.858300
556.000000	6.836600
555.000000	6.804800
554.000000	6.790800
553.000000	6.765700
552.000000	6.746600
551.000000	6.720600
550.000000	6.696400
549.000000	6.669100
548.000000	6.648800
547.000000	6.613800
546.000000	6.579200
545.000000	6.559900
544.000000	6.528100
543.000000	6.497200
542.000000	6.460500
541.000000	6.426200
540.000000	6.401300
539.000000	6.368800
538.000000	6.341200
537.000000	6.316300
536.000000	6.275500
535.000000	6.252400
534.000000	6.231100
533.000000	6.200500
532.000000	6.166500
531.000000	6.146600
530.000000	6.127000
529.000000	6.107100
528.000000	6.082700
527.000000	6.054600
526.000000	6.026500
525.000000	6.007100
524.000000	5.991200
523.000000	5.969500
522.000000	5.946500
521.000000	5.935800
520.000000	5.922600
519.000000	5.896800
518.000000	5.873900
517.000000	5.839700
516.000000	5.823200
515.000000	5.797100
514.000000	5.767300
513.000000	5.737300
512.000000	5.713900
511.000000	5.675000
510.000000	5.633400
509.000000	5.591000
508.000000	5.544000
507.000000	5.500700
506.000000	5.457100
505.000000	5.415000
504.000000	5.362300
503.000000	5.302700
502.000000	5.252800
501.000000	5.204500
500.000000	5.159900
499.000000	5.106800
498.000000	5.048000
497.000000	4.999300
496.000000	4.953900
495.000000	4.899600
494.000000	4.841200
493.000000	4.783400
492.000000	4.737200
491.000000	4.675800
490.000000	4.618200
489.000000	4.561400
488.000000	4.505800
487.000000	4.450100
486.000000	4.395500
485.000000	4.348000
484.000000	4.305900
483.000000	4.260100
482.000000	4.210900
481.000000	4.162600
480.000000	4.115300
479.000000	4.083200
478.000000	4.060200
477.000000	4.031300
476.000000	3.998700
475.000000	3.972300
474.000000	3.948900
473.000000	3.929200
472.000000	3.905800
471.000000	3.882200
470.000000	3.857900
469.000000	3.833400
468.000000	3.808000
467.000000	3.784900
466.000000	3.762700
465.000000	3.736900
464.000000	3.716300
463.000000	3.699400
462.000000	3.674400
461.000000	3.651400
460.000000	3.623000
459.000000	3.594600
458.000000	3.572200
457.000000	3.552700
456.000000	3.532300
455.000000	3.511900
454.000000	3.494600
453.000000	3.476200
452.000000	3.456700
451.000000	3.441300
450.000000	3.422700
449.000000	3.406900
448.000000	3.399600
447.000000	3.391900
446.000000	3.384900
445.000000	3.379000
444.000000	3.377900
443.000000	3.372000
442.000000	3.362200
441.000000	3.352300
440.000000	3.346600
439.000000	3.341900
438.000000	3.340700
437.000000	3.327100
436.000000	3.309600
435.000000	3.310000
434.000000	3.312000
433.000000	3.306000
432.000000	3.296900
431.000000	3.293400
430.000000	3.282500
429.000000	3.263200
428.000000	3.244800
427.000000	3.225900
426.000000	3.203800
425.000000	3.187000
424.000000	3.169900
423.000000	3.160900
422.000000	3.149900
421.000000	3.131100
420.000000	3.112800
419.000000	3.099000
418.000000	3.081200
417.000000	3.061600
416.000000	3.042000
415.000000	3.023700
414.000000	3.006800
413.000000	2.986600
412.000000	2.964600
411.000000	2.939600
410.000000	2.917900
409.000000	2.903300
408.000000	2.879000
407.000000	2.858100
406.000000	2.839800
405.000000	2.813300
404.000000	2.788200
403.000000	2.762900
402.000000	2.736700
401.000000	2.718200
400.000000	2.685800
399.000000	2.654500
398.000000	2.633200
397.000000	2.602900
396.000000	2.572200
395.000000	2.542500
394.000000	2.512900
393.000000	2.477300
392.000000	2.447800
391.000000	2.417300
390.000000	2.389500
389.000000	2.350700
388.000000	2.323700
387.000000	2.301100
386.000000	2.262700
385.000000	2.225400
384.000000	2.201400
383.000000	2.169000
382.000000	2.136400
381.000000	2.109300
380.000000	2.086500
379.000000	2.059400
378.000000	2.027000
377.000000	2.000600
376.000000	2.122600
375.000000	2.186500
374.000000	2.161900
373.000000	2.111600
372.000000	2.099000
371.000000	2.042600
370.000000	2.022100
369.000000	2.022300
368.000000	2.031700
367.000000	2.001500
366.000000	1.989700
365.000000	1.936600
364.000000	1.892300
363.000000	1.888100
362.000000	1.880600
361.000000	1.869100
360.000000	1.859800
359.000000	1.835400
358.000000	1.809700
357.000000	1.796200
356.000000	1.774500
355.000000	1.771800
354.000000	1.781800
353.000000	1.747600
352.000000	1.734800
351.000000	1.684200
350.000000	1.687100
349.000000	1.659600
348.000000	1.659500
347.000000	1.639500
346.000000	1.627600
345.000000	1.672400
344.000000	1.605200
343.000000	1.607600
342.000000	1.588200
341.000000	1.598300
340.000000	1.615700
339.000000	1.588900
338.000000	1.579000
337.000000	1.570700
336.000000	1.585500
335.000000	1.553400
334.000000	1.545700
333.000000	1.529000
332.000000	1.551100
331.000000	1.507100
330.000000	1.545500
329.000000	1.485900
328.000000	1.546100
327.000000	1.524300
326.000000	1.482600
325.000000	1.471200
324.000000	1.433900
323.000000	1.448200
322.000000	1.427300
321.000000	1.466000
320.000000	1.435200
319.000000	1.434300
318.000000	1.527000
317.000000	1.489400
316.000000	1.334200
315.000000	1.308100
314.000000	1.291700
313.000000	1.294600
312.000000	1.274100
311.000000	1.283700
310.000000	1.287800
309.000000	1.274700
308.000000	1.298100
307.000000	1.267700
306.000000	1.265900
305.000000	1.267500
304.000000	1.280600
303.000000	1.256600
302.000000	1.260500
301.000000	1.252700
300.000000	1.234400
299.000000	1.234400
298.000000	1.246700
297.000000	1.239300
296.000000	1.225700
295.000000	1.231300
294.000000	1.239400
293.000000	1.214300
292.000000	1.229000
291.000000	1.222700
290.000000	1.216000
289.000000	1.178000
288.000000	1.197200
287.000000	1.212600
286.000000	1.185400
285.000000	1.202600
284.000000	1.214000
283.000000	1.191500
282.000000	1.204500
281.000000	1.222700
280.000000	1.199800
279.000000	1.189300
278.000000	1.227100
277.000000	1.217300
276.000000	1.224100
275.000000	1.225600
274.000000	1.236300
273.000000	1.230200
272.000000	1.238300
271.000000	1.203000
270.000000	1.244500
269.000000	1.257300
268.000000	1.260700
267.000000	1.259100
266.000000	1.235900
265.000000	1.252200
264.000000	1.252600
263.000000	1.248600
262.000000	1.237800
261.000000	1.254100
260.000000	1.286800
259.000000	1.262000
258.000000	1.262000
257.000000	1.229900
256.000000	1.258700
255.000000	1.264700
254.000000	1.247800
253.000000	1.247500
252.000000	1.245000
251.000000	1.246700
250.000000	1.227500
