PE UV       SUBTECH     SPECTRUM    ASCII       PEDS        4.00        
   -1
CICIMAUCR0233-2.ASC
24/06/14
13:27:51.00
24/06/14
13:27:51.00
Vinicio Soto Monge
C. resplendens. Sex F. Ventral 
250,000000
1
Lambda 1050
1050L1511233
PerkinElmer UV WinLab 6.3.2.0749 / 2.02.05 Lambda 900 UV/VIS/NIR, Aug  7 2015 09:38:08

0
0
3350/servo 860,8/2
0
0
UV/VIS
1
1
1
DoubleDePol,CommonBeamDepol,RBeamAtt,SBeamAtt,60mm sphere, WB InGaAs Detector
0
0
0
0
Program
Program
3350/servo 860,8/2
3350/0,2 860,8/0,2
3350/0,2 860,8/0,2
0
15.00
 
 
 
0
 
860,8
319,2
860,8
Front
100
on
S:100 R:100
0
0
0
0
 
0
 
 
 
0
 
 
0
0
0
0
0
 
 
 
 
0
0


0
0
#HDR
-1
-1
#GR
nm
%R
1.0
0.0
2500,000000
-1,000000
2251
8
52,740500
4,101400
#DATA
2482.000000	4.904619
2481.000000	4.887155
2480.000000	4.916888
2479.000000	4.876876
2478.000000	4.905945
2477.000000	4.942863
2476.000000	4.895666
2475.000000	4.853774
2474.000000	4.907714
2473.000000	4.915783
2472.000000	4.888592
2471.000000	4.830342
2470.000000	4.867922
2469.000000	4.837858
2468.000000	4.852116
2467.000000	4.857090
2466.000000	4.867149
2465.000000	4.867038
2464.000000	4.849685
2463.000000	4.830452
2462.000000	4.865159
2461.000000	4.860185
2460.000000	4.862506
2459.000000	4.851232
2458.000000	4.883065
2457.000000	4.911582
2456.000000	4.864164
2455.000000	4.879418
2454.000000	4.918988
2453.000000	4.924846
2452.000000	4.922746
2451.000000	4.928162
2450.000000	4.945184
2449.000000	4.937557
2448.000000	4.964638
2447.000000	4.966959
2446.000000	4.985970
2445.000000	4.995476
2444.000000	5.030183
2443.000000	5.029851
2442.000000	5.017693
2441.000000	5.051515
2440.000000	5.055605
2439.000000	5.087880
2438.000000	5.100702
2437.000000	5.096612
2436.000000	5.115071
2435.000000	5.106781
2434.000000	5.138504
2433.000000	5.163263
2432.000000	5.165142
2431.000000	5.165031
2430.000000	5.166137
2429.000000	5.184706
2428.000000	5.203607
2427.000000	5.203386
2426.000000	5.227482
2425.000000	5.231571
2424.000000	5.248483
2423.000000	5.267715
2422.000000	5.253346
2421.000000	5.239530
2420.000000	5.275895
2419.000000	5.299438
2418.000000	5.293580
2417.000000	5.308059
2416.000000	5.302864
2415.000000	5.308501
2414.000000	5.326076
2413.000000	5.333703
2412.000000	5.342435
2411.000000	5.332597
2410.000000	5.354814
2409.000000	5.345751
2408.000000	5.337682
2407.000000	5.355588
2406.000000	5.372610
2405.000000	5.380900
2404.000000	5.381231
2403.000000	5.389521
2402.000000	5.403448
2401.000000	5.376589
2400.000000	5.387863
2399.000000	5.398364
2398.000000	5.394827
2397.000000	5.395821
2396.000000	5.395490
2395.000000	5.406985
2394.000000	5.405438
2393.000000	5.405438
2392.000000	5.413285
2391.000000	5.420802
2390.000000	5.433955
2389.000000	5.420691
2388.000000	5.439371
2387.000000	5.431081
2386.000000	5.408311
2385.000000	5.429091
2384.000000	5.446224
2383.000000	5.445340
2382.000000	5.425444
2381.000000	5.416712
2380.000000	5.428318
2379.000000	5.454735
2378.000000	5.440476
2377.000000	5.432076
2376.000000	5.433955
2375.000000	5.431634
2374.000000	5.426218
2373.000000	5.412401
2372.000000	5.414059
2371.000000	5.407096
2370.000000	5.402785
2369.000000	5.398806
2368.000000	5.389963
2367.000000	5.382005
2366.000000	5.372941
2365.000000	5.372057
2364.000000	5.375484
2363.000000	5.372499
2362.000000	5.358904
2361.000000	5.355146
2360.000000	5.334255
2359.000000	5.338345
2358.000000	5.322760
2357.000000	5.292474
2356.000000	5.303306
2355.000000	5.306622
2354.000000	5.296011
2353.000000	5.276337
2352.000000	5.266721
2351.000000	5.281421
2350.000000	5.286395
2349.000000	5.274568
2348.000000	5.283963
2347.000000	5.292695
2346.000000	5.288053
2345.000000	5.298333
2344.000000	5.302533
2343.000000	5.309607
2342.000000	5.299438
2341.000000	5.312149
2340.000000	5.328397
2339.000000	5.329834
2338.000000	5.330939
2337.000000	5.337682
2336.000000	5.330055
2335.000000	5.335029
2334.000000	5.343540
2333.000000	5.341771
2332.000000	5.340224
2331.000000	5.331160
2330.000000	5.322207
2329.000000	5.306180
2328.000000	5.310491
2327.000000	5.289048
2326.000000	5.276226
2325.000000	5.273242
2324.000000	5.261857
2323.000000	5.255999
2322.000000	5.239751
2321.000000	5.225824
2320.000000	5.203386
2319.000000	5.192112
2318.000000	5.185369
2317.000000	5.171663
2316.000000	5.144804
2315.000000	5.113966
2314.000000	5.106229
2313.000000	5.084233
2312.000000	5.085780
2311.000000	5.071964
2310.000000	5.042783
2309.000000	5.030404
2308.000000	5.048310
2307.000000	5.025319
2306.000000	5.017472
2305.000000	5.018909
2304.000000	5.007192
2303.000000	5.002771
2302.000000	5.008077
2301.000000	5.016587
2300.000000	5.020788
2299.000000	5.033499
2298.000000	5.065664
2297.000000	5.069864
2296.000000	5.073843
2295.000000	5.080806
2294.000000	5.094402
2293.000000	5.111866
2292.000000	5.110429
2291.000000	5.125461
2290.000000	5.141709
2289.000000	5.143146
2288.000000	5.155968
2287.000000	5.152320
2286.000000	5.134635
2285.000000	5.170226
2284.000000	5.170890
2283.000000	5.144473
2282.000000	5.157957
2281.000000	5.138946
2280.000000	5.111976
2279.000000	5.127893
2278.000000	5.119161
2277.000000	5.115734
2276.000000	5.102913
2275.000000	5.090312
2274.000000	5.080475
2273.000000	5.085338
2272.000000	5.080917
2271.000000	5.067985
2270.000000	5.076606
2269.000000	5.066437
2268.000000	5.095949
2267.000000	5.098270
2266.000000	5.093849
2265.000000	5.117171
2264.000000	5.146131
2263.000000	5.150110
2262.000000	5.174427
2261.000000	5.206370
2260.000000	5.249146
2259.000000	5.295790
2258.000000	5.317897
2257.000000	5.363325
2256.000000	5.418812
2255.000000	5.477725
2254.000000	5.512874
2253.000000	5.561287
2252.000000	5.611026
2251.000000	5.691383
2250.000000	5.718353
2249.000000	5.773397
2248.000000	5.816394
2247.000000	5.864254
2246.000000	5.912778
2245.000000	5.947264
2244.000000	5.970807
2243.000000	6.013914
2242.000000	6.030162
2241.000000	6.069180
2240.000000	6.104329
2239.000000	6.117261
2238.000000	6.161142
2237.000000	6.185570
2236.000000	6.194633
2235.000000	6.221824
2234.000000	6.234204
2233.000000	6.254541
2232.000000	6.274769
2231.000000	6.274879
2230.000000	6.292675
2229.000000	6.277532
2228.000000	6.289248
2227.000000	6.331803
2226.000000	6.303396
2225.000000	6.310360
2224.000000	6.309365
2223.000000	6.302512
2222.000000	6.297759
2221.000000	6.320971
2220.000000	6.329371
2219.000000	6.297870
2218.000000	6.283169
2217.000000	6.267916
2216.000000	6.280627
2215.000000	6.241057
2214.000000	6.263716
2213.000000	6.248904
2212.000000	6.271011
2211.000000	6.261063
2210.000000	6.213866
2209.000000	6.242494
2208.000000	6.229230
2207.000000	6.227461
2206.000000	6.230114
2205.000000	6.196623
2204.000000	6.205465
2203.000000	6.207787
2202.000000	6.212429
2201.000000	6.192423
2200.000000	6.198502
2199.000000	6.197839
2198.000000	6.188444
2197.000000	6.191760
2196.000000	6.188001
2195.000000	6.187117
2194.000000	6.187449
2193.000000	6.172527
2192.000000	6.185791
2191.000000	6.164127
2190.000000	6.166779
2189.000000	6.173190
2188.000000	6.162800
2187.000000	6.160258
2186.000000	6.162690
2185.000000	6.157274
2184.000000	6.145999
2183.000000	6.147547
2182.000000	6.142905
2181.000000	6.127872
2180.000000	6.133067
2179.000000	6.135388
2178.000000	6.141689
2177.000000	6.126877
2176.000000	6.125330
2175.000000	6.123672
2174.000000	6.141247
2173.000000	6.151305
2172.000000	6.124114
2171.000000	6.140141
2170.000000	6.160369
2169.000000	6.141578
2168.000000	6.149094
2167.000000	6.143347
2166.000000	6.145005
2165.000000	6.154400
2164.000000	6.160037
2163.000000	6.172748
2162.000000	6.191760
2161.000000	6.193639
2160.000000	6.222598
2159.000000	6.188554
2158.000000	6.198170
2157.000000	6.223261
2156.000000	6.235641
2155.000000	6.248131
2154.000000	6.263052
2153.000000	6.275211
2152.000000	6.281732
2151.000000	6.287369
2150.000000	6.283722
2149.000000	6.322518
2148.000000	6.302070
2147.000000	6.298644
2146.000000	6.348493
2145.000000	6.364852
2144.000000	6.354130
2143.000000	6.359104
2142.000000	6.371152
2141.000000	6.385300
2140.000000	6.391822
2139.000000	6.393369
2138.000000	6.403428
2137.000000	6.405638
2136.000000	6.416360
2135.000000	6.423323
2134.000000	6.448414
2133.000000	6.450293
2132.000000	6.453940
2131.000000	6.452614
2130.000000	6.459909
2129.000000	6.459246
2128.000000	6.475715
2127.000000	6.458693
2126.000000	6.448856
2125.000000	6.460241
2124.000000	6.451619
2123.000000	6.451730
2122.000000	6.451509
2121.000000	6.457256
2120.000000	6.434929
2119.000000	6.428850
2118.000000	6.420670
2117.000000	6.410612
2116.000000	6.407959
2115.000000	6.384858
2114.000000	6.383311
2113.000000	6.387732
2112.000000	6.377342
2111.000000	6.362862
2110.000000	6.354683
2109.000000	6.354794
2108.000000	6.345509
2107.000000	6.329371
2106.000000	6.307707
2105.000000	6.305386
2104.000000	6.315334
2103.000000	6.304281
2102.000000	6.298754
2101.000000	6.288585
2100.000000	6.268690
2099.000000	6.267805
2098.000000	6.272005
2097.000000	6.248683
2096.000000	6.253657
2095.000000	6.257526
2094.000000	6.244373
2093.000000	6.230003
2092.000000	6.217182
2091.000000	6.213866
2090.000000	6.205023
2089.000000	6.201818
2088.000000	6.201155
2087.000000	6.192423
2086.000000	6.174738
2085.000000	6.163684
2084.000000	6.177833
2083.000000	6.173964
2082.000000	6.153516
2081.000000	6.151858
2080.000000	6.147878
2079.000000	6.133399
2078.000000	6.122677
2077.000000	6.126104
2076.000000	6.118367
2075.000000	6.100239
2074.000000	6.082002
2073.000000	6.063322
2072.000000	6.066859
2071.000000	6.073270
2070.000000	6.045305
2069.000000	6.016346
2068.000000	6.012477
2067.000000	6.014246
2066.000000	5.993576
2065.000000	5.969702
2064.000000	5.977660
2063.000000	5.960306
2062.000000	5.946490
2061.000000	5.932121
2060.000000	5.921620
2059.000000	5.918304
2058.000000	5.910457
2057.000000	5.909683
2056.000000	5.897967
2055.000000	5.883708
2054.000000	5.897635
2053.000000	5.907583
2052.000000	5.889566
2051.000000	5.882934
2050.000000	5.906809
2049.000000	5.928363
2048.000000	5.932231
2047.000000	5.935105
2046.000000	5.961522
2045.000000	5.982192
2044.000000	5.977218
2043.000000	5.993687
2042.000000	6.023973
2041.000000	6.019220
2040.000000	6.042984
2039.000000	6.072385
2038.000000	6.076143
2037.000000	6.087639
2036.000000	6.104218
2035.000000	6.112619
2034.000000	6.117703
2033.000000	6.149426
2032.000000	6.152079
2031.000000	6.128867
2030.000000	6.137267
2029.000000	6.164127
2028.000000	6.177722
2027.000000	6.169543
2026.000000	6.170980
2025.000000	6.179491
2024.000000	6.179380
2023.000000	6.184464
2022.000000	6.191096
2021.000000	6.190102
2020.000000	6.191096
2019.000000	6.174517
2018.000000	6.177280
2017.000000	6.181480
2016.000000	6.180264
2015.000000	6.182917
2014.000000	6.172416
2013.000000	6.165342
2012.000000	6.152852
2011.000000	6.148542
2010.000000	6.125441
2009.000000	6.131520
2008.000000	6.126104
2007.000000	6.110298
2006.000000	6.112729
2005.000000	6.087197
2004.000000	6.040994
2003.000000	6.055585
2002.000000	6.060669
2001.000000	6.038894
2000.000000	6.031710
1999.000000	5.997003
1998.000000	5.996782
1997.000000	5.979649
1996.000000	5.962185
1995.000000	5.940521
1994.000000	5.930131
1993.000000	5.902609
1992.000000	5.902388
1991.000000	5.886361
1990.000000	5.850548
1989.000000	5.842259
1988.000000	5.818163
1987.000000	5.794288
1986.000000	5.793735
1985.000000	5.765660
1984.000000	5.744107
1983.000000	5.723548
1982.000000	5.729737
1981.000000	5.696799
1980.000000	5.671598
1979.000000	5.666071
1978.000000	5.649160
1977.000000	5.623959
1976.000000	5.604395
1975.000000	5.579635
1974.000000	5.561287
1973.000000	5.555871
1972.000000	5.530781
1971.000000	5.531444
1970.000000	5.515748
1969.000000	5.495742
1968.000000	5.482589
1967.000000	5.463577
1966.000000	5.468220
1965.000000	5.444787
1964.000000	5.428981
1963.000000	5.413838
1962.000000	5.403338
1961.000000	5.409748
1960.000000	5.380236
1959.000000	5.368189
1958.000000	5.361557
1957.000000	5.349067
1956.000000	5.329392
1955.000000	5.338456
1954.000000	5.327181
1953.000000	5.290595
1952.000000	5.292474
1951.000000	5.282416
1950.000000	5.275784
1949.000000	5.241740
1948.000000	5.244946
1947.000000	5.254562
1946.000000	5.268378
1945.000000	5.244725
1944.000000	5.234114
1943.000000	5.233340
1942.000000	5.222066
1941.000000	5.222508
1940.000000	5.204049
1939.000000	5.199075
1938.000000	5.211123
1937.000000	5.213002
1936.000000	5.215987
1935.000000	5.211234
1934.000000	5.216981
1933.000000	5.224940
1932.000000	5.255888
1931.000000	5.243288
1930.000000	5.251799
1929.000000	5.254230
1928.000000	5.280758
1927.000000	5.295901
1926.000000	5.295459
1925.000000	5.291259
1924.000000	5.318118
1923.000000	5.333703
1922.000000	5.369846
1921.000000	5.378247
1920.000000	5.383552
1919.000000	5.422017
1918.000000	5.454514
1917.000000	5.477062
1916.000000	5.502927
1915.000000	5.531775
1914.000000	5.538960
1913.000000	5.600194
1912.000000	5.632359
1911.000000	5.669056
1910.000000	5.709510
1909.000000	5.743333
1908.000000	5.752728
1907.000000	5.823026
1906.000000	5.861933
1905.000000	5.931126
1904.000000	5.977770
1903.000000	6.033589
1902.000000	6.073049
1901.000000	6.145115
1900.000000	6.218729
1899.000000	6.274106
1898.000000	6.362862
1897.000000	6.424981
1896.000000	6.508212
1895.000000	6.564583
1894.000000	6.657319
1893.000000	6.741323
1892.000000	6.843122
1891.000000	6.972555
1890.000000	7.110830
1889.000000	7.204229
1888.000000	7.337088
1887.000000	7.495480
1886.000000	7.639281
1885.000000	7.807621
1884.000000	7.978392
1883.000000	8.181218
1882.000000	8.411234
1881.000000	8.606322
1880.000000	8.806827
1879.000000	9.012416
1878.000000	9.239779
1877.000000	9.469906
1876.000000	9.696164
1875.000000	9.939223
1874.000000	10.175429
1873.000000	10.425231
1872.000000	10.641651
1871.000000	10.887584
1870.000000	11.107100
1869.000000	11.324737
1868.000000	11.551106
1867.000000	11.695128
1866.000000	11.849651
1865.000000	11.982289
1864.000000	12.091273
1863.000000	12.205010
1862.000000	12.333890
1861.000000	12.456359
1860.000000	12.569323
1859.000000	12.691018
1858.000000	12.782538
1857.000000	12.865990
1856.000000	12.949662
1855.000000	13.002164
1854.000000	13.066604
1853.000000	13.100869
1852.000000	13.125628
1851.000000	13.158125
1850.000000	13.172273
1849.000000	13.198469
1848.000000	13.216043
1847.000000	13.252740
1846.000000	13.266335
1845.000000	13.244892
1844.000000	13.236823
1843.000000	13.227428
1842.000000	13.237155
1841.000000	13.243676
1840.000000	13.253845
1839.000000	13.265230
1838.000000	13.243565
1837.000000	13.213059
1836.000000	13.203553
1835.000000	13.199132
1834.000000	13.176583
1833.000000	13.140439
1832.000000	13.099874
1831.000000	13.073789
1830.000000	13.049030
1829.000000	13.003933
1828.000000	12.974089
1827.000000	12.945020
1826.000000	12.903681
1825.000000	12.863558
1824.000000	12.822882
1823.000000	12.798234
1822.000000	12.785191
1821.000000	12.758774
1820.000000	12.752142
1819.000000	12.735894
1818.000000	12.711798
1817.000000	12.691460
1816.000000	12.665264
1815.000000	12.650895
1814.000000	12.643268
1813.000000	12.620278
1812.000000	12.625694
1811.000000	12.618067
1810.000000	12.591318
1809.000000	12.564901
1808.000000	12.537490
1807.000000	12.499356
1806.000000	12.482776
1805.000000	12.469181
1804.000000	12.437016
1803.000000	12.399988
1802.000000	12.365945
1801.000000	12.348591
1800.000000	12.316095
1799.000000	12.267240
1798.000000	12.249002
1797.000000	12.211200
1796.000000	12.171851
1795.000000	12.164666
1794.000000	12.136923
1793.000000	12.102106
1792.000000	12.071157
1791.000000	12.035897
1790.000000	12.005833
1789.000000	11.970462
1788.000000	11.939514
1787.000000	11.909670
1786.000000	11.879053
1785.000000	11.853299
1784.000000	11.822129
1783.000000	11.781453
1782.000000	11.734367
1781.000000	11.695018
1780.000000	11.651026
1779.000000	11.624167
1778.000000	11.590013
1777.000000	11.539942
1776.000000	11.503024
1775.000000	11.464780
1774.000000	11.403435
1773.000000	11.352370
1772.000000	11.301415
1771.000000	11.262286
1770.000000	11.213874
1769.000000	11.137717
1768.000000	11.090078
1767.000000	11.046639
1766.000000	10.998558
1765.000000	10.974131
1764.000000	10.930802
1763.000000	10.904717
1762.000000	10.895653
1761.000000	10.903832
1760.000000	10.936550
1759.000000	10.960867
1758.000000	10.986178
1757.000000	11.030060
1756.000000	11.071619
1755.000000	11.084552
1754.000000	11.111411
1753.000000	11.148107
1752.000000	11.174303
1751.000000	11.181377
1750.000000	11.198620
1749.000000	11.206357
1748.000000	11.187457
1747.000000	11.168998
1746.000000	11.153744
1745.000000	11.124564
1744.000000	11.092510
1743.000000	11.022101
1742.000000	10.952466
1741.000000	10.887253
1740.000000	10.807670
1739.000000	10.710181
1738.000000	10.603518
1737.000000	10.500392
1736.000000	10.406330
1735.000000	10.346090
1734.000000	10.286624
1733.000000	10.258438
1732.000000	10.246169
1731.000000	10.245175
1730.000000	10.260538
1729.000000	10.299114
1728.000000	10.345537
1727.000000	10.381350
1726.000000	10.434294
1725.000000	10.472096
1724.000000	10.518630
1723.000000	10.564279
1722.000000	10.594012
1721.000000	10.616892
1720.000000	10.667626
1719.000000	10.695038
1718.000000	10.716371
1717.000000	10.740135
1716.000000	10.788658
1715.000000	10.821155
1714.000000	10.858404
1713.000000	10.921849
1712.000000	10.966172
1711.000000	10.997895
1710.000000	11.035807
1709.000000	11.053934
1708.000000	11.071509
1707.000000	11.073941
1706.000000	11.053161
1705.000000	11.026191
1704.000000	11.008064
1703.000000	10.973799
1702.000000	10.932018
1701.000000	10.884710
1700.000000	10.807670
1699.000000	10.737261
1698.000000	10.670611
1697.000000	10.600755
1696.000000	10.534436
1695.000000	10.492765
1694.000000	10.455627
1693.000000	10.476407
1692.000000	10.518630
1691.000000	10.555547
1690.000000	10.642094
1689.000000	10.706755
1688.000000	10.763347
1687.000000	10.821818
1686.000000	10.886368
1685.000000	10.917428
1684.000000	10.944619
1683.000000	10.990600
1682.000000	11.082120
1681.000000	11.232664
1680.000000	11.420457
1679.000000	11.654232
1678.000000	11.907791
1677.000000	12.192078
1676.000000	12.451385
1675.000000	12.748494
1674.000000	12.969115
1673.000000	13.176915
1672.000000	13.338733
1671.000000	13.521884
1670.000000	13.676518
1669.000000	13.811587
1668.000000	13.917256
1667.000000	14.013418
1666.000000	14.090680
1665.000000	14.153793
1664.000000	14.211159
1663.000000	14.274715
1662.000000	14.324122
1661.000000	14.359493
1660.000000	14.406579
1659.000000	14.419401
1658.000000	14.469250
1657.000000	14.474224
1656.000000	14.498320
1655.000000	14.527611
1654.000000	14.490141
1653.000000	14.516005
1652.000000	14.494452
1651.000000	14.477209
1650.000000	14.459192
1649.000000	14.434654
1648.000000	14.417411
1647.000000	14.388010
1646.000000	14.350871
1645.000000	14.321912
1644.000000	14.291958
1643.000000	14.276262
1642.000000	14.204969
1641.000000	14.173689
1640.000000	14.120965
1639.000000	14.109802
1638.000000	14.076090
1637.000000	13.996949
1636.000000	13.969427
1635.000000	13.914271
1634.000000	13.886417
1633.000000	13.835352
1632.000000	13.783733
1631.000000	13.756874
1630.000000	13.680497
1629.000000	13.620036
1628.000000	13.597377
1627.000000	13.519231
1626.000000	13.479993
1625.000000	13.442964
1624.000000	13.368024
1623.000000	13.315632
1622.000000	13.262687
1621.000000	13.206095
1620.000000	13.163098
1619.000000	13.119881
1618.000000	13.068152
1617.000000	13.008686
1616.000000	12.962815
1615.000000	12.929324
1614.000000	12.865437
1613.000000	12.831835
1612.000000	12.797570
1611.000000	12.755900
1610.000000	12.709919
1609.000000	12.653548
1608.000000	12.600603
1607.000000	12.557606
1606.000000	12.516710
1605.000000	12.482997
1604.000000	12.438785
1603.000000	12.376445
1602.000000	12.326595
1601.000000	12.300068
1600.000000	12.248781
1599.000000	12.213853
1598.000000	12.146208
1597.000000	12.110395
1596.000000	12.064856
1595.000000	12.016112
1594.000000	11.984168
1593.000000	11.952446
1592.000000	11.919176
1591.000000	11.880821
1590.000000	11.839593
1589.000000	11.805439
1588.000000	11.756031
1587.000000	11.731714
1586.000000	11.698334
1585.000000	11.664069
1584.000000	11.630578
1583.000000	11.606040
1582.000000	11.570117
1581.000000	11.567133
1580.000000	11.527120
1579.000000	11.490976
1578.000000	11.466991
1577.000000	11.448864
1576.000000	11.425873
1575.000000	11.402772
1574.000000	11.405535
1573.000000	11.381992
1572.000000	11.357454
1571.000000	11.346843
1570.000000	11.332253
1569.000000	11.318547
1568.000000	11.308710
1567.000000	11.299536
1566.000000	11.288703
1565.000000	11.300862
1564.000000	11.287598
1563.000000	11.276766
1562.000000	11.260407
1561.000000	11.256318
1560.000000	11.239406
1559.000000	11.224816
1558.000000	11.220395
1557.000000	11.202599
1556.000000	11.194420
1555.000000	11.180493
1554.000000	11.167892
1553.000000	11.144349
1552.000000	11.117822
1551.000000	11.108979
1550.000000	11.078914
1549.000000	11.064766
1548.000000	11.035255
1547.000000	11.007622
1546.000000	10.989273
1545.000000	10.971478
1544.000000	10.958767
1543.000000	10.946056
1542.000000	10.927155
1541.000000	10.900185
1540.000000	10.893774
1539.000000	10.878079
1538.000000	10.853762
1537.000000	10.843814
1536.000000	10.823918
1535.000000	10.801038
1534.000000	10.768763
1533.000000	10.754504
1532.000000	10.731293
1531.000000	10.709076
1530.000000	10.687743
1529.000000	10.651378
1528.000000	10.623856
1527.000000	10.600092
1526.000000	10.568369
1525.000000	10.529572
1524.000000	10.503155
1523.000000	10.481602
1522.000000	10.456069
1521.000000	10.426115
1520.000000	10.398150
1519.000000	10.363775
1518.000000	10.326857
1517.000000	10.300551
1516.000000	10.261754
1515.000000	10.235227
1514.000000	10.212568
1513.000000	10.162165
1512.000000	10.112205
1511.000000	10.077498
1510.000000	10.048097
1509.000000	10.012727
1508.000000	9.987194
1507.000000	9.952597
1506.000000	9.906064
1505.000000	9.873678
1504.000000	9.842176
1503.000000	9.810122
1502.000000	9.782710
1501.000000	9.742477
1500.000000	9.704896
1499.000000	9.680911
1498.000000	9.657257
1497.000000	9.628408
1496.000000	9.599117
1495.000000	9.565737
1494.000000	9.530919
1493.000000	9.518761
1492.000000	9.491902
1491.000000	9.472338
1490.000000	9.442494
1489.000000	9.417182
1488.000000	9.406350
1487.000000	9.391981
1486.000000	9.368659
1485.000000	9.343679
1484.000000	9.324004
1483.000000	9.312288
1482.000000	9.298914
1481.000000	9.282776
1480.000000	9.270065
1479.000000	9.254922
1478.000000	9.229058
1477.000000	9.230052
1476.000000	9.226073
1475.000000	9.203856
1474.000000	9.179981
1473.000000	9.186613
1472.000000	9.199988
1471.000000	9.196230
1470.000000	9.202088
1469.000000	9.190593
1468.000000	9.197667
1467.000000	9.214688
1466.000000	9.195456
1465.000000	9.185066
1464.000000	9.193356
1463.000000	9.184734
1462.000000	9.198330
1461.000000	9.208830
1460.000000	9.215462
1459.000000	9.249616
1458.000000	9.268407
1457.000000	9.266970
1456.000000	9.288634
1455.000000	9.315825
1454.000000	9.361253
1453.000000	9.373191
1452.000000	9.389439
1451.000000	9.427462
1450.000000	9.475322
1449.000000	9.520308
1448.000000	9.529482
1447.000000	9.562974
1446.000000	9.627966
1445.000000	9.650072
1444.000000	9.676821
1443.000000	9.714623
1442.000000	9.757288
1441.000000	9.809238
1440.000000	9.845161
1439.000000	9.903300
1438.000000	9.955250
1437.000000	9.998689
1436.000000	10.055392
1435.000000	10.098610
1434.000000	10.158297
1433.000000	10.228263
1432.000000	10.282976
1431.000000	10.333047
1430.000000	10.416830
1429.000000	10.486355
1428.000000	10.566269
1427.000000	10.665416
1426.000000	10.751409
1425.000000	10.850446
1424.000000	10.929807
1423.000000	11.059461
1422.000000	11.152086
1421.000000	11.275329
1420.000000	11.402109
1419.000000	11.525352
1418.000000	11.675896
1417.000000	11.798475
1416.000000	11.932771
1415.000000	12.090942
1414.000000	12.274203
1413.000000	12.456801
1412.000000	12.630115
1411.000000	12.784528
1410.000000	12.980721
1409.000000	13.200458
1408.000000	13.472808
1407.000000	13.725815
1406.000000	13.985233
1405.000000	14.233597
1404.000000	14.539991
1403.000000	14.868712
1402.000000	15.138851
1401.000000	15.429770
1400.000000	15.775734
1399.000000	16.145020
1398.000000	16.429639
1397.000000	16.684304
1396.000000	16.985281
1395.000000	17.354568
1394.000000	17.742755
1393.000000	18.015436
1392.000000	18.347362
1391.000000	18.737207
1390.000000	19.137663
1389.000000	19.483075
1388.000000	19.918348
1387.000000	20.438620
1386.000000	20.938886
1385.000000	21.451974
1384.000000	21.978657
1383.000000	22.573207
1382.000000	23.170962
1381.000000	23.746942
1380.000000	24.266551
1379.000000	24.633184
1378.000000	24.966990
1377.000000	25.245198
1376.000000	25.529154
1375.000000	25.759280
1374.000000	26.046994
1373.000000	26.314702
1372.000000	26.654365
1371.000000	26.995908
1370.000000	27.390174
1369.000000	27.726853
1368.000000	28.057675
1367.000000	28.384627
1366.000000	28.674772
1365.000000	28.913631
1364.000000	29.177581
1363.000000	29.358521
1362.000000	29.586106
1361.000000	29.832259
1360.000000	30.025800
1359.000000	30.131800
1358.000000	30.246974
1357.000000	30.399397
1356.000000	30.566631
1355.000000	30.803501
1354.000000	31.101826
1353.000000	31.509577
1352.000000	31.894337
1351.000000	32.385540
1350.000000	32.888901
1349.000000	33.354128
1348.000000	33.816261
1347.000000	34.251645
1346.000000	34.679402
1345.000000	35.049683
1344.000000	35.461413
1343.000000	35.882649
1342.000000	36.247072
1341.000000	36.625200
1340.000000	37.038146
1339.000000	37.411301
1338.000000	37.789651
1337.000000	38.153853
1336.000000	38.535297
1335.000000	38.930779
1334.000000	39.282601
1333.000000	39.667251
1332.000000	40.049027
1331.000000	40.422293
1330.000000	40.763725
1329.000000	41.104052
1328.000000	41.428351
1327.000000	41.788132
1326.000000	42.113426
1325.000000	42.413188
1324.000000	42.733840
1323.000000	43.031170
1322.000000	43.305620
1321.000000	43.590902
1320.000000	43.855736
1319.000000	44.112501
1318.000000	44.382751
1317.000000	44.624152
1316.000000	44.853615
1315.000000	45.069262
1314.000000	45.301489
1313.000000	45.522553
1312.000000	45.730905
1311.000000	45.930856
1310.000000	46.111465
1309.000000	46.285110
1308.000000	46.435875
1307.000000	46.613721
1306.000000	46.773328
1305.000000	46.881981
1304.000000	47.018266
1303.000000	47.130566
1302.000000	47.241430
1301.000000	47.335713
1300.000000	47.431986
1299.000000	47.511016
1298.000000	47.579104
1297.000000	47.651391
1296.000000	47.709863
1295.000000	47.757833
1294.000000	47.802820
1293.000000	47.847917
1292.000000	47.883176
1291.000000	47.906056
1290.000000	47.923189
1289.000000	47.941316
1288.000000	47.945958
1287.000000	47.925620
1286.000000	47.920315
1285.000000	47.903403
1284.000000	47.857864
1283.000000	47.823821
1282.000000	47.793645
1281.000000	47.732632
1280.000000	47.681566
1279.000000	47.637022
1278.000000	47.582751
1277.000000	47.525496
1276.000000	47.472220
1275.000000	47.422480
1274.000000	47.386005
1273.000000	47.344224
1272.000000	47.293490
1271.000000	47.247398
1270.000000	47.203628
1269.000000	47.160299
1268.000000	47.119734
1267.000000	47.085469
1266.000000	47.043467
1265.000000	46.981791
1264.000000	46.921662
1263.000000	46.862859
1262.000000	46.801735
1261.000000	46.745916
1260.000000	46.688550
1259.000000	46.616926
1258.000000	46.555470
1257.000000	46.481856
1256.000000	46.402384
1255.000000	46.346787
1254.000000	46.262341
1253.000000	46.173694
1252.000000	46.085158
1251.000000	45.977169
1250.000000	45.883438
1249.000000	45.800761
1248.000000	45.697856
1247.000000	45.574834
1246.000000	45.442970
1245.000000	45.325917
1244.000000	45.181010
1243.000000	45.033671
1242.000000	44.898160
1241.000000	44.744300
1240.000000	44.592098
1239.000000	44.449070
1238.000000	44.290899
1237.000000	44.131623
1236.000000	43.962178
1235.000000	43.787648
1234.000000	43.615772
1233.000000	43.437374
1232.000000	43.248586
1231.000000	43.048192
1230.000000	42.862499
1229.000000	42.675590
1228.000000	42.461048
1227.000000	42.242748
1226.000000	42.033954
1225.000000	41.825934
1224.000000	41.608186
1223.000000	41.388671
1222.000000	41.171697
1221.000000	40.946544
1220.000000	40.722054
1219.000000	40.508286
1218.000000	40.288770
1217.000000	40.069144
1216.000000	39.868971
1215.000000	39.688363
1214.000000	39.511291
1213.000000	39.318635
1212.000000	39.123325
1211.000000	38.969244
1210.000000	38.801899
1209.000000	38.637207
1208.000000	38.483679
1207.000000	38.335677
1206.000000	38.212103
1205.000000	38.098808
1204.000000	37.995129
1203.000000	37.906814
1202.000000	37.844475
1201.000000	37.788656
1200.000000	37.734164
1199.000000	37.672377
1198.000000	37.589699
1197.000000	37.469883
1196.000000	37.329176
1195.000000	37.160394
1194.000000	36.945963
1193.000000	36.671734
1192.000000	36.349866
1191.000000	35.977596
1190.000000	35.566639
1189.000000	35.153804
1188.000000	34.763517
1187.000000	34.442201
1186.000000	34.231860
1185.000000	34.129065
1184.000000	34.144982
1183.000000	34.293426
1182.000000	34.586003
1181.000000	34.971205
1180.000000	35.440302
1179.000000	35.956042
1178.000000	36.482173
1177.000000	36.969506
1176.000000	37.410970
1175.000000	37.805788
1174.000000	38.165679
1173.000000	38.499706
1172.000000	38.836606
1171.000000	39.200366
1170.000000	39.544561
1169.000000	39.907326
1168.000000	40.268764
1167.000000	40.636613
1166.000000	41.027011
1165.000000	41.435978
1164.000000	41.848924
1163.000000	42.257228
1162.000000	42.694159
1161.000000	43.137170
1160.000000	43.571117
1159.000000	43.999869
1158.000000	44.452386
1157.000000	44.877490
1156.000000	45.290105
1155.000000	45.672544
1154.000000	45.997949
1153.000000	46.312522
1152.000000	46.593604
1151.000000	46.814667
1150.000000	47.002129
1149.000000	47.176769
1148.000000	47.353398
1147.000000	47.559871
1146.000000	47.771871
1145.000000	48.040794
1144.000000	48.371284
1143.000000	48.760465
1142.000000	49.199939
1141.000000	49.688931
1140.000000	50.200029
1139.000000	50.736439
1138.000000	51.302582
1137.000000	51.882983
1136.000000	52.482175
1135.000000	53.095183
1134.000000	53.780922
1133.000000	54.434384
1132.000000	54.962062
1131.000000	55.458128
1130.000000	55.950657
1129.000000	56.393115
1128.000000	56.752232
1127.000000	57.048899
1126.000000	57.317933
1125.000000	57.516337
1124.000000	57.668097
1123.000000	57.837321
1122.000000	57.946526
1121.000000	58.040589
1120.000000	58.124372
1119.000000	58.188922
1118.000000	58.227940
1117.000000	58.258557
1116.000000	58.273921
1115.000000	58.286411
1114.000000	58.291274
1113.000000	58.293374
1112.000000	58.294922
1111.000000	58.260104
1110.000000	58.272815
1109.000000	58.263420
1108.000000	58.242309
1107.000000	58.222081
1106.000000	58.196991
1105.000000	58.205170
1104.000000	58.184390
1103.000000	58.183506
1102.000000	58.156757
1101.000000	58.149241
1100.000000	58.143715
1099.000000	58.116855
1098.000000	58.086128
1097.000000	58.040589
1096.000000	58.036831
1095.000000	57.988639
1094.000000	57.933483
1093.000000	57.888276
1092.000000	57.845611
1091.000000	57.797751
1090.000000	57.746464
1089.000000	57.699930
1088.000000	57.621895
1087.000000	57.554139
1086.000000	57.498542
1085.000000	57.422385
1084.000000	57.326997
1083.000000	57.280794
1082.000000	57.181979
1081.000000	57.115439
1080.000000	57.072000
1079.000000	56.962684
1078.000000	56.890728
1077.000000	56.811367
1076.000000	56.734768
1075.000000	56.630537
1074.000000	56.571955
1073.000000	56.488504
1072.000000	56.378525
1071.000000	56.303474
1070.000000	56.230412
1069.000000	56.152156
1068.000000	56.051351
1067.000000	55.954194
1066.000000	55.865216
1065.000000	55.768059
1064.000000	55.666812
1063.000000	55.587561
1062.000000	55.489188
1061.000000	55.382635
1060.000000	55.277630
1059.000000	55.176825
1058.000000	55.053472
1057.000000	54.955762
1056.000000	54.858163
1055.000000	54.744868
1054.000000	54.634889
1053.000000	54.508993
1052.000000	54.410067
1051.000000	54.307273
1050.000000	54.194973
1049.000000	54.126222
1048.000000	54.017570
1047.000000	53.897753
1046.000000	53.802475
1045.000000	53.715818
1044.000000	53.596002
1043.000000	53.516862
1042.000000	53.401798
1041.000000	53.309062
1040.000000	53.223953
1039.000000	53.134975
1038.000000	53.024775
1037.000000	52.908275
1036.000000	52.806585
1035.000000	52.691301
1034.000000	52.609839
1033.000000	52.496323
1032.000000	52.369212
1031.000000	52.269402
1030.000000	52.149696
1029.000000	52.014405
1028.000000	51.912716
1027.000000	51.789031
1026.000000	51.676842
1025.000000	51.536467
1024.000000	51.423172
1023.000000	51.283349
1022.000000	51.153254
1021.000000	51.022716
1020.000000	50.908537
1019.000000	50.787284
1018.000000	50.674320
1017.000000	50.552514
1016.000000	50.443641
1015.000000	50.351789
1014.000000	50.234515
1013.000000	50.148190
1012.000000	50.078444
1011.000000	50.004941
1010.000000	49.932543
1009.000000	49.879045
1008.000000	49.806205
1007.000000	49.755913
1006.000000	49.725296
1005.000000	49.675446
1004.000000	49.621175
1003.000000	49.584700
1002.000000	49.547229
1001.000000	49.496606
1000.000000	49.442556
999.000000	49.387622
998.000000	49.349157
997.000000	49.323403
996.000000	49.278417
995.000000	49.230114
994.000000	49.202592
993.000000	49.178054
992.000000	49.162358
991.000000	49.131188
990.000000	49.100019
989.000000	49.076917
988.000000	49.062217
987.000000	49.050721
986.000000	49.044200
985.000000	49.025410
984.000000	49.020104
983.000000	49.022204
982.000000	49.013251
981.000000	49.010046
980.000000	49.007835
979.000000	49.013472
978.000000	49.022536
977.000000	49.020657
976.000000	49.009383
975.000000	49.005625
974.000000	49.010377
973.000000	49.018888
972.000000	49.039337
971.000000	49.056138
970.000000	49.057795
969.000000	49.068296
968.000000	49.088302
967.000000	49.117483
966.000000	49.148542
965.000000	49.173522
964.000000	49.184023
963.000000	49.218398
962.000000	49.247357
961.000000	49.291459
960.000000	49.338325
959.000000	49.364189
958.000000	49.403649
957.000000	49.438466
956.000000	49.476489
955.000000	49.515949
954.000000	49.552203
953.000000	49.597411
952.000000	49.639634
951.000000	49.666493
950.000000	49.713911
949.000000	49.775588
948.000000	49.805652
947.000000	49.834501
946.000000	49.877166
945.000000	49.913421
944.000000	49.927900
943.000000	49.947022
942.000000	49.965481
941.000000	49.968576
940.000000	49.972887
939.000000	49.982171
938.000000	50.005715
937.000000	50.005051
936.000000	49.986040
935.000000	49.994440
934.000000	50.009473
933.000000	50.022515
932.000000	50.016547
931.000000	50.004278
930.000000	49.991014
929.000000	49.986814
928.000000	49.986482
927.000000	49.972113
926.000000	49.952107
925.000000	49.953323
924.000000	49.954870
923.000000	49.934532
922.000000	49.906126
921.000000	49.890983
920.000000	49.864345
919.000000	49.839696
918.000000	49.835054
917.000000	49.809853
916.000000	49.809631
915.000000	49.776804
914.000000	49.711258
913.000000	49.665498
912.000000	49.638529
911.000000	49.597521
910.000000	49.552867
909.000000	49.538055
908.000000	49.518160
907.000000	49.482126
906.000000	49.459578
905.000000	49.458915
904.000000	49.472068
903.000000	49.468310
902.000000	49.457588
901.000000	49.490748
900.000000	49.501801
899.000000	49.498706
898.000000	49.498706
897.000000	49.510533
896.000000	49.531644
895.000000	49.548887
894.000000	49.529102
893.000000	49.522912
892.000000	49.546898
891.000000	49.546124
890.000000	49.517939
889.000000	49.505448
888.000000	49.497490
887.000000	49.461236
886.000000	49.463668
885.000000	49.433935
884.000000	49.403538
883.000000	49.375353
882.000000	49.361315
881.000000	49.324508
880.000000	49.280296
879.000000	49.255979
878.000000	49.245036
877.000000	49.201155
876.000000	49.136494
875.000000	49.109856
874.000000	49.035136
873.000000	48.973681
872.000000	48.897746
871.000000	48.867128
870.000000	48.851765
869.000000	48.882271
868.000000	48.930242
867.000000	48.953564
866.000000	48.960970
865.000000	48.994682
864.000000	49.035579
863.000000	49.056248
862.000000	49.066196
861.000000	49.071170
860.000000	49.097587
859.000000	49.112730
858.000000	49.152300
857.000000	48.152500
856.000000	49.555800
855.000000	49.748600
854.000000	49.267200
853.000000	49.837600
852.000000	48.669900
851.000000	48.917300
850.000000	49.299400
849.000000	48.765600
848.000000	49.356500
847.000000	49.316000
846.000000	49.302300
845.000000	49.795100
844.000000	49.547400
843.000000	49.450300
842.000000	49.420600
841.000000	49.467800
840.000000	49.300500
839.000000	49.379000
838.000000	49.361900
837.000000	49.456300
836.000000	49.357800
835.000000	49.441000
834.000000	49.358500
833.000000	49.182500
832.000000	49.050500
831.000000	49.143000
830.000000	49.049400
829.000000	49.100900
828.000000	49.020400
827.000000	48.925500
826.000000	48.962600
825.000000	48.833400
824.000000	48.708300
823.000000	48.740500
822.000000	48.797700
821.000000	48.653300
820.000000	48.590500
819.000000	48.415700
818.000000	48.576100
817.000000	48.291800
816.000000	48.274300
815.000000	48.281700
814.000000	48.301100
813.000000	48.002500
812.000000	47.961300
811.000000	47.931400
810.000000	47.920900
809.000000	47.827500
808.000000	47.699200
807.000000	47.871700
806.000000	47.526700
805.000000	47.444500
804.000000	47.456300
803.000000	47.321800
802.000000	47.162700
801.000000	47.234300
800.000000	47.197800
799.000000	46.940300
798.000000	46.854800
797.000000	46.850400
796.000000	46.701000
795.000000	46.490200
794.000000	46.457100
793.000000	46.364200
792.000000	46.384900
791.000000	46.188600
790.000000	46.041900
789.000000	46.049600
788.000000	45.854200
787.000000	45.762200
786.000000	45.726900
785.000000	45.479400
784.000000	45.468700
783.000000	45.217300
782.000000	45.173800
781.000000	45.147400
780.000000	45.003500
779.000000	44.800100
778.000000	44.754700
777.000000	44.605400
776.000000	44.387000
775.000000	44.364500
774.000000	44.333900
773.000000	44.227500
772.000000	43.904800
771.000000	43.799700
770.000000	43.753300
769.000000	43.658800
768.000000	43.510900
767.000000	43.345600
766.000000	43.213400
765.000000	43.073200
764.000000	43.055200
763.000000	42.818700
762.000000	42.709200
761.000000	42.536400
760.000000	42.418100
759.000000	42.257400
758.000000	42.055700
757.000000	42.005000
756.000000	41.833300
755.000000	41.690800
754.000000	41.546200
753.000000	41.370800
752.000000	41.239500
751.000000	41.050600
750.000000	40.887300
749.000000	40.750200
748.000000	40.614400
747.000000	40.448400
746.000000	40.239400
745.000000	40.163500
744.000000	39.968600
743.000000	39.828900
742.000000	39.611200
741.000000	39.511700
740.000000	39.216700
739.000000	39.103200
738.000000	38.923500
737.000000	38.723600
736.000000	38.529900
735.000000	38.363700
734.000000	38.191400
733.000000	38.027300
732.000000	37.852300
731.000000	37.639200
730.000000	37.470000
729.000000	37.261200
728.000000	37.068800
727.000000	36.854300
726.000000	36.649000
725.000000	36.456100
724.000000	36.234900
723.000000	36.033600
722.000000	35.830600
721.000000	35.583600
720.000000	35.403800
719.000000	35.175800
718.000000	34.916800
717.000000	34.748500
716.000000	34.552900
715.000000	34.296200
714.000000	34.147900
713.000000	33.919800
712.000000	33.694300
711.000000	33.496200
710.000000	33.285600
709.000000	33.040200
708.000000	32.808000
707.000000	32.641500
706.000000	32.402400
705.000000	32.157900
704.000000	31.973600
703.000000	31.737900
702.000000	31.538800
701.000000	31.335300
700.000000	31.138100
699.000000	30.941600
698.000000	30.716900
697.000000	30.536600
696.000000	30.327400
695.000000	30.151800
694.000000	29.977700
693.000000	29.775000
692.000000	29.538600
691.000000	29.361700
690.000000	29.154000
689.000000	28.974500
688.000000	28.790100
687.000000	28.605600
686.000000	28.415200
685.000000	28.230700
684.000000	28.074500
683.000000	27.923800
682.000000	27.755600
681.000000	27.563100
680.000000	27.412600
679.000000	27.258600
678.000000	27.091000
677.000000	26.938700
676.000000	26.778400
675.000000	26.623400
674.000000	26.473800
673.000000	26.358700
672.000000	26.207400
671.000000	26.047500
670.000000	25.913600
669.000000	25.774300
668.000000	25.637700
667.000000	25.512600
666.000000	25.406500
665.000000	25.297700
664.000000	25.195200
663.000000	25.078900
662.000000	24.969200
661.000000	24.851800
660.000000	24.729600
659.000000	24.626300
658.000000	24.516700
657.000000	24.438600
656.000000	24.373700
655.000000	24.272500
654.000000	24.154100
653.000000	24.087700
652.000000	24.015500
651.000000	23.916400
650.000000	23.854400
649.000000	23.800400
648.000000	23.726600
647.000000	23.642900
646.000000	23.577700
645.000000	23.527500
644.000000	23.476700
643.000000	23.405500
642.000000	23.338100
641.000000	23.300200
640.000000	23.277400
639.000000	23.230100
638.000000	23.171700
637.000000	23.121100
636.000000	23.090000
635.000000	23.069800
634.000000	23.043100
633.000000	23.009300
632.000000	22.972600
631.000000	22.944500
630.000000	22.924400
629.000000	22.917700
628.000000	22.890400
627.000000	22.870200
626.000000	22.877200
625.000000	22.877700
624.000000	22.881800
623.000000	22.876300
622.000000	22.882900
621.000000	22.889100
620.000000	22.896600
619.000000	22.907400
618.000000	22.913100
617.000000	22.943700
616.000000	22.963400
615.000000	22.992500
614.000000	23.023000
613.000000	23.049800
612.000000	23.066600
611.000000	23.100100
610.000000	23.145300
609.000000	23.186000
608.000000	23.224400
607.000000	23.268800
606.000000	23.318600
605.000000	23.355900
604.000000	23.400500
603.000000	23.442700
602.000000	23.477100
601.000000	23.527300
600.000000	23.590500
599.000000	23.622800
598.000000	23.673700
597.000000	23.716600
596.000000	23.755900
595.000000	23.795800
594.000000	23.847700
593.000000	23.886600
592.000000	23.919900
591.000000	23.948200
590.000000	23.991700
589.000000	24.029100
588.000000	24.075400
587.000000	24.106900
586.000000	24.126500
585.000000	24.144800
584.000000	24.143300
583.000000	24.164300
582.000000	24.184000
581.000000	24.200800
580.000000	24.204000
579.000000	24.229000
578.000000	24.216900
577.000000	24.232600
576.000000	24.194300
575.000000	24.187600
574.000000	24.171300
573.000000	24.130600
572.000000	24.102100
571.000000	24.065200
570.000000	24.018100
569.000000	23.973800
568.000000	23.936000
567.000000	23.864200
566.000000	23.798700
565.000000	23.733300
564.000000	23.663000
563.000000	23.574900
562.000000	23.487900
561.000000	23.379000
560.000000	23.303600
559.000000	23.199300
558.000000	23.085000
557.000000	23.000000
556.000000	22.897300
555.000000	22.763200
554.000000	22.619600
553.000000	22.485700
552.000000	22.352400
551.000000	22.207900
550.000000	22.062900
549.000000	21.902600
548.000000	21.746600
547.000000	21.593000
546.000000	21.441500
545.000000	21.262800
544.000000	21.063600
543.000000	20.889100
542.000000	20.694800
541.000000	20.499400
540.000000	20.313600
539.000000	20.118300
538.000000	19.919100
537.000000	19.715700
536.000000	19.503200
535.000000	19.286900
534.000000	19.076900
533.000000	18.854900
532.000000	18.634100
531.000000	18.403900
530.000000	18.182200
529.000000	17.956700
528.000000	17.735800
527.000000	17.508700
526.000000	17.285100
525.000000	17.046500
524.000000	16.801900
523.000000	16.589600
522.000000	16.344300
521.000000	16.099700
520.000000	15.869300
519.000000	15.646700
518.000000	15.432500
517.000000	15.212400
516.000000	14.990100
515.000000	14.786300
514.000000	14.549800
513.000000	14.370400
512.000000	14.178900
511.000000	13.978600
510.000000	13.798600
509.000000	13.620300
508.000000	13.446900
507.000000	13.268900
506.000000	13.130800
505.000000	12.955700
504.000000	12.810300
503.000000	12.673800
502.000000	12.539600
501.000000	12.412100
500.000000	12.259100
499.000000	12.138700
498.000000	12.051100
497.000000	11.924300
496.000000	11.817200
495.000000	11.732300
494.000000	11.615000
493.000000	11.536500
492.000000	11.463200
491.000000	11.367500
490.000000	11.301400
489.000000	11.227600
488.000000	11.142300
487.000000	11.090600
486.000000	10.996300
485.000000	10.949900
484.000000	10.889000
483.000000	10.816400
482.000000	10.761700
481.000000	10.701300
480.000000	10.626800
479.000000	10.559200
478.000000	10.487500
477.000000	10.410900
476.000000	10.354100
475.000000	10.300600
474.000000	10.216100
473.000000	10.168000
472.000000	10.108000
471.000000	10.050500
470.000000	9.994400
469.000000	9.937000
468.000000	9.893300
467.000000	9.850000
466.000000	9.783500
465.000000	9.730700
464.000000	9.693300
463.000000	9.648700
462.000000	9.595100
461.000000	9.553300
460.000000	9.514900
459.000000	9.451800
458.000000	9.428300
457.000000	9.393100
456.000000	9.340900
455.000000	9.305400
454.000000	9.270000
453.000000	9.238100
452.000000	9.196600
451.000000	9.147900
450.000000	9.104000
449.000000	9.041000
448.000000	8.991400
447.000000	8.938200
446.000000	8.936500
445.000000	8.868400
444.000000	8.848900
443.000000	8.788900
442.000000	8.744700
441.000000	8.694300
440.000000	8.647000
439.000000	8.592300
438.000000	8.549800
437.000000	8.490400
436.000000	8.434300
435.000000	8.370900
434.000000	8.317900
433.000000	8.257400
432.000000	8.205900
431.000000	8.146400
430.000000	8.094100
429.000000	8.026400
428.000000	7.973000
427.000000	7.919400
426.000000	7.877900
425.000000	7.814800
424.000000	7.765000
423.000000	7.714600
422.000000	7.649500
421.000000	7.617100
420.000000	7.549600
419.000000	7.491400
418.000000	7.438500
417.000000	7.365100
416.000000	7.323200
415.000000	7.258600
414.000000	7.216200
413.000000	7.138100
412.000000	7.089200
411.000000	7.036500
410.000000	6.987800
409.000000	6.914900
408.000000	6.844300
407.000000	6.776600
406.000000	6.713900
405.000000	6.676200
404.000000	6.618600
403.000000	6.539100
402.000000	6.470900
401.000000	6.405300
400.000000	6.357800
399.000000	6.320100
398.000000	6.247400
397.000000	6.175000
396.000000	6.108400
395.000000	6.042200
394.000000	5.978500
393.000000	5.901000
392.000000	5.842400
391.000000	5.804400
390.000000	5.737800
389.000000	5.661500
388.000000	5.613600
387.000000	5.551500
386.000000	5.500100
385.000000	5.436600
384.000000	5.375100
383.000000	5.328700
382.000000	5.272000
381.000000	5.193900
380.000000	5.171000
379.000000	5.120000
378.000000	5.085100
377.000000	5.031800
376.000000	4.844300
375.000000	4.544900
374.000000	4.439700
373.000000	4.343100
372.000000	4.273800
371.000000	4.263700
370.000000	4.266700
369.000000	4.446000
368.000000	4.502900
367.000000	4.462100
366.000000	4.410200
365.000000	4.372500
364.000000	4.362300
363.000000	4.307800
362.000000	4.335300
361.000000	4.520400
360.000000	4.507300
359.000000	4.501100
358.000000	4.632200
357.000000	4.639300
356.000000	4.551600
355.000000	4.341300
354.000000	4.468700
353.000000	4.712900
352.000000	4.579900
351.000000	4.478400
350.000000	4.596300
349.000000	4.506600
348.000000	4.567100
347.000000	4.714500
346.000000	4.679600
345.000000	4.577300
344.000000	4.475800
343.000000	4.422400
342.000000	4.405600
341.000000	4.409800
340.000000	4.635700
339.000000	4.594000
338.000000	4.317700
337.000000	4.246500
336.000000	4.257600
335.000000	4.263700
334.000000	4.168000
333.000000	4.345800
332.000000	4.591400
331.000000	4.532700
330.000000	4.306100
329.000000	4.311300
328.000000	4.659000
327.000000	4.629600
326.000000	4.481300
325.000000	4.820800
324.000000	4.821800
323.000000	4.867200
322.000000	5.255600
321.000000	4.829500
320.000000	4.421400
319.000000	4.939800
318.000000	5.020800
317.000000	4.517100
316.000000	4.176100
315.000000	4.101400
314.000000	4.174500
313.000000	4.182700
312.000000	4.195900
311.000000	4.176200
310.000000	4.181700
309.000000	4.174500
308.000000	4.175900
307.000000	4.180500
306.000000	4.172200
305.000000	4.194000
304.000000	4.163400
303.000000	4.143100
302.000000	4.179200
301.000000	4.180800
300.000000	4.213000
299.000000	4.219100
298.000000	4.241100
297.000000	4.257700
296.000000	4.241100
295.000000	4.238300
294.000000	4.200600
293.000000	4.251700
292.000000	4.279500
291.000000	4.240700
290.000000	4.236300
289.000000	4.269300
288.000000	4.253800
287.000000	4.247700
286.000000	4.240800
285.000000	4.236500
284.000000	4.280900
283.000000	4.316500
282.000000	4.323800
281.000000	4.321400
280.000000	4.341500
279.000000	4.343500
278.000000	4.326500
277.000000	4.324300
276.000000	4.325400
275.000000	4.314300
274.000000	4.347100
273.000000	4.369300
272.000000	4.414300
271.000000	4.411200
270.000000	4.395000
269.000000	4.384900
268.000000	4.410600
267.000000	4.452700
266.000000	4.490500
265.000000	4.516000
264.000000	4.538100
263.000000	4.534400
262.000000	4.557300
261.000000	4.535500
260.000000	4.562500
259.000000	4.607700
258.000000	4.640300
257.000000	4.644200
256.000000	4.631400
255.000000	4.608000
254.000000	4.609900
253.000000	4.626200
252.000000	4.695200
251.000000	4.679800
250.000000	4.683200
