PE UV       SUBTECH     SPECTRUM    ASCII       PEDS        4.00        
   -1
2-STRIGIDIA BELTI INBIO0004211063.ASC
23/11/17
10:41:59.00
23/11/17
10:41:59.00
Vinicio Soto Monge

250,000000
1
Lambda 1050
1050L1511233
PerkinElmer UV WinLab 6.3.2.0749 / 2.02.05 Lambda 900 UV/VIS/NIR, Aug  7 2015 09:38:08

0
0
3350/servo 860,8/2
0
0
UV/VIS
1
1
1
DoubleDePol,CommonBeamDepol,RBeamAtt,SBeamAtt,60mm sphere, WB InGaAs Detector
0
0
0
0
Program
Program
3350/servo 860,8/2
3350/0,4 860,8/0,4
3350/0,4 860,8/0,4
0
20.00
 
 
 
0
 
860,8
319,2
860,8
Front
100
on
S:100 R:100
0
0
0
0
 
0
 
 
 
0
 
 
0
0
0
0
0
 
 
 
 
0
0


0
0
#HDR
-1
-1
#GR
nm
%R
1.0
0.0
2200,000000
-1,000000
1951
8
108,797053
5,244670
#DATA
250.000000	3.618111
251.000000	3.612002
252.000000	3.551293
253.000000	3.530790
254.000000	3.531353
255.000000	3.479353
256.000000	3.495866
257.000000	3.444573
258.000000	3.456915
259.000000	3.452160
260.000000	3.447353
261.000000	3.415679
262.000000	3.384130
263.000000	3.420682
264.000000	3.369382
265.000000	3.370411
266.000000	3.394615
267.000000	3.333607
268.000000	3.355004
269.000000	3.325689
270.000000	3.326700
271.000000	3.328985
272.000000	3.346338
273.000000	3.338450
274.000000	3.253453
275.000000	3.277940
276.000000	3.267707
277.000000	3.301019
278.000000	3.282921
279.000000	3.294700
280.000000	3.295406
281.000000	3.277513
282.000000	3.283517
283.000000	3.252796
284.000000	3.245666
285.000000	3.247370
286.000000	3.240800
287.000000	3.263914
288.000000	3.220745
289.000000	3.250549
290.000000	3.215930
291.000000	3.242206
292.000000	3.240931
293.000000	3.214237
294.000000	3.208773
295.000000	3.204373
296.000000	3.179409
297.000000	3.197001
298.000000	3.207657
299.000000	3.206482
300.000000	3.243383
301.000000	3.217780
302.000000	3.193764
303.000000	3.192636
304.000000	3.208431
305.000000	3.237471
306.000000	3.178101
307.000000	3.152753
308.000000	3.191495
309.000000	3.201476
310.000000	3.129120
311.000000	3.132527
312.000000	3.111587
313.000000	3.136645
314.000000	3.126564
315.000000	3.086426
316.000000	3.127168
317.000000	3.278866
318.000000	3.326275
319.000000	3.258349
320.000000	3.272786
321.000000	3.191101
322.000000	3.332801
323.000000	3.141304
324.000000	3.264874
325.000000	3.280994
326.000000	3.317612
327.000000	3.218471
328.000000	3.163257
329.000000	3.134693
330.000000	3.204052
331.000000	3.157183
332.000000	3.169088
333.000000	3.120662
334.000000	3.174104
335.000000	3.163308
336.000000	3.185184
337.000000	3.226729
338.000000	3.216014
339.000000	3.163928
340.000000	3.188754
341.000000	3.199301
342.000000	3.175254
343.000000	3.165761
344.000000	3.186650
345.000000	3.176249
346.000000	3.178741
347.000000	3.171251
348.000000	3.183064
349.000000	3.161647
350.000000	3.148036
351.000000	3.196591
352.000000	3.198065
353.000000	3.149158
354.000000	3.156636
355.000000	3.203802
356.000000	3.172179
357.000000	3.176176
358.000000	3.193515
359.000000	3.176936
360.000000	3.149388
361.000000	3.159282
362.000000	3.141791
363.000000	3.166689
364.000000	3.168432
365.000000	3.141325
366.000000	3.146037
367.000000	3.179619
368.000000	3.135388
369.000000	3.141490
370.000000	3.163206
371.000000	3.143287
372.000000	3.145039
373.000000	3.133356
374.000000	3.139007
375.000000	3.131595
376.000000	3.064028
377.000000	2.985755
378.000000	2.982592
379.000000	2.985403
380.000000	2.981664
381.000000	2.972737
382.000000	2.969843
383.000000	2.964876
384.000000	2.965974
385.000000	2.962286
386.000000	2.956092
387.000000	2.956080
388.000000	2.961011
389.000000	2.964310
390.000000	2.962188
391.000000	2.961098
392.000000	2.963946
393.000000	2.961417
394.000000	2.954292
395.000000	2.956629
396.000000	2.963041
397.000000	2.960517
398.000000	2.953755
399.000000	2.950471
400.000000	2.950873
401.000000	2.954047
402.000000	2.952695
403.000000	2.955925
404.000000	2.960692
405.000000	2.953806
406.000000	2.950310
407.000000	2.961428
408.000000	2.962762
409.000000	2.963694
410.000000	2.962240
411.000000	2.956981
412.000000	2.961314
413.000000	2.963389
414.000000	2.968034
415.000000	2.966646
416.000000	2.963282
417.000000	2.962319
418.000000	2.962701
419.000000	2.958323
420.000000	2.963487
421.000000	2.969907
422.000000	2.966814
423.000000	2.969307
424.000000	2.970221
425.000000	2.971434
426.000000	2.976573
427.000000	2.980569
428.000000	2.976212
429.000000	2.979331
430.000000	2.985639
431.000000	2.986465
432.000000	2.985257
433.000000	2.985326
434.000000	2.984125
435.000000	2.986985
436.000000	2.988004
437.000000	2.978333
438.000000	2.980189
439.000000	2.984930
440.000000	2.983724
441.000000	2.986372
442.000000	2.986744
443.000000	2.990295
444.000000	3.002115
445.000000	3.003312
446.000000	2.999671
447.000000	3.009185
448.000000	3.008641
449.000000	3.004739
450.000000	3.003683
451.000000	3.008783
452.000000	3.014598
453.000000	3.011894
454.000000	3.008948
455.000000	3.007804
456.000000	3.007075
457.000000	3.012617
458.000000	3.014791
459.000000	3.015744
460.000000	3.018169
461.000000	3.014837
462.000000	3.016750
463.000000	3.023987
464.000000	3.026103
465.000000	3.028585
466.000000	3.036606
467.000000	3.035575
468.000000	3.037716
469.000000	3.041695
470.000000	3.038131
471.000000	3.040802
472.000000	3.048703
473.000000	3.051308
474.000000	3.058164
475.000000	3.063011
476.000000	3.070656
477.000000	3.080601
478.000000	3.092231
479.000000	3.102345
480.000000	3.110850
481.000000	3.123952
482.000000	3.142700
483.000000	3.163884
484.000000	3.187861
485.000000	3.211817
486.000000	3.236495
487.000000	3.262424
488.000000	3.293798
489.000000	3.337298
490.000000	3.375265
491.000000	3.414894
492.000000	3.463551
493.000000	3.519604
494.000000	3.573722
495.000000	3.637225
496.000000	3.702068
497.000000	3.773121
498.000000	3.850425
499.000000	3.936623
500.000000	4.025339
501.000000	4.121535
502.000000	4.225280
503.000000	4.334803
504.000000	4.451166
505.000000	4.579269
506.000000	4.704257
507.000000	4.835688
508.000000	4.972826
509.000000	5.127259
510.000000	5.278944
511.000000	5.434834
512.000000	5.592515
513.000000	5.767004
514.000000	5.940458
515.000000	6.111808
516.000000	6.290238
517.000000	6.461431
518.000000	6.642913
519.000000	6.822358
520.000000	7.002881
521.000000	7.180879
522.000000	7.355953
523.000000	7.517229
524.000000	7.684486
525.000000	7.831638
526.000000	7.972356
527.000000	8.109780
528.000000	8.231886
529.000000	8.338675
530.000000	8.442280
531.000000	8.534826
532.000000	8.600281
533.000000	8.657616
534.000000	8.695426
535.000000	8.727799
536.000000	8.739968
537.000000	8.749804
538.000000	8.727800
539.000000	8.709119
540.000000	8.666324
541.000000	8.600901
542.000000	8.530183
543.000000	8.447896
544.000000	8.354937
545.000000	8.261881
546.000000	8.162952
547.000000	8.051805
548.000000	7.935096
549.000000	7.820938
550.000000	7.705176
551.000000	7.586479
552.000000	7.458251
553.000000	7.361902
554.000000	7.285019
555.000000	7.205911
556.000000	7.146316
557.000000	7.084384
558.000000	7.062062
559.000000	7.065615
560.000000	7.076024
561.000000	7.127860
562.000000	7.204625
563.000000	7.301769
564.000000	7.418431
565.000000	7.542272
566.000000	7.707303
567.000000	7.872886
568.000000	8.051863
569.000000	8.235603
570.000000	8.423304
571.000000	8.622112
572.000000	8.818699
573.000000	9.008604
574.000000	9.197882
575.000000	9.362443
576.000000	9.538097
577.000000	9.700291
578.000000	9.844655
579.000000	9.977376
580.000000	10.126850
581.000000	10.249293
582.000000	10.359205
583.000000	10.482097
584.000000	10.601324
585.000000	10.709197
586.000000	10.825921
587.000000	10.927169
588.000000	11.065278
589.000000	11.193959
590.000000	11.345865
591.000000	11.489696
592.000000	11.633563
593.000000	11.806125
594.000000	11.987916
595.000000	12.186985
596.000000	12.379726
597.000000	12.583198
598.000000	12.776419
599.000000	12.980367
600.000000	13.197356
601.000000	13.425294
602.000000	13.646902
603.000000	13.863108
604.000000	14.075304
605.000000	14.273646
606.000000	14.474152
607.000000	14.675656
608.000000	14.864712
609.000000	15.054960
610.000000	15.241644
611.000000	15.428324
612.000000	15.579169
613.000000	15.753810
614.000000	15.905938
615.000000	16.091462
616.000000	16.228418
617.000000	16.388483
618.000000	16.552037
619.000000	16.722497
620.000000	16.882612
621.000000	17.053474
622.000000	17.223559
623.000000	17.420958
624.000000	17.607985
625.000000	17.790151
626.000000	17.990023
627.000000	18.187165
628.000000	18.383736
629.000000	18.574061
630.000000	18.780448
631.000000	18.985232
632.000000	19.184070
633.000000	19.388533
634.000000	19.598958
635.000000	19.792618
636.000000	19.974875
637.000000	20.174408
638.000000	20.374227
639.000000	20.570835
640.000000	20.776949
641.000000	20.960758
642.000000	21.173263
643.000000	21.379646
644.000000	21.585720
645.000000	21.782933
646.000000	21.970668
647.000000	22.171163
648.000000	22.393407
649.000000	22.603485
650.000000	22.802217
651.000000	23.024665
652.000000	23.233515
653.000000	23.451577
654.000000	23.655967
655.000000	23.871471
656.000000	24.097995
657.000000	24.305726
658.000000	24.521257
659.000000	24.739889
660.000000	24.958899
661.000000	25.198361
662.000000	25.429039
663.000000	25.631021
664.000000	25.844050
665.000000	26.038198
666.000000	26.222876
667.000000	26.422956
668.000000	26.624556
669.000000	26.838367
670.000000	27.048316
671.000000	27.266513
672.000000	27.493705
673.000000	27.650591
674.000000	27.827691
675.000000	28.018212
676.000000	28.195514
677.000000	28.413137
678.000000	28.592852
679.000000	28.766295
680.000000	28.956617
681.000000	29.156975
682.000000	29.342188
683.000000	29.547614
684.000000	29.729948
685.000000	29.920215
686.000000	30.133274
687.000000	30.293114
688.000000	30.435934
689.000000	30.629096
690.000000	30.825146
691.000000	31.007663
692.000000	31.184624
693.000000	31.364675
694.000000	31.534441
695.000000	31.706597
696.000000	31.871733
697.000000	32.029676
698.000000	32.205610
699.000000	32.380404
700.000000	32.559565
701.000000	32.739596
702.000000	32.887113
703.000000	33.043338
704.000000	33.199948
705.000000	33.363324
706.000000	33.553596
707.000000	33.713629
708.000000	33.861157
709.000000	34.016757
710.000000	34.155673
711.000000	34.316049
712.000000	34.494434
713.000000	34.680222
714.000000	34.846954
715.000000	34.986717
716.000000	35.158625
717.000000	35.301325
718.000000	35.402781
719.000000	35.533089
720.000000	35.692210
721.000000	35.842460
722.000000	36.023375
723.000000	36.195282
724.000000	36.340998
725.000000	36.475699
726.000000	36.619612
727.000000	36.744514
728.000000	36.883967
729.000000	37.025211
730.000000	37.160642
731.000000	37.303002
732.000000	37.462632
733.000000	37.604855
734.000000	37.716266
735.000000	37.850408
736.000000	38.018995
737.000000	38.164127
738.000000	38.287585
739.000000	38.434294
740.000000	38.560018
741.000000	38.664870
742.000000	38.827141
743.000000	38.984575
744.000000	39.096124
745.000000	39.253480
746.000000	39.407820
747.000000	39.524400
748.000000	39.670448
749.000000	39.800376
750.000000	39.911206
751.000000	40.010178
752.000000	40.137006
753.000000	40.231298
754.000000	40.379863
755.000000	40.563816
756.000000	40.648922
757.000000	40.714475
758.000000	40.834588
759.000000	41.049069
760.000000	41.160693
761.000000	41.254577
762.000000	41.398783
763.000000	41.503357
764.000000	41.658792
765.000000	41.774291
766.000000	41.834862
767.000000	41.965426
768.000000	42.115419
769.000000	42.329488
770.000000	42.402969
771.000000	42.523840
772.000000	42.663612
773.000000	42.769948
774.000000	42.890625
775.000000	42.983277
776.000000	43.071008
777.000000	43.231162
778.000000	43.303035
779.000000	43.393237
780.000000	43.537032
781.000000	43.603141
782.000000	43.722535
783.000000	43.783545
784.000000	43.897116
785.000000	44.095330
786.000000	44.128664
787.000000	44.293746
788.000000	44.446488
789.000000	44.475004
790.000000	44.560215
791.000000	44.714632
792.000000	44.825316
793.000000	44.883302
794.000000	44.998548
795.000000	45.052410
796.000000	45.115247
797.000000	45.264928
798.000000	45.390265
799.000000	45.582568
800.000000	45.615673
801.000000	45.720334
802.000000	45.865587
803.000000	46.039401
804.000000	46.085426
805.000000	46.126530
806.000000	46.221863
807.000000	46.339890
808.000000	46.312350
809.000000	46.524012
810.000000	46.658843
811.000000	46.735495
812.000000	46.863172
813.000000	47.013967
814.000000	47.035872
815.000000	47.101860
816.000000	47.230014
817.000000	47.237445
818.000000	47.370258
819.000000	47.394209
820.000000	47.595199
821.000000	47.685507
822.000000	47.628175
823.000000	47.795339
824.000000	47.832985
825.000000	48.005438
826.000000	48.200804
827.000000	48.214396
828.000000	48.173626
829.000000	48.332370
830.000000	48.437228
831.000000	48.476227
832.000000	48.450348
833.000000	48.698859
834.000000	48.621136
835.000000	48.817907
836.000000	48.815002
837.000000	48.973964
838.000000	49.011408
839.000000	49.136660
840.000000	49.111038
841.000000	49.399805
842.000000	49.457154
843.000000	49.337243
844.000000	49.467737
845.000000	49.618228
846.000000	49.642740
847.000000	49.862240
848.000000	49.787909
849.000000	50.002386
850.000000	50.318452
851.000000	50.055471
852.000000	49.885535
853.000000	50.113658
854.000000	50.056567
855.000000	50.288147
856.000000	50.415567
857.000000	50.522233
858.000000	50.408649
859.000000	50.662971
860.000000	50.036200
861.000000	51.073883
862.000000	50.663899
863.000000	50.307811
864.000000	50.303426
865.000000	49.837360
866.000000	50.005412
867.000000	50.829200
868.000000	51.017345
869.000000	50.665532
870.000000	51.070434
871.000000	50.911645
872.000000	50.680530
873.000000	51.133209
874.000000	50.490896
875.000000	51.347986
876.000000	51.366086
877.000000	51.488321
878.000000	51.439062
879.000000	50.761972
880.000000	50.659069
881.000000	51.698905
882.000000	51.692803
883.000000	51.424158
884.000000	52.118533
885.000000	51.762911
886.000000	51.622121
887.000000	51.790344
888.000000	51.575798
889.000000	51.818115
890.000000	51.817383
891.000000	52.065194
892.000000	51.731879
893.000000	51.118625
894.000000	51.692907
895.000000	52.000563
896.000000	52.095126
897.000000	52.383458
898.000000	52.282231
899.000000	52.309306
900.000000	52.730174
901.000000	52.741456
902.000000	52.713449
903.000000	52.045143
904.000000	52.192683
905.000000	52.374862
906.000000	52.736745
907.000000	52.098878
908.000000	52.391227
909.000000	52.388871
910.000000	52.770312
911.000000	52.669428
912.000000	52.634089
913.000000	53.345397
914.000000	53.572857
915.000000	52.713992
916.000000	52.920332
917.000000	52.227869
918.000000	52.681621
919.000000	52.915495
920.000000	53.029528
921.000000	53.125139
922.000000	52.529346
923.000000	52.600873
924.000000	52.698718
925.000000	53.191091
926.000000	53.691331
927.000000	54.073484
928.000000	53.197097
929.000000	53.042043
930.000000	53.308872
931.000000	53.751383
932.000000	53.436687
933.000000	53.459189
934.000000	54.002069
935.000000	53.881356
936.000000	53.663098
937.000000	53.575519
938.000000	53.286842
939.000000	54.061594
940.000000	53.723980
941.000000	54.267041
942.000000	53.706940
943.000000	53.345438
944.000000	53.603566
945.000000	54.397623
946.000000	54.681072
947.000000	54.295568
948.000000	53.763652
949.000000	54.152957
950.000000	53.968786
951.000000	54.044821
952.000000	53.766596
953.000000	53.599868
954.000000	53.695139
955.000000	53.973420
956.000000	53.972162
957.000000	53.755543
958.000000	53.799243
959.000000	53.904064
960.000000	54.015895
961.000000	53.965486
962.000000	53.867067
963.000000	54.412788
964.000000	54.824263
965.000000	54.313417
966.000000	54.113953
967.000000	53.968256
968.000000	54.053699
969.000000	54.638686
970.000000	54.517175
971.000000	54.442256
972.000000	54.238951
973.000000	54.023277
974.000000	53.927062
975.000000	54.026553
976.000000	54.299598
977.000000	54.491375
978.000000	54.382308
979.000000	54.570777
980.000000	55.096335
981.000000	54.998079
982.000000	54.905746
983.000000	55.070006
984.000000	54.684628
985.000000	54.399934
986.000000	54.501034
987.000000	54.613215
988.000000	54.646828
989.000000	54.188370
990.000000	54.157117
991.000000	54.765223
992.000000	54.943033
993.000000	55.052907
994.000000	54.932992
995.000000	55.013551
996.000000	54.863312
997.000000	54.490796
998.000000	54.547915
999.000000	55.096196
1000.000000	54.757828
1001.000000	54.506297
1002.000000	54.722243
1003.000000	54.612362
1004.000000	54.724819
1005.000000	55.195049
1006.000000	55.337893
1007.000000	55.628504
1008.000000	55.379016
1009.000000	54.678181
1010.000000	54.983845
1011.000000	55.109330
1012.000000	55.041275
1013.000000	55.373426
1014.000000	55.318598
1015.000000	55.357636
1016.000000	55.025430
1017.000000	54.766754
1018.000000	54.777431
1019.000000	54.863132
1020.000000	55.238404
1021.000000	55.481366
1022.000000	55.221632
1023.000000	55.678010
1024.000000	55.695606
1025.000000	55.259587
1026.000000	55.004658
1027.000000	55.045363
1028.000000	54.651241
1029.000000	54.988906
1030.000000	54.993323
1031.000000	54.834695
1032.000000	55.513806
1033.000000	55.425879
1034.000000	55.116285
1035.000000	55.139423
1036.000000	55.258300
1037.000000	55.296157
1038.000000	55.172628
1039.000000	55.465506
1040.000000	55.357294
1041.000000	55.062886
1042.000000	55.699613
1043.000000	55.415814
1044.000000	55.266708
1045.000000	55.698005
1046.000000	55.709548
1047.000000	55.617566
1048.000000	55.237769
1049.000000	54.977563
1050.000000	55.164999
1051.000000	54.885042
1052.000000	54.931615
1053.000000	55.085421
1054.000000	55.393739
1055.000000	55.641815
1056.000000	54.931697
1057.000000	54.834878
1058.000000	55.094298
1059.000000	55.578840
1060.000000	55.582718
1061.000000	55.259524
1062.000000	55.364989
1063.000000	54.976773
1064.000000	55.165495
1065.000000	55.834845
1066.000000	56.180476
1067.000000	55.556571
1068.000000	55.580568
1069.000000	55.562966
1070.000000	55.793391
1071.000000	55.463893
1072.000000	55.209643
1073.000000	55.457793
1074.000000	55.769375
1075.000000	55.323387
1076.000000	55.659816
1077.000000	55.049166
1078.000000	55.599127
1079.000000	56.126797
1080.000000	55.735494
1081.000000	55.439417
1082.000000	55.463472
1083.000000	54.946435
1084.000000	55.867803
1085.000000	55.656618
1086.000000	56.116072
1087.000000	55.994211
1088.000000	55.459695
1089.000000	55.614417
1090.000000	55.571829
1091.000000	55.592822
1092.000000	55.231672
1093.000000	56.156810
1094.000000	55.644295
1095.000000	56.303117
1096.000000	55.900398
1097.000000	55.954456
1098.000000	56.150321
1099.000000	55.527842
1100.000000	55.503658
1101.000000	55.356025
1102.000000	54.816309
1103.000000	55.535578
1104.000000	56.060650
1105.000000	55.148015
1106.000000	55.565747
1107.000000	55.471688
1108.000000	55.257780
1109.000000	56.100785
1110.000000	56.316204
1111.000000	55.547240
1112.000000	55.816497
1113.000000	55.596881
1114.000000	55.714850
1115.000000	56.340257
1116.000000	55.552127
1117.000000	55.735601
1118.000000	56.094485
1119.000000	55.476409
1120.000000	56.673373
1121.000000	55.480593
1122.000000	56.319383
1123.000000	56.087025
1124.000000	55.528268
1125.000000	56.801849
1126.000000	55.963162
1127.000000	55.869321
1128.000000	56.171233
1129.000000	55.676407
1130.000000	56.184007
1131.000000	55.982890
1132.000000	56.046721
1133.000000	55.630111
1134.000000	56.153779
1135.000000	55.863928
1136.000000	55.166373
1137.000000	55.892045
1138.000000	56.207841
1139.000000	55.273962
1140.000000	55.407926
1141.000000	56.737434
1142.000000	56.282030
1143.000000	55.272647
1144.000000	56.176133
1145.000000	54.929910
1146.000000	55.782744
1147.000000	55.058760
1148.000000	55.672138
1149.000000	55.794767
1150.000000	55.138332
1151.000000	55.791492
1152.000000	56.016555
1153.000000	55.079690
1154.000000	55.904202
1155.000000	55.562842
1156.000000	55.779876
1157.000000	55.335864
1158.000000	54.604616
1159.000000	55.413508
1160.000000	55.207588
1161.000000	55.744846
1162.000000	54.924278
1163.000000	54.776378
1164.000000	54.965869
1165.000000	54.341437
1166.000000	54.856546
1167.000000	55.321761
1168.000000	55.727682
1169.000000	55.527579
1170.000000	55.012593
1171.000000	55.231698
1172.000000	55.364292
1173.000000	55.532925
1174.000000	55.503653
1175.000000	55.285897
1176.000000	55.485937
1177.000000	55.547156
1178.000000	55.402760
1179.000000	55.657540
1180.000000	55.992917
1181.000000	55.126312
1182.000000	55.192154
1183.000000	55.024421
1184.000000	55.188999
1185.000000	55.060119
1186.000000	54.967176
1187.000000	55.340679
1188.000000	54.997577
1189.000000	55.114815
1190.000000	55.354731
1191.000000	55.825066
1192.000000	55.712016
1193.000000	54.932582
1194.000000	55.170002
1195.000000	55.273531
1196.000000	55.492304
1197.000000	55.284743
1198.000000	55.504128
1199.000000	55.338546
1200.000000	55.513916
1201.000000	55.474944
1202.000000	55.185189
1203.000000	55.870370
1204.000000	55.869287
1205.000000	55.158398
1206.000000	55.685982
1207.000000	55.454448
1208.000000	54.773576
1209.000000	55.208561
1210.000000	55.129709
1211.000000	55.140423
1212.000000	55.055333
1213.000000	54.914050
1214.000000	55.409321
1215.000000	55.517750
1216.000000	56.231932
1217.000000	55.341738
1218.000000	55.533615
1219.000000	55.592450
1220.000000	55.677542
1221.000000	55.737476
1222.000000	55.567694
1223.000000	55.777028
1224.000000	55.132510
1225.000000	55.428351
1226.000000	55.811311
1227.000000	55.896487
1228.000000	55.665462
1229.000000	55.522050
1230.000000	55.604911
1231.000000	55.750372
1232.000000	55.451339
1233.000000	55.077078
1234.000000	55.304821
1235.000000	55.386625
1236.000000	55.396817
1237.000000	55.434642
1238.000000	55.464360
1239.000000	55.491908
1240.000000	55.400943
1241.000000	55.553065
1242.000000	56.037889
1243.000000	55.700852
1244.000000	55.546264
1245.000000	55.811092
1246.000000	55.485917
1247.000000	55.050396
1248.000000	55.787897
1249.000000	56.039366
1250.000000	55.835598
1251.000000	56.302541
1252.000000	56.142659
1253.000000	55.890085
1254.000000	56.112567
1255.000000	56.122552
1256.000000	55.614331
1257.000000	55.518545
1258.000000	55.668665
1259.000000	55.641097
1260.000000	55.744634
1261.000000	55.268099
1262.000000	55.204099
1263.000000	55.807809
1264.000000	55.950741
1265.000000	55.650257
1266.000000	55.331624
1267.000000	55.218269
1268.000000	55.313522
1269.000000	55.575203
1270.000000	55.894032
1271.000000	55.636921
1272.000000	55.295156
1273.000000	55.301299
1274.000000	55.513230
1275.000000	55.266102
1276.000000	55.322995
1277.000000	55.582477
1278.000000	55.557696
1279.000000	55.318173
1280.000000	55.211013
1281.000000	55.248185
1282.000000	55.642573
1283.000000	56.153026
1284.000000	56.310628
1285.000000	55.964328
1286.000000	55.398619
1287.000000	55.353959
1288.000000	55.295185
1289.000000	55.654307
1290.000000	56.259654
1291.000000	56.168449
1292.000000	55.878905
1293.000000	55.909883
1294.000000	55.608434
1295.000000	55.518143
1296.000000	55.715811
1297.000000	55.513560
1298.000000	55.825685
1299.000000	55.596336
1300.000000	55.136547
1301.000000	55.639170
1302.000000	55.817361
1303.000000	55.859393
1304.000000	56.091236
1305.000000	55.705673
1306.000000	55.805149
1307.000000	56.060318
1308.000000	55.371226
1309.000000	55.278942
1310.000000	55.396181
1311.000000	55.728745
1312.000000	55.912544
1313.000000	55.832189
1314.000000	56.128253
1315.000000	56.267573
1316.000000	55.716981
1317.000000	55.738622
1318.000000	55.763605
1319.000000	55.667390
1320.000000	55.995919
1321.000000	55.711380
1322.000000	55.215719
1323.000000	54.881045
1324.000000	55.282515
1325.000000	55.700398
1326.000000	55.619914
1327.000000	55.978668
1328.000000	55.346230
1329.000000	55.613789
1330.000000	55.901586
1331.000000	55.741222
1332.000000	55.786111
1333.000000	56.566308
1334.000000	56.256522
1335.000000	55.506973
1336.000000	55.830710
1337.000000	55.451864
1338.000000	55.738059
1339.000000	55.588757
1340.000000	55.428884
1341.000000	55.206620
1342.000000	55.722163
1343.000000	56.175773
1344.000000	55.642341
1345.000000	55.419735
1346.000000	55.533840
1347.000000	55.391273
1348.000000	55.204801
1349.000000	54.647369
1350.000000	54.787880
1351.000000	56.031120
1352.000000	54.107297
1353.000000	55.526791
1354.000000	57.092244
1355.000000	59.738126
1356.000000	54.903593
1357.000000	55.518117
1358.000000	54.370039
1359.000000	55.754402
1360.000000	56.660655
1361.000000	56.331648
1362.000000	52.623520
1363.000000	53.926651
1364.000000	57.109662
1365.000000	52.277572
1366.000000	54.400228
1367.000000	58.799983
1368.000000	57.144019
1369.000000	54.727699
1370.000000	54.348701
1371.000000	54.528308
1372.000000	54.709180
1373.000000	54.623738
1374.000000	55.677122
1375.000000	55.338932
1376.000000	55.126531
1377.000000	54.044851
1378.000000	57.250056
1379.000000	54.191629
1380.000000	61.431641
1381.000000	56.519629
1382.000000	60.622777
1383.000000	56.972774
1384.000000	54.470196
1385.000000	55.577393
1386.000000	54.097362
1387.000000	55.036587
1388.000000	52.984077
1389.000000	55.177242
1390.000000	55.612868
1391.000000	55.570163
1392.000000	52.815436
1393.000000	54.013103
1394.000000	54.509312
1395.000000	55.711391
1396.000000	51.696261
1397.000000	53.935212
1398.000000	54.360749
1399.000000	55.611142
1400.000000	58.368192
1401.000000	53.997917
1402.000000	53.594684
1403.000000	53.686499
1404.000000	52.628657
1405.000000	52.784482
1406.000000	54.004793
1407.000000	53.314944
1408.000000	53.305860
1409.000000	55.331506
1410.000000	53.198951
1411.000000	52.442352
1412.000000	52.944482
1413.000000	52.786452
1414.000000	53.656306
1415.000000	52.983407
1416.000000	52.874270
1417.000000	53.039485
1418.000000	52.370112
1419.000000	52.908077
1420.000000	52.891354
1421.000000	52.066724
1422.000000	52.856273
1423.000000	52.358514
1424.000000	52.171841
1425.000000	52.770384
1426.000000	51.958662
1427.000000	52.315104
1428.000000	51.984096
1429.000000	52.106818
1430.000000	52.143284
1431.000000	52.615393
1432.000000	52.937432
1433.000000	52.074290
1434.000000	51.550365
1435.000000	51.433089
1436.000000	51.378066
1437.000000	51.919971
1438.000000	52.927498
1439.000000	53.591436
1440.000000	52.246943
1441.000000	53.387539
1442.000000	51.331781
1443.000000	51.136634
1444.000000	51.529479
1445.000000	51.397968
1446.000000	50.909555
1447.000000	51.099343
1448.000000	51.607156
1449.000000	51.828618
1450.000000	52.211573
1451.000000	51.724342
1452.000000	51.490577
1453.000000	51.119338
1454.000000	51.404425
1455.000000	51.171137
1456.000000	52.006899
1457.000000	51.346415
1458.000000	52.065779
1459.000000	51.565190
1460.000000	51.227877
1461.000000	51.782519
1462.000000	51.526484
1463.000000	51.456150
1464.000000	51.286687
1465.000000	51.049834
1466.000000	50.658668
1467.000000	50.276666
1468.000000	51.156060
1469.000000	51.559412
1470.000000	51.201001
1471.000000	51.298381
1472.000000	51.083398
1473.000000	50.526781
1474.000000	51.416174
1475.000000	50.864021
1476.000000	49.948265
1477.000000	50.195412
1478.000000	50.388648
1479.000000	50.966560
1480.000000	51.266476
1481.000000	51.018024
1482.000000	50.457737
1483.000000	51.088505
1484.000000	50.666116
1485.000000	50.631981
1486.000000	50.703511
1487.000000	50.958365
1488.000000	50.979781
1489.000000	51.135667
1490.000000	50.736108
1491.000000	50.733132
1492.000000	50.928880
1493.000000	50.422674
1494.000000	50.504600
1495.000000	51.125813
1496.000000	51.330111
1497.000000	50.777244
1498.000000	50.202464
1499.000000	51.004337
1500.000000	50.826666
1501.000000	50.295457
1502.000000	50.710974
1503.000000	50.894990
1504.000000	50.873357
1505.000000	51.001508
1506.000000	51.289456
1507.000000	50.796392
1508.000000	50.445463
1509.000000	50.617326
1510.000000	51.015533
1511.000000	50.640769
1512.000000	50.934201
1513.000000	51.135503
1514.000000	51.162465
1515.000000	51.456858
1516.000000	51.414943
1517.000000	51.067612
1518.000000	51.581195
1519.000000	51.687331
1520.000000	51.814169
1521.000000	51.701699
1522.000000	51.733269
1523.000000	51.826485
1524.000000	51.823330
1525.000000	51.695428
1526.000000	51.845791
1527.000000	51.966093
1528.000000	51.635308
1529.000000	51.713864
1530.000000	51.855336
1531.000000	51.859315
1532.000000	51.388814
1533.000000	51.330074
1534.000000	51.926005
1535.000000	51.585265
1536.000000	51.248742
1537.000000	51.377275
1538.000000	51.457571
1539.000000	51.517910
1540.000000	51.408673
1541.000000	51.871139
1542.000000	52.183525
1543.000000	52.170090
1544.000000	52.273471
1545.000000	51.852517
1546.000000	51.451046
1547.000000	52.273200
1548.000000	52.384687
1549.000000	52.072657
1550.000000	51.998773
1551.000000	52.100868
1552.000000	52.544790
1553.000000	52.123791
1554.000000	52.023478
1555.000000	52.216301
1556.000000	52.358264
1557.000000	52.651007
1558.000000	52.410982
1559.000000	52.693396
1560.000000	51.995075
1561.000000	51.842885
1562.000000	52.042123
1563.000000	52.364846
1564.000000	52.380044
1565.000000	51.639443
1566.000000	52.334603
1567.000000	52.361507
1568.000000	52.048921
1569.000000	52.154338
1570.000000	51.989387
1571.000000	51.882193
1572.000000	52.137878
1573.000000	52.451406
1574.000000	52.046365
1575.000000	51.372518
1576.000000	51.321472
1577.000000	51.441168
1578.000000	51.656776
1579.000000	52.116869
1580.000000	51.886047
1581.000000	52.185766
1582.000000	52.400806
1583.000000	52.488515
1584.000000	51.795010
1585.000000	52.178901
1586.000000	52.535035
1587.000000	52.344535
1588.000000	52.514597
1589.000000	51.823060
1590.000000	52.479261
1591.000000	52.776225
1592.000000	52.269176
1593.000000	52.430864
1594.000000	52.569790
1595.000000	52.650187
1596.000000	52.377921
1597.000000	52.364407
1598.000000	52.870945
1599.000000	52.025995
1600.000000	52.555923
1601.000000	53.008046
1602.000000	53.080216
1603.000000	52.619003
1604.000000	51.852051
1605.000000	52.315113
1606.000000	52.579135
1607.000000	52.269341
1608.000000	52.146873
1609.000000	51.970069
1610.000000	52.833378
1611.000000	52.571356
1612.000000	52.292479
1613.000000	52.629009
1614.000000	52.607834
1615.000000	53.285482
1616.000000	52.025433
1617.000000	52.611550
1618.000000	52.218528
1619.000000	53.210858
1620.000000	52.763543
1621.000000	52.790968
1622.000000	52.710949
1623.000000	53.022700
1624.000000	52.223815
1625.000000	52.324127
1626.000000	52.032860
1627.000000	52.125901
1628.000000	52.187126
1629.000000	52.504281
1630.000000	52.025482
1631.000000	52.323384
1632.000000	52.586531
1633.000000	52.542576
1634.000000	52.876179
1635.000000	52.822938
1636.000000	53.040246
1637.000000	52.476933
1638.000000	52.386418
1639.000000	52.631746
1640.000000	52.118875
1641.000000	52.632619
1642.000000	53.216988
1643.000000	53.078083
1644.000000	53.127310
1645.000000	52.852598
1646.000000	52.444579
1647.000000	52.567718
1648.000000	53.136986
1649.000000	52.472396
1650.000000	53.154960
1651.000000	52.632377
1652.000000	53.501027
1653.000000	53.048674
1654.000000	53.086673
1655.000000	52.560167
1656.000000	52.875274
1657.000000	52.563969
1658.000000	53.443914
1659.000000	53.577643
1660.000000	52.099923
1661.000000	52.661463
1662.000000	52.119979
1663.000000	52.638226
1664.000000	52.298557
1665.000000	52.555529
1666.000000	52.316602
1667.000000	52.272813
1668.000000	51.859020
1669.000000	52.430471
1670.000000	53.018181
1671.000000	51.601551
1672.000000	52.027338
1673.000000	52.446738
1674.000000	52.084369
1675.000000	52.600175
1676.000000	52.545312
1677.000000	51.248651
1678.000000	52.625137
1679.000000	51.803120
1680.000000	51.395096
1681.000000	51.214153
1682.000000	51.525492
1683.000000	51.626629
1684.000000	51.925090
1685.000000	52.022790
1686.000000	51.207246
1687.000000	50.784300
1688.000000	51.462667
1689.000000	51.442502
1690.000000	52.194619
1691.000000	52.159602
1692.000000	52.224524
1693.000000	51.647612
1694.000000	51.385207
1695.000000	51.322361
1696.000000	51.772812
1697.000000	51.994727
1698.000000	52.759755
1699.000000	51.564583
1700.000000	51.468001
1701.000000	51.495608
1702.000000	52.064566
1703.000000	51.976502
1704.000000	51.798674
1705.000000	51.456379
1706.000000	51.807373
1707.000000	51.561501
1708.000000	51.131035
1709.000000	51.566519
1710.000000	51.458827
1711.000000	51.580664
1712.000000	51.443802
1713.000000	51.973720
1714.000000	51.665799
1715.000000	51.652095
1716.000000	51.052546
1717.000000	51.607884
1718.000000	51.278380
1719.000000	50.890448
1720.000000	50.826836
1721.000000	51.143746
1722.000000	50.505032
1723.000000	51.305870
1724.000000	50.994117
1725.000000	51.172100
1726.000000	50.614249
1727.000000	50.697318
1728.000000	50.510224
1729.000000	50.674825
1730.000000	51.122522
1731.000000	51.174031
1732.000000	50.831213
1733.000000	51.192948
1734.000000	51.543163
1735.000000	51.203177
1736.000000	50.986061
1737.000000	50.636673
1738.000000	51.257566
1739.000000	51.260948
1740.000000	50.981061
1741.000000	50.795438
1742.000000	51.250892
1743.000000	51.059311
1744.000000	50.889468
1745.000000	50.299526
1746.000000	50.904187
1747.000000	51.077555
1748.000000	51.405613
1749.000000	51.184529
1750.000000	51.832518
1751.000000	51.545647
1752.000000	51.547027
1753.000000	51.465646
1754.000000	50.781470
1755.000000	51.104193
1756.000000	51.251009
1757.000000	51.841748
1758.000000	51.160708
1759.000000	51.335630
1760.000000	51.969399
1761.000000	51.932236
1762.000000	51.260978
1763.000000	51.140462
1764.000000	51.448017
1765.000000	51.708890
1766.000000	51.507137
1767.000000	51.475815
1768.000000	51.167699
1769.000000	51.530441
1770.000000	51.958140
1771.000000	51.158547
1772.000000	51.296683
1773.000000	51.583276
1774.000000	52.089660
1775.000000	52.126547
1776.000000	51.915186
1777.000000	51.631717
1778.000000	51.791081
1779.000000	51.523657
1780.000000	51.320113
1781.000000	51.516297
1782.000000	51.620231
1783.000000	51.503351
1784.000000	51.900901
1785.000000	51.964117
1786.000000	51.744311
1787.000000	51.925540
1788.000000	51.956332
1789.000000	51.619764
1790.000000	51.832758
1791.000000	51.750693
1792.000000	51.192970
1793.000000	50.662099
1794.000000	50.985704
1795.000000	51.706155
1796.000000	51.998822
1797.000000	51.957867
1798.000000	51.905710
1799.000000	52.351695
1800.000000	52.687019
1801.000000	52.332132
1802.000000	51.776994
1803.000000	51.296768
1804.000000	51.535181
1805.000000	52.155650
1806.000000	52.027878
1807.000000	51.618705
1808.000000	51.601802
1809.000000	51.770307
1810.000000	52.486882
1811.000000	52.847384
1812.000000	52.215721
1813.000000	51.826296
1814.000000	52.185103
1815.000000	51.809351
1816.000000	52.189544
1817.000000	53.680340
1818.000000	51.949398
1819.000000	52.388407
1820.000000	51.897817
1821.000000	51.059160
1822.000000	51.438865
1823.000000	51.825491
1824.000000	51.520365
1825.000000	52.983154
1826.000000	52.473267
1827.000000	51.969081
1828.000000	51.477228
1829.000000	51.943628
1830.000000	54.162026
1831.000000	52.876685
1832.000000	51.215659
1833.000000	51.775421
1834.000000	52.576038
1835.000000	51.908895
1836.000000	51.053659
1837.000000	51.019182
1838.000000	50.852024
1839.000000	50.829257
1840.000000	51.309604
1841.000000	52.956484
1842.000000	52.036572
1843.000000	51.640355
1844.000000	52.479877
1845.000000	51.665455
1846.000000	52.282456
1847.000000	53.554490
1848.000000	52.239928
1849.000000	51.867518
1850.000000	51.266073
1851.000000	51.509685
1852.000000	52.470020
1853.000000	53.768660
1854.000000	52.832724
1855.000000	52.201032
1856.000000	50.703534
1857.000000	50.211737
1858.000000	50.685183
1859.000000	51.717733
1860.000000	51.301822
1861.000000	51.663187
1862.000000	52.337029
1863.000000	52.994197
1864.000000	52.192658
1865.000000	52.566411
1866.000000	51.265335
1867.000000	50.472774
1868.000000	51.052288
1869.000000	52.956119
1870.000000	56.505308
1871.000000	52.521788
1872.000000	53.105145
1873.000000	51.677429
1874.000000	51.810884
1875.000000	51.080326
1876.000000	52.732528
1877.000000	51.580768
1878.000000	51.591333
1879.000000	51.087710
1880.000000	51.512828
1881.000000	50.700699
1882.000000	50.988125
1883.000000	51.786855
1884.000000	49.942935
1885.000000	49.174165
1886.000000	51.069909
1887.000000	50.185890
1888.000000	49.937345
1889.000000	50.337920
1890.000000	49.272366
1891.000000	49.398165
1892.000000	49.158218
1893.000000	49.807617
1894.000000	48.969471
1895.000000	47.676218
1896.000000	48.021237
1897.000000	47.865229
1898.000000	48.132957
1899.000000	47.931942
1900.000000	47.357370
1901.000000	47.190559
1902.000000	49.120429
1903.000000	46.736286
1904.000000	46.370221
1905.000000	45.544837
1906.000000	47.116944
1907.000000	45.081757
1908.000000	45.882006
1909.000000	44.908337
1910.000000	44.246777
1911.000000	43.387480
1912.000000	43.927811
1913.000000	44.964751
1914.000000	44.534835
1915.000000	43.072063
1916.000000	41.711338
1917.000000	42.519137
1918.000000	42.792375
1919.000000	44.817341
1920.000000	43.914905
1921.000000	43.360101
1922.000000	43.263429
1923.000000	43.611948
1924.000000	43.348126
1925.000000	43.025327
1926.000000	43.026554
1927.000000	42.431291
1928.000000	43.303523
1929.000000	42.877791
1930.000000	43.529123
1931.000000	43.695002
1932.000000	42.944489
1933.000000	43.101672
1934.000000	42.269943
1935.000000	43.202864
1936.000000	43.083965
1937.000000	43.283983
1938.000000	41.701294
1939.000000	42.558322
1940.000000	41.970281
1941.000000	43.407790
1942.000000	43.340740
1943.000000	43.169596
1944.000000	42.911893
1945.000000	42.877339
1946.000000	43.378616
1947.000000	43.838712
1948.000000	42.983046
1949.000000	43.172266
1950.000000	42.992429
1951.000000	42.541277
1952.000000	43.056943
1953.000000	44.023393
1954.000000	43.360941
1955.000000	43.709671
1956.000000	44.059101
1957.000000	43.597217
1958.000000	44.055691
1959.000000	44.510679
1960.000000	44.613245
1961.000000	44.147108
1962.000000	44.694416
1963.000000	44.078785
1964.000000	43.856006
1965.000000	44.279174
1966.000000	43.964106
1967.000000	45.134733
1968.000000	44.037928
1969.000000	44.782248
1970.000000	44.672053
1971.000000	45.170781
1972.000000	45.176962
1973.000000	45.587198
1974.000000	45.182051
1975.000000	45.438508
1976.000000	44.677855
1977.000000	44.640047
1978.000000	45.090328
1979.000000	45.175678
1980.000000	44.851630
1981.000000	45.061050
1982.000000	44.937579
1983.000000	44.996597
1984.000000	45.544918
1985.000000	45.690003
1986.000000	45.148492
1987.000000	46.218410
1988.000000	45.718482
1989.000000	45.823930
1990.000000	45.955180
1991.000000	45.968490
1992.000000	45.568900
1993.000000	46.021943
1994.000000	46.039472
1995.000000	46.163566
1996.000000	45.894025
1997.000000	45.877799
1998.000000	45.637811
1999.000000	45.534290
