PE UV       SUBTECH     SPECTRUM    ASCII       PEDS        4.00        
   -1
CICIMAUCR0257-3.ASC
24/06/27
11:37:05.00
24/06/27
11:37:05.00
Vinicio Soto Monge
C. resplendens. Sex F. Ventral
250,000000
1
Lambda 1050
1050L1511233
PerkinElmer UV WinLab 6.3.2.0749 / 2.02.05 Lambda 900 UV/VIS/NIR, Aug  7 2015 09:38:08

0
0
3350/servo 860,8/2
0
0
UV/VIS
1
1
1
DoubleDePol,CommonBeamDepol,RBeamAtt,SBeamAtt,60mm sphere, WB InGaAs Detector
0
0
0
0
Program
Program
3350/servo 860,8/2
3350/0,2 860,8/0,2
3350/0,2 860,8/0,2
0
15.00
 
 
 
0
 
860,8
319,2
860,8
Front
100
on
S:100 R:100
0
0
0
0
 
0
 
 
 
0
 
 
0
0
0
0
0
 
 
 
 
0
0


0
0
#HDR
-1
-1
#GR
nm
%R
1.0
0.0
2500,000000
-1,000000
2251
8
58,099400
4,428400
#DATA
2482.000000	5.726082
2481.000000	5.650234
2480.000000	5.704345
2479.000000	5.745738
2478.000000	5.705848
2477.000000	5.643412
2476.000000	5.716138
2475.000000	5.659484
2474.000000	5.686539
2473.000000	5.750131
2472.000000	5.701917
2471.000000	5.708161
2470.000000	5.651159
2469.000000	5.682145
2468.000000	5.637168
2467.000000	5.685267
2466.000000	5.659137
2465.000000	5.683995
2464.000000	5.697639
2463.000000	5.690933
2462.000000	5.661449
2461.000000	5.704576
2460.000000	5.728626
2459.000000	5.716601
2458.000000	5.720648
2457.000000	5.756491
2456.000000	5.728048
2455.000000	5.767590
2454.000000	5.811874
2453.000000	5.787015
2452.000000	5.818349
2451.000000	5.839276
2450.000000	5.883097
2449.000000	5.896278
2448.000000	5.913390
2447.000000	5.931659
2446.000000	5.933971
2445.000000	5.950389
2444.000000	5.998488
2443.000000	6.048322
2442.000000	6.051443
2441.000000	6.063006
2440.000000	6.087402
2439.000000	6.145329
2438.000000	6.155041
2437.000000	6.146485
2436.000000	6.161400
2435.000000	6.198284
2434.000000	6.225686
2433.000000	6.233202
2432.000000	6.250429
2431.000000	6.260373
2430.000000	6.282804
2429.000000	6.299222
2428.000000	6.318531
2427.000000	6.343505
2426.000000	6.355415
2425.000000	6.371602
2424.000000	6.378655
2423.000000	6.366514
2422.000000	6.393107
2421.000000	6.393570
2420.000000	6.403976
2419.000000	6.418313
2418.000000	6.436813
2417.000000	6.458665
2416.000000	6.454619
2415.000000	6.448028
2414.000000	6.464909
2413.000000	6.487802
2412.000000	6.514164
2411.000000	6.500752
2410.000000	6.504914
2409.000000	6.525958
2408.000000	6.537867
2407.000000	6.551741
2406.000000	6.560529
2405.000000	6.556482
2404.000000	6.562379
2403.000000	6.581341
2402.000000	6.596140
2401.000000	6.603078
2400.000000	6.606778
2399.000000	6.623427
2398.000000	6.665629
2397.000000	6.680891
2396.000000	6.694766
2395.000000	6.696038
2394.000000	6.703553
2393.000000	6.720319
2392.000000	6.733268
2391.000000	6.746449
2390.000000	6.763215
2389.000000	6.769111
2388.000000	6.761249
2387.000000	6.763793
2386.000000	6.778361
2385.000000	6.786802
2384.000000	6.784027
2383.000000	6.784720
2382.000000	6.779170
2381.000000	6.766221
2380.000000	6.763561
2379.000000	6.762405
2378.000000	6.757896
2377.000000	6.768880
2376.000000	6.753849
2375.000000	6.733962
2374.000000	6.735118
2373.000000	6.737778
2372.000000	6.738125
2371.000000	6.720666
2370.000000	6.700200
2369.000000	6.672914
2368.000000	6.660773
2367.000000	6.660311
2366.000000	6.638805
2365.000000	6.605159
2364.000000	6.580878
2363.000000	6.572206
2362.000000	6.555672
2361.000000	6.516014
2360.000000	6.492427
2359.000000	6.491618
2358.000000	6.477974
2357.000000	6.453231
2356.000000	6.429066
2355.000000	6.404901
2354.000000	6.389523
2353.000000	6.401548
2352.000000	6.395767
2351.000000	6.387211
2350.000000	6.418082
2349.000000	6.438778
2348.000000	6.443866
2347.000000	6.443634
2346.000000	6.452075
2345.000000	6.462481
2344.000000	6.473118
2343.000000	6.509308
2342.000000	6.529311
2341.000000	6.544457
2340.000000	6.555557
2339.000000	6.569547
2338.000000	6.588162
2337.000000	6.582959
2336.000000	6.577063
2335.000000	6.565847
2334.000000	6.554979
2333.000000	6.556251
2332.000000	6.547348
2331.000000	6.528386
2330.000000	6.521333
2329.000000	6.506880
2328.000000	6.478437
2327.000000	6.452537
2326.000000	6.432419
2325.000000	6.400276
2324.000000	6.375995
2323.000000	6.346743
2322.000000	6.318531
2321.000000	6.283035
2320.000000	6.233433
2319.000000	6.200481
2318.000000	6.172037
2317.000000	6.148797
2316.000000	6.104283
2315.000000	6.074568
2314.000000	6.045315
2313.000000	6.026469
2312.000000	5.987504
2311.000000	5.955824
2310.000000	5.918940
2309.000000	5.908765
2308.000000	5.892347
2307.000000	5.859279
2306.000000	5.874194
2305.000000	5.871304
2304.000000	5.886335
2303.000000	5.912581
2302.000000	5.894775
2301.000000	5.928652
2300.000000	5.932468
2299.000000	5.961605
2298.000000	5.989007
2297.000000	6.005310
2296.000000	6.027163
2295.000000	6.068902
2294.000000	6.088789
2293.000000	6.102433
2292.000000	6.103589
2291.000000	6.124285
2290.000000	6.134576
2289.000000	6.154116
2288.000000	6.136079
2287.000000	6.142207
2286.000000	6.123823
2285.000000	6.126020
2284.000000	6.130760
2283.000000	6.100352
2282.000000	6.098155
2281.000000	6.082083
2280.000000	6.064624
2279.000000	6.048206
2278.000000	6.032481
2277.000000	6.023463
2276.000000	6.023347
2275.000000	6.015947
2274.000000	6.000685
2273.000000	5.986348
2272.000000	6.010051
2271.000000	5.993170
2270.000000	6.011207
2269.000000	6.042540
2268.000000	6.035141
2267.000000	6.044159
2266.000000	6.074337
2265.000000	6.122667
2264.000000	6.151919
2263.000000	6.213430
2262.000000	6.280954
2261.000000	6.335065
2260.000000	6.399698
2259.000000	6.496243
2258.000000	6.558794
2257.000000	6.659039
2256.000000	6.753965
2255.000000	6.845769
2254.000000	6.958270
2253.000000	7.036661
2252.000000	7.134709
2251.000000	7.262009
2250.000000	7.367226
2249.000000	7.433246
2248.000000	7.529907
2247.000000	7.610033
2246.000000	7.683453
2245.000000	7.776298
2244.000000	7.833068
2243.000000	7.944413
2242.000000	7.995287
2241.000000	8.088709
2240.000000	8.148486
2239.000000	8.181554
2238.000000	8.261680
2237.000000	8.299605
2236.000000	8.360769
2235.000000	8.391062
2234.000000	8.411874
2233.000000	8.468991
2232.000000	8.509112
2231.000000	8.546227
2230.000000	8.568773
2229.000000	8.587042
2228.000000	8.601957
2227.000000	8.623116
2226.000000	8.634678
2225.000000	8.655028
2224.000000	8.656878
2223.000000	8.654218
2222.000000	8.680927
2221.000000	8.691102
2220.000000	8.659537
2219.000000	8.656184
2218.000000	8.652715
2217.000000	8.660462
2216.000000	8.627163
2215.000000	8.621844
2214.000000	8.640459
2213.000000	8.632019
2212.000000	8.625082
2211.000000	8.603807
2210.000000	8.618260
2209.000000	8.582301
2208.000000	8.591551
2207.000000	8.607391
2206.000000	8.584151
2205.000000	8.559177
2204.000000	8.587736
2203.000000	8.575364
2202.000000	8.560102
2201.000000	8.559292
2200.000000	8.558946
2199.000000	8.570045
2198.000000	8.586348
2197.000000	8.554783
2196.000000	8.561027
2195.000000	8.560911
2194.000000	8.553396
2193.000000	8.553743
2192.000000	8.567155
2191.000000	8.557558
2190.000000	8.533855
2189.000000	8.534549
2188.000000	8.535359
2187.000000	8.513853
2186.000000	8.515125
2185.000000	8.508650
2184.000000	8.505181
2183.000000	8.505528
2182.000000	8.493735
2181.000000	8.499863
2180.000000	8.491769
2179.000000	8.491191
2178.000000	8.468182
2177.000000	8.484022
2176.000000	8.488878
2175.000000	8.501944
2174.000000	8.465060
2173.000000	8.456504
2172.000000	8.478126
2171.000000	8.476044
2170.000000	8.477201
2169.000000	8.474772
2168.000000	8.486219
2167.000000	8.519403
2166.000000	8.527728
2165.000000	8.530156
2164.000000	8.531890
2163.000000	8.533277
2162.000000	8.554783
2161.000000	8.550852
2160.000000	8.578254
2159.000000	8.590857
2158.000000	8.585654
2157.000000	8.616757
2156.000000	8.617335
2155.000000	8.662543
2154.000000	8.681968
2153.000000	8.684858
2152.000000	8.716886
2151.000000	8.717579
2150.000000	8.736079
2149.000000	8.749954
2148.000000	8.767297
2147.000000	8.794700
2146.000000	8.797821
2145.000000	8.814240
2144.000000	8.825108
2143.000000	8.838174
2142.000000	8.863842
2141.000000	8.870317
2140.000000	8.875404
2139.000000	8.894944
2138.000000	8.899222
2137.000000	8.912287
2136.000000	8.910438
2135.000000	8.915409
2134.000000	8.927434
2133.000000	8.916219
2132.000000	8.918878
2131.000000	8.940037
2130.000000	8.930787
2129.000000	8.940152
2128.000000	8.945818
2127.000000	8.918994
2126.000000	8.925006
2125.000000	8.926740
2124.000000	8.912634
2123.000000	8.907894
2122.000000	8.882457
2121.000000	8.869276
2120.000000	8.866039
2119.000000	8.845573
2118.000000	8.839445
2117.000000	8.832046
2116.000000	8.804874
2115.000000	8.804065
2114.000000	8.788918
2113.000000	8.756775
2112.000000	8.743941
2111.000000	8.723707
2110.000000	8.706364
2109.000000	8.690986
2108.000000	8.681968
2107.000000	8.655606
2106.000000	8.646356
2105.000000	8.637800
2104.000000	8.620341
2103.000000	8.586811
2102.000000	8.564495
2101.000000	8.557558
2100.000000	8.551430
2099.000000	8.528884
2098.000000	8.513853
2097.000000	8.485525
2096.000000	8.456851
2095.000000	8.463788
2094.000000	8.460320
2093.000000	8.432802
2092.000000	8.419736
2091.000000	8.417193
2090.000000	8.411065
2089.000000	8.396612
2088.000000	8.385974
2087.000000	8.380771
2086.000000	8.372678
2085.000000	8.359150
2084.000000	8.339494
2083.000000	8.329320
2082.000000	8.325966
2081.000000	8.302380
2080.000000	8.279139
2079.000000	8.275671
2078.000000	8.276480
2077.000000	8.271740
2076.000000	8.251159
2075.000000	8.231387
2074.000000	8.218438
2073.000000	8.205604
2072.000000	8.198666
2071.000000	8.180976
2070.000000	8.152995
2069.000000	8.139236
2068.000000	8.136346
2067.000000	8.140624
2066.000000	8.128021
2065.000000	8.121431
2064.000000	8.119812
2063.000000	8.118193
2062.000000	8.108596
2061.000000	8.086859
2060.000000	8.082003
2059.000000	8.085125
2058.000000	8.099000
2057.000000	8.112643
2056.000000	8.108712
2055.000000	8.129987
2054.000000	8.166870
2053.000000	8.177970
2052.000000	8.210922
2051.000000	8.246303
2050.000000	8.274746
2049.000000	8.320185
2048.000000	8.369440
2047.000000	8.417424
2046.000000	8.472229
2045.000000	8.540446
2044.000000	8.604616
2043.000000	8.653640
2042.000000	8.709370
2041.000000	8.777703
2040.000000	8.855401
2039.000000	8.918878
2038.000000	8.965011
2037.000000	9.022591
2036.000000	9.077627
2035.000000	9.141567
2034.000000	9.192556
2033.000000	9.236493
2032.000000	9.291760
2031.000000	9.356393
2030.000000	9.376511
2029.000000	9.395936
2028.000000	9.482306
2027.000000	9.522774
2026.000000	9.543817
2025.000000	9.583360
2024.000000	9.603362
2023.000000	9.632962
2022.000000	9.667070
2021.000000	9.697826
2020.000000	9.722107
2019.000000	9.746503
2018.000000	9.761534
2017.000000	9.791249
2016.000000	9.808592
2015.000000	9.817032
2014.000000	9.831254
2013.000000	9.860391
2012.000000	9.867906
2011.000000	9.876462
2010.000000	9.907334
2009.000000	9.880972
2008.000000	9.880278
2007.000000	9.855650
2006.000000	9.831370
2005.000000	9.853916
2004.000000	9.853222
2003.000000	9.849522
2002.000000	9.812176
2001.000000	9.788474
2000.000000	9.777374
1999.000000	9.754365
1998.000000	9.727656
1997.000000	9.712972
1996.000000	9.674123
1995.000000	9.644986
1994.000000	9.621168
1993.000000	9.579775
1992.000000	9.525433
1991.000000	9.505083
1990.000000	9.462187
1989.000000	9.418251
1988.000000	9.389923
1987.000000	9.351652
1986.000000	9.275804
1985.000000	9.255339
1984.000000	9.197065
1983.000000	9.143763
1982.000000	9.121795
1981.000000	9.053925
1980.000000	9.023747
1979.000000	8.980736
1978.000000	8.945934
1977.000000	8.889972
1976.000000	8.855633
1975.000000	8.827074
1974.000000	8.771113
1973.000000	8.732379
1972.000000	8.696074
1971.000000	8.664856
1970.000000	8.596638
1969.000000	8.576751
1968.000000	8.521715
1967.000000	8.495700
1966.000000	8.471304
1965.000000	8.408636
1964.000000	8.412336
1963.000000	8.370134
1962.000000	8.329666
1961.000000	8.287349
1960.000000	8.254512
1959.000000	8.219131
1958.000000	8.197973
1957.000000	8.162939
1956.000000	8.113568
1955.000000	8.112296
1954.000000	8.041998
1953.000000	8.016792
1952.000000	8.007427
1951.000000	7.962103
1950.000000	7.947997
1949.000000	7.904639
1948.000000	7.883480
1947.000000	7.861974
1946.000000	7.850065
1945.000000	7.827865
1944.000000	7.823356
1943.000000	7.797572
1942.000000	7.789132
1941.000000	7.784276
1940.000000	7.772020
1939.000000	7.748548
1938.000000	7.774679
1937.000000	7.751092
1936.000000	7.783235
1935.000000	7.792832
1934.000000	7.832143
1933.000000	7.826825
1932.000000	7.841393
1931.000000	7.864749
1930.000000	7.919091
1929.000000	7.895851
1928.000000	7.986499
1927.000000	8.029395
1926.000000	8.082697
1925.000000	8.134611
1924.000000	8.140971
1923.000000	8.221328
1922.000000	8.294170
1921.000000	8.361000
1920.000000	8.439276
1919.000000	8.533624
1918.000000	8.590048
1917.000000	8.702549
1916.000000	8.786490
1915.000000	8.857020
1914.000000	8.921653
1913.000000	9.066065
1912.000000	9.198684
1911.000000	9.324944
1910.000000	9.439525
1909.000000	9.524508
1908.000000	9.649727
1907.000000	9.772402
1906.000000	9.898084
1905.000000	10.095220
1904.000000	10.274781
1903.000000	10.432606
1902.000000	10.594593
1901.000000	10.772767
1900.000000	10.923885
1899.000000	11.151661
1898.000000	11.367066
1897.000000	11.535875
1896.000000	11.729658
1895.000000	11.894882
1894.000000	12.064616
1893.000000	12.261521
1892.000000	12.472184
1891.000000	12.755691
1890.000000	13.014453
1889.000000	13.256798
1888.000000	13.502727
1887.000000	13.767502
1886.000000	14.088238
1885.000000	14.448055
1884.000000	14.831574
1883.000000	15.274639
1882.000000	15.790431
1881.000000	16.257892
1880.000000	16.779002
1879.000000	17.250510
1878.000000	17.710687
1877.000000	18.217575
1876.000000	18.706196
1875.000000	19.154232
1874.000000	19.571860
1873.000000	19.984516
1872.000000	20.386651
1871.000000	20.758261
1870.000000	21.094954
1869.000000	21.431530
1868.000000	21.730992
1867.000000	21.954143
1866.000000	22.121333
1865.000000	22.260890
1864.000000	22.368418
1863.000000	22.453863
1862.000000	22.508321
1861.000000	22.602785
1860.000000	22.702451
1859.000000	22.771015
1858.000000	22.823392
1857.000000	22.879238
1856.000000	22.869294
1855.000000	22.842932
1854.000000	22.828827
1853.000000	22.819114
1852.000000	22.750666
1851.000000	22.689617
1850.000000	22.629378
1849.000000	22.555495
1848.000000	22.501615
1847.000000	22.468547
1846.000000	22.429004
1845.000000	22.330032
1844.000000	22.253143
1843.000000	22.163304
1842.000000	22.113240
1841.000000	22.109309
1840.000000	22.091156
1839.000000	22.056007
1838.000000	21.989177
1837.000000	21.926972
1836.000000	21.880839
1835.000000	21.833202
1834.000000	21.762095
1833.000000	21.658728
1832.000000	21.540447
1831.000000	21.445289
1830.000000	21.372794
1829.000000	21.273937
1828.000000	21.193811
1827.000000	21.100619
1826.000000	21.008006
1825.000000	20.941523
1824.000000	20.854575
1823.000000	20.774448
1822.000000	20.729356
1821.000000	20.708428
1820.000000	20.690622
1819.000000	20.674666
1818.000000	20.639517
1817.000000	20.587371
1816.000000	20.562859
1815.000000	20.554535
1814.000000	20.556731
1813.000000	20.544129
1812.000000	20.534416
1811.000000	20.510251
1810.000000	20.468743
1809.000000	20.434056
1808.000000	20.378673
1807.000000	20.309415
1806.000000	20.266751
1805.000000	20.215183
1804.000000	20.147197
1803.000000	20.099445
1802.000000	20.044871
1801.000000	19.991338
1800.000000	19.938036
1799.000000	19.867969
1798.000000	19.792005
1797.000000	19.737894
1796.000000	19.683205
1795.000000	19.630712
1794.000000	19.582382
1793.000000	19.520986
1792.000000	19.464216
1791.000000	19.379696
1790.000000	19.309051
1789.000000	19.239330
1788.000000	19.153770
1787.000000	19.078384
1786.000000	18.991205
1785.000000	18.900904
1784.000000	18.815574
1783.000000	18.705039
1782.000000	18.606529
1781.000000	18.509059
1780.000000	18.404074
1779.000000	18.327764
1778.000000	18.246481
1777.000000	18.128084
1776.000000	18.006449
1775.000000	17.876605
1774.000000	17.727221
1773.000000	17.586277
1772.000000	17.449959
1771.000000	17.307049
1770.000000	17.135928
1769.000000	16.971282
1768.000000	16.829529
1767.000000	16.705466
1766.000000	16.595047
1765.000000	16.495033
1764.000000	16.410282
1763.000000	16.353280
1762.000000	16.352818
1761.000000	16.373977
1760.000000	16.434100
1759.000000	16.488559
1758.000000	16.541051
1757.000000	16.611696
1756.000000	16.686967
1755.000000	16.751021
1754.000000	16.779002
1753.000000	16.791720
1752.000000	16.783396
1751.000000	16.774840
1750.000000	16.749518
1749.000000	16.680492
1748.000000	16.620368
1747.000000	16.548451
1746.000000	16.449247
1745.000000	16.309460
1744.000000	16.159382
1743.000000	16.005026
1742.000000	15.796327
1741.000000	15.565198
1740.000000	15.327941
1739.000000	15.064207
1738.000000	14.831574
1737.000000	14.622298
1736.000000	14.434412
1735.000000	14.300752
1734.000000	14.231032
1733.000000	14.175071
1732.000000	14.195883
1731.000000	14.277050
1730.000000	14.339948
1729.000000	14.453605
1728.000000	14.552809
1727.000000	14.678490
1726.000000	14.806716
1725.000000	14.911238
1724.000000	14.986508
1723.000000	15.043163
1722.000000	15.070566
1721.000000	15.076578
1720.000000	15.097968
1719.000000	15.099934
1718.000000	15.117277
1717.000000	15.141327
1716.000000	15.150345
1715.000000	15.202607
1714.000000	15.278455
1713.000000	15.337885
1712.000000	15.395580
1711.000000	15.434661
1710.000000	15.450501
1709.000000	15.465879
1708.000000	15.455241
1707.000000	15.411652
1706.000000	15.388643
1705.000000	15.351759
1704.000000	15.302504
1703.000000	15.236600
1702.000000	15.134852
1701.000000	15.036342
1700.000000	14.886033
1699.000000	14.719652
1698.000000	14.558359
1697.000000	14.432909
1696.000000	14.321102
1695.000000	14.254850
1694.000000	14.267800
1693.000000	14.342954
1692.000000	14.475458
1691.000000	14.629467
1690.000000	14.793882
1689.000000	14.966506
1688.000000	15.097159
1687.000000	15.195438
1686.000000	15.197404
1685.000000	15.214978
1684.000000	15.248509
1683.000000	15.336035
1682.000000	15.578842
1681.000000	15.927212
1680.000000	16.398836
1679.000000	17.007472
1678.000000	17.614027
1677.000000	18.232259
1676.000000	18.822858
1675.000000	19.396114
1674.000000	19.858488
1673.000000	20.276000
1672.000000	20.667729
1671.000000	20.953201
1670.000000	21.218670
1669.000000	21.445058
1668.000000	21.639304
1667.000000	21.808806
1666.000000	21.980505
1665.000000	22.109540
1664.000000	22.215334
1663.000000	22.309335
1662.000000	22.404955
1661.000000	22.466004
1660.000000	22.533874
1659.000000	22.587291
1658.000000	22.621747
1657.000000	22.649959
1656.000000	22.661868
1655.000000	22.680714
1654.000000	22.659440
1653.000000	22.653196
1652.000000	22.613538
1651.000000	22.618394
1650.000000	22.561970
1649.000000	22.544396
1648.000000	22.459529
1647.000000	22.427039
1646.000000	22.365181
1645.000000	22.306445
1644.000000	22.211403
1643.000000	22.185735
1642.000000	22.118558
1641.000000	22.026176
1640.000000	21.954375
1639.000000	21.852164
1638.000000	21.783138
1637.000000	21.715268
1636.000000	21.611554
1635.000000	21.538134
1634.000000	21.456505
1633.000000	21.376610
1632.000000	21.264803
1631.000000	21.160511
1630.000000	21.078882
1629.000000	20.970891
1628.000000	20.880937
1627.000000	20.791792
1626.000000	20.699525
1625.000000	20.599396
1624.000000	20.494064
1623.000000	20.379136
1622.000000	20.289644
1621.000000	20.198533
1620.000000	20.073314
1619.000000	19.997119
1618.000000	19.920115
1617.000000	19.831664
1616.000000	19.729569
1615.000000	19.661352
1614.000000	19.567351
1613.000000	19.488381
1612.000000	19.403398
1611.000000	19.316450
1610.000000	19.267426
1609.000000	19.177357
1608.000000	19.099890
1607.000000	18.999067
1606.000000	18.940446
1605.000000	18.866217
1604.000000	18.764585
1603.000000	18.700761
1602.000000	18.616819
1601.000000	18.548602
1600.000000	18.465007
1599.000000	18.391587
1598.000000	18.331348
1597.000000	18.247290
1596.000000	18.181386
1595.000000	18.137333
1594.000000	18.073857
1593.000000	17.998240
1592.000000	17.943204
1591.000000	17.891867
1590.000000	17.836484
1589.000000	17.780754
1588.000000	17.740980
1587.000000	17.693459
1586.000000	17.642123
1585.000000	17.599574
1584.000000	17.574599
1583.000000	17.551244
1582.000000	17.503260
1581.000000	17.473083
1580.000000	17.465105
1579.000000	17.453774
1578.000000	17.426025
1577.000000	17.422440
1576.000000	17.427412
1575.000000	17.425331
1574.000000	17.428106
1573.000000	17.426487
1572.000000	17.415156
1571.000000	17.440477
1570.000000	17.462330
1569.000000	17.472852
1568.000000	17.495976
1567.000000	17.505342
1566.000000	17.534941
1565.000000	17.560262
1564.000000	17.587896
1563.000000	17.614952
1562.000000	17.646054
1561.000000	17.671838
1560.000000	17.661894
1559.000000	17.680278
1558.000000	17.703518
1557.000000	17.716815
1556.000000	17.737511
1555.000000	17.729765
1554.000000	17.729765
1553.000000	17.730112
1552.000000	17.725140
1551.000000	17.722018
1550.000000	17.719590
1549.000000	17.706293
1548.000000	17.688834
1547.000000	17.684441
1546.000000	17.692187
1545.000000	17.680047
1544.000000	17.667444
1543.000000	17.663397
1542.000000	17.665247
1541.000000	17.683516
1540.000000	17.682938
1539.000000	17.678197
1538.000000	17.664785
1537.000000	17.663513
1536.000000	17.659004
1535.000000	17.654841
1534.000000	17.633914
1533.000000	17.628479
1532.000000	17.632411
1531.000000	17.604314
1530.000000	17.597608
1529.000000	17.593215
1528.000000	17.562690
1527.000000	17.538178
1526.000000	17.520257
1525.000000	17.493664
1524.000000	17.460943
1523.000000	17.429378
1522.000000	17.420822
1521.000000	17.403710
1520.000000	17.374457
1519.000000	17.335261
1518.000000	17.299187
1517.000000	17.279184
1516.000000	17.251319
1515.000000	17.209926
1514.000000	17.190964
1513.000000	17.165412
1512.000000	17.130725
1511.000000	17.104941
1510.000000	17.064358
1509.000000	17.025393
1508.000000	16.971513
1507.000000	16.928733
1506.000000	16.914164
1505.000000	16.898902
1504.000000	16.871615
1503.000000	16.831957
1502.000000	16.797386
1501.000000	16.776343
1500.000000	16.756109
1499.000000	16.719225
1498.000000	16.688007
1497.000000	16.674364
1496.000000	16.664998
1495.000000	16.646846
1494.000000	16.628693
1493.000000	16.615974
1492.000000	16.605222
1491.000000	16.589266
1490.000000	16.594122
1489.000000	16.598284
1488.000000	16.588109
1487.000000	16.581056
1486.000000	16.570766
1485.000000	16.572154
1484.000000	16.580247
1483.000000	16.580825
1482.000000	16.582560
1481.000000	16.601059
1480.000000	16.624299
1479.000000	16.642105
1478.000000	16.664305
1477.000000	16.672976
1476.000000	16.670433
1475.000000	16.692748
1474.000000	16.726163
1473.000000	16.741193
1472.000000	16.768249
1471.000000	16.799236
1470.000000	16.826176
1469.000000	16.849300
1468.000000	16.869881
1467.000000	16.877628
1466.000000	16.915783
1465.000000	16.955442
1464.000000	16.982729
1463.000000	17.028862
1462.000000	17.075573
1461.000000	17.120204
1460.000000	17.194780
1459.000000	17.259182
1458.000000	17.316762
1457.000000	17.374342
1456.000000	17.464874
1455.000000	17.562922
1454.000000	17.662010
1453.000000	17.749074
1452.000000	17.841803
1451.000000	17.955922
1450.000000	18.076054
1449.000000	18.191676
1448.000000	18.280358
1447.000000	18.377481
1446.000000	18.517500
1445.000000	18.654859
1444.000000	18.761347
1443.000000	18.893619
1442.000000	19.015948
1441.000000	19.156198
1440.000000	19.284192
1439.000000	19.419817
1438.000000	19.554054
1437.000000	19.704132
1436.000000	19.822645
1435.000000	19.950292
1434.000000	20.073314
1433.000000	20.221658
1432.000000	20.372545
1431.000000	20.541122
1430.000000	20.698716
1429.000000	20.846250
1428.000000	21.019105
1427.000000	21.228151
1426.000000	21.413724
1425.000000	21.643466
1424.000000	21.868236
1423.000000	22.120755
1422.000000	22.373853
1421.000000	22.619781
1420.000000	22.851373
1419.000000	23.145401
1418.000000	23.456656
1417.000000	23.707325
1416.000000	23.922499
1415.000000	24.190858
1414.000000	24.491476
1413.000000	24.793944
1412.000000	25.085891
1411.000000	25.322454
1410.000000	25.648047
1409.000000	26.040122
1408.000000	26.452894
1407.000000	26.941977
1406.000000	27.399725
1405.000000	27.856781
1404.000000	28.375578
1403.000000	28.883160
1402.000000	29.375480
1401.000000	29.822477
1400.000000	30.389026
1399.000000	30.914530
1398.000000	31.268912
1397.000000	31.528022
1396.000000	31.866333
1395.000000	32.262687
1394.000000	32.557524
1393.000000	32.792931
1392.000000	32.994460
1391.000000	33.279354
1390.000000	33.578585
1389.000000	33.798498
1388.000000	34.168837
1387.000000	34.608896
1386.000000	35.062945
1385.000000	35.585558
1384.000000	36.162051
1383.000000	36.781902
1382.000000	37.447078
1381.000000	38.073982
1380.000000	38.517741
1379.000000	38.791303
1378.000000	39.015958
1377.000000	39.136552
1376.000000	39.348950
1375.000000	39.570251
1374.000000	39.868094
1373.000000	40.235774
1372.000000	40.696991
1371.000000	41.222264
1370.000000	41.797716
1369.000000	42.275005
1368.000000	42.741079
1367.000000	43.186572
1366.000000	43.554714
1365.000000	43.850129
1364.000000	44.188093
1363.000000	44.436450
1362.000000	44.698681
1361.000000	44.918248
1360.000000	45.157124
1359.000000	45.193545
1358.000000	45.316336
1357.000000	45.462367
1356.000000	45.721824
1355.000000	46.131936
1354.000000	46.763581
1353.000000	47.485874
1352.000000	48.207473
1351.000000	49.076491
1350.000000	49.860989
1349.000000	50.605481
1348.000000	51.279791
1347.000000	51.892474
1346.000000	52.493247
1345.000000	52.981058
1344.000000	53.503671
1343.000000	54.009635
1342.000000	54.468193
1341.000000	54.913802
1340.000000	55.377910
1339.000000	55.791491
1338.000000	56.207500
1337.000000	56.600616
1336.000000	56.973730
1335.000000	57.349271
1334.000000	57.705504
1333.000000	58.041965
1332.000000	58.378888
1331.000000	58.687369
1330.000000	58.966481
1329.000000	59.251837
1328.000000	59.528406
1327.000000	59.788556
1326.000000	60.035641
1325.000000	60.266770
1324.000000	60.513161
1323.000000	60.691682
1322.000000	60.890322
1321.000000	61.067802
1320.000000	61.252220
1319.000000	61.411663
1318.000000	61.585906
1317.000000	61.739337
1316.000000	61.881552
1315.000000	62.036024
1314.000000	62.173730
1313.000000	62.313286
1312.000000	62.400465
1311.000000	62.514700
1310.000000	62.625813
1309.000000	62.716461
1308.000000	62.809306
1307.000000	62.868505
1306.000000	62.948515
1305.000000	62.980196
1304.000000	63.025635
1303.000000	63.061016
1302.000000	63.065409
1301.000000	63.091425
1300.000000	63.104027
1299.000000	63.119983
1298.000000	63.127614
1297.000000	63.122180
1296.000000	63.106918
1295.000000	63.094199
1294.000000	63.081481
1293.000000	63.052922
1292.000000	63.039163
1291.000000	62.979271
1290.000000	62.935219
1289.000000	62.899376
1288.000000	62.822949
1287.000000	62.739586
1286.000000	62.642347
1285.000000	62.556093
1284.000000	62.445674
1283.000000	62.351095
1282.000000	62.244028
1281.000000	62.143090
1280.000000	62.038220
1279.000000	61.935316
1278.000000	61.831603
1277.000000	61.708350
1276.000000	61.624408
1275.000000	61.532141
1274.000000	61.441840
1273.000000	61.361483
1272.000000	61.271528
1271.000000	61.201808
1270.000000	61.149084
1269.000000	61.069652
1268.000000	60.986751
1267.000000	60.902346
1266.000000	60.826729
1265.000000	60.733538
1264.000000	60.639884
1263.000000	60.569585
1262.000000	60.495702
1261.000000	60.395111
1260.000000	60.313944
1259.000000	60.231158
1258.000000	60.134845
1257.000000	60.053562
1256.000000	59.958058
1255.000000	59.841395
1254.000000	59.719067
1253.000000	59.619054
1252.000000	59.493603
1251.000000	59.354278
1250.000000	59.225359
1249.000000	59.086613
1248.000000	58.936535
1247.000000	58.797441
1246.000000	58.627245
1245.000000	58.417506
1244.000000	58.220601
1243.000000	58.025893
1242.000000	57.802626
1241.000000	57.578088
1240.000000	57.365343
1239.000000	57.128779
1238.000000	56.877879
1237.000000	56.628597
1236.000000	56.372493
1235.000000	56.113384
1234.000000	55.845602
1233.000000	55.571693
1232.000000	55.310271
1231.000000	55.031274
1230.000000	54.726725
1229.000000	54.443450
1228.000000	54.161447
1227.000000	53.860251
1226.000000	53.563217
1225.000000	53.262945
1224.000000	52.968455
1223.000000	52.663328
1222.000000	52.369878
1221.000000	52.083366
1220.000000	51.797201
1219.000000	51.524101
1218.000000	51.260250
1217.000000	51.012934
1216.000000	50.767699
1215.000000	50.540964
1214.000000	50.326137
1213.000000	50.102986
1212.000000	49.889085
1211.000000	49.699233
1210.000000	49.523487
1209.000000	49.333866
1208.000000	49.162514
1207.000000	49.020876
1206.000000	48.896929
1205.000000	48.808594
1204.000000	48.738989
1203.000000	48.669731
1202.000000	48.621517
1201.000000	48.564515
1200.000000	48.506588
1199.000000	48.429699
1198.000000	48.288524
1197.000000	48.102141
1196.000000	47.886274
1195.000000	47.592825
1194.000000	47.196240
1193.000000	46.724385
1192.000000	46.164657
1191.000000	45.501910
1190.000000	44.798695
1189.000000	44.141150
1188.000000	43.583157
1187.000000	43.142520
1186.000000	42.893932
1185.000000	42.818199
1184.000000	42.936596
1183.000000	43.251205
1182.000000	43.744334
1181.000000	44.386270
1180.000000	45.106944
1179.000000	45.874792
1178.000000	46.562167
1177.000000	47.197627
1176.000000	47.755043
1175.000000	48.223545
1174.000000	48.668922
1173.000000	49.121352
1172.000000	49.589738
1171.000000	50.053962
1170.000000	50.532754
1169.000000	51.028774
1168.000000	51.512770
1167.000000	52.020930
1166.000000	52.540884
1165.000000	53.029619
1164.000000	53.560442
1163.000000	54.095195
1162.000000	54.634111
1161.000000	55.172218
1160.000000	55.677718
1159.000000	56.183219
1158.000000	56.663168
1157.000000	57.121726
1156.000000	57.532648
1155.000000	57.903911
1154.000000	58.177012
1153.000000	58.379351
1152.000000	58.502488
1151.000000	58.555212
1150.000000	58.568393
1149.000000	58.568624
1148.000000	58.539372
1147.000000	58.553478
1146.000000	58.637651
1145.000000	58.821722
1144.000000	59.091006
1143.000000	59.440764
1142.000000	59.843708
1141.000000	60.301572
1140.000000	60.768802
1139.000000	61.255226
1138.000000	61.748702
1137.000000	62.268887
1136.000000	62.797166
1135.000000	63.344406
1134.000000	63.916853
1133.000000	64.421660
1132.000000	64.831079
1131.000000	65.266975
1130.000000	65.625751
1129.000000	65.957819
1128.000000	66.234503
1127.000000	66.471529
1126.000000	66.640453
1125.000000	66.784634
1124.000000	66.898638
1123.000000	66.978302
1122.000000	67.054034
1121.000000	67.101208
1120.000000	67.125026
1119.000000	67.159944
1118.000000	67.175900
1117.000000	67.147457
1116.000000	67.143410
1115.000000	67.098896
1114.000000	67.056115
1113.000000	67.014607
1112.000000	66.957258
1111.000000	66.917484
1110.000000	66.885226
1109.000000	66.824293
1108.000000	66.774459
1107.000000	66.716186
1106.000000	66.670862
1105.000000	66.621953
1104.000000	66.577901
1103.000000	66.509684
1102.000000	66.449907
1101.000000	66.384118
1100.000000	66.351397
1099.000000	66.268727
1098.000000	66.203863
1097.000000	66.120152
1096.000000	66.037829
1095.000000	65.959206
1094.000000	65.866824
1093.000000	65.781379
1092.000000	65.696512
1091.000000	65.592683
1090.000000	65.503654
1089.000000	65.398900
1088.000000	65.299696
1087.000000	65.170893
1086.000000	65.066833
1085.000000	64.975722
1084.000000	64.839866
1083.000000	64.738581
1082.000000	64.586075
1081.000000	64.495080
1080.000000	64.400963
1079.000000	64.290660
1078.000000	64.145669
1077.000000	64.067162
1076.000000	63.949342
1075.000000	63.845976
1074.000000	63.748853
1073.000000	63.594382
1072.000000	63.517493
1071.000000	63.385915
1070.000000	63.279311
1069.000000	63.156751
1068.000000	63.053038
1067.000000	62.937300
1066.000000	62.841565
1065.000000	62.734498
1064.000000	62.607198
1063.000000	62.500594
1062.000000	62.365085
1061.000000	62.261950
1060.000000	62.113144
1059.000000	61.987000
1058.000000	61.868949
1057.000000	61.734827
1056.000000	61.582321
1055.000000	61.465658
1054.000000	61.342289
1053.000000	61.222620
1052.000000	61.085492
1051.000000	60.968829
1050.000000	60.838060
1049.000000	60.747181
1048.000000	60.603809
1047.000000	60.526111
1046.000000	60.402395
1045.000000	60.278217
1044.000000	60.197512
1043.000000	60.081774
1042.000000	59.951121
1041.000000	59.865561
1040.000000	59.751326
1039.000000	59.646572
1038.000000	59.545518
1037.000000	59.425733
1036.000000	59.309186
1035.000000	59.209057
1034.000000	59.075629
1033.000000	58.957694
1032.000000	58.818138
1031.000000	58.701475
1030.000000	58.546656
1029.000000	58.431034
1028.000000	58.301768
1027.000000	58.168340
1026.000000	58.012018
1025.000000	57.868069
1024.000000	57.707007
1023.000000	57.536695
1022.000000	57.416563
1021.000000	57.270648
1020.000000	57.115598
1019.000000	56.986795
1018.000000	56.815443
1017.000000	56.685136
1016.000000	56.571711
1015.000000	56.443485
1014.000000	56.324741
1013.000000	56.219062
1012.000000	56.095231
1011.000000	55.999496
1010.000000	55.926769
1009.000000	55.842943
1008.000000	55.800047
1007.000000	55.706162
1006.000000	55.650547
1005.000000	55.587302
1004.000000	55.518044
1003.000000	55.461042
1002.000000	55.379991
1001.000000	55.312467
1000.000000	55.244019
999.000000	55.166783
998.000000	55.100069
997.000000	55.007918
996.000000	54.945251
995.000000	54.882930
994.000000	54.802110
993.000000	54.734587
992.000000	54.671341
991.000000	54.593874
990.000000	54.515136
989.000000	54.455937
988.000000	54.370839
987.000000	54.314993
986.000000	54.251863
985.000000	54.170118
984.000000	54.105139
983.000000	54.064555
982.000000	53.991713
981.000000	53.906153
980.000000	53.851926
979.000000	53.791918
978.000000	53.716301
977.000000	53.654443
976.000000	53.572466
975.000000	53.491646
974.000000	53.421348
973.000000	53.348622
972.000000	53.242711
971.000000	53.174147
970.000000	53.117146
969.000000	53.032741
968.000000	52.931109
967.000000	52.853989
966.000000	52.777563
965.000000	52.685412
964.000000	52.621588
963.000000	52.565280
962.000000	52.487582
961.000000	52.410577
960.000000	52.336348
959.000000	52.274721
958.000000	52.236450
957.000000	52.156208
956.000000	52.056889
955.000000	51.976531
954.000000	51.887733
953.000000	51.816163
952.000000	51.740314
951.000000	51.639029
950.000000	51.531500
949.000000	51.423278
948.000000	51.313784
947.000000	51.214926
946.000000	51.117110
945.000000	51.000563
944.000000	50.911071
943.000000	50.820423
942.000000	50.699944
941.000000	50.575072
940.000000	50.478065
939.000000	50.377821
938.000000	50.275495
937.000000	50.177909
936.000000	50.066912
935.000000	49.993261
934.000000	49.920187
933.000000	49.821561
932.000000	49.721779
931.000000	49.632866
930.000000	49.560370
929.000000	49.462901
928.000000	49.366703
927.000000	49.273627
926.000000	49.208185
925.000000	49.124358
924.000000	49.011280
923.000000	48.904213
922.000000	48.815994
921.000000	48.745117
920.000000	48.657475
919.000000	48.578274
918.000000	48.485082
917.000000	48.376166
916.000000	48.260544
915.000000	48.160993
914.000000	48.056586
913.000000	47.984553
912.000000	47.902230
911.000000	47.781289
910.000000	47.675148
909.000000	47.596987
908.000000	47.527960
907.000000	47.476509
906.000000	47.428641
905.000000	47.385629
904.000000	47.354643
903.000000	47.324928
902.000000	47.330824
901.000000	47.323656
900.000000	47.304462
899.000000	47.299144
898.000000	47.307469
897.000000	47.302844
896.000000	47.304000
895.000000	47.258676
894.000000	47.259601
893.000000	47.256364
892.000000	47.225030
891.000000	47.197165
890.000000	47.154269
889.000000	47.104089
888.000000	47.062696
887.000000	47.035178
886.000000	47.003497
885.000000	46.929384
884.000000	46.881863
883.000000	46.824052
882.000000	46.749244
881.000000	46.647265
880.000000	46.526555
879.000000	46.427120
878.000000	46.348265
877.000000	46.234493
876.000000	46.084184
875.000000	45.919885
874.000000	45.726102
873.000000	45.553940
872.000000	45.498557
871.000000	45.519600
870.000000	45.570474
869.000000	45.619266
868.000000	45.680431
867.000000	45.758245
866.000000	45.821259
865.000000	45.877220
864.000000	45.936303
863.000000	46.008336
862.000000	46.082218
861.000000	46.136908
860.000000	46.224896
859.000000	46.289645
858.000000	46.342600
857.000000	45.743900
856.000000	46.810200
855.000000	46.473700
854.000000	46.880200
853.000000	47.018600
852.000000	47.289000
851.000000	47.150600
850.000000	47.396300
849.000000	47.584000
848.000000	47.907700
847.000000	48.165000
846.000000	48.218500
845.000000	48.090200
844.000000	48.216900
843.000000	48.639500
842.000000	48.561500
841.000000	48.806100
840.000000	49.220000
839.000000	49.074800
838.000000	49.147100
837.000000	49.450800
836.000000	49.431000
835.000000	49.397400
834.000000	49.619900
833.000000	49.925400
832.000000	49.980300
831.000000	50.042900
830.000000	50.073100
829.000000	50.259300
828.000000	50.272500
827.000000	50.308900
826.000000	50.616200
825.000000	50.488400
824.000000	50.641400
823.000000	51.004300
822.000000	50.973400
821.000000	50.847600
820.000000	50.885500
819.000000	51.018100
818.000000	51.101300
817.000000	51.209300
816.000000	51.143900
815.000000	51.201700
814.000000	51.142400
813.000000	51.346300
812.000000	51.228700
811.000000	51.165500
810.000000	51.310900
809.000000	51.407300
808.000000	51.293700
807.000000	51.329900
806.000000	51.417500
805.000000	51.362800
804.000000	51.416100
803.000000	51.410700
802.000000	51.407500
801.000000	51.287000
800.000000	51.261100
799.000000	51.344000
798.000000	51.376600
797.000000	51.379600
796.000000	51.255300
795.000000	51.421600
794.000000	51.382800
793.000000	51.288800
792.000000	51.419400
791.000000	51.311800
790.000000	51.363100
789.000000	51.281800
788.000000	51.198200
787.000000	51.197900
786.000000	51.121000
785.000000	51.223100
784.000000	51.083100
783.000000	51.102200
782.000000	50.982900
781.000000	50.830700
780.000000	50.749400
779.000000	50.826400
778.000000	50.731100
777.000000	50.753400
776.000000	50.716500
775.000000	50.556400
774.000000	50.478500
773.000000	50.395300
772.000000	50.486000
771.000000	50.416800
770.000000	50.419200
769.000000	50.123500
768.000000	50.050800
767.000000	50.123600
766.000000	49.971400
765.000000	49.862100
764.000000	49.706500
763.000000	49.722200
762.000000	49.540100
761.000000	49.404600
760.000000	49.429400
759.000000	49.260700
758.000000	49.178500
757.000000	49.035700
756.000000	48.921400
755.000000	48.774800
754.000000	48.725800
753.000000	48.676600
752.000000	48.524100
751.000000	48.446400
750.000000	48.308200
749.000000	48.106400
748.000000	48.011100
747.000000	47.925100
746.000000	47.756300
745.000000	47.658000
744.000000	47.523800
743.000000	47.305300
742.000000	47.172500
741.000000	47.062600
740.000000	46.952100
739.000000	46.735100
738.000000	46.508500
737.000000	46.382600
736.000000	46.299600
735.000000	46.099000
734.000000	45.973600
733.000000	45.734200
732.000000	45.589500
731.000000	45.386600
730.000000	45.193500
729.000000	44.924500
728.000000	44.716900
727.000000	44.662800
726.000000	44.426600
725.000000	44.184600
724.000000	43.991600
723.000000	43.706900
722.000000	43.457700
721.000000	43.246000
720.000000	42.997400
719.000000	42.779700
718.000000	42.521300
717.000000	42.200500
716.000000	41.942000
715.000000	41.704800
714.000000	41.447900
713.000000	41.192000
712.000000	40.896700
711.000000	40.619800
710.000000	40.304200
709.000000	39.988900
708.000000	39.744400
707.000000	39.474700
706.000000	39.170400
705.000000	38.857300
704.000000	38.562800
703.000000	38.227600
702.000000	37.921400
701.000000	37.649800
700.000000	37.393900
699.000000	37.107800
698.000000	36.787600
697.000000	36.506200
696.000000	36.239700
695.000000	35.935900
694.000000	35.642400
693.000000	35.366600
692.000000	35.089700
691.000000	34.836700
690.000000	34.595900
689.000000	34.323500
688.000000	34.046300
687.000000	33.806200
686.000000	33.538400
685.000000	33.284600
684.000000	33.023700
683.000000	32.808400
682.000000	32.596200
681.000000	32.380300
680.000000	32.119300
679.000000	31.878700
678.000000	31.673400
677.000000	31.471000
676.000000	31.280800
675.000000	31.115800
674.000000	30.900300
673.000000	30.682600
672.000000	30.519700
671.000000	30.315100
670.000000	30.112000
669.000000	29.937400
668.000000	29.767200
667.000000	29.596800
666.000000	29.443400
665.000000	29.296400
664.000000	29.169100
663.000000	29.028900
662.000000	28.887800
661.000000	28.752900
660.000000	28.616600
659.000000	28.503900
658.000000	28.373000
657.000000	28.278700
656.000000	28.186000
655.000000	28.071200
654.000000	27.969900
653.000000	27.873200
652.000000	27.795400
651.000000	27.712700
650.000000	27.608400
649.000000	27.565400
648.000000	27.506400
647.000000	27.438000
646.000000	27.408000
645.000000	27.348300
644.000000	27.297800
643.000000	27.251300
642.000000	27.225200
641.000000	27.192500
640.000000	27.137900
639.000000	27.110600
638.000000	27.081800
637.000000	27.053700
636.000000	27.020000
635.000000	26.996000
634.000000	26.992500
633.000000	26.987300
632.000000	26.996000
631.000000	27.000700
630.000000	26.985500
629.000000	26.994100
628.000000	27.030500
627.000000	27.047400
626.000000	27.090600
625.000000	27.139200
624.000000	27.160900
623.000000	27.206100
622.000000	27.263900
621.000000	27.331700
620.000000	27.401500
619.000000	27.466200
618.000000	27.558400
617.000000	27.653000
616.000000	27.753000
615.000000	27.842700
614.000000	27.954600
613.000000	28.075800
612.000000	28.188700
611.000000	28.322800
610.000000	28.450900
609.000000	28.545000
608.000000	28.664800
607.000000	28.793800
606.000000	28.913800
605.000000	29.049800
604.000000	29.191900
603.000000	29.324500
602.000000	29.445700
601.000000	29.567100
600.000000	29.686400
599.000000	29.792600
598.000000	29.905400
597.000000	30.008400
596.000000	30.092600
595.000000	30.180600
594.000000	30.269500
593.000000	30.373700
592.000000	30.463400
591.000000	30.536100
590.000000	30.593100
589.000000	30.655700
588.000000	30.731000
587.000000	30.773300
586.000000	30.836400
585.000000	30.907500
584.000000	30.940200
583.000000	30.986900
582.000000	31.011100
581.000000	30.993900
580.000000	31.031000
579.000000	31.044300
578.000000	31.047600
577.000000	31.016600
576.000000	31.007300
575.000000	30.988100
574.000000	30.947600
573.000000	30.911900
572.000000	30.888900
571.000000	30.825700
570.000000	30.753900
569.000000	30.663700
568.000000	30.591700
567.000000	30.501500
566.000000	30.402500
565.000000	30.280400
564.000000	30.182700
563.000000	30.062900
562.000000	29.916600
561.000000	29.748000
560.000000	29.599600
559.000000	29.416000
558.000000	29.235900
557.000000	29.082300
556.000000	28.900500
555.000000	28.667200
554.000000	28.473300
553.000000	28.245200
552.000000	28.018100
551.000000	27.771700
550.000000	27.538600
549.000000	27.270500
548.000000	27.022300
547.000000	26.770200
546.000000	26.490800
545.000000	26.194200
544.000000	25.911800
543.000000	25.610900
542.000000	25.304100
541.000000	24.979200
540.000000	24.669700
539.000000	24.361600
538.000000	24.031900
537.000000	23.709800
536.000000	23.361700
535.000000	23.032900
534.000000	22.682500
533.000000	22.351300
532.000000	21.987900
531.000000	21.647000
530.000000	21.310600
529.000000	20.954800
528.000000	20.610700
527.000000	20.276900
526.000000	19.938700
525.000000	19.606700
524.000000	19.246500
523.000000	18.922700
522.000000	18.589500
521.000000	18.270300
520.000000	17.969600
519.000000	17.679700
518.000000	17.355400
517.000000	17.068500
516.000000	16.790800
515.000000	16.500200
514.000000	16.218600
513.000000	15.971300
512.000000	15.723100
511.000000	15.479600
510.000000	15.228800
509.000000	15.000200
508.000000	14.785600
507.000000	14.557800
506.000000	14.374400
505.000000	14.184000
504.000000	14.006900
503.000000	13.838300
502.000000	13.645900
501.000000	13.483400
500.000000	13.323600
499.000000	13.161900
498.000000	13.037900
497.000000	12.894400
496.000000	12.760900
495.000000	12.663300
494.000000	12.538200
493.000000	12.419200
492.000000	12.294500
491.000000	12.189700
490.000000	12.074000
489.000000	11.981200
488.000000	11.869500
487.000000	11.789500
486.000000	11.669700
485.000000	11.583700
484.000000	11.508700
483.000000	11.402400
482.000000	11.307700
481.000000	11.213500
480.000000	11.114600
479.000000	10.993100
478.000000	10.893700
477.000000	10.801200
476.000000	10.707600
475.000000	10.615900
474.000000	10.512700
473.000000	10.419800
472.000000	10.334700
471.000000	10.223600
470.000000	10.118400
469.000000	10.061600
468.000000	9.973300
467.000000	9.876200
466.000000	9.798300
465.000000	9.724800
464.000000	9.603300
463.000000	9.533200
462.000000	9.449300
461.000000	9.369400
460.000000	9.277200
459.000000	9.198500
458.000000	9.142800
457.000000	9.052800
456.000000	8.964800
455.000000	8.878100
454.000000	8.818400
453.000000	8.729500
452.000000	8.637000
451.000000	8.549100
450.000000	8.502200
449.000000	8.423300
448.000000	8.343800
447.000000	8.249800
446.000000	8.191200
445.000000	8.119300
444.000000	8.025600
443.000000	7.952400
442.000000	7.873300
441.000000	7.807300
440.000000	7.747100
439.000000	7.642200
438.000000	7.575800
437.000000	7.512800
436.000000	7.423700
435.000000	7.362000
434.000000	7.296900
433.000000	7.210800
432.000000	7.154900
431.000000	7.090400
430.000000	7.012900
429.000000	6.953800
428.000000	6.895200
427.000000	6.833200
426.000000	6.760800
425.000000	6.732900
424.000000	6.670100
423.000000	6.603000
422.000000	6.537400
421.000000	6.477300
420.000000	6.419400
419.000000	6.357100
418.000000	6.317900
417.000000	6.264000
416.000000	6.204300
415.000000	6.167100
414.000000	6.108800
413.000000	6.073000
412.000000	6.035400
411.000000	5.997200
410.000000	5.956000
409.000000	5.900300
408.000000	5.839800
407.000000	5.812600
406.000000	5.765400
405.000000	5.731000
404.000000	5.694500
403.000000	5.648700
402.000000	5.618200
401.000000	5.588200
400.000000	5.555600
399.000000	5.535300
398.000000	5.494300
397.000000	5.447000
396.000000	5.428500
395.000000	5.423100
394.000000	5.385600
393.000000	5.356300
392.000000	5.333500
391.000000	5.316600
390.000000	5.281500
389.000000	5.269400
388.000000	5.254800
387.000000	5.223300
386.000000	5.215000
385.000000	5.187800
384.000000	5.148200
383.000000	5.137800
382.000000	5.138700
381.000000	5.124800
380.000000	5.107900
379.000000	5.078600
378.000000	5.068200
377.000000	5.059800
376.000000	4.944300
375.000000	4.664300
374.000000	4.428400
373.000000	4.531600
372.000000	4.803300
371.000000	4.714300
370.000000	4.722600
369.000000	4.580800
368.000000	4.707000
367.000000	4.919000
366.000000	4.796300
365.000000	4.711000
364.000000	4.885700
363.000000	4.864700
362.000000	4.751800
361.000000	4.642400
360.000000	4.694300
359.000000	4.762700
358.000000	4.815200
357.000000	4.785400
356.000000	4.756000
355.000000	4.801400
354.000000	4.853300
353.000000	5.035000
352.000000	5.138600
351.000000	5.103500
350.000000	5.117400
349.000000	4.976800
348.000000	4.844700
347.000000	4.854100
346.000000	4.813600
345.000000	4.790100
344.000000	5.103100
343.000000	5.147900
342.000000	5.042100
341.000000	5.071000
340.000000	5.041700
339.000000	5.099000
338.000000	5.199000
337.000000	5.276400
336.000000	5.020100
335.000000	4.698100
334.000000	4.904100
333.000000	5.132400
332.000000	5.095000
331.000000	5.403800
330.000000	5.368400
329.000000	5.119300
328.000000	5.148300
327.000000	5.177500
326.000000	4.958000
325.000000	5.087200
324.000000	5.503700
323.000000	5.471000
322.000000	5.848800
321.000000	5.924700
320.000000	6.541900
319.000000	6.911600
318.000000	6.640000
317.000000	6.871800
316.000000	5.862100
315.000000	4.902000
314.000000	4.918400
313.000000	4.945800
312.000000	4.913300
311.000000	4.928300
310.000000	4.907200
309.000000	4.883100
308.000000	4.895700
307.000000	4.902900
306.000000	4.920500
305.000000	4.943900
304.000000	4.972500
303.000000	4.951400
302.000000	4.937400
301.000000	4.919500
300.000000	4.956400
299.000000	4.958700
298.000000	4.952800
297.000000	4.916800
296.000000	4.917500
295.000000	4.927700
294.000000	4.941000
293.000000	5.016300
292.000000	4.987200
291.000000	4.917400
290.000000	4.938800
289.000000	4.932600
288.000000	4.956800
287.000000	4.949900
286.000000	4.959200
285.000000	4.951600
284.000000	5.000700
283.000000	5.031400
282.000000	5.006600
281.000000	5.000300
280.000000	4.989000
279.000000	4.978900
278.000000	4.970400
277.000000	5.001300
276.000000	5.030100
275.000000	5.041200
274.000000	5.050600
273.000000	5.070900
272.000000	5.038200
271.000000	5.062600
270.000000	5.097200
269.000000	5.113100
268.000000	5.149500
267.000000	5.145000
266.000000	5.143400
265.000000	5.153000
264.000000	5.193800
263.000000	5.225000
262.000000	5.249200
261.000000	5.223200
260.000000	5.236300
259.000000	5.223600
258.000000	5.258300
257.000000	5.270800
256.000000	5.281600
255.000000	5.306800
254.000000	5.368100
253.000000	5.392900
252.000000	5.351500
251.000000	5.345300
250.000000	5.373400
