PE UV       SUBTECH     SPECTRUM    ASCII       PEDS        4.00        
   -1
BIOUCRA1.Sample.ASC
24/05/03
14:28:43.00
24/05/03
14:28:43.00
Vinicio Soto Monge
Desconocido, esp de prueba para Monteverde
250,000000
1
Lambda 1050
1050L1511233
PerkinElmer UV WinLab 6.3.2.0749 / 2.02.05 Lambda 900 UV/VIS/NIR, Aug  7 2015 09:38:08

0
0
3350/servo 860,8/2
0
0
UV/VIS
1
1
1
DoubleDePol,CommonBeamDepol,RBeamAtt,SBeamAtt,60mm sphere, WB InGaAs Detector
0
0
0
0
Program
Program
3350/servo 860,8/2
3350/0,2 860,8/0,2
3350/0,2 860,8/0,2
0
15.00
 
 
 
0
 
860,8
319,2
860,8
Front
100
on
S:100 R:100
0
0
0
0
 
0
 
 
 
0
 
 
0
0
0
0
0
 
 
 
 
0
0


0
0
#HDR
-1
-1
#GR
nm
%R
1.0
0.0
2500,000000
-1,000000
2251
8
95,340600
6,591900
#DATA
2500.000000	14.218282
2499.000000	14.205375
2498.000000	14.323760
2497.000000	14.191056
2496.000000	14.279189
2495.000000	14.103427
2494.000000	14.194888
2493.000000	14.217274
2492.000000	14.131460
2491.000000	14.260433
2490.000000	14.283324
2489.000000	14.084570
2488.000000	14.077007
2487.000000	14.233912
2486.000000	14.081646
2485.000000	14.125107
2484.000000	14.175829
2483.000000	14.176838
2482.000000	14.235223
2481.000000	14.233912
2480.000000	14.187627
2479.000000	14.263761
2478.000000	14.281508
2477.000000	14.268702
2476.000000	14.338785
2475.000000	14.381843
2474.000000	14.388902
2473.000000	14.410986
2472.000000	14.530984
2471.000000	14.521808
2470.000000	14.577571
2469.000000	14.593403
2468.000000	14.672360
2467.000000	14.711082
2466.000000	14.778543
2465.000000	14.780560
2464.000000	14.864357
2463.000000	14.955314
2462.000000	15.002204
2461.000000	15.053027
2460.000000	15.115244
2459.000000	15.204688
2458.000000	15.310771
2457.000000	15.374199
2456.000000	15.439744
2455.000000	15.511944
2454.000000	15.642833
2453.000000	15.756378
2452.000000	15.848242
2451.000000	15.921451
2450.000000	16.015736
2449.000000	16.146221
2448.000000	16.269144
2447.000000	16.336807
2446.000000	16.475763
2445.000000	16.564602
2444.000000	16.709003
2443.000000	16.792497
2442.000000	16.897672
2441.000000	17.015351
2440.000000	17.137266
2439.000000	17.259987
2438.000000	17.375245
2437.000000	17.479815
2436.000000	17.594872
2435.000000	17.700047
2434.000000	17.827205
2433.000000	17.913422
2432.000000	18.025656
2431.000000	18.136478
2430.000000	18.232578
2429.000000	18.313753
2428.000000	18.424978
2427.000000	18.531666
2426.000000	18.621110
2425.000000	18.718016
2424.000000	18.795763
2423.000000	18.885408
2422.000000	18.985541
2421.000000	19.054213
2420.000000	19.128229
2419.000000	19.201841
2418.000000	19.279386
2417.000000	19.341301
2416.000000	19.399888
2415.000000	19.450610
2414.000000	19.520189
2413.000000	19.581197
2412.000000	19.630809
2411.000000	19.667011
2410.000000	19.707145
2409.000000	19.745060
2408.000000	19.780555
2407.000000	19.826739
2406.000000	19.853361
2405.000000	19.877058
2404.000000	19.907310
2403.000000	19.939679
2402.000000	19.955511
2401.000000	19.975275
2400.000000	20.006031
2399.000000	20.041526
2398.000000	20.078937
2397.000000	20.094366
2396.000000	20.114735
2395.000000	20.135206
2394.000000	20.154667
2393.000000	20.172617
2392.000000	20.177155
2391.000000	20.172718
2390.000000	20.170802
2389.000000	20.179373
2388.000000	20.191776
2387.000000	20.198936
2386.000000	20.201961
2385.000000	20.194297
2384.000000	20.179272
2383.000000	20.166466
2382.000000	20.156886
2381.000000	20.142466
2380.000000	20.122097
2379.000000	20.096383
2378.000000	20.072786
2377.000000	20.054232
2376.000000	20.034165
2375.000000	20.004619
2374.000000	19.978199
2373.000000	19.967611
2372.000000	19.954301
2371.000000	19.919410
2370.000000	19.900049
2369.000000	19.895310
2368.000000	19.870806
2367.000000	19.843580
2366.000000	19.840655
2365.000000	19.833193
2364.000000	19.816252
2363.000000	19.804252
2362.000000	19.774908
2361.000000	19.746875
2360.000000	19.733665
2359.000000	19.723480
2358.000000	19.705632
2357.000000	19.677901
2356.000000	19.654507
2355.000000	19.635851
2354.000000	19.591684
2353.000000	19.551651
2352.000000	19.527450
2351.000000	19.497299
2350.000000	19.472392
2349.000000	19.438711
2348.000000	19.392527
2347.000000	19.365906
2346.000000	19.333940
2345.000000	19.298646
2344.000000	19.267890
2343.000000	19.233000
2342.000000	19.194782
2341.000000	19.157068
2340.000000	19.141741
2339.000000	19.116330
2338.000000	19.103624
2337.000000	19.085473
2336.000000	19.068431
2335.000000	19.047658
2334.000000	19.041910
2333.000000	19.040398
2332.000000	19.039188
2331.000000	19.046549
2330.000000	19.061675
2329.000000	19.067322
2328.000000	19.077305
2327.000000	19.079624
2326.000000	19.099288
2325.000000	19.100296
2324.000000	19.117741
2323.000000	19.127321
2322.000000	19.142245
2321.000000	19.132565
2320.000000	19.130144
2319.000000	19.130144
2318.000000	19.119355
2317.000000	19.104330
2316.000000	19.074784
2315.000000	19.045440
2314.000000	19.016197
2313.000000	18.991995
2312.000000	18.938450
2311.000000	18.893274
2310.000000	18.876434
2309.000000	18.826922
2308.000000	18.783460
2307.000000	18.740301
2306.000000	18.697546
2305.000000	18.667798
2304.000000	18.636941
2303.000000	18.579867
2302.000000	18.573312
2301.000000	18.564741
2300.000000	18.556472
2299.000000	18.550119
2298.000000	18.527531
2297.000000	18.513010
2296.000000	18.527128
2295.000000	18.549716
2294.000000	18.567060
2293.000000	18.571598
2292.000000	18.596203
2291.000000	18.635631
2290.000000	18.649445
2289.000000	18.657311
2288.000000	18.680706
2287.000000	18.718621
2286.000000	18.742217
2285.000000	18.766519
2284.000000	18.794250
2283.000000	18.836905
2282.000000	18.873711
2281.000000	18.918584
2280.000000	18.923021
2279.000000	18.933912
2278.000000	18.946416
2277.000000	18.968601
2276.000000	19.003390
2275.000000	19.014986
2274.000000	19.033339
2273.000000	19.065809
2272.000000	19.087691
2271.000000	19.115019
2270.000000	19.139825
2269.000000	19.178950
2268.000000	19.223017
2267.000000	19.266479
2266.000000	19.317402
2265.000000	19.383653
2264.000000	19.475013
2263.000000	19.577264
2262.000000	19.663683
2261.000000	19.778337
2260.000000	19.926671
2259.000000	20.065022
2258.000000	20.215171
2257.000000	20.364614
2256.000000	20.523032
2255.000000	20.691030
2254.000000	20.860540
2253.000000	21.053646
2252.000000	21.225677
2251.000000	21.407288
2250.000000	21.568933
2249.000000	21.756392
2248.000000	21.893937
2247.000000	22.035716
2246.000000	22.208453
2245.000000	22.347611
2244.000000	22.448954
2243.000000	22.564515
2242.000000	22.677858
2241.000000	22.781117
2240.000000	22.845049
2239.000000	22.909384
2238.000000	22.967871
2237.000000	23.023332
2236.000000	23.063768
2235.000000	23.079197
2234.000000	23.112171
2233.000000	23.092508
2232.000000	23.097852
2231.000000	23.068810
2230.000000	23.063264
2229.000000	23.033517
2228.000000	22.997618
2227.000000	22.930459
2226.000000	22.914426
2225.000000	22.842225
2224.000000	22.798966
2223.000000	22.724244
2222.000000	22.645791
2221.000000	22.588616
2220.000000	22.498667
2219.000000	22.406904
2218.000000	22.320485
2217.000000	22.243444
2216.000000	22.179815
2215.000000	22.094606
2214.000000	22.015447
2213.000000	21.935886
2212.000000	21.863786
2211.000000	21.783417
2210.000000	21.740661
2209.000000	21.648293
2208.000000	21.592227
2207.000000	21.557034
2206.000000	21.509438
2205.000000	21.438851
2204.000000	21.386919
2203.000000	21.320466
2202.000000	21.290113
2201.000000	21.257240
2200.000000	21.197644
2199.000000	21.181006
2198.000000	21.150653
2197.000000	21.108099
2196.000000	21.055360
2195.000000	21.048403
2194.000000	20.997176
2193.000000	20.980437
2192.000000	20.974387
2191.000000	20.946454
2190.000000	20.903598
2189.000000	20.905211
2188.000000	20.890388
2187.000000	20.883733
2186.000000	20.860641
2185.000000	20.838557
2184.000000	20.832204
2183.000000	20.817784
2182.000000	20.799431
2181.000000	20.783902
2180.000000	20.768675
2179.000000	20.755365
2178.000000	20.761718
2177.000000	20.751432
2176.000000	20.742962
2175.000000	20.757987
2174.000000	20.759499
2173.000000	20.774726
2172.000000	20.785616
2171.000000	20.808103
2170.000000	20.832607
2169.000000	20.878590
2168.000000	20.911362
2167.000000	20.951194
2166.000000	20.998689
2165.000000	21.048705
2164.000000	21.112637
2163.000000	21.154485
2162.000000	21.211560
2161.000000	21.293340
2160.000000	21.344365
2159.000000	21.429977
2158.000000	21.504497
2157.000000	21.608159
2156.000000	21.714342
2155.000000	21.819517
2154.000000	21.912693
2153.000000	22.028355
2152.000000	22.140992
2151.000000	22.252419
2150.000000	22.374635
2149.000000	22.486567
2148.000000	22.621287
2147.000000	22.736345
2146.000000	22.843536
2145.000000	22.963837
2144.000000	23.084945
2143.000000	23.201010
2142.000000	23.310925
2141.000000	23.435158
2140.000000	23.546484
2139.000000	23.647424
2138.000000	23.756431
2137.000000	23.851522
2136.000000	23.950848
2135.000000	24.048863
2134.000000	24.142240
2133.000000	24.227046
2132.000000	24.311750
2131.000000	24.375380
2130.000000	24.434673
2129.000000	24.501529
2128.000000	24.578368
2127.000000	24.642099
2126.000000	24.689190
2125.000000	24.739912
2124.000000	24.801021
2123.000000	24.843575
2122.000000	24.863742
2121.000000	24.878062
2120.000000	24.912044
2119.000000	24.945119
2118.000000	24.972648
2117.000000	24.989690
2116.000000	25.002295
2115.000000	25.011270
2114.000000	25.024984
2113.000000	25.032446
2112.000000	25.033253
2111.000000	25.030429
2110.000000	25.023370
2109.000000	25.012782
2108.000000	25.011371
2107.000000	25.012782
2106.000000	25.004816
2105.000000	24.999371
2104.000000	24.984346
2103.000000	24.973254
2102.000000	24.975674
2101.000000	24.972749
2100.000000	24.972850
2099.000000	24.984144
2098.000000	24.977287
2097.000000	24.978295
2096.000000	24.993623
2095.000000	25.005119
2094.000000	25.017219
2093.000000	25.028614
2092.000000	25.040614
2091.000000	25.064815
2090.000000	25.085790
2089.000000	25.087302
2088.000000	25.108176
2087.000000	25.116848
2086.000000	25.114226
2085.000000	25.118461
2084.000000	25.110999
2083.000000	25.087302
2082.000000	25.060076
2081.000000	25.020749
2080.000000	24.965186
2079.000000	24.920111
2078.000000	24.856785
2077.000000	24.789323
2076.000000	24.720047
2075.000000	24.624351
2074.000000	24.547613
2073.000000	24.460185
2072.000000	24.343515
2071.000000	24.218777
2070.000000	24.095653
2069.000000	23.962041
2068.000000	23.829942
2067.000000	23.698247
2066.000000	23.571593
2065.000000	23.446754
2064.000000	23.320202
2063.000000	23.189212
2062.000000	23.070424
2061.000000	22.947199
2060.000000	22.842730
2059.000000	22.732412
2058.000000	22.644178
2057.000000	22.600313
2056.000000	22.546364
2055.000000	22.507844
2054.000000	22.504919
2053.000000	22.530835
2052.000000	22.579137
2051.000000	22.633993
2050.000000	22.713656
2049.000000	22.824377
2048.000000	22.953451
2047.000000	23.096944
2046.000000	23.242657
2045.000000	23.400671
2044.000000	23.562719
2043.000000	23.739792
2042.000000	23.917470
2041.000000	24.101401
2040.000000	24.280591
2039.000000	24.450606
2038.000000	24.599847
2037.000000	24.777727
2036.000000	24.924347
2035.000000	25.064614
2034.000000	25.209721
2033.000000	25.346962
2032.000000	25.479767
2031.000000	25.587866
2030.000000	25.702722
2029.000000	25.822519
2028.000000	25.915694
2027.000000	26.025810
2026.000000	26.117371
2025.000000	26.195421
2024.000000	26.284058
2023.000000	26.359183
2022.000000	26.406981
2021.000000	26.481501
2020.000000	26.531315
2019.000000	26.602507
2018.000000	26.624894
2017.000000	26.669162
2016.000000	26.697397
2015.000000	26.738438
2014.000000	26.753564
2013.000000	26.749934
2012.000000	26.765866
2011.000000	26.760623
2010.000000	26.764051
2009.000000	26.732589
2008.000000	26.675515
2007.000000	26.674204
2006.000000	26.631952
2005.000000	26.580121
2004.000000	26.538172
2003.000000	26.475753
2002.000000	26.420191
2001.000000	26.333469
2000.000000	26.257437
1999.000000	26.162850
1998.000000	26.084195
1997.000000	26.010079
1996.000000	25.920433
1995.000000	25.834518
1994.000000	25.718453
1993.000000	25.602387
1992.000000	25.509010
1991.000000	25.391533
1990.000000	25.278291
1989.000000	25.171805
1988.000000	25.060277
1987.000000	24.948145
1986.000000	24.818062
1985.000000	24.704014
1984.000000	24.586738
1983.000000	24.469664
1982.000000	24.338170
1981.000000	24.224121
1980.000000	24.126207
1979.000000	23.989772
1978.000000	23.881068
1977.000000	23.781338
1976.000000	23.664062
1975.000000	23.560097
1974.000000	23.430923
1973.000000	23.353378
1972.000000	23.222287
1971.000000	23.114188
1970.000000	23.012845
1969.000000	22.914224
1968.000000	22.797050
1967.000000	22.728681
1966.000000	22.620380
1965.000000	22.517827
1964.000000	22.420820
1963.000000	22.310905
1962.000000	22.208050
1961.000000	22.123244
1960.000000	22.008994
1959.000000	21.894743
1958.000000	21.773132
1957.000000	21.692360
1956.000000	21.574479
1955.000000	21.487657
1954.000000	21.367154
1953.000000	21.265105
1952.000000	21.148031
1951.000000	21.057781
1950.000000	20.986689
1949.000000	20.876775
1948.000000	20.786826
1947.000000	20.698189
1946.000000	20.602291
1945.000000	20.539368
1944.000000	20.456982
1943.000000	20.426529
1942.000000	20.369757
1941.000000	20.324480
1940.000000	20.308548
1939.000000	20.278498
1938.000000	20.240078
1937.000000	20.233019
1936.000000	20.219910
1935.000000	20.243002
1934.000000	20.250868
1933.000000	20.274061
1932.000000	20.351808
1931.000000	20.399000
1930.000000	20.497923
1929.000000	20.564275
1928.000000	20.644845
1927.000000	20.756272
1926.000000	20.862758
1925.000000	21.002521
1924.000000	21.153779
1923.000000	21.320970
1922.000000	21.501068
1921.000000	21.714443
1920.000000	21.941835
1919.000000	22.118807
1918.000000	22.358703
1917.000000	22.608683
1916.000000	22.870864
1915.000000	23.167532
1914.000000	23.511291
1913.000000	23.878143
1912.000000	24.225533
1911.000000	24.592486
1910.000000	24.938968
1909.000000	25.337786
1908.000000	25.752536
1907.000000	26.282747
1906.000000	26.848453
1905.000000	27.418092
1904.000000	27.977244
1903.000000	28.532664
1902.000000	29.165832
1901.000000	29.782764
1900.000000	30.462418
1899.000000	31.150038
1898.000000	31.879104
1897.000000	32.555027
1896.000000	33.189707
1895.000000	33.821563
1894.000000	34.491637
1893.000000	35.204972
1892.000000	35.946742
1891.000000	36.628010
1890.000000	37.279530
1889.000000	37.907958
1888.000000	38.539613
1887.000000	39.109050
1886.000000	39.657815
1885.000000	40.201942
1884.000000	40.736186
1883.000000	41.221524
1882.000000	41.641719
1881.000000	42.083091
1880.000000	42.475455
1879.000000	42.834240
1878.000000	43.198873
1877.000000	43.536583
1876.000000	43.843940
1875.000000	44.136070
1874.000000	44.432133
1873.000000	44.705910
1872.000000	44.949940
1871.000000	45.154845
1870.000000	45.319717
1869.000000	45.484185
1868.000000	45.614267
1867.000000	45.743442
1866.000000	45.832986
1865.000000	45.937758
1864.000000	46.058059
1863.000000	46.168175
1862.000000	46.291501
1861.000000	46.405449
1860.000000	46.513649
1859.000000	46.570522
1858.000000	46.629614
1857.000000	46.693142
1856.000000	46.736906
1855.000000	46.785813
1854.000000	46.805577
1853.000000	46.809409
1852.000000	46.850148
1851.000000	46.914887
1850.000000	46.957945
1849.000000	46.955525
1848.000000	46.928903
1847.000000	46.849039
1846.000000	46.792065
1845.000000	46.799729
1844.000000	46.799225
1843.000000	46.835022
1842.000000	46.838249
1841.000000	46.770990
1840.000000	46.723696
1839.000000	46.682453
1838.000000	46.614286
1837.000000	46.546321
1836.000000	46.494792
1835.000000	46.429146
1834.000000	46.361685
1833.000000	46.335467
1832.000000	46.311064
1831.000000	46.274257
1830.000000	46.249451
1829.000000	46.218796
1828.000000	46.163738
1827.000000	46.130965
1826.000000	46.111806
1825.000000	46.088815
1824.000000	46.097083
1823.000000	46.140646
1822.000000	46.168881
1821.000000	46.167973
1820.000000	46.140444
1819.000000	46.113520
1818.000000	46.101218
1817.000000	46.100411
1816.000000	46.103941
1815.000000	46.083168
1814.000000	46.053723
1813.000000	46.046362
1812.000000	46.024480
1811.000000	45.977690
1810.000000	45.938464
1809.000000	45.912347
1808.000000	45.886129
1807.000000	45.860314
1806.000000	45.823407
1805.000000	45.782668
1804.000000	45.775811
1803.000000	45.767441
1802.000000	45.748786
1801.000000	45.708249
1800.000000	45.684451
1799.000000	45.649056
1798.000000	45.624653
1797.000000	45.603175
1796.000000	45.568789
1795.000000	45.547512
1794.000000	45.515445
1793.000000	45.494369
1792.000000	45.494369
1791.000000	45.475714
1790.000000	45.466034
1789.000000	45.461899
1788.000000	45.465126
1787.000000	45.489529
1786.000000	45.492756
1785.000000	45.493764
1784.000000	45.484487
1783.000000	45.461496
1782.000000	45.457362
1781.000000	45.453832
1780.000000	45.426303
1779.000000	45.389295
1778.000000	45.346237
1777.000000	45.296221
1776.000000	45.252860
1775.000000	45.197702
1774.000000	45.151114
1773.000000	45.105736
1772.000000	45.054309
1771.000000	44.999150
1770.000000	44.940361
1769.000000	44.912327
1768.000000	44.867555
1767.000000	44.824799
1766.000000	44.800396
1765.000000	44.772666
1764.000000	44.751086
1763.000000	44.736364
1762.000000	44.736666
1761.000000	44.735254
1760.000000	44.741002
1759.000000	44.745540
1758.000000	44.746044
1757.000000	44.752901
1756.000000	44.761674
1755.000000	44.769338
1754.000000	44.760767
1753.000000	44.763086
1752.000000	44.760968
1751.000000	44.752296
1750.000000	44.713473
1749.000000	44.684835
1748.000000	44.634315
1747.000000	44.577240
1746.000000	44.493140
1745.000000	44.379192
1744.000000	44.290152
1743.000000	44.174691
1742.000000	44.058020
1741.000000	43.943467
1740.000000	43.838091
1739.000000	43.726361
1738.000000	43.622396
1737.000000	43.532952
1736.000000	43.438164
1735.000000	43.374434
1734.000000	43.270670
1733.000000	43.214402
1732.000000	43.143311
1731.000000	43.063144
1730.000000	42.980355
1729.000000	42.896962
1728.000000	42.834643
1727.000000	42.748628
1726.000000	42.698813
1725.000000	42.674007
1724.000000	42.699922
1723.000000	42.770610
1722.000000	42.890105
1721.000000	43.061430
1720.000000	43.291141
1719.000000	43.572784
1718.000000	43.861586
1717.000000	44.169750
1716.000000	44.457141
1715.000000	44.774481
1714.000000	45.033032
1713.000000	45.295919
1712.000000	45.490538
1711.000000	45.707745
1710.000000	45.909221
1709.000000	46.037992
1708.000000	46.191973
1707.000000	46.294929
1706.000000	46.396676
1705.000000	46.478254
1704.000000	46.544304
1703.000000	46.573245
1702.000000	46.597043
1701.000000	46.622454
1700.000000	46.605110
1699.000000	46.593816
1698.000000	46.591093
1697.000000	46.546825
1696.000000	46.482591
1695.000000	46.396172
1694.000000	46.274862
1693.000000	46.118663
1692.000000	45.992413
1691.000000	45.816550
1690.000000	45.726904
1689.000000	45.657023
1688.000000	45.656014
1687.000000	45.705829
1686.000000	45.860415
1685.000000	46.068546
1684.000000	46.295232
1683.000000	46.556001
1682.000000	46.831997
1681.000000	47.107388
1680.000000	47.354141
1679.000000	47.585970
1678.000000	47.822840
1677.000000	48.034703
1676.000000	48.230532
1675.000000	48.423537
1674.000000	48.608577
1673.000000	48.807633
1672.000000	49.010924
1671.000000	49.217442
1670.000000	49.443825
1669.000000	49.651251
1668.000000	49.865029
1667.000000	50.078505
1666.000000	50.277864
1665.000000	50.472684
1664.000000	50.656514
1663.000000	50.836007
1662.000000	51.003702
1661.000000	51.161716
1660.000000	51.317613
1659.000000	51.445780
1658.000000	51.568299
1657.000000	51.677205
1656.000000	51.781270
1655.000000	51.851757
1654.000000	51.925571
1653.000000	52.000293
1652.000000	52.044561
1651.000000	52.091854
1650.000000	52.126845
1649.000000	52.147921
1648.000000	52.153568
1647.000000	52.173635
1646.000000	52.174441
1645.000000	52.183315
1644.000000	52.190071
1643.000000	52.168794
1642.000000	52.170307
1641.000000	52.183416
1640.000000	52.181601
1639.000000	52.184626
1638.000000	52.184323
1637.000000	52.152761
1636.000000	52.137736
1635.000000	52.145803
1634.000000	52.126442
1633.000000	52.107081
1632.000000	52.078947
1631.000000	52.046678
1630.000000	52.002914
1629.000000	51.975890
1628.000000	51.943823
1627.000000	51.894109
1626.000000	51.856194
1625.000000	51.820093
1624.000000	51.784497
1623.000000	51.747893
1622.000000	51.723389
1621.000000	51.681843
1620.000000	51.657642
1619.000000	51.624264
1618.000000	51.576971
1617.000000	51.539055
1616.000000	51.499224
1615.000000	51.466149
1614.000000	51.430553
1613.000000	51.376806
1612.000000	51.338588
1611.000000	51.301378
1610.000000	51.224842
1609.000000	51.160103
1608.000000	51.097583
1607.000000	51.023567
1606.000000	50.956408
1605.000000	50.873721
1604.000000	50.795066
1603.000000	50.707437
1602.000000	50.615472
1601.000000	50.537725
1600.000000	50.457256
1599.000000	50.369022
1598.000000	50.282906
1597.000000	50.221293
1596.000000	50.154033
1595.000000	50.093933
1594.000000	50.025161
1593.000000	49.964355
1592.000000	49.916860
1591.000000	49.854542
1590.000000	49.798879
1589.000000	49.754106
1588.000000	49.705401
1587.000000	49.649234
1586.000000	49.593470
1585.000000	49.541135
1584.000000	49.488194
1583.000000	49.434346
1582.000000	49.400666
1581.000000	49.377272
1580.000000	49.337138
1579.000000	49.298214
1578.000000	49.270685
1577.000000	49.259492
1576.000000	49.263223
1575.000000	49.243660
1574.000000	49.237005
1573.000000	49.245576
1572.000000	49.245072
1571.000000	49.254752
1570.000000	49.270483
1569.000000	49.282685
1568.000000	49.301642
1567.000000	49.322718
1566.000000	49.340768
1565.000000	49.366179
1564.000000	49.379792
1563.000000	49.382213
1562.000000	49.381507
1561.000000	49.370414
1560.000000	49.356801
1559.000000	49.328264
1558.000000	49.283592
1557.000000	49.233677
1556.000000	49.182854
1555.000000	49.134956
1554.000000	49.058721
1553.000000	48.970992
1552.000000	48.888606
1551.000000	48.794927
1550.000000	48.692979
1549.000000	48.583266
1548.000000	48.488074
1547.000000	48.397622
1546.000000	48.322295
1545.000000	48.248179
1544.000000	48.176684
1543.000000	48.127575
1542.000000	48.082904
1541.000000	48.031879
1540.000000	47.986804
1539.000000	47.934771
1538.000000	47.884049
1537.000000	47.840386
1536.000000	47.788353
1535.000000	47.724724
1534.000000	47.663918
1533.000000	47.603919
1532.000000	47.534239
1531.000000	47.453770
1530.000000	47.381771
1529.000000	47.308764
1528.000000	47.227487
1527.000000	47.152161
1526.000000	47.077137
1525.000000	46.998079
1524.000000	46.915694
1523.000000	46.831695
1522.000000	46.750015
1521.000000	46.673983
1520.000000	46.587463
1519.000000	46.509010
1518.000000	46.406558
1517.000000	46.321652
1516.000000	46.242291
1515.000000	46.158091
1514.000000	46.071370
1513.000000	45.984648
1512.000000	45.888851
1511.000000	45.775508
1510.000000	45.702400
1509.000000	45.602670
1508.000000	45.493664
1507.000000	45.412791
1506.000000	45.339481
1505.000000	45.252155
1504.000000	45.168862
1503.000000	45.102610
1502.000000	45.040090
1501.000000	44.982814
1500.000000	44.929369
1499.000000	44.876631
1498.000000	44.859286
1497.000000	44.817640
1496.000000	44.805539
1495.000000	44.808867
1494.000000	44.811589
1493.000000	44.812396
1492.000000	44.807153
1491.000000	44.834480
1490.000000	44.859387
1489.000000	44.874009
1488.000000	44.914647
1487.000000	44.943285
1486.000000	44.958613
1485.000000	44.962243
1484.000000	44.994209
1483.000000	45.031519
1482.000000	45.081031
1481.000000	45.107753
1480.000000	45.137602
1479.000000	45.185399
1478.000000	45.222205
1477.000000	45.271818
1476.000000	45.349968
1475.000000	45.421967
1474.000000	45.508386
1473.000000	45.602570
1472.000000	45.691207
1471.000000	45.791743
1470.000000	45.895809
1469.000000	45.952783
1468.000000	46.077622
1467.000000	46.202057
1466.000000	46.291803
1465.000000	46.396474
1464.000000	46.502960
1463.000000	46.629009
1462.000000	46.737410
1461.000000	46.876669
1460.000000	46.958752
1459.000000	47.080767
1458.000000	47.211757
1457.000000	47.330545
1456.000000	47.454778
1455.000000	47.560357
1454.000000	47.688119
1453.000000	47.801664
1452.000000	47.953023
1451.000000	48.051442
1450.000000	48.106097
1449.000000	48.228717
1448.000000	48.355774
1447.000000	48.496948
1446.000000	48.616039
1445.000000	48.701147
1444.000000	48.800876
1443.000000	48.944269
1442.000000	49.069713
1441.000000	49.196871
1440.000000	49.327961
1439.000000	49.461069
1438.000000	49.610310
1437.000000	49.759249
1436.000000	49.885701
1435.000000	50.060455
1434.000000	50.257292
1433.000000	50.457458
1432.000000	50.622531
1431.000000	50.806259
1430.000000	50.988879
1429.000000	51.206892
1428.000000	51.439628
1427.000000	51.637978
1426.000000	51.890681
1425.000000	52.185029
1424.000000	52.472118
1423.000000	52.728954
1422.000000	53.019169
1421.000000	53.352239
1420.000000	53.698419
1419.000000	53.990550
1418.000000	54.289234
1417.000000	54.625835
1416.000000	55.020619
1415.000000	55.476612
1414.000000	55.855867
1413.000000	56.218484
1412.000000	56.620226
1411.000000	57.084286
1410.000000	57.584851
1409.000000	58.040642
1408.000000	58.489880
1407.000000	58.925100
1406.000000	59.374539
1405.000000	59.800382
1404.000000	60.249821
1403.000000	60.653277
1402.000000	61.104531
1401.000000	61.594911
1400.000000	61.973561
1399.000000	62.244817
1398.000000	62.563468
1397.000000	62.995159
1396.000000	63.435018
1395.000000	63.715754
1394.000000	63.962002
1393.000000	64.252418
1392.000000	64.576111
1391.000000	64.852511
1390.000000	65.130927
1389.000000	65.479628
1388.000000	65.774380
1387.000000	66.043015
1386.000000	66.289969
1385.000000	66.619006
1384.000000	66.830062
1383.000000	67.061386
1382.000000	67.233619
1381.000000	67.349786
1380.000000	67.428440
1379.000000	67.536035
1378.000000	67.612673
1377.000000	67.727629
1376.000000	67.836031
1375.000000	67.919525
1374.000000	68.045977
1373.000000	68.167286
1372.000000	68.307553
1371.000000	68.408896
1370.000000	68.528290
1369.000000	68.653128
1368.000000	68.763143
1367.000000	68.863478
1366.000000	68.952821
1365.000000	69.055576
1364.000000	69.151978
1363.000000	69.259876
1362.000000	69.333992
1361.000000	69.347908
1360.000000	69.321589
1359.000000	69.410428
1358.000000	69.478898
1357.000000	69.578527
1356.000000	69.680576
1355.000000	69.806221
1354.000000	69.886085
1353.000000	69.991563
1352.000000	70.215929
1351.000000	70.412262
1350.000000	70.594781
1349.000000	70.813601
1348.000000	71.006809
1347.000000	71.170773
1346.000000	71.371543
1345.000000	71.561120
1344.000000	71.755537
1343.000000	71.915669
1342.000000	72.075096
1341.000000	72.231093
1340.000000	72.378722
1339.000000	72.507291
1338.000000	72.633844
1337.000000	72.758985
1336.000000	72.871824
1335.000000	72.980730
1334.000000	73.083081
1333.000000	73.172727
1332.000000	73.259448
1331.000000	73.348892
1330.000000	73.429160
1329.000000	73.504285
1328.000000	73.574166
1327.000000	73.627107
1326.000000	73.687106
1325.000000	73.743979
1324.000000	73.795810
1323.000000	73.846230
1322.000000	73.892414
1321.000000	73.935371
1320.000000	73.977421
1319.000000	74.020580
1318.000000	74.056781
1317.000000	74.080075
1316.000000	74.111234
1315.000000	74.161755
1314.000000	74.183939
1313.000000	74.193620
1312.000000	74.230527
1311.000000	74.255232
1310.000000	74.282358
1309.000000	74.312206
1308.000000	74.324710
1307.000000	74.334189
1306.000000	74.340340
1305.000000	74.349920
1304.000000	74.363029
1303.000000	74.360911
1302.000000	74.354559
1301.000000	74.355164
1300.000000	74.357281
1299.000000	74.349920
1298.000000	74.342660
1297.000000	74.327030
1296.000000	74.303433
1295.000000	74.284778
1294.000000	74.258963
1293.000000	74.242728
1292.000000	74.220342
1291.000000	74.184645
1290.000000	74.156511
1289.000000	74.125251
1288.000000	74.088041
1287.000000	74.057185
1286.000000	74.027236
1285.000000	73.994967
1284.000000	73.957556
1283.000000	73.918935
1282.000000	73.878498
1281.000000	73.851978
1280.000000	73.824146
1279.000000	73.792785
1278.000000	73.769088
1277.000000	73.742870
1276.000000	73.712921
1275.000000	73.700114
1274.000000	73.683879
1273.000000	73.667543
1272.000000	73.664518
1271.000000	73.666232
1270.000000	73.663611
1269.000000	73.667140
1268.000000	73.650098
1267.000000	73.638502
1266.000000	73.632855
1265.000000	73.632350
1264.000000	73.624888
1263.000000	73.612485
1262.000000	73.608452
1261.000000	73.598872
1260.000000	73.593326
1259.000000	73.597662
1258.000000	73.584351
1257.000000	73.575578
1256.000000	73.568822
1255.000000	73.563881
1254.000000	73.542604
1253.000000	73.527579
1252.000000	73.511445
1251.000000	73.465563
1250.000000	73.421900
1249.000000	73.370674
1248.000000	73.348187
1247.000000	73.311380
1246.000000	73.260356
1245.000000	73.189063
1244.000000	73.137635
1243.000000	73.079653
1242.000000	73.022880
1241.000000	72.985267
1240.000000	72.919823
1239.000000	72.861236
1238.000000	72.806077
1237.000000	72.764027
1236.000000	72.724700
1235.000000	72.682650
1234.000000	72.628802
1233.000000	72.592802
1232.000000	72.549744
1231.000000	72.501947
1230.000000	72.464435
1229.000000	72.419763
1228.000000	72.383663
1227.000000	72.360066
1226.000000	72.326184
1225.000000	72.288067
1224.000000	72.265782
1223.000000	72.238152
1222.000000	72.218791
1221.000000	72.183901
1220.000000	72.148910
1219.000000	72.119364
1218.000000	72.090726
1217.000000	72.062995
1216.000000	72.049987
1215.000000	72.010861
1214.000000	71.977383
1213.000000	71.931602
1212.000000	71.903367
1211.000000	71.855166
1210.000000	71.782461
1209.000000	71.737790
1208.000000	71.676480
1207.000000	71.610228
1206.000000	71.565557
1205.000000	71.513020
1204.000000	71.446869
1203.000000	71.377593
1202.000000	71.323241
1201.000000	71.250234
1200.000000	71.193360
1199.000000	71.101900
1198.000000	71.030808
1197.000000	70.959112
1196.000000	70.873399
1195.000000	70.791618
1194.000000	70.712460
1193.000000	70.634915
1192.000000	70.555655
1191.000000	70.455220
1190.000000	70.396935
1189.000000	70.323524
1188.000000	70.284298
1187.000000	70.245172
1186.000000	70.230551
1185.000000	70.212803
1184.000000	70.219459
1183.000000	70.200803
1182.000000	70.233173
1181.000000	70.259693
1180.000000	70.288937
1179.000000	70.329877
1178.000000	70.351457
1177.000000	70.384330
1176.000000	70.413473
1175.000000	70.444531
1174.000000	70.499589
1173.000000	70.533269
1172.000000	70.599520
1171.000000	70.684628
1170.000000	70.749770
1169.000000	70.829130
1168.000000	70.917869
1167.000000	71.018002
1166.000000	71.144655
1165.000000	71.248519
1164.000000	71.349358
1163.000000	71.467239
1162.000000	71.563842
1161.000000	71.682631
1160.000000	71.788209
1159.000000	71.893888
1158.000000	72.005718
1157.000000	72.096978
1156.000000	72.176640
1155.000000	72.249244
1154.000000	72.331731
1153.000000	72.399494
1152.000000	72.465443
1151.000000	72.490854
1150.000000	72.526249
1149.000000	72.562450
1148.000000	72.593307
1147.000000	72.642617
1146.000000	72.650583
1145.000000	72.656936
1144.000000	72.693036
1143.000000	72.727221
1142.000000	72.762313
1141.000000	72.819589
1140.000000	72.851152
1139.000000	72.907016
1138.000000	72.994040
1137.000000	73.081266
1136.000000	73.154576
1135.000000	73.215382
1134.000000	73.234440
1133.000000	73.259650
1132.000000	73.313095
1131.000000	73.388220
1130.000000	73.441462
1129.000000	73.485932
1128.000000	73.515377
1127.000000	73.513361
1126.000000	73.571040
1125.000000	73.576587
1124.000000	73.607847
1123.000000	73.589191
1122.000000	73.589292
1121.000000	73.577494
1120.000000	73.557528
1119.000000	73.533327
1118.000000	73.527276
1117.000000	73.503579
1116.000000	73.475445
1115.000000	73.438740
1114.000000	73.440051
1113.000000	73.417261
1112.000000	73.383581
1111.000000	73.342439
1110.000000	73.310170
1109.000000	73.295145
1108.000000	73.264490
1107.000000	73.234037
1106.000000	73.206810
1105.000000	73.184525
1104.000000	73.153668
1103.000000	73.120391
1102.000000	73.076527
1101.000000	73.054241
1100.000000	73.036393
1099.000000	72.992729
1098.000000	72.952797
1097.000000	72.909840
1096.000000	72.864664
1095.000000	72.842681
1094.000000	72.809707
1093.000000	72.762413
1092.000000	72.715120
1091.000000	72.672566
1090.000000	72.639491
1089.000000	72.612869
1088.000000	72.564467
1087.000000	72.521509
1086.000000	72.476636
1085.000000	72.438821
1084.000000	72.401511
1083.000000	72.359058
1082.000000	72.320033
1081.000000	72.281916
1080.000000	72.231497
1079.000000	72.178254
1078.000000	72.143263
1077.000000	72.095566
1076.000000	72.063701
1075.000000	72.025180
1074.000000	71.975164
1073.000000	71.930089
1072.000000	71.884913
1071.000000	71.838628
1070.000000	71.797083
1069.000000	71.745453
1068.000000	71.705118
1067.000000	71.670732
1066.000000	71.622934
1065.000000	71.583002
1064.000000	71.538834
1063.000000	71.497289
1062.000000	71.445558
1061.000000	71.394131
1060.000000	71.343409
1059.000000	71.308821
1058.000000	71.269393
1057.000000	71.224419
1056.000000	71.188318
1055.000000	71.151311
1054.000000	71.108051
1053.000000	71.057026
1052.000000	71.005195
1051.000000	70.966271
1050.000000	70.929263
1049.000000	70.884491
1048.000000	70.834273
1047.000000	70.794240
1046.000000	70.743317
1045.000000	70.696729
1044.000000	70.671721
1043.000000	70.628764
1042.000000	70.586512
1041.000000	70.543353
1040.000000	70.495152
1039.000000	70.447657
1038.000000	70.409540
1037.000000	70.381204
1036.000000	70.339860
1035.000000	70.293172
1034.000000	70.240231
1033.000000	70.201509
1032.000000	70.164098
1031.000000	70.116704
1030.000000	70.066990
1029.000000	70.015966
1028.000000	69.980269
1027.000000	69.950219
1026.000000	69.908572
1025.000000	69.867833
1024.000000	69.826893
1023.000000	69.789784
1022.000000	69.758524
1021.000000	69.706390
1020.000000	69.674122
1019.000000	69.652341
1018.000000	69.627030
1017.000000	69.602425
1016.000000	69.572577
1015.000000	69.548981
1014.000000	69.520746
1013.000000	69.506830
1012.000000	69.495334
1011.000000	69.473150
1010.000000	69.455604
1009.000000	69.454898
1008.000000	69.449049
1007.000000	69.442797
1006.000000	69.439571
1005.000000	69.426764
1004.000000	69.416781
1003.000000	69.421016
1002.000000	69.421520
1001.000000	69.430898
1000.000000	69.415974
999.000000	69.409621
998.000000	69.429386
997.000000	69.438966
996.000000	69.438260
995.000000	69.435537
994.000000	69.432411
993.000000	69.445823
992.000000	69.467402
991.000000	69.465890
990.000000	69.461856
989.000000	69.495133
988.000000	69.523166
987.000000	69.534762
986.000000	69.567938
985.000000	69.602728
984.000000	69.643870
983.000000	69.647097
982.000000	69.688743
981.000000	69.724239
980.000000	69.790187
979.000000	69.831430
978.000000	69.871262
977.000000	69.910992
976.000000	69.952135
975.000000	70.013747
974.000000	70.078889
973.000000	70.131527
972.000000	70.193240
971.000000	70.260903
970.000000	70.296197
969.000000	70.387154
968.000000	70.451287
967.000000	70.519858
966.000000	70.607386
965.000000	70.699956
964.000000	70.768022
963.000000	70.847281
962.000000	70.941767
961.000000	71.057833
960.000000	71.113496
959.000000	71.227847
958.000000	71.290670
957.000000	71.409256
956.000000	71.502936
955.000000	71.591775
954.000000	71.685051
953.000000	71.803537
952.000000	71.888745
951.000000	71.978794
950.000000	72.111599
949.000000	72.200943
948.000000	72.303798
947.000000	72.438922
946.000000	72.533509
945.000000	72.643625
944.000000	72.755052
943.000000	72.888664
942.000000	72.977704
941.000000	73.105568
940.000000	73.222844
939.000000	73.366438
938.000000	73.476252
937.000000	73.571141
936.000000	73.701123
935.000000	73.831104
934.000000	73.966026
933.000000	74.071201
932.000000	74.175368
931.000000	74.309080
930.000000	74.430692
929.000000	74.528909
928.000000	74.627429
927.000000	74.740671
926.000000	74.853913
925.000000	74.982281
924.000000	75.069607
923.000000	75.192933
922.000000	75.299116
921.000000	75.414879
920.000000	75.525903
919.000000	75.648422
918.000000	75.751580
917.000000	75.900217
916.000000	76.003375
915.000000	76.097357
914.000000	76.215742
913.000000	76.359034
912.000000	76.520376
911.000000	76.609921
910.000000	76.728911
909.000000	76.865144
908.000000	76.994016
907.000000	77.142048
906.000000	77.286348
905.000000	77.431758
904.000000	77.579588
903.000000	77.731955
902.000000	77.885634
901.000000	78.033766
900.000000	78.203579
899.000000	78.373795
898.000000	78.522230
897.000000	78.692345
896.000000	78.857519
895.000000	79.022390
894.000000	79.178590
893.000000	79.318857
892.000000	79.505510
891.000000	79.666348
890.000000	79.837370
889.000000	79.992461
888.000000	80.167618
887.000000	80.339447
886.000000	80.524890
885.000000	80.712148
884.000000	80.887809
883.000000	81.085554
882.000000	81.283803
881.000000	81.447465
880.000000	81.634622
879.000000	81.821980
878.000000	82.003995
877.000000	82.176732
876.000000	82.309335
875.000000	82.494374
874.000000	82.587247
873.000000	82.661767
872.000000	82.748488
871.000000	82.837125
870.000000	83.024383
869.000000	83.191272
868.000000	83.409890
867.000000	83.602795
866.000000	83.779061
865.000000	83.961378
864.000000	84.159022
863.000000	84.363019
862.000000	84.585571
861.000000	84.814979
860.000000	85.025833
859.000000	85.256754
858.000000	85.434533
857.000000	84.833100
856.000000	85.557200
855.000000	85.913300
854.000000	85.967800
853.000000	86.129100
852.000000	86.195100
851.000000	86.847700
850.000000	87.025000
849.000000	87.313600
848.000000	87.250500
847.000000	87.329100
846.000000	87.432800
845.000000	87.845000
844.000000	87.995800
843.000000	87.963300
842.000000	88.301200
841.000000	88.784700
840.000000	89.215500
839.000000	89.407100
838.000000	89.414500
837.000000	89.889200
836.000000	89.859800
835.000000	89.970000
834.000000	90.408400
833.000000	90.515700
832.000000	90.866500
831.000000	91.236800
830.000000	91.160300
829.000000	91.531200
828.000000	91.762800
827.000000	92.028600
826.000000	92.265300
825.000000	92.422300
824.000000	92.578700
823.000000	92.591900
822.000000	92.829300
821.000000	93.127800
820.000000	93.185500
819.000000	93.475900
818.000000	93.676500
817.000000	93.909600
816.000000	94.033100
815.000000	94.202300
814.000000	94.363100
813.000000	94.605300
812.000000	94.698000
811.000000	94.814200
810.000000	95.089400
809.000000	95.127300
808.000000	95.085600
807.000000	95.291900
806.000000	95.255800
805.000000	95.340600
804.000000	95.246400
803.000000	95.265400
802.000000	95.267500
801.000000	95.243100
800.000000	95.288100
799.000000	95.293400
798.000000	95.233900
797.000000	95.039900
796.000000	95.046100
795.000000	95.073500
794.000000	95.104400
793.000000	95.027100
792.000000	94.915600
791.000000	94.788200
790.000000	94.690200
789.000000	94.686800
788.000000	94.499100
787.000000	94.476600
786.000000	94.389900
785.000000	94.277900
784.000000	94.087900
783.000000	94.104800
782.000000	94.069300
781.000000	93.854000
780.000000	93.807300
779.000000	93.763700
778.000000	93.768000
777.000000	93.675500
776.000000	93.530600
775.000000	93.462300
774.000000	93.352500
773.000000	93.211700
772.000000	93.084800
771.000000	93.021600
770.000000	92.909000
769.000000	92.768100
768.000000	92.542400
767.000000	92.390700
766.000000	92.109200
765.000000	91.792500
764.000000	91.552900
763.000000	91.274900
762.000000	91.062000
761.000000	90.796300
760.000000	90.418300
759.000000	90.084900
758.000000	89.831600
757.000000	89.506500
756.000000	89.095500
755.000000	88.732800
754.000000	88.522700
753.000000	88.203200
752.000000	87.820200
751.000000	87.525100
750.000000	87.231500
749.000000	86.903400
748.000000	86.561000
747.000000	86.213400
746.000000	85.860800
745.000000	85.455300
744.000000	85.098700
743.000000	84.788400
742.000000	84.476900
741.000000	84.219500
740.000000	83.941500
739.000000	83.671700
738.000000	83.414800
737.000000	83.137500
736.000000	82.932200
735.000000	82.720000
734.000000	82.552800
733.000000	82.411700
732.000000	82.156200
731.000000	81.990100
730.000000	81.883500
729.000000	81.721500
728.000000	81.632900
727.000000	81.500500
726.000000	81.465900
725.000000	81.480100
724.000000	81.479300
723.000000	81.472300
722.000000	81.498500
721.000000	81.492300
720.000000	81.598400
719.000000	81.617000
718.000000	81.555900
717.000000	81.652400
716.000000	81.733200
715.000000	81.664200
714.000000	81.687000
713.000000	81.709000
712.000000	81.684700
711.000000	81.575900
710.000000	81.473000
709.000000	81.478600
708.000000	81.406600
707.000000	81.238900
706.000000	80.984000
705.000000	80.835800
704.000000	80.593500
703.000000	80.318100
702.000000	79.977300
701.000000	79.602800
700.000000	79.299400
699.000000	78.903200
698.000000	78.428300
697.000000	77.979700
696.000000	77.415600
695.000000	76.901300
694.000000	76.390400
693.000000	75.749300
692.000000	75.058300
691.000000	74.389000
690.000000	73.759900
689.000000	73.103700
688.000000	72.354800
687.000000	71.694700
686.000000	71.069600
685.000000	70.374800
684.000000	69.709900
683.000000	69.084200
682.000000	68.391700
681.000000	67.775900
680.000000	67.094000
679.000000	66.422200
678.000000	65.790100
677.000000	65.108300
676.000000	64.469200
675.000000	63.811000
674.000000	63.158700
673.000000	62.461000
672.000000	61.805600
671.000000	61.179900
670.000000	60.480400
669.000000	59.882500
668.000000	59.265000
667.000000	58.704000
666.000000	58.118600
665.000000	57.581600
664.000000	57.048000
663.000000	56.509300
662.000000	56.038500
661.000000	55.602100
660.000000	55.217100
659.000000	54.900200
658.000000	54.554400
657.000000	54.259500
656.000000	53.982800
655.000000	53.812800
654.000000	53.587600
653.000000	53.492900
652.000000	53.422400
651.000000	53.358500
650.000000	53.404900
649.000000	53.486600
648.000000	53.605400
647.000000	53.823200
646.000000	54.047900
645.000000	54.273000
644.000000	54.674500
643.000000	55.088500
642.000000	55.524000
641.000000	56.033300
640.000000	56.528700
639.000000	57.043200
638.000000	57.550000
637.000000	58.093900
636.000000	58.640400
635.000000	59.185000
634.000000	59.821400
633.000000	60.378300
632.000000	60.954800
631.000000	61.579000
630.000000	62.170500
629.000000	62.736300
628.000000	63.410500
627.000000	64.005600
626.000000	64.558600
625.000000	65.135000
624.000000	65.748400
623.000000	66.327700
622.000000	66.878800
621.000000	67.403100
620.000000	67.956900
619.000000	68.499700
618.000000	68.910300
617.000000	69.336700
616.000000	69.702300
615.000000	70.095100
614.000000	70.368800
613.000000	70.709900
612.000000	71.015700
611.000000	71.248700
610.000000	71.537100
609.000000	71.807400
608.000000	72.021000
607.000000	72.207500
606.000000	72.483800
605.000000	72.762000
604.000000	73.023300
603.000000	73.267400
602.000000	73.483900
601.000000	73.768900
600.000000	73.912200
599.000000	74.158300
598.000000	74.401600
597.000000	74.566000
596.000000	74.722500
595.000000	74.842100
594.000000	74.974800
593.000000	75.026600
592.000000	75.113400
591.000000	75.173200
590.000000	75.252400
589.000000	75.143700
588.000000	75.117900
587.000000	75.088100
586.000000	75.016600
585.000000	74.918500
584.000000	74.864600
583.000000	74.715400
582.000000	74.626400
581.000000	74.436300
580.000000	74.166400
579.000000	74.061300
578.000000	73.836800
577.000000	73.725000
576.000000	73.467900
575.000000	73.263800
574.000000	73.056200
573.000000	72.876300
572.000000	72.699900
571.000000	72.446700
570.000000	72.230400
569.000000	72.020200
568.000000	71.746800
567.000000	71.523100
566.000000	71.216800
565.000000	70.914400
564.000000	70.560900
563.000000	70.221000
562.000000	69.841200
561.000000	69.425700
560.000000	69.008000
559.000000	68.562600
558.000000	68.117600
557.000000	67.642600
556.000000	67.201500
555.000000	66.777500
554.000000	66.282600
553.000000	65.800500
552.000000	65.330900
551.000000	64.843700
550.000000	64.376900
549.000000	63.895800
548.000000	63.396500
547.000000	62.909300
546.000000	62.427200
545.000000	61.952900
544.000000	61.415900
543.000000	60.902500
542.000000	60.378100
541.000000	59.836900
540.000000	59.295300
539.000000	58.737500
538.000000	58.131400
537.000000	57.509900
536.000000	56.858500
535.000000	56.179300
534.000000	55.454100
533.000000	54.714900
532.000000	53.926500
531.000000	53.144300
530.000000	52.340300
529.000000	51.543100
528.000000	50.696800
527.000000	49.866400
526.000000	49.008400
525.000000	48.155900
524.000000	47.286600
523.000000	46.428700
522.000000	45.586200
521.000000	44.796400
520.000000	43.998400
519.000000	43.206200
518.000000	42.461900
517.000000	41.736600
516.000000	41.039300
515.000000	40.364300
514.000000	39.756600
513.000000	39.156400
512.000000	38.541700
511.000000	37.971300
510.000000	37.434000
509.000000	36.888100
508.000000	36.356100
507.000000	35.834600
506.000000	35.284500
505.000000	34.721300
504.000000	34.174800
503.000000	33.647500
502.000000	33.107200
501.000000	32.560000
500.000000	32.013400
499.000000	31.465500
498.000000	30.890100
497.000000	30.284900
496.000000	29.690800
495.000000	29.067600
494.000000	28.425300
493.000000	27.795800
492.000000	27.146100
491.000000	26.492200
490.000000	25.861600
489.000000	25.218100
488.000000	24.601800
487.000000	24.003000
486.000000	23.462100
485.000000	22.939300
484.000000	22.444800
483.000000	21.986200
482.000000	21.560100
481.000000	21.200100
480.000000	20.895600
479.000000	20.614900
478.000000	20.382000
477.000000	20.205400
476.000000	20.062500
475.000000	19.975000
474.000000	19.917500
473.000000	19.876600
472.000000	19.853400
471.000000	19.845400
470.000000	19.846200
469.000000	19.872300
468.000000	19.900100
467.000000	19.912800
466.000000	19.935300
465.000000	19.963000
464.000000	19.971000
463.000000	19.967900
462.000000	19.938400
461.000000	19.911100
460.000000	19.888600
459.000000	19.837000
458.000000	19.765100
457.000000	19.679900
456.000000	19.594900
455.000000	19.479200
454.000000	19.360400
453.000000	19.236700
452.000000	19.078700
451.000000	18.908400
450.000000	18.742600
449.000000	18.578200
448.000000	18.412500
447.000000	18.238600
446.000000	18.072000
445.000000	17.870800
444.000000	17.639900
443.000000	17.428200
442.000000	17.205600
441.000000	16.964000
440.000000	16.728500
439.000000	16.482600
438.000000	16.235300
437.000000	15.998800
436.000000	15.769300
435.000000	15.507700
434.000000	15.228400
433.000000	14.945300
432.000000	14.679800
431.000000	14.426000
430.000000	14.154400
429.000000	13.861600
428.000000	13.579800
427.000000	13.306800
426.000000	13.038000
425.000000	12.746000
424.000000	12.440100
423.000000	12.177500
422.000000	11.907900
421.000000	11.627500
420.000000	11.341000
419.000000	11.072000
418.000000	10.797600
417.000000	10.547800
416.000000	10.303100
415.000000	10.043000
414.000000	9.781100
413.000000	9.553600
412.000000	9.348100
411.000000	9.151500
410.000000	8.951400
409.000000	8.767000
408.000000	8.589400
407.000000	8.428000
406.000000	8.280700
405.000000	8.134300
404.000000	8.008700
403.000000	7.901100
402.000000	7.774300
401.000000	7.679600
400.000000	7.587900
399.000000	7.504700
398.000000	7.424300
397.000000	7.358000
396.000000	7.310100
395.000000	7.256000
394.000000	7.191200
393.000000	7.151000
392.000000	7.125500
391.000000	7.094000
390.000000	7.051900
389.000000	7.020200
388.000000	7.002800
387.000000	6.988800
386.000000	6.959900
385.000000	6.944200
384.000000	6.917400
383.000000	6.870300
382.000000	6.883800
381.000000	6.881900
380.000000	6.852200
379.000000	6.832800
378.000000	6.816000
377.000000	6.838300
376.000000	6.817600
375.000000	6.674300
374.000000	6.591900
373.000000	6.772500
372.000000	6.970600
371.000000	6.886500
370.000000	6.770900
369.000000	6.852600
368.000000	6.836400
367.000000	6.765700
366.000000	6.739600
365.000000	6.898400
364.000000	6.952100
363.000000	6.951400
362.000000	6.892900
361.000000	6.856000
360.000000	6.897300
359.000000	6.926600
358.000000	6.993400
357.000000	6.768200
356.000000	6.878800
355.000000	6.967600
354.000000	6.980000
353.000000	6.847600
352.000000	6.835100
351.000000	6.910000
350.000000	6.980300
349.000000	6.901300
348.000000	6.848700
347.000000	7.091000
346.000000	7.256500
345.000000	6.969800
344.000000	7.105500
343.000000	6.792800
342.000000	6.773500
341.000000	7.194300
340.000000	6.994400
339.000000	6.914600
338.000000	6.861800
337.000000	6.933200
336.000000	7.047000
335.000000	7.170300
334.000000	7.408200
333.000000	7.334500
332.000000	7.129700
331.000000	7.226900
330.000000	6.997600
329.000000	6.982200
328.000000	7.291400
327.000000	6.986400
326.000000	7.343400
325.000000	6.961400
324.000000	7.141200
323.000000	7.474800
322.000000	7.572400
321.000000	7.353600
320.000000	7.815000
319.000000	7.482100
318.000000	7.443700
317.000000	7.628700
316.000000	6.844900
315.000000	6.738900
314.000000	6.794600
313.000000	6.746000
312.000000	6.767500
311.000000	6.750600
310.000000	6.794900
309.000000	6.810600
308.000000	6.785800
307.000000	6.834800
306.000000	6.821200
305.000000	6.793100
304.000000	6.860300
303.000000	6.826100
302.000000	6.835600
301.000000	6.817600
300.000000	6.879000
299.000000	6.900300
298.000000	6.859500
297.000000	6.864500
296.000000	6.928600
295.000000	6.863600
294.000000	6.905100
293.000000	6.950400
292.000000	6.951300
291.000000	6.991200
290.000000	6.957200
289.000000	6.979000
288.000000	6.990100
287.000000	6.993000
286.000000	7.012400
285.000000	7.048400
284.000000	7.044900
283.000000	7.059800
282.000000	7.042300
281.000000	7.068700
280.000000	7.108200
279.000000	7.067400
278.000000	7.188800
277.000000	7.190900
276.000000	7.155300
275.000000	7.164300
274.000000	7.211800
273.000000	7.205900
272.000000	7.194800
271.000000	7.214200
270.000000	7.274700
269.000000	7.276800
268.000000	7.335600
267.000000	7.284000
266.000000	7.328800
265.000000	7.414700
264.000000	7.391700
263.000000	7.421400
262.000000	7.449100
261.000000	7.499300
260.000000	7.552600
259.000000	7.571000
258.000000	7.593000
257.000000	7.620000
256.000000	7.612500
255.000000	7.582900
254.000000	7.690800
253.000000	7.699300
252.000000	7.664000
251.000000	7.712900
250.000000	7.702400
