PE UV       SUBTECH     SPECTRUM    ASCII       PEDS        4.00        
   -1
CICIMAUCR0019-4.Sample.ASC
24/04/25
13:38:40.00
24/04/25
13:38:40.00
Vinicio Soto Monge
C. cupreomarginata
250,000000
1
Lambda 1050
1050L1511233
PerkinElmer UV WinLab 6.3.2.0749 / 2.02.05 Lambda 900 UV/VIS/NIR, Aug  7 2015 09:38:08

0
0
3350/servo 860,8/2
0
0
UV/VIS
1
1
1
DoubleDePol,CommonBeamDepol,RBeamAtt,SBeamAtt,60mm sphere, WB InGaAs Detector
0
0
0
0
Program
Program
3350/servo 860,8/2
3350/0,2 860,8/0,2
3350/0,2 860,8/0,2
0
15.00
 
 
 
0
 
860,8
319,2
860,8
Front
100
on
S:100 R:100
0
0
0
0
 
0
 
 
 
0
 
 
0
0
0
0
0
 
 
 
 
0
0


0
0
#HDR
-1
-1
#GR
nm
%R
1.0
0.0
2500,000000
-1,000000
2251
8
69,189300
4,787900
#DATA
2500.000000	6.393996
2499.000000	6.239851
2498.000000	6.247873
2497.000000	6.245158
2496.000000	6.349443
2495.000000	6.184931
2494.000000	6.411397
2493.000000	6.142723
2492.000000	6.207393
2491.000000	6.172220
2490.000000	6.152720
2489.000000	6.099405
2488.000000	6.058925
2487.000000	6.099158
2486.000000	6.149018
2485.000000	6.137046
2484.000000	6.039055
2483.000000	6.069045
2482.000000	6.098541
2481.000000	6.063121
2480.000000	6.080646
2479.000000	6.052384
2478.000000	6.144204
2477.000000	6.067564
2476.000000	6.072377
2475.000000	6.040906
2474.000000	6.060529
2473.000000	6.037697
2472.000000	6.004005
2471.000000	6.029799
2470.000000	5.990183
2469.000000	6.021407
2468.000000	6.032637
2467.000000	6.040166
2466.000000	6.038068
2465.000000	6.055469
2464.000000	6.040783
2463.000000	6.028935
2462.000000	6.080893
2461.000000	6.096196
2460.000000	6.126186
2459.000000	6.090519
2458.000000	6.146179
2457.000000	6.164321
2456.000000	6.156052
2455.000000	6.187400
2454.000000	6.192706
2453.000000	6.232076
2452.000000	6.248490
2451.000000	6.259227
2450.000000	6.275271
2449.000000	6.291315
2448.000000	6.341915
2447.000000	6.384863
2446.000000	6.435340
2445.000000	6.438672
2444.000000	6.445336
2443.000000	6.486310
2442.000000	6.527654
2441.000000	6.512721
2440.000000	6.563938
2439.000000	6.633050
2438.000000	6.642553
2437.000000	6.664027
2436.000000	6.677356
2435.000000	6.701669
2434.000000	6.703027
2433.000000	6.710308
2432.000000	6.741902
2431.000000	6.777322
2430.000000	6.794847
2429.000000	6.802005
2428.000000	6.825331
2427.000000	6.834093
2426.000000	6.865564
2425.000000	6.873092
2424.000000	6.877165
2423.000000	6.906784
2422.000000	6.890123
2421.000000	6.897405
2420.000000	6.919990
2419.000000	6.925297
2418.000000	6.917398
2417.000000	6.936774
2416.000000	6.947881
2415.000000	6.955163
2414.000000	6.986510
2413.000000	6.996383
2412.000000	6.980339
2411.000000	6.986757
2410.000000	7.024028
2409.000000	7.068334
2408.000000	7.118194
2407.000000	7.205695
2406.000000	7.263947
2405.000000	7.272462
2404.000000	7.259133
2403.000000	7.266538
2402.000000	7.327629
2401.000000	7.354163
2400.000000	7.364530
2399.000000	7.419202
2398.000000	7.418092
2397.000000	7.433395
2396.000000	7.467334
2395.000000	7.488068
2394.000000	7.520526
2393.000000	7.553107
2392.000000	7.580012
2391.000000	7.611359
2390.000000	7.615432
2389.000000	7.618270
2388.000000	7.637276
2387.000000	7.661959
2386.000000	7.693307
2385.000000	7.725394
2384.000000	7.709227
2383.000000	7.729591
2382.000000	7.747609
2381.000000	7.743413
2380.000000	7.731565
2379.000000	7.759704
2378.000000	7.782412
2377.000000	7.774020
2376.000000	7.776612
2375.000000	7.794013
2374.000000	7.799073
2373.000000	7.777969
2372.000000	7.777599
2371.000000	7.775624
2370.000000	7.749090
2369.000000	7.747856
2368.000000	7.762789
2367.000000	7.737613
2366.000000	7.708857
2365.000000	7.699848
2364.000000	7.699477
2363.000000	7.675411
2362.000000	7.662206
2361.000000	7.663193
2360.000000	7.637770
2359.000000	7.604571
2358.000000	7.606052
2357.000000	7.606793
2356.000000	7.587787
2355.000000	7.560142
2354.000000	7.575692
2353.000000	7.605806
2352.000000	7.607287
2351.000000	7.629995
2350.000000	7.652456
2349.000000	7.660478
2348.000000	7.705895
2347.000000	7.739957
2346.000000	7.758840
2345.000000	7.791298
2344.000000	7.837578
2343.000000	7.884353
2342.000000	7.926314
2341.000000	7.953218
2340.000000	7.948775
2339.000000	7.957538
2338.000000	8.020356
2337.000000	8.060342
2336.000000	8.036893
2335.000000	8.034919
2334.000000	8.045779
2333.000000	8.046273
2332.000000	8.038991
2331.000000	8.009619
2330.000000	7.991353
2329.000000	7.981233
2328.000000	7.994686
2327.000000	7.975433
2326.000000	7.939889
2325.000000	7.900273
2324.000000	7.879416
2323.000000	7.865100
2322.000000	7.826718
2321.000000	7.782659
2320.000000	7.752299
2319.000000	7.716138
2318.000000	7.676275
2317.000000	7.613704
2316.000000	7.563845
2315.000000	7.548294
2314.000000	7.512010
2313.000000	7.476714
2312.000000	7.437715
2311.000000	7.418092
2310.000000	7.414759
2309.000000	7.384770
2308.000000	7.372675
2307.000000	7.388719
2306.000000	7.401801
2305.000000	7.416858
2304.000000	7.426484
2303.000000	7.483748
2302.000000	7.496707
2301.000000	7.537310
2300.000000	7.598277
2299.000000	7.640238
2298.000000	7.684051
2297.000000	7.721445
2296.000000	7.778833
2295.000000	7.822522
2294.000000	7.859546
2293.000000	7.883489
2292.000000	7.919279
2291.000000	7.927301
2290.000000	7.975680
2289.000000	7.976297
2288.000000	7.986540
2287.000000	7.970620
2286.000000	7.965806
2285.000000	7.956180
2284.000000	7.950133
2283.000000	7.928905
2282.000000	7.940260
2281.000000	7.904222
2280.000000	7.887808
2279.000000	7.908048
2278.000000	7.886081
2277.000000	7.863619
2276.000000	7.841034
2275.000000	7.844366
2274.000000	7.850414
2273.000000	7.838566
2272.000000	7.874480
2271.000000	7.891758
2270.000000	7.910517
2269.000000	7.902124
2268.000000	7.935940
2267.000000	7.986293
2266.000000	8.084408
2265.000000	8.129948
2264.000000	8.218560
2263.000000	8.278293
2262.000000	8.398992
2261.000000	8.476990
2260.000000	8.589792
2259.000000	8.703950
2258.000000	8.839953
2257.000000	8.991383
2256.000000	9.086042
2255.000000	9.230808
2254.000000	9.350150
2253.000000	9.485536
2252.000000	9.620058
2251.000000	9.723726
2250.000000	9.854793
2249.000000	9.960559
2248.000000	10.073607
2247.000000	10.180731
2246.000000	10.246388
2245.000000	10.341294
2244.000000	10.442741
2243.000000	10.521356
2242.000000	10.586396
2241.000000	10.662789
2240.000000	10.771765
2239.000000	10.812862
2238.000000	10.875063
2237.000000	10.938251
2236.000000	10.971820
2235.000000	11.037847
2234.000000	11.112143
2233.000000	11.142996
2232.000000	11.179280
2231.000000	11.219637
2230.000000	11.229387
2229.000000	11.289490
2228.000000	11.324046
2227.000000	11.329846
2226.000000	11.351814
2225.000000	11.377608
2224.000000	11.359219
2223.000000	11.376991
2222.000000	11.383655
2221.000000	11.395009
2220.000000	11.389702
2219.000000	11.396490
2218.000000	11.419322
2217.000000	11.410560
2216.000000	11.418458
2215.000000	11.428825
2214.000000	11.390443
2213.000000	11.394022
2212.000000	11.384766
2211.000000	11.374522
2210.000000	11.402908
2209.000000	11.413892
2208.000000	11.361440
2207.000000	11.372795
2206.000000	11.362428
2205.000000	11.367118
2204.000000	11.377608
2203.000000	11.397107
2202.000000	11.374276
2201.000000	11.359342
2200.000000	11.368599
2199.000000	11.354653
2198.000000	11.348976
2197.000000	11.379089
2196.000000	11.360330
2195.000000	11.363292
2194.000000	11.360700
2193.000000	11.381927
2192.000000	11.373659
2191.000000	11.373165
2190.000000	11.366871
2189.000000	11.372918
2188.000000	11.364156
2187.000000	11.327255
2186.000000	11.340707
2185.000000	11.322688
2184.000000	11.304793
2183.000000	11.322071
2182.000000	11.299610
2181.000000	11.293562
2180.000000	11.309359
2179.000000	11.289119
2178.000000	11.269743
2177.000000	11.281961
2176.000000	11.279123
2175.000000	11.281097
2174.000000	11.293809
2173.000000	11.278012
2172.000000	11.291217
2171.000000	11.319479
2170.000000	11.320590
2169.000000	11.313185
2168.000000	11.293562
2167.000000	11.301461
2166.000000	11.331327
2165.000000	11.348235
2164.000000	11.327501
2163.000000	11.332438
2162.000000	11.355763
2161.000000	11.381310
2160.000000	11.390566
2159.000000	11.397601
2158.000000	11.397478
2157.000000	11.423271
2156.000000	11.440303
2155.000000	11.440673
2154.000000	11.421297
2153.000000	11.459432
2152.000000	11.490532
2151.000000	11.490656
2150.000000	11.504478
2149.000000	11.525582
2148.000000	11.536689
2147.000000	11.560385
2146.000000	11.571986
2145.000000	11.563841
2144.000000	11.567420
2143.000000	11.561619
2142.000000	11.560015
2141.000000	11.601729
2140.000000	11.621475
2139.000000	11.615181
2138.000000	11.617773
2137.000000	11.640481
2136.000000	11.630114
2135.000000	11.639494
2134.000000	11.658993
2133.000000	11.636655
2132.000000	11.642456
2131.000000	11.655538
2130.000000	11.639124
2129.000000	11.639247
2128.000000	11.643320
2127.000000	11.644924
2126.000000	11.615798
2125.000000	11.598767
2124.000000	11.590622
2123.000000	11.576799
2122.000000	11.562113
2121.000000	11.565322
2120.000000	11.536443
2119.000000	11.527187
2118.000000	11.535579
2117.000000	11.506083
2116.000000	11.470169
2115.000000	11.455112
2114.000000	11.435489
2113.000000	11.430800
2112.000000	11.420186
2111.000000	11.411300
2110.000000	11.389826
2109.000000	11.358108
2108.000000	11.347371
2107.000000	11.332068
2106.000000	11.308249
2105.000000	11.289613
2104.000000	11.263449
2103.000000	11.255797
2102.000000	11.242222
2101.000000	11.218279
2100.000000	11.196065
2099.000000	11.180021
2098.000000	11.180514
2097.000000	11.163236
2096.000000	11.151389
2095.000000	11.142873
2094.000000	11.117943
2093.000000	11.105725
2092.000000	11.109181
2091.000000	11.097950
2090.000000	11.085855
2089.000000	11.069565
2088.000000	11.059198
2087.000000	11.063517
2086.000000	11.053397
2085.000000	11.043771
2084.000000	11.032910
2083.000000	11.026986
2082.000000	11.018718
2081.000000	11.000946
2080.000000	10.999218
2079.000000	11.004648
2078.000000	11.003167
2077.000000	10.979472
2076.000000	10.971820
2075.000000	10.964415
2074.000000	10.946767
2073.000000	10.943435
2072.000000	10.935906
2071.000000	10.930723
2070.000000	10.904682
2069.000000	10.904065
2068.000000	10.908879
2067.000000	10.880246
2066.000000	10.868028
2065.000000	10.879382
2064.000000	10.864326
2063.000000	10.862968
2062.000000	10.867411
2061.000000	10.861857
2060.000000	10.860500
2059.000000	10.867041
2058.000000	10.875433
2057.000000	10.887775
2056.000000	10.910483
2055.000000	10.922948
2054.000000	10.944792
2053.000000	10.974659
2052.000000	11.018964
2051.000000	11.064505
2050.000000	11.094618
2049.000000	11.140898
2048.000000	11.184217
2047.000000	11.268262
2046.000000	11.329476
2045.000000	11.386987
2044.000000	11.425986
2043.000000	11.503121
2042.000000	11.575935
2041.000000	11.618637
2040.000000	11.694660
2039.000000	11.765994
2038.000000	11.841771
2037.000000	11.893728
2036.000000	11.933962
2035.000000	11.989868
2034.000000	12.031459
2033.000000	12.087119
2032.000000	12.122169
2031.000000	12.173386
2030.000000	12.226208
2029.000000	12.256691
2028.000000	12.295443
2027.000000	12.327284
2026.000000	12.373318
2025.000000	12.389856
2024.000000	12.427497
2023.000000	12.463781
2022.000000	12.469335
2021.000000	12.505989
2020.000000	12.554738
2019.000000	12.577816
2018.000000	12.588924
2017.000000	12.606449
2016.000000	12.636562
2015.000000	12.658406
2014.000000	12.662479
2013.000000	12.684200
2012.000000	12.670748
2011.000000	12.677412
2010.000000	12.665071
2009.000000	12.683706
2008.000000	12.680744
2007.000000	12.674574
2006.000000	12.673710
2005.000000	12.662479
2004.000000	12.641745
2003.000000	12.630268
2002.000000	12.631872
2001.000000	12.608794
2000.000000	12.589047
1999.000000	12.560168
1998.000000	12.536349
1997.000000	12.535732
1996.000000	12.492413
1995.000000	12.454278
1994.000000	12.425893
1993.000000	12.427004
1992.000000	12.384302
1991.000000	12.343822
1990.000000	12.285200
1989.000000	12.256815
1988.000000	12.240771
1987.000000	12.185851
1986.000000	12.172646
1985.000000	12.106989
1984.000000	12.075025
1983.000000	12.047750
1982.000000	12.018748
1981.000000	11.956300
1980.000000	11.898542
1979.000000	11.867688
1978.000000	11.825603
1977.000000	11.806227
1976.000000	11.752418
1975.000000	11.704534
1974.000000	11.680961
1973.000000	11.640728
1972.000000	11.577787
1971.000000	11.549895
1970.000000	11.513734
1969.000000	11.493124
1968.000000	11.439068
1967.000000	11.409696
1966.000000	11.372671
1965.000000	11.387234
1964.000000	11.320343
1963.000000	11.273199
1962.000000	11.259130
1961.000000	11.207542
1960.000000	11.192732
1959.000000	11.160891
1958.000000	11.117696
1957.000000	11.091409
1956.000000	11.080672
1955.000000	11.039328
1954.000000	10.995516
1953.000000	10.985519
1952.000000	10.956023
1951.000000	10.919122
1950.000000	10.884936
1949.000000	10.881357
1948.000000	10.863462
1947.000000	10.829276
1946.000000	10.838779
1945.000000	10.792005
1944.000000	10.788179
1943.000000	10.786698
1942.000000	10.802618
1941.000000	10.790154
1940.000000	10.788796
1939.000000	10.812862
1938.000000	10.802495
1937.000000	10.828906
1936.000000	10.813479
1935.000000	10.819526
1934.000000	10.862475
1933.000000	10.891724
1932.000000	10.920973
1931.000000	10.983915
1930.000000	10.992677
1929.000000	11.048831
1928.000000	11.094124
1927.000000	11.135591
1926.000000	11.183723
1925.000000	11.257278
1924.000000	11.337992
1923.000000	11.400810
1922.000000	11.483498
1921.000000	11.567543
1920.000000	11.640852
1919.000000	11.725884
1918.000000	11.825850
1917.000000	11.921867
1916.000000	12.009368
1915.000000	12.127970
1914.000000	12.243116
1913.000000	12.363198
1912.000000	12.465879
1911.000000	12.578063
1910.000000	12.713943
1909.000000	12.810083
1908.000000	12.928314
1907.000000	13.083694
1906.000000	13.234630
1905.000000	13.377914
1904.000000	13.518360
1903.000000	13.664607
1902.000000	13.811224
1901.000000	13.976106
1900.000000	14.136298
1899.000000	14.299206
1898.000000	14.449401
1897.000000	14.604781
1896.000000	14.757445
1895.000000	14.923808
1894.000000	15.091775
1893.000000	15.261841
1892.000000	15.487073
1891.000000	15.702185
1890.000000	15.902487
1889.000000	16.104887
1888.000000	16.326664
1887.000000	16.585094
1886.000000	16.865122
1885.000000	17.174646
1884.000000	17.548963
1883.000000	17.918591
1882.000000	18.299696
1881.000000	18.713012
1880.000000	19.082392
1879.000000	19.471889
1878.000000	19.875702
1877.000000	20.261003
1876.000000	20.605701
1875.000000	20.933367
1874.000000	21.246223
1873.000000	21.521438
1872.000000	21.790976
1871.000000	22.016085
1870.000000	22.210833
1869.000000	22.387810
1868.000000	22.521962
1867.000000	22.637725
1866.000000	22.719549
1865.000000	22.810259
1864.000000	22.887146
1863.000000	22.954407
1862.000000	23.038823
1861.000000	23.094976
1860.000000	23.122375
1859.000000	23.103492
1858.000000	23.102628
1857.000000	23.094236
1856.000000	23.084733
1855.000000	23.053633
1854.000000	22.998096
1853.000000	22.936265
1852.000000	22.881963
1851.000000	22.852837
1850.000000	22.841729
1849.000000	22.803224
1848.000000	22.702271
1847.000000	22.584533
1846.000000	22.488023
1845.000000	22.437546
1844.000000	22.446802
1843.000000	22.464821
1842.000000	22.429771
1841.000000	22.375345
1840.000000	22.320055
1839.000000	22.279081
1838.000000	22.237984
1837.000000	22.184916
1836.000000	22.123332
1835.000000	22.043976
1834.000000	21.984737
1833.000000	21.951168
1832.000000	21.902913
1831.000000	21.810969
1830.000000	21.714829
1829.000000	21.639670
1828.000000	21.534397
1827.000000	21.446155
1826.000000	21.379758
1825.000000	21.313484
1824.000000	21.293491
1823.000000	21.308918
1822.000000	21.294972
1821.000000	21.223021
1820.000000	21.153786
1819.000000	21.106888
1818.000000	21.108863
1817.000000	21.111454
1816.000000	21.105777
1815.000000	21.099113
1814.000000	21.080230
1813.000000	21.064803
1812.000000	21.047402
1811.000000	20.987546
1810.000000	20.959160
1809.000000	20.934971
1808.000000	20.881779
1807.000000	20.841546
1806.000000	20.793908
1805.000000	20.725660
1804.000000	20.676911
1803.000000	20.663582
1802.000000	20.610637
1801.000000	20.537329
1800.000000	20.473400
1799.000000	20.424528
1798.000000	20.385282
1797.000000	20.337520
1796.000000	20.288401
1795.000000	20.229039
1794.000000	20.179796
1793.000000	20.132158
1792.000000	20.083162
1791.000000	20.014050
1790.000000	19.946789
1789.000000	19.897547
1788.000000	19.837814
1787.000000	19.737971
1786.000000	19.655530
1785.000000	19.581481
1784.000000	19.504841
1783.000000	19.412650
1782.000000	19.337367
1781.000000	19.253939
1780.000000	19.178656
1779.000000	19.088193
1778.000000	18.995261
1777.000000	18.903687
1776.000000	18.790639
1775.000000	18.681294
1774.000000	18.555781
1773.000000	18.463961
1772.000000	18.336226
1771.000000	18.202074
1770.000000	18.073229
1769.000000	17.984741
1768.000000	17.865769
1767.000000	17.794312
1766.000000	17.712241
1765.000000	17.644857
1764.000000	17.609313
1763.000000	17.615484
1762.000000	17.610301
1761.000000	17.662135
1760.000000	17.737911
1759.000000	17.798385
1758.000000	17.860216
1757.000000	17.904645
1756.000000	17.957837
1755.000000	18.000168
1754.000000	18.026455
1753.000000	18.013867
1752.000000	18.015718
1751.000000	17.987086
1750.000000	17.932537
1749.000000	17.896129
1748.000000	17.838001
1747.000000	17.739886
1746.000000	17.630170
1745.000000	17.512062
1744.000000	17.374949
1743.000000	17.216607
1742.000000	17.032473
1741.000000	16.830443
1740.000000	16.626685
1739.000000	16.454645
1738.000000	16.243359
1737.000000	16.110688
1736.000000	15.989494
1735.000000	15.904462
1734.000000	15.887430
1733.000000	15.922974
1732.000000	15.962467
1731.000000	16.055521
1730.000000	16.161164
1729.000000	16.276310
1728.000000	16.399972
1727.000000	16.494014
1726.000000	16.579911
1725.000000	16.659390
1724.000000	16.719616
1723.000000	16.721097
1722.000000	16.765156
1721.000000	16.741584
1720.000000	16.733439
1719.000000	16.743188
1718.000000	16.776264
1717.000000	16.778485
1716.000000	16.799589
1715.000000	16.851176
1714.000000	16.896346
1713.000000	16.926953
1712.000000	16.968174
1711.000000	16.980145
1710.000000	17.007543
1709.000000	16.977923
1708.000000	16.972370
1707.000000	16.943244
1706.000000	16.896593
1705.000000	16.837724
1704.000000	16.816497
1703.000000	16.737882
1702.000000	16.638780
1701.000000	16.502406
1700.000000	16.374672
1699.000000	16.241754
1698.000000	16.108466
1697.000000	16.053794
1696.000000	16.014671
1695.000000	16.000849
1694.000000	16.073293
1693.000000	16.214603
1692.000000	16.333575
1691.000000	16.479945
1690.000000	16.640631
1689.000000	16.733068
1688.000000	16.781941
1687.000000	16.820446
1686.000000	16.821927
1685.000000	16.809092
1684.000000	16.909058
1683.000000	17.102819
1682.000000	17.420118
1681.000000	17.804432
1680.000000	18.252057
1679.000000	18.777558
1678.000000	19.254926
1677.000000	19.757841
1676.000000	20.165974
1675.000000	20.530664
1674.000000	20.841423
1673.000000	21.104666
1672.000000	21.336686
1671.000000	21.541802
1670.000000	21.678298
1669.000000	21.818004
1668.000000	21.969434
1667.000000	22.081001
1666.000000	22.169489
1665.000000	22.237120
1664.000000	22.300185
1663.000000	22.347453
1662.000000	22.397930
1661.000000	22.411382
1660.000000	22.453590
1659.000000	22.486171
1658.000000	22.476545
1657.000000	22.483950
1656.000000	22.479384
1655.000000	22.478026
1654.000000	22.456552
1653.000000	22.450381
1652.000000	22.414714
1651.000000	22.366829
1650.000000	22.358067
1649.000000	22.321166
1648.000000	22.286486
1647.000000	22.242180
1646.000000	22.187755
1645.000000	22.151100
1644.000000	22.080260
1643.000000	22.034967
1642.000000	21.960671
1641.000000	21.914761
1640.000000	21.851079
1639.000000	21.790236
1638.000000	21.740623
1637.000000	21.653986
1636.000000	21.577098
1635.000000	21.523536
1634.000000	21.453807
1633.000000	21.386916
1632.000000	21.313237
1631.000000	21.241287
1630.000000	21.163042
1629.000000	21.097262
1628.000000	21.016919
1627.000000	20.960024
1626.000000	20.888567
1625.000000	20.795266
1624.000000	20.729732
1623.000000	20.642355
1622.000000	20.575711
1621.000000	20.491665
1620.000000	20.431192
1619.000000	20.361956
1618.000000	20.269272
1617.000000	20.219042
1616.000000	20.148202
1615.000000	20.092172
1614.000000	20.019357
1613.000000	19.940495
1612.000000	19.878911
1611.000000	19.826336
1610.000000	19.779685
1609.000000	19.721927
1608.000000	19.666391
1607.000000	19.611841
1606.000000	19.540014
1605.000000	19.469174
1604.000000	19.403394
1603.000000	19.363654
1602.000000	19.309845
1601.000000	19.257271
1600.000000	19.204079
1599.000000	19.151998
1598.000000	19.097202
1597.000000	19.036729
1596.000000	18.998470
1595.000000	18.956879
1594.000000	18.911216
1593.000000	18.873204
1592.000000	18.824332
1591.000000	18.788171
1590.000000	18.767438
1589.000000	18.741150
1588.000000	18.709062
1587.000000	18.668335
1586.000000	18.629583
1585.000000	18.591695
1584.000000	18.575774
1583.000000	18.556892
1582.000000	18.539367
1581.000000	18.530234
1580.000000	18.517646
1579.000000	18.499504
1578.000000	18.490618
1577.000000	18.504194
1576.000000	18.514190
1575.000000	18.514807
1574.000000	18.505181
1573.000000	18.493457
1572.000000	18.498887
1571.000000	18.502960
1570.000000	18.510982
1569.000000	18.540601
1568.000000	18.570468
1567.000000	18.581451
1566.000000	18.578490
1565.000000	18.604283
1564.000000	18.633409
1563.000000	18.646121
1562.000000	18.657228
1561.000000	18.677838
1560.000000	18.689810
1559.000000	18.696968
1558.000000	18.709433
1557.000000	18.723872
1556.000000	18.724859
1555.000000	18.720046
1554.000000	18.733498
1553.000000	18.756083
1552.000000	18.752998
1551.000000	18.745223
1550.000000	18.744482
1549.000000	18.748308
1548.000000	18.745346
1547.000000	18.744359
1546.000000	18.751147
1545.000000	18.742137
1544.000000	18.745223
1543.000000	18.757811
1542.000000	18.752381
1541.000000	18.749542
1540.000000	18.766327
1539.000000	18.766203
1538.000000	18.773979
1537.000000	18.772744
1536.000000	18.755096
1535.000000	18.753615
1534.000000	18.756083
1533.000000	18.747938
1532.000000	18.721527
1531.000000	18.704002
1530.000000	18.706100
1529.000000	18.700794
1528.000000	18.704990
1527.000000	18.679073
1526.000000	18.654513
1525.000000	18.672161
1524.000000	18.645504
1523.000000	18.634520
1522.000000	18.613046
1521.000000	18.568863
1520.000000	18.557015
1519.000000	18.550104
1518.000000	18.552326
1517.000000	18.537146
1516.000000	18.503453
1515.000000	18.483707
1514.000000	18.444338
1513.000000	18.436316
1512.000000	18.411139
1511.000000	18.385962
1510.000000	18.365476
1509.000000	18.355973
1508.000000	18.346346
1507.000000	18.313518
1506.000000	18.325859
1505.000000	18.290810
1504.000000	18.261190
1503.000000	18.249959
1502.000000	18.239222
1501.000000	18.221574
1500.000000	18.204790
1499.000000	18.193312
1498.000000	18.201334
1497.000000	18.178255
1496.000000	18.155917
1495.000000	18.162829
1494.000000	18.155917
1493.000000	18.171838
1492.000000	18.156905
1491.000000	18.158879
1490.000000	18.177021
1489.000000	18.186277
1488.000000	18.200593
1487.000000	18.167395
1486.000000	18.183686
1485.000000	18.182698
1484.000000	18.204419
1483.000000	18.217625
1482.000000	18.245516
1481.000000	18.259956
1480.000000	18.266127
1479.000000	18.276494
1478.000000	18.305990
1477.000000	18.325736
1476.000000	18.339682
1475.000000	18.374115
1474.000000	18.405709
1473.000000	18.415705
1472.000000	18.475438
1471.000000	18.495555
1470.000000	18.504070
1469.000000	18.518263
1468.000000	18.569233
1467.000000	18.589844
1466.000000	18.615884
1465.000000	18.643776
1464.000000	18.679319
1463.000000	18.740163
1462.000000	18.755960
1461.000000	18.801747
1460.000000	18.849262
1459.000000	18.942563
1458.000000	19.014884
1457.000000	19.079307
1456.000000	19.173966
1455.000000	19.215310
1454.000000	19.318114
1453.000000	19.403641
1452.000000	19.490525
1451.000000	19.566301
1450.000000	19.663922
1449.000000	19.716621
1448.000000	19.845342
1447.000000	19.968880
1446.000000	20.088099
1445.000000	20.148325
1444.000000	20.258905
1443.000000	20.366399
1442.000000	20.463527
1441.000000	20.580894
1440.000000	20.707394
1439.000000	20.804275
1438.000000	20.909671
1437.000000	21.037652
1436.000000	21.119229
1435.000000	21.242768
1434.000000	21.379388
1433.000000	21.465902
1432.000000	21.593883
1431.000000	21.725566
1430.000000	21.862433
1429.000000	22.052862
1428.000000	22.188372
1427.000000	22.343627
1426.000000	22.584903
1425.000000	22.797794
1424.000000	22.960701
1423.000000	23.173715
1422.000000	23.328354
1421.000000	23.576171
1420.000000	23.802143
1419.000000	23.989734
1418.000000	24.192504
1417.000000	24.362570
1416.000000	24.632354
1415.000000	24.848207
1414.000000	25.045053
1413.000000	25.213514
1412.000000	25.396415
1411.000000	25.664225
1410.000000	25.966838
1409.000000	26.238351
1408.000000	26.569596
1407.000000	26.893436
1406.000000	27.250722
1405.000000	27.609859
1404.000000	27.917285
1403.000000	28.254948
1402.000000	28.645062
1401.000000	29.024439
1400.000000	29.324337
1399.000000	29.535747
1398.000000	29.764928
1397.000000	30.017434
1396.000000	30.259944
1395.000000	30.399280
1394.000000	30.530840
1393.000000	30.695845
1392.000000	30.900714
1391.000000	31.094722
1390.000000	31.308723
1389.000000	31.590849
1388.000000	31.908766
1387.000000	32.207800
1386.000000	32.569529
1385.000000	32.992594
1384.000000	33.412451
1383.000000	33.797999
1382.000000	34.103821
1381.000000	34.329793
1380.000000	34.443952
1379.000000	34.554161
1378.000000	34.636479
1377.000000	34.763103
1376.000000	34.899599
1375.000000	35.135815
1374.000000	35.408562
1373.000000	35.766095
1372.000000	36.152753
1371.000000	36.528921
1370.000000	36.856587
1369.000000	37.185488
1368.000000	37.478228
1367.000000	37.724317
1366.000000	37.943995
1365.000000	38.154047
1364.000000	38.347561
1363.000000	38.534288
1362.000000	38.669550
1361.000000	38.752979
1360.000000	38.780624
1359.000000	38.906877
1358.000000	39.028687
1357.000000	39.243676
1356.000000	39.581092
1355.000000	40.067223
1354.000000	40.576802
1353.000000	41.109954
1352.000000	41.729003
1351.000000	42.293378
1350.000000	42.787531
1349.000000	43.210350
1348.000000	43.637489
1347.000000	44.025628
1346.000000	44.381310
1345.000000	44.741187
1344.000000	45.073543
1343.000000	45.365666
1342.000000	45.662355
1341.000000	45.965585
1340.000000	46.246847
1339.000000	46.527246
1338.000000	46.769509
1337.000000	47.005108
1336.000000	47.257861
1335.000000	47.468530
1334.000000	47.674262
1333.000000	47.877033
1332.000000	48.074867
1331.000000	48.264308
1330.000000	48.437706
1329.000000	48.609623
1328.000000	48.771050
1327.000000	48.918037
1326.000000	49.071318
1325.000000	49.207814
1324.000000	49.343200
1323.000000	49.451435
1322.000000	49.564607
1321.000000	49.672594
1320.000000	49.782063
1319.000000	49.883140
1318.000000	49.970394
1317.000000	50.075544
1316.000000	50.159959
1315.000000	50.243141
1314.000000	50.321262
1313.000000	50.385808
1312.000000	50.451959
1311.000000	50.515517
1310.000000	50.569573
1309.000000	50.605363
1308.000000	50.642881
1307.000000	50.680523
1306.000000	50.705823
1305.000000	50.719152
1304.000000	50.731863
1303.000000	50.739885
1302.000000	50.745192
1301.000000	50.760619
1300.000000	50.763581
1299.000000	50.758768
1298.000000	50.747043
1297.000000	50.727667
1296.000000	50.704589
1295.000000	50.676203
1294.000000	50.659542
1293.000000	50.653742
1292.000000	50.614373
1291.000000	50.592652
1290.000000	50.559700
1289.000000	50.498486
1288.000000	50.458993
1287.000000	50.419747
1286.000000	50.354831
1285.000000	50.288928
1284.000000	50.220433
1283.000000	50.131574
1282.000000	50.059376
1281.000000	49.997916
1280.000000	49.918190
1279.000000	49.843400
1278.000000	49.775646
1277.000000	49.707151
1276.000000	49.640383
1275.000000	49.579293
1274.000000	49.528940
1273.000000	49.471058
1272.000000	49.412930
1271.000000	49.364551
1270.000000	49.312594
1269.000000	49.249035
1268.000000	49.190783
1267.000000	49.147218
1266.000000	49.077118
1265.000000	49.010968
1264.000000	48.957899
1263.000000	48.890515
1262.000000	48.833004
1261.000000	48.791907
1260.000000	48.747477
1259.000000	48.671947
1258.000000	48.591481
1257.000000	48.559517
1256.000000	48.508176
1255.000000	48.420058
1254.000000	48.366126
1253.000000	48.307997
1252.000000	48.220126
1251.000000	48.153729
1250.000000	48.070424
1249.000000	47.979714
1248.000000	47.887647
1247.000000	47.798294
1246.000000	47.697464
1245.000000	47.595030
1244.000000	47.454337
1243.000000	47.321666
1242.000000	47.183318
1241.000000	47.037812
1240.000000	46.882186
1239.000000	46.729029
1238.000000	46.590064
1237.000000	46.411236
1236.000000	46.233765
1235.000000	46.071475
1234.000000	45.902643
1233.000000	45.709870
1232.000000	45.545604
1231.000000	45.349992
1230.000000	45.163389
1229.000000	45.010355
1228.000000	44.835970
1227.000000	44.635421
1226.000000	44.447336
1225.000000	44.268632
1224.000000	44.098813
1223.000000	43.915419
1222.000000	43.741404
1221.000000	43.585408
1220.000000	43.422253
1219.000000	43.294025
1218.000000	43.131118
1217.000000	42.995485
1216.000000	42.851954
1215.000000	42.748285
1214.000000	42.640421
1213.000000	42.528730
1212.000000	42.415559
1211.000000	42.313125
1210.000000	42.240680
1209.000000	42.157128
1208.000000	42.087152
1207.000000	42.042600
1206.000000	42.003354
1205.000000	41.985335
1204.000000	41.994715
1203.000000	41.993974
1202.000000	41.985829
1201.000000	41.967687
1200.000000	41.916717
1199.000000	41.864512
1198.000000	41.743566
1197.000000	41.594110
1196.000000	41.386527
1195.000000	41.122913
1194.000000	40.778585
1193.000000	40.347498
1192.000000	39.864082
1191.000000	39.383628
1190.000000	38.915640
1189.000000	38.525279
1188.000000	38.225134
1187.000000	38.109864
1186.000000	38.097276
1185.000000	38.227602
1184.000000	38.494548
1183.000000	38.939582
1182.000000	39.401770
1181.000000	39.947510
1180.000000	40.472023
1179.000000	40.961610
1178.000000	41.415406
1177.000000	41.787254
1176.000000	42.114427
1175.000000	42.474058
1174.000000	42.759886
1173.000000	43.097919
1172.000000	43.416329
1171.000000	43.781514
1170.000000	44.154350
1169.000000	44.522373
1168.000000	44.879658
1167.000000	45.244102
1166.000000	45.605831
1165.000000	46.006682
1164.000000	46.365942
1163.000000	46.767287
1162.000000	47.131608
1161.000000	47.503333
1160.000000	47.868517
1159.000000	48.195566
1158.000000	48.532982
1157.000000	48.800422
1156.000000	49.031084
1155.000000	49.239038
1154.000000	49.341966
1153.000000	49.394294
1152.000000	49.429097
1151.000000	49.424037
1150.000000	49.437489
1149.000000	49.413794
1148.000000	49.421322
1147.000000	49.506972
1146.000000	49.658772
1145.000000	49.886966
1144.000000	50.170203
1143.000000	50.486762
1142.000000	50.878850
1141.000000	51.230829
1140.000000	51.600333
1139.000000	51.947746
1138.000000	52.349708
1137.000000	52.767220
1136.000000	53.161653
1135.000000	53.542018
1134.000000	53.882519
1133.000000	54.143295
1132.000000	54.418509
1131.000000	54.698044
1130.000000	54.918833
1129.000000	55.120863
1128.000000	55.299814
1127.000000	55.401632
1126.000000	55.522701
1125.000000	55.604772
1124.000000	55.683758
1123.000000	55.788537
1122.000000	55.840371
1121.000000	55.872829
1120.000000	55.940954
1119.000000	55.973782
1118.000000	56.000687
1117.000000	56.043265
1116.000000	56.018088
1115.000000	56.033022
1114.000000	56.042401
1113.000000	56.040056
1112.000000	56.049559
1111.000000	56.052521
1110.000000	56.041907
1109.000000	56.027468
1108.000000	56.039563
1107.000000	56.059926
1106.000000	56.042771
1105.000000	56.033762
1104.000000	56.026357
1103.000000	56.011547
1102.000000	55.998836
1101.000000	55.989086
1100.000000	55.958602
1099.000000	55.944533
1098.000000	55.936141
1097.000000	55.905287
1096.000000	55.862092
1095.000000	55.819391
1094.000000	55.796559
1093.000000	55.768050
1092.000000	55.718931
1091.000000	55.687090
1090.000000	55.650189
1089.000000	55.589592
1088.000000	55.558615
1087.000000	55.502708
1086.000000	55.436064
1085.000000	55.391635
1084.000000	55.362632
1083.000000	55.319931
1082.000000	55.262667
1081.000000	55.218731
1080.000000	55.175536
1079.000000	55.147027
1078.000000	55.094452
1077.000000	55.031140
1076.000000	55.002261
1075.000000	54.952772
1074.000000	54.895508
1073.000000	54.874650
1072.000000	54.844167
1071.000000	54.802329
1070.000000	54.764935
1069.000000	54.718901
1068.000000	54.688664
1067.000000	54.641520
1066.000000	54.619552
1065.000000	54.592524
1064.000000	54.553155
1063.000000	54.517735
1062.000000	54.489843
1061.000000	54.460471
1060.000000	54.417646
1059.000000	54.399997
1058.000000	54.379510
1057.000000	54.347176
1056.000000	54.313484
1055.000000	54.300031
1054.000000	54.277323
1053.000000	54.249678
1052.000000	54.236843
1051.000000	54.231289
1050.000000	54.210679
1049.000000	54.211049
1048.000000	54.215369
1047.000000	54.203027
1046.000000	54.200065
1045.000000	54.191056
1044.000000	54.199572
1043.000000	54.203644
1042.000000	54.197103
1041.000000	54.207470
1040.000000	54.207840
1039.000000	54.204015
1038.000000	54.204261
1037.000000	54.199942
1036.000000	54.205619
1035.000000	54.201053
1034.000000	54.194759
1033.000000	54.194635
1032.000000	54.179949
1031.000000	54.162917
1030.000000	54.159215
1029.000000	54.144776
1028.000000	54.117871
1027.000000	54.086154
1026.000000	54.065913
1025.000000	54.064433
1024.000000	54.031851
1023.000000	53.999763
1022.000000	53.980140
1021.000000	53.935711
1020.000000	53.909053
1019.000000	53.881162
1018.000000	53.856355
1017.000000	53.848333
1016.000000	53.841422
1015.000000	53.835992
1014.000000	53.842163
1013.000000	53.847223
1012.000000	53.849444
1011.000000	53.872152
1010.000000	53.908806
1009.000000	53.951755
1008.000000	54.001985
1007.000000	54.041107
1006.000000	54.081587
1005.000000	54.135766
1004.000000	54.182294
1003.000000	54.222403
1002.000000	54.253010
1001.000000	54.287443
1000.000000	54.335081
999.000000	54.365565
998.000000	54.401355
997.000000	54.456521
996.000000	54.519216
995.000000	54.570186
994.000000	54.618071
993.000000	54.666326
992.000000	54.728774
991.000000	54.799121
990.000000	54.874527
989.000000	54.936111
988.000000	55.029042
987.000000	55.112964
986.000000	55.183804
985.000000	55.265505
984.000000	55.363496
983.000000	55.467041
982.000000	55.553185
981.000000	55.643648
980.000000	55.724361
979.000000	55.841852
978.000000	55.928613
977.000000	56.053755
976.000000	56.162977
975.000000	56.260352
974.000000	56.367599
973.000000	56.481758
972.000000	56.606283
971.000000	56.706373
970.000000	56.829787
969.000000	56.979489
968.000000	57.075506
967.000000	57.167697
966.000000	57.287780
965.000000	57.425387
964.000000	57.543372
963.000000	57.688878
962.000000	57.811428
961.000000	57.939780
960.000000	58.086643
959.000000	58.245231
958.000000	58.376915
957.000000	58.526247
956.000000	58.640282
955.000000	58.763573
954.000000	58.928455
953.000000	59.062114
952.000000	59.164795
951.000000	59.280805
950.000000	59.401381
949.000000	59.541210
948.000000	59.649691
947.000000	59.771749
946.000000	59.924166
945.000000	60.014629
944.000000	60.126936
943.000000	60.276145
942.000000	60.383022
941.000000	60.477311
940.000000	60.619978
939.000000	60.775604
938.000000	60.888159
937.000000	60.998245
936.000000	61.127954
935.000000	61.245815
934.000000	61.375030
933.000000	61.547317
932.000000	61.645925
931.000000	61.825864
930.000000	61.919783
929.000000	62.039248
928.000000	62.138103
927.000000	62.232516
926.000000	62.425783
925.000000	62.524885
924.000000	62.597577
923.000000	62.702109
922.000000	62.805407
921.000000	62.900930
920.000000	63.087780
919.000000	63.161706
918.000000	63.184414
917.000000	63.255377
916.000000	63.464812
915.000000	63.507761
914.000000	63.581316
913.000000	63.636359
912.000000	63.714974
911.000000	63.784086
910.000000	63.870477
909.000000	63.940946
908.000000	64.048441
907.000000	64.141495
906.000000	64.182593
905.000000	64.283546
904.000000	64.386967
903.000000	64.511616
902.000000	64.500879
901.000000	64.582580
900.000000	64.659961
899.000000	64.740304
898.000000	64.803492
897.000000	64.868408
896.000000	64.919996
895.000000	64.956280
894.000000	64.963685
893.000000	64.850637
892.000000	64.838789
891.000000	64.840764
890.000000	64.804603
889.000000	64.637129
888.000000	64.561353
887.000000	64.535435
886.000000	64.412267
885.000000	64.182839
884.000000	64.016723
883.000000	63.730524
882.000000	63.583414
881.000000	63.358552
880.000000	63.022864
879.000000	62.794917
878.000000	62.404309
877.000000	62.089478
876.000000	61.669374
875.000000	61.327145
874.000000	60.816948
873.000000	60.457194
872.000000	59.895904
871.000000	59.249334
870.000000	58.626830
869.000000	58.189078
868.000000	57.542014
867.000000	56.996521
866.000000	56.753887
865.000000	56.774868
864.000000	56.874217
863.000000	56.966284
862.000000	57.031077
861.000000	57.094389
860.000000	57.141780
859.000000	57.192503
858.000000	59.758667
857.000000	60.145200
856.000000	59.617700
855.000000	59.513100
854.000000	59.749000
853.000000	59.651500
852.000000	59.494900
851.000000	59.626000
850.000000	60.057200
849.000000	60.108400
848.000000	59.819200
847.000000	59.999300
846.000000	59.807200
845.000000	60.105300
844.000000	60.049000
843.000000	60.315300
842.000000	60.214100
841.000000	60.075500
840.000000	60.092300
839.000000	59.985100
838.000000	59.846800
837.000000	59.980300
836.000000	59.853600
835.000000	59.810000
834.000000	59.835400
833.000000	59.895900
832.000000	59.964900
831.000000	59.754100
830.000000	59.610100
829.000000	59.668600
828.000000	59.566100
827.000000	59.598000
826.000000	59.452700
825.000000	59.342800
824.000000	59.464900
823.000000	59.295500
822.000000	59.368900
821.000000	59.213700
820.000000	59.024500
819.000000	58.934400
818.000000	59.006400
817.000000	58.903000
816.000000	58.851300
815.000000	58.846700
814.000000	58.813800
813.000000	58.800500
812.000000	58.762600
811.000000	58.677800
810.000000	58.543800
809.000000	58.456100
808.000000	58.497200
807.000000	58.332200
806.000000	58.330600
805.000000	58.231500
804.000000	58.151700
803.000000	58.130600
802.000000	57.934500
801.000000	57.923500
800.000000	57.883500
799.000000	57.828400
798.000000	57.874000
797.000000	57.765300
796.000000	57.668700
795.000000	57.643800
794.000000	57.560700
793.000000	57.436000
792.000000	57.416400
791.000000	57.375700
790.000000	57.290400
789.000000	57.200300
788.000000	57.169200
787.000000	57.044600
786.000000	56.923200
785.000000	56.882600
784.000000	56.899100
783.000000	56.741300
782.000000	56.638500
781.000000	56.675000
780.000000	56.716200
779.000000	56.673200
778.000000	56.667300
777.000000	56.628700
776.000000	56.560600
775.000000	56.519000
774.000000	56.408900
773.000000	56.472900
772.000000	56.560400
771.000000	56.521700
770.000000	56.487800
769.000000	56.469500
768.000000	56.455600
767.000000	56.523600
766.000000	56.541700
765.000000	56.510200
764.000000	56.566200
763.000000	56.607200
762.000000	56.656400
761.000000	56.614800
760.000000	56.574800
759.000000	56.599700
758.000000	56.609400
757.000000	56.562000
756.000000	56.502100
755.000000	56.506200
754.000000	56.557200
753.000000	56.510400
752.000000	56.460100
751.000000	56.500600
750.000000	56.434400
749.000000	56.347300
748.000000	56.406400
747.000000	56.431800
746.000000	56.401800
745.000000	56.386700
744.000000	56.308100
743.000000	56.281900
742.000000	56.291400
741.000000	56.259300
740.000000	56.245900
739.000000	56.225700
738.000000	56.204300
737.000000	56.221300
736.000000	56.236400
735.000000	56.220900
734.000000	56.252200
733.000000	56.235800
732.000000	56.186300
731.000000	56.189800
730.000000	56.232700
729.000000	56.218500
728.000000	56.205100
727.000000	56.225200
726.000000	56.182500
725.000000	56.202200
724.000000	56.172900
723.000000	56.118800
722.000000	56.080200
721.000000	55.985600
720.000000	55.934800
719.000000	55.917200
718.000000	55.870600
717.000000	55.759300
716.000000	55.680300
715.000000	55.593900
714.000000	55.464300
713.000000	55.392200
712.000000	55.308800
711.000000	55.193400
710.000000	55.067000
709.000000	54.941200
708.000000	54.804500
707.000000	54.690600
706.000000	54.552800
705.000000	54.363000
704.000000	54.194100
703.000000	54.005200
702.000000	53.815800
701.000000	53.652000
700.000000	53.516500
699.000000	53.339200
698.000000	53.180200
697.000000	52.979600
696.000000	52.840300
695.000000	52.694100
694.000000	52.550400
693.000000	52.434800
692.000000	52.350900
691.000000	52.222000
690.000000	52.075100
689.000000	52.010000
688.000000	51.950600
687.000000	51.867900
686.000000	51.805200
685.000000	51.808500
684.000000	51.750100
683.000000	51.661900
682.000000	51.636300
681.000000	51.563300
680.000000	51.514500
679.000000	51.473700
678.000000	51.431300
677.000000	51.390400
676.000000	51.327300
675.000000	51.290200
674.000000	51.230200
673.000000	51.200600
672.000000	51.167100
671.000000	51.168400
670.000000	51.183900
669.000000	51.183400
668.000000	51.139100
667.000000	51.109300
666.000000	51.055900
665.000000	51.046300
664.000000	50.972100
663.000000	50.869300
662.000000	50.716000
661.000000	50.591600
660.000000	50.412000
659.000000	50.165200
658.000000	49.904900
657.000000	49.660600
656.000000	49.413700
655.000000	49.020600
654.000000	48.691200
653.000000	48.333800
652.000000	47.925800
651.000000	47.580600
650.000000	47.204200
649.000000	46.824900
648.000000	46.477400
647.000000	46.089000
646.000000	45.771800
645.000000	45.432600
644.000000	45.103900
643.000000	44.755800
642.000000	44.458600
641.000000	44.151000
640.000000	43.859300
639.000000	43.626900
638.000000	43.432600
637.000000	43.276100
636.000000	43.248000
635.000000	43.224200
634.000000	43.332700
633.000000	43.529100
632.000000	43.853300
631.000000	44.253400
630.000000	44.737500
629.000000	45.323700
628.000000	45.994400
627.000000	46.662700
626.000000	47.377300
625.000000	48.184400
624.000000	48.977600
623.000000	49.765100
622.000000	50.542200
621.000000	51.334300
620.000000	52.103500
619.000000	52.839000
618.000000	53.546900
617.000000	54.287800
616.000000	55.039100
615.000000	55.727300
614.000000	56.518000
613.000000	57.200500
612.000000	57.928900
611.000000	58.606000
610.000000	59.355600
609.000000	60.037400
608.000000	60.749700
607.000000	61.397300
606.000000	62.014900
605.000000	62.573800
604.000000	63.141300
603.000000	63.579800
602.000000	64.013500
601.000000	64.384000
600.000000	64.715100
599.000000	65.052000
598.000000	65.339400
597.000000	65.594300
596.000000	65.860600
595.000000	66.043200
594.000000	66.350000
593.000000	66.509400
592.000000	66.737400
591.000000	66.981600
590.000000	67.209200
589.000000	67.453700
588.000000	67.706400
587.000000	67.893200
586.000000	68.071600
585.000000	68.346600
584.000000	68.497300
583.000000	68.650100
582.000000	68.780000
581.000000	68.915600
580.000000	68.928400
579.000000	68.970200
578.000000	69.014800
577.000000	69.005200
576.000000	69.019100
575.000000	69.029800
574.000000	69.031700
573.000000	69.015900
572.000000	69.011500
571.000000	69.032100
570.000000	69.064900
569.000000	69.063700
568.000000	69.083800
567.000000	69.077200
566.000000	69.124300
565.000000	69.122600
564.000000	69.153000
563.000000	69.189300
562.000000	69.154000
561.000000	69.090700
560.000000	68.990800
559.000000	68.940400
558.000000	68.791300
557.000000	68.608100
556.000000	68.392900
555.000000	68.092200
554.000000	67.782500
553.000000	67.452400
552.000000	67.102600
551.000000	66.690700
550.000000	66.252100
549.000000	65.857000
548.000000	65.399700
547.000000	64.894300
546.000000	64.390700
545.000000	63.838900
544.000000	63.219100
543.000000	62.513300
542.000000	61.746800
541.000000	60.897700
540.000000	59.992100
539.000000	59.059000
538.000000	58.020900
537.000000	56.979400
536.000000	55.875600
535.000000	54.776200
534.000000	53.624100
533.000000	52.462500
532.000000	51.331200
531.000000	50.200200
530.000000	49.098300
529.000000	48.007100
528.000000	46.940600
527.000000	45.916600
526.000000	44.914900
525.000000	43.932200
524.000000	42.995800
523.000000	42.078300
522.000000	41.223900
521.000000	40.380400
520.000000	39.588000
519.000000	38.840900
518.000000	38.116100
517.000000	37.415300
516.000000	36.748100
515.000000	36.097400
514.000000	35.472900
513.000000	34.856100
512.000000	34.267400
511.000000	33.703600
510.000000	33.144200
509.000000	32.606000
508.000000	32.058300
507.000000	31.535700
506.000000	31.016700
505.000000	30.524800
504.000000	30.020900
503.000000	29.523500
502.000000	29.039900
501.000000	28.590900
500.000000	28.138200
499.000000	27.690500
498.000000	27.267900
497.000000	26.845700
496.000000	26.400200
495.000000	26.011200
494.000000	25.607400
493.000000	25.213400
492.000000	24.838700
491.000000	24.480500
490.000000	24.131100
489.000000	23.808300
488.000000	23.467800
487.000000	23.141800
486.000000	22.826800
485.000000	22.507800
484.000000	22.177200
483.000000	21.846500
482.000000	21.521200
481.000000	21.201400
480.000000	20.894700
479.000000	20.559900
478.000000	20.235400
477.000000	19.894400
476.000000	19.550700
475.000000	19.211000
474.000000	18.850900
473.000000	18.486300
472.000000	18.132400
471.000000	17.765200
470.000000	17.398800
469.000000	17.044200
468.000000	16.702000
467.000000	16.376800
466.000000	16.051400
465.000000	15.743200
464.000000	15.441600
463.000000	15.178500
462.000000	14.940500
461.000000	14.708300
460.000000	14.509000
459.000000	14.350400
458.000000	14.215300
457.000000	14.090000
456.000000	13.977300
455.000000	13.901400
454.000000	13.861800
453.000000	13.829800
452.000000	13.793800
451.000000	13.776300
450.000000	13.783700
449.000000	13.793900
448.000000	13.808400
447.000000	13.833200
446.000000	13.857800
445.000000	13.877300
444.000000	13.889400
443.000000	13.900400
442.000000	13.915200
441.000000	13.910100
440.000000	13.904100
439.000000	13.903200
438.000000	13.883700
437.000000	13.848500
436.000000	13.810000
435.000000	13.763900
434.000000	13.716900
433.000000	13.685400
432.000000	13.639400
431.000000	13.559900
430.000000	13.486400
429.000000	13.411800
428.000000	13.324200
427.000000	13.228200
426.000000	13.132600
425.000000	13.044600
424.000000	12.938500
423.000000	12.820700
422.000000	12.692100
421.000000	12.574300
420.000000	12.448400
419.000000	12.313100
418.000000	12.172300
417.000000	12.039200
416.000000	11.894400
415.000000	11.725000
414.000000	11.567100
413.000000	11.391900
412.000000	11.219400
411.000000	11.033600
410.000000	10.841700
409.000000	10.649600
408.000000	10.460700
407.000000	10.285700
406.000000	10.069300
405.000000	9.861000
404.000000	9.664000
403.000000	9.474100
402.000000	9.279300
401.000000	9.066900
400.000000	8.828500
399.000000	8.633500
398.000000	8.428700
397.000000	8.219500
396.000000	8.026700
395.000000	7.850600
394.000000	7.657100
393.000000	7.482100
392.000000	7.323400
391.000000	7.125500
390.000000	6.974400
389.000000	6.815500
388.000000	6.663100
387.000000	6.528000
386.000000	6.400400
385.000000	6.293900
384.000000	6.161200
383.000000	6.044200
382.000000	5.951400
381.000000	5.865800
380.000000	5.792500
379.000000	5.713700
378.000000	5.642200
377.000000	5.576400
376.000000	5.533500
375.000000	5.227200
374.000000	4.846500
373.000000	4.836300
372.000000	4.957500
371.000000	5.235800
370.000000	5.283800
369.000000	5.086700
368.000000	5.171200
367.000000	5.161700
366.000000	5.256900
365.000000	5.216600
364.000000	5.256300
363.000000	5.106300
362.000000	5.054900
361.000000	5.150200
360.000000	5.127900
359.000000	4.911100
358.000000	5.015900
357.000000	5.080900
356.000000	5.051900
355.000000	5.097100
354.000000	5.005800
353.000000	5.102100
352.000000	5.155100
351.000000	5.183100
350.000000	5.013100
349.000000	5.147100
348.000000	5.062300
347.000000	4.958200
346.000000	5.003200
345.000000	5.012000
344.000000	5.100400
343.000000	4.830300
342.000000	4.979100
341.000000	5.075400
340.000000	5.028900
339.000000	4.940800
338.000000	5.057500
337.000000	5.049000
336.000000	4.875600
335.000000	4.960800
334.000000	4.787900
333.000000	5.227400
332.000000	5.201000
331.000000	5.033800
330.000000	4.856700
329.000000	5.207500
328.000000	5.197300
327.000000	5.296900
326.000000	5.111100
325.000000	5.033000
324.000000	5.468400
323.000000	5.279100
322.000000	5.399400
321.000000	5.214700
320.000000	5.816800
319.000000	5.385900
318.000000	5.630400
317.000000	5.859400
316.000000	4.941500
315.000000	4.917600
314.000000	4.978700
313.000000	4.943700
312.000000	4.934200
311.000000	4.844900
310.000000	4.921500
309.000000	4.933600
308.000000	4.920800
307.000000	4.919100
306.000000	4.923700
305.000000	4.933100
304.000000	4.928400
303.000000	4.931200
302.000000	4.941500
301.000000	4.989100
300.000000	4.934000
299.000000	4.942700
298.000000	4.963400
297.000000	4.971500
296.000000	4.929300
295.000000	5.014900
294.000000	4.984300
293.000000	4.999300
292.000000	5.044400
291.000000	5.029500
290.000000	4.978100
289.000000	5.005900
288.000000	5.020900
287.000000	5.068200
286.000000	5.014900
285.000000	5.079700
284.000000	5.053400
283.000000	5.099200
282.000000	5.098400
281.000000	5.122400
280.000000	5.116400
279.000000	5.140100
278.000000	5.135300
277.000000	5.114600
276.000000	5.210000
275.000000	5.216700
274.000000	5.146300
273.000000	5.201600
272.000000	5.202900
271.000000	5.211100
270.000000	5.204200
269.000000	5.254900
268.000000	5.325200
267.000000	5.267600
266.000000	5.405200
265.000000	5.350100
264.000000	5.347500
263.000000	5.350800
262.000000	5.395600
261.000000	5.490600
260.000000	5.464900
259.000000	5.466200
258.000000	5.492400
257.000000	5.426800
256.000000	5.505900
255.000000	5.525700
254.000000	5.515000
253.000000	5.516600
252.000000	5.512600
251.000000	5.580800
250.000000	5.579700
