PE UV       SUBTECH     SPECTRUM    ASCII       PEDS        4.00        
   -1
CICIMAUCR0002-2.Sample.ASC
24/05/03
14:12:31.00
24/05/03
14:12:31.00
Vinicio Soto Monge
C. kalinini
250,000000
1
Lambda 1050
1050L1511233
PerkinElmer UV WinLab 6.3.2.0749 / 2.02.05 Lambda 900 UV/VIS/NIR, Aug  7 2015 09:38:08

0
0
3350/servo 860,8/2
0
0
UV/VIS
1
1
1
DoubleDePol,CommonBeamDepol,RBeamAtt,SBeamAtt,60mm sphere, WB InGaAs Detector
0
0
0
0
Program
Program
3350/servo 860,8/2
3350/0,2 860,8/0,2
3350/0,2 860,8/0,2
0
15.00
 
 
 
0
 
860,8
319,2
860,8
Front
100
on
S:100 R:100
0
0
0
0
 
0
 
 
 
0
 
 
0
0
0
0
0
 
 
 
 
0
0


0
0
#HDR
-1
-1
#GR
nm
%R
1.0
0.0
2500,000000
-1,000000
2251
8
99,661500
5,320700
#DATA
2500.000000	8.519682
2499.000000	8.337518
2498.000000	8.519891
2497.000000	8.420652
2496.000000	8.471370
2495.000000	8.386562
2494.000000	8.374118
2493.000000	8.170725
2492.000000	8.339714
2491.000000	8.266409
2490.000000	8.131302
2489.000000	8.230018
2488.000000	8.203979
2487.000000	8.174595
2486.000000	8.205443
2485.000000	8.171457
2484.000000	8.215482
2483.000000	8.110074
2482.000000	8.116139
2481.000000	8.152530
2480.000000	8.118021
2479.000000	8.189758
2478.000000	8.140504
2477.000000	8.169575
2476.000000	8.166961
2475.000000	8.142073
2474.000000	8.146360
2473.000000	8.177000
2472.000000	8.178046
2471.000000	8.147197
2470.000000	8.160373
2469.000000	8.234933
2468.000000	8.233364
2467.000000	8.223953
2466.000000	8.271219
2465.000000	8.240057
2464.000000	8.274670
2463.000000	8.333126
2462.000000	8.362719
2461.000000	8.426508
2460.000000	8.490297
2459.000000	8.505774
2458.000000	8.552727
2457.000000	8.604071
2456.000000	8.679782
2455.000000	8.738342
2454.000000	8.802131
2453.000000	8.916428
2452.000000	8.941734
2451.000000	9.026437
2450.000000	9.109781
2449.000000	9.170851
2448.000000	9.226797
2447.000000	9.335029
2446.000000	9.392125
2445.000000	9.489168
2444.000000	9.566760
2443.000000	9.679803
2442.000000	9.723618
2441.000000	9.800269
2440.000000	9.882358
2439.000000	9.946147
2438.000000	10.021648
2437.000000	10.103737
2436.000000	10.163970
2435.000000	10.233093
2434.000000	10.298868
2433.000000	10.358997
2432.000000	10.417348
2431.000000	10.490862
2430.000000	10.545553
2429.000000	10.589369
2428.000000	10.626701
2427.000000	10.680033
2426.000000	10.720084
2425.000000	10.763167
2424.000000	10.795271
2423.000000	10.833126
2422.000000	10.865648
2421.000000	10.897752
2420.000000	10.943868
2419.000000	10.971893
2418.000000	10.979318
2417.000000	11.019264
2416.000000	11.054505
2415.000000	11.075315
2414.000000	11.087654
2413.000000	11.123418
2412.000000	11.136385
2411.000000	11.161273
2410.000000	11.198082
2409.000000	11.229976
2408.000000	11.244930
2407.000000	11.263544
2406.000000	11.278812
2405.000000	11.300353
2404.000000	11.328379
2403.000000	11.359855
2402.000000	11.388821
2401.000000	11.406808
2400.000000	11.434415
2399.000000	11.472060
2398.000000	11.511693
2397.000000	11.573495
2396.000000	11.610409
2395.000000	11.616265
2394.000000	11.638225
2393.000000	11.669388
2392.000000	11.686328
2391.000000	11.707661
2390.000000	11.704105
2389.000000	11.727425
2388.000000	11.760783
2387.000000	11.742274
2386.000000	11.731399
2385.000000	11.739764
2384.000000	11.739346
2383.000000	11.733281
2382.000000	11.728471
2381.000000	11.713831
2380.000000	11.687897
2379.000000	11.675244
2378.000000	11.650983
2377.000000	11.623481
2376.000000	11.600475
2375.000000	11.576946
2374.000000	11.549444
2373.000000	11.519536
2372.000000	11.473943
2371.000000	11.433160
2370.000000	11.401893
2369.000000	11.344483
2368.000000	11.279753
2367.000000	11.225271
2366.000000	11.170998
2365.000000	11.105431
2364.000000	11.035891
2363.000000	10.977435
2362.000000	10.910718
2361.000000	10.833754
2360.000000	10.760971
2359.000000	10.693627
2358.000000	10.639877
2357.000000	10.598990
2356.000000	10.567827
2355.000000	10.534260
2354.000000	10.497973
2353.000000	10.483438
2352.000000	10.494627
2351.000000	10.501006
2350.000000	10.509894
2349.000000	10.522652
2348.000000	10.565108
2347.000000	10.589996
2346.000000	10.617290
2345.000000	10.661210
2344.000000	10.703457
2343.000000	10.733887
2342.000000	10.764945
2341.000000	10.801127
2340.000000	10.833544
2339.000000	10.849962
2338.000000	10.837727
2337.000000	10.819950
2336.000000	10.808656
2335.000000	10.793598
2334.000000	10.762435
2333.000000	10.741312
2332.000000	10.716528
2331.000000	10.651903
2330.000000	10.585291
2329.000000	10.532900
2328.000000	10.471935
2327.000000	10.398944
2326.000000	10.319469
2325.000000	10.223367
2324.000000	10.132285
2323.000000	10.038589
2322.000000	9.940814
2321.000000	9.843353
2320.000000	9.735226
2319.000000	9.613504
2318.000000	9.494710
2317.000000	9.377485
2316.000000	9.253672
2315.000000	9.152237
2314.000000	9.051639
2313.000000	8.956479
2312.000000	8.868325
2311.000000	8.795438
2310.000000	8.727048
2309.000000	8.690448
2308.000000	8.658135
2307.000000	8.640881
2306.000000	8.650292
2305.000000	8.652279
2304.000000	8.686997
2303.000000	8.734995
2302.000000	8.808823
2301.000000	8.864246
2300.000000	8.940375
2299.000000	9.037940
2298.000000	9.123689
2297.000000	9.206406
2296.000000	9.299370
2295.000000	9.348728
2294.000000	9.416281
2293.000000	9.492723
2292.000000	9.549611
2291.000000	9.584328
2290.000000	9.602419
2289.000000	9.624798
2288.000000	9.615177
2287.000000	9.621556
2286.000000	9.606393
2285.000000	9.588407
2284.000000	9.563832
2283.000000	9.518866
2282.000000	9.490841
2281.000000	9.456123
2280.000000	9.422974
2279.000000	9.375708
2278.000000	9.325095
2277.000000	9.298011
2276.000000	9.285567
2275.000000	9.271554
2274.000000	9.260783
2273.000000	9.261829
2272.000000	9.267057
2271.000000	9.302403
2270.000000	9.331892
2269.000000	9.391916
2268.000000	9.469195
2267.000000	9.549297
2266.000000	9.673947
2265.000000	9.792427
2264.000000	9.944683
2263.000000	10.137514
2262.000000	10.327730
2261.000000	10.531854
2260.000000	10.757730
2259.000000	10.984651
2258.000000	11.243885
2257.000000	11.498726
2256.000000	11.742483
2255.000000	12.036226
2254.000000	12.271408
2253.000000	12.536812
2252.000000	12.778895
2251.000000	13.014496
2250.000000	13.225313
2249.000000	13.446273
2248.000000	13.646947
2247.000000	13.841241
2246.000000	14.031039
2245.000000	14.181937
2244.000000	14.333148
2243.000000	14.469091
2242.000000	14.601061
2241.000000	14.716613
2240.000000	14.839171
2239.000000	14.933077
2238.000000	15.028864
2237.000000	15.090771
2236.000000	15.169200
2235.000000	15.238008
2234.000000	15.279314
2233.000000	15.329195
2232.000000	15.379599
2231.000000	15.411911
2230.000000	15.451440
2229.000000	15.450080
2228.000000	15.458446
2227.000000	15.437636
2226.000000	15.434708
2225.000000	15.415885
2224.000000	15.417767
2223.000000	15.370187
2222.000000	15.341221
2221.000000	15.319052
2220.000000	15.268752
2219.000000	15.247629
2218.000000	15.215734
2217.000000	15.171291
2216.000000	15.124966
2215.000000	15.090562
2214.000000	15.055112
2213.000000	15.008996
2212.000000	14.957546
2211.000000	14.912371
2210.000000	14.884974
2209.000000	14.869288
2208.000000	14.823904
2207.000000	14.793369
2206.000000	14.783225
2205.000000	14.753945
2204.000000	14.730835
2203.000000	14.693607
2202.000000	14.694444
2201.000000	14.674784
2200.000000	14.646027
2199.000000	14.634628
2198.000000	14.606812
2197.000000	14.611413
2196.000000	14.582447
2195.000000	14.571676
2194.000000	14.564042
2193.000000	14.546579
2192.000000	14.526187
2191.000000	14.516567
2190.000000	14.499103
2189.000000	14.481640
2188.000000	14.462921
2187.000000	14.453614
2186.000000	14.441589
2185.000000	14.442530
2184.000000	14.403838
2183.000000	14.385643
2182.000000	14.377172
2181.000000	14.348624
2180.000000	14.356781
2179.000000	14.343500
2178.000000	14.326246
2177.000000	14.317776
2176.000000	14.315684
2175.000000	14.326350
2174.000000	14.329801
2173.000000	14.344232
2172.000000	14.366611
2171.000000	14.370271
2170.000000	14.366401
2169.000000	14.400178
2168.000000	14.436883
2167.000000	14.450268
2166.000000	14.483104
2165.000000	14.513639
2164.000000	14.531311
2163.000000	14.555258
2162.000000	14.589976
2161.000000	14.635151
2160.000000	14.677607
2159.000000	14.720900
2158.000000	14.763252
2157.000000	14.813133
2156.000000	14.868660
2155.000000	14.910280
2154.000000	14.974696
2153.000000	15.033256
2152.000000	15.104261
2151.000000	15.156965
2150.000000	15.202349
2149.000000	15.257772
2148.000000	15.326058
2147.000000	15.395494
2146.000000	15.463152
2145.000000	15.517634
2144.000000	15.561031
2143.000000	15.618232
2142.000000	15.654414
2141.000000	15.705654
2140.000000	15.745182
2139.000000	15.776867
2138.000000	15.833964
2137.000000	15.887923
2136.000000	15.923582
2135.000000	15.960391
2134.000000	15.983501
2133.000000	16.002429
2132.000000	16.026271
2131.000000	16.050114
2130.000000	16.069250
2129.000000	16.080335
2128.000000	16.098844
2127.000000	16.109197
2126.000000	16.106478
2125.000000	16.117458
2124.000000	16.117249
2123.000000	16.114739
2122.000000	16.101981
2121.000000	16.080126
2120.000000	16.073433
2119.000000	16.065381
2118.000000	16.041643
2117.000000	16.016442
2116.000000	15.994900
2115.000000	15.972521
2114.000000	15.935712
2113.000000	15.902667
2112.000000	15.882485
2111.000000	15.852996
2110.000000	15.812526
2109.000000	15.775090
2108.000000	15.744136
2107.000000	15.718725
2106.000000	15.696033
2105.000000	15.663616
2104.000000	15.633290
2103.000000	15.601500
2102.000000	15.580063
2101.000000	15.544195
2100.000000	15.496615
2099.000000	15.471831
2098.000000	15.446525
2097.000000	15.438159
2096.000000	15.426656
2095.000000	15.394657
2094.000000	15.373847
2093.000000	15.372279
2092.000000	15.346868
2091.000000	15.324071
2090.000000	15.326790
2089.000000	15.306398
2088.000000	15.285902
2087.000000	15.278373
2086.000000	15.262792
2085.000000	15.240413
2084.000000	15.209042
2083.000000	15.185618
2082.000000	15.173801
2081.000000	15.137828
2080.000000	15.098509
2079.000000	15.065674
2078.000000	15.037544
2077.000000	14.985781
2076.000000	14.936946
2075.000000	14.906934
2074.000000	14.862804
2073.000000	14.813446
2072.000000	14.763356
2071.000000	14.710443
2070.000000	14.658680
2069.000000	14.602002
2068.000000	14.531625
2067.000000	14.482058
2066.000000	14.430609
2065.000000	14.387107
2064.000000	14.337644
2063.000000	14.296547
2062.000000	14.245516
2061.000000	14.211844
2060.000000	14.183087
2059.000000	14.148892
2058.000000	14.137180
2057.000000	14.155585
2056.000000	14.165519
2055.000000	14.188211
2054.000000	14.228785
2053.000000	14.284417
2052.000000	14.334612
2051.000000	14.422243
2050.000000	14.521795
2049.000000	14.644354
2048.000000	14.774127
2047.000000	14.900868
2046.000000	15.049570
2045.000000	15.197748
2044.000000	15.371024
2043.000000	15.532378
2042.000000	15.696451
2041.000000	15.861152
2040.000000	16.027003
2039.000000	16.191809
2038.000000	16.354836
2037.000000	16.512531
2036.000000	16.659245
2035.000000	16.804182
2034.000000	16.954347
2033.000000	17.083911
2032.000000	17.219960
2031.000000	17.347746
2030.000000	17.449599
2029.000000	17.551662
2028.000000	17.660312
2027.000000	17.780988
2026.000000	17.872697
2025.000000	17.972877
2024.000000	18.071175
2023.000000	18.165290
2022.000000	18.251875
2021.000000	18.353101
2020.000000	18.422536
2019.000000	18.480992
2018.000000	18.577303
2017.000000	18.641405
2016.000000	18.696201
2015.000000	18.763127
2014.000000	18.793453
2013.000000	18.838314
2012.000000	18.906286
2011.000000	18.931697
2010.000000	18.978441
2009.000000	19.022361
2008.000000	19.034909
2007.000000	19.042648
2006.000000	19.055719
2005.000000	19.057288
2004.000000	19.065444
2003.000000	19.059484
2002.000000	19.039301
2001.000000	19.029576
2000.000000	18.999146
1999.000000	18.992976
1998.000000	18.943514
1997.000000	18.933370
1996.000000	18.879725
1995.000000	18.843229
1994.000000	18.791675
1993.000000	18.757062
1992.000000	18.683025
1991.000000	18.635236
1990.000000	18.562244
1989.000000	18.495214
1988.000000	18.429020
1987.000000	18.339193
1986.000000	18.271430
1985.000000	18.197707
1984.000000	18.102965
1983.000000	18.029032
1982.000000	17.969635
1981.000000	17.886501
1980.000000	17.796569
1979.000000	17.715839
1978.000000	17.620993
1977.000000	17.555426
1976.000000	17.464344
1975.000000	17.411431
1974.000000	17.331119
1973.000000	17.241815
1972.000000	17.165268
1971.000000	17.117270
1970.000000	16.991574
1969.000000	16.937929
1968.000000	16.860128
1967.000000	16.790587
1966.000000	16.731086
1965.000000	16.659663
1964.000000	16.593678
1963.000000	16.504792
1962.000000	16.430755
1961.000000	16.368744
1960.000000	16.283832
1959.000000	16.208122
1958.000000	16.141719
1957.000000	16.077302
1956.000000	16.003684
1955.000000	15.932679
1954.000000	15.839506
1953.000000	15.783246
1952.000000	15.702308
1951.000000	15.638310
1950.000000	15.582782
1949.000000	15.502052
1948.000000	15.458132
1947.000000	15.388383
1946.000000	15.379703
1945.000000	15.336097
1944.000000	15.308385
1943.000000	15.277536
1942.000000	15.257459
1941.000000	15.267498
1940.000000	15.231420
1939.000000	15.231211
1938.000000	15.260178
1937.000000	15.268543
1936.000000	15.289353
1935.000000	15.314555
1934.000000	15.375520
1933.000000	15.423833
1932.000000	15.510627
1931.000000	15.584873
1930.000000	15.680870
1929.000000	15.762436
1928.000000	15.873596
1927.000000	15.961332
1926.000000	16.078662
1925.000000	16.219206
1924.000000	16.355882
1923.000000	16.496949
1922.000000	16.688525
1921.000000	16.877068
1920.000000	17.054108
1919.000000	17.219123
1918.000000	17.415195
1917.000000	17.620365
1916.000000	17.821039
1915.000000	18.042104
1914.000000	18.270384
1913.000000	18.555029
1912.000000	18.799204
1911.000000	19.052164
1910.000000	19.305855
1909.000000	19.565298
1908.000000	19.829238
1907.000000	20.124967
1906.000000	20.454891
1905.000000	20.759300
1904.000000	21.106479
1903.000000	21.418312
1902.000000	21.725858
1901.000000	22.040097
1900.000000	22.412477
1899.000000	22.735709
1898.000000	23.048065
1897.000000	23.369206
1896.000000	23.664935
1895.000000	23.959828
1894.000000	24.270929
1893.000000	24.622709
1892.000000	24.973443
1891.000000	25.313197
1890.000000	25.636743
1889.000000	25.961961
1888.000000	26.299310
1887.000000	26.654123
1886.000000	27.027549
1885.000000	27.421785
1884.000000	27.862346
1883.000000	28.326646
1882.000000	28.762711
1881.000000	29.226801
1880.000000	29.654604
1879.000000	30.061180
1878.000000	30.465873
1877.000000	30.832084
1876.000000	31.174871
1875.000000	31.505945
1874.000000	31.804603
1873.000000	32.076489
1872.000000	32.329135
1871.000000	32.520920
1870.000000	32.674745
1869.000000	32.824806
1868.000000	32.909614
1867.000000	32.969324
1866.000000	33.012513
1865.000000	33.058838
1864.000000	33.097111
1863.000000	33.141136
1862.000000	33.197396
1861.000000	33.230336
1860.000000	33.238806
1859.000000	33.234100
1858.000000	33.226885
1857.000000	33.194886
1856.000000	33.150547
1855.000000	33.110810
1854.000000	33.043989
1853.000000	32.958031
1852.000000	32.900412
1851.000000	32.854714
1850.000000	32.801382
1849.000000	32.756207
1848.000000	32.681124
1847.000000	32.576657
1846.000000	32.485156
1845.000000	32.416034
1844.000000	32.359566
1843.000000	32.349631
1842.000000	32.334468
1841.000000	32.286156
1840.000000	32.245791
1839.000000	32.194028
1838.000000	32.120201
1837.000000	32.039366
1836.000000	31.968571
1835.000000	31.883031
1834.000000	31.778460
1833.000000	31.695429
1832.000000	31.614073
1831.000000	31.544951
1830.000000	31.475515
1829.000000	31.390080
1828.000000	31.295547
1827.000000	31.228516
1826.000000	31.174871
1825.000000	31.101043
1824.000000	31.077096
1823.000000	31.096128
1822.000000	31.096023
1821.000000	31.074586
1820.000000	31.043215
1819.000000	31.007869
1818.000000	30.987582
1817.000000	31.000445
1816.000000	30.997621
1815.000000	30.973047
1814.000000	30.962380
1813.000000	30.947218
1812.000000	30.943348
1811.000000	30.925257
1810.000000	30.862723
1809.000000	30.814830
1808.000000	30.787118
1807.000000	30.732636
1806.000000	30.672507
1805.000000	30.623254
1804.000000	30.579856
1803.000000	30.549426
1802.000000	30.499545
1801.000000	30.447782
1800.000000	30.382529
1799.000000	30.319577
1798.000000	30.276912
1797.000000	30.242507
1796.000000	30.195973
1795.000000	30.133857
1794.000000	30.075402
1793.000000	30.019456
1792.000000	29.967588
1791.000000	29.922099
1790.000000	29.849108
1789.000000	29.784796
1788.000000	29.722262
1787.000000	29.651258
1786.000000	29.582136
1785.000000	29.514060
1784.000000	29.420468
1783.000000	29.338379
1782.000000	29.232657
1781.000000	29.162071
1780.000000	29.070884
1779.000000	28.968403
1778.000000	28.837689
1777.000000	28.722346
1776.000000	28.588180
1775.000000	28.449622
1774.000000	28.304476
1773.000000	28.156507
1772.000000	27.995153
1771.000000	27.849484
1770.000000	27.686770
1769.000000	27.531586
1768.000000	27.399198
1767.000000	27.288142
1766.000000	27.187126
1765.000000	27.120513
1764.000000	27.088619
1763.000000	27.076907
1762.000000	27.104932
1761.000000	27.144670
1760.000000	27.211282
1759.000000	27.267437
1758.000000	27.335513
1757.000000	27.410073
1756.000000	27.470725
1755.000000	27.468529
1754.000000	27.504397
1753.000000	27.480241
1752.000000	27.447301
1751.000000	27.402648
1750.000000	27.342101
1749.000000	27.257293
1748.000000	27.165688
1747.000000	27.025771
1746.000000	26.867449
1745.000000	26.686749
1744.000000	26.477292
1743.000000	26.250266
1742.000000	25.989464
1741.000000	25.722283
1740.000000	25.456774
1739.000000	25.186874
1738.000000	24.952842
1737.000000	24.741503
1736.000000	24.607337
1735.000000	24.523470
1734.000000	24.467629
1733.000000	24.461250
1732.000000	24.503079
1731.000000	24.577429
1730.000000	24.686184
1729.000000	24.796717
1728.000000	24.884766
1727.000000	24.968424
1726.000000	25.067453
1725.000000	25.136262
1724.000000	25.166065
1723.000000	25.212076
1722.000000	25.245330
1721.000000	25.299289
1720.000000	25.378555
1719.000000	25.474865
1718.000000	25.570235
1717.000000	25.679826
1716.000000	25.803012
1715.000000	25.906956
1714.000000	26.009855
1713.000000	26.133459
1712.000000	26.212725
1711.000000	26.284461
1710.000000	26.320643
1709.000000	26.346263
1708.000000	26.361635
1707.000000	26.359648
1706.000000	26.360067
1705.000000	26.302238
1704.000000	26.253612
1703.000000	26.185118
1702.000000	26.083578
1701.000000	25.959452
1700.000000	25.777496
1699.000000	25.634756
1698.000000	25.497348
1697.000000	25.414737
1696.000000	25.347392
1695.000000	25.364333
1694.000000	25.410031
1693.000000	25.536772
1692.000000	25.666441
1691.000000	25.824972
1690.000000	25.976392
1689.000000	26.032443
1688.000000	26.062246
1687.000000	26.100414
1686.000000	26.151550
1685.000000	26.235312
1684.000000	26.399490
1683.000000	26.727428
1682.000000	27.152094
1681.000000	27.692522
1680.000000	28.284399
1679.000000	28.879622
1678.000000	29.468989
1677.000000	29.954726
1676.000000	30.430528
1675.000000	30.823823
1674.000000	31.199968
1673.000000	31.503331
1672.000000	31.798851
1671.000000	32.046896
1670.000000	32.285738
1669.000000	32.471039
1668.000000	32.660105
1667.000000	32.818323
1666.000000	32.942345
1665.000000	33.068772
1664.000000	33.198128
1663.000000	33.288792
1662.000000	33.391167
1661.000000	33.489988
1660.000000	33.553777
1659.000000	33.615474
1658.000000	33.671525
1657.000000	33.683655
1656.000000	33.707811
1655.000000	33.743052
1654.000000	33.747235
1653.000000	33.733118
1652.000000	33.733327
1651.000000	33.718477
1650.000000	33.684596
1649.000000	33.659917
1648.000000	33.616206
1647.000000	33.568731
1646.000000	33.515713
1645.000000	33.476707
1644.000000	33.408004
1643.000000	33.377259
1642.000000	33.316503
1641.000000	33.255015
1640.000000	33.206180
1639.000000	33.134339
1638.000000	33.067622
1637.000000	32.997036
1636.000000	32.930110
1635.000000	32.864648
1634.000000	32.786742
1633.000000	32.711659
1632.000000	32.628002
1631.000000	32.531168
1630.000000	32.445001
1629.000000	32.356115
1628.000000	32.285006
1627.000000	32.203754
1626.000000	32.109848
1625.000000	32.013119
1624.000000	31.932180
1623.000000	31.842353
1622.000000	31.758800
1621.000000	31.693338
1620.000000	31.598178
1619.000000	31.521631
1618.000000	31.434523
1617.000000	31.330683
1616.000000	31.270136
1615.000000	31.205510
1614.000000	31.119447
1613.000000	31.042064
1612.000000	30.971687
1611.000000	30.889076
1610.000000	30.811379
1609.000000	30.742361
1608.000000	30.663096
1607.000000	30.598157
1606.000000	30.513349
1605.000000	30.441299
1604.000000	30.364438
1603.000000	30.289356
1602.000000	30.220129
1601.000000	30.146406
1600.000000	30.069023
1599.000000	30.003665
1598.000000	29.940504
1597.000000	29.878284
1596.000000	29.813449
1595.000000	29.755412
1594.000000	29.706054
1593.000000	29.657846
1592.000000	29.607129
1591.000000	29.565195
1590.000000	29.527863
1589.000000	29.490740
1588.000000	29.448911
1587.000000	29.416703
1586.000000	29.399240
1585.000000	29.381149
1584.000000	29.340575
1583.000000	29.322484
1582.000000	29.311713
1581.000000	29.291321
1580.000000	29.282015
1579.000000	29.282537
1578.000000	29.281073
1577.000000	29.284001
1576.000000	29.311713
1575.000000	29.325307
1574.000000	29.335555
1573.000000	29.370273
1572.000000	29.403527
1571.000000	29.431343
1570.000000	29.473172
1569.000000	29.514478
1568.000000	29.553797
1567.000000	29.593953
1566.000000	29.632540
1565.000000	29.668931
1564.000000	29.691936
1563.000000	29.727073
1562.000000	29.762209
1561.000000	29.795881
1560.000000	29.821815
1559.000000	29.835514
1558.000000	29.841893
1557.000000	29.857997
1556.000000	29.876924
1555.000000	29.865630
1554.000000	29.847539
1553.000000	29.838337
1552.000000	29.831122
1551.000000	29.805502
1550.000000	29.776849
1549.000000	29.755412
1548.000000	29.733033
1547.000000	29.698420
1546.000000	29.674368
1545.000000	29.662970
1544.000000	29.652199
1543.000000	29.631389
1542.000000	29.627311
1541.000000	29.623651
1540.000000	29.603991
1539.000000	29.614240
1538.000000	29.621350
1537.000000	29.605560
1536.000000	29.594475
1535.000000	29.591234
1534.000000	29.571992
1533.000000	29.547627
1532.000000	29.524935
1531.000000	29.507472
1530.000000	29.488858
1529.000000	29.457277
1528.000000	29.446297
1527.000000	29.412625
1526.000000	29.391815
1525.000000	29.363058
1524.000000	29.317778
1523.000000	29.287452
1522.000000	29.253257
1521.000000	29.210278
1520.000000	29.177547
1519.000000	29.148895
1518.000000	29.105916
1517.000000	29.071720
1516.000000	29.041918
1515.000000	29.012637
1514.000000	28.965057
1513.000000	28.917477
1512.000000	28.885164
1511.000000	28.841035
1510.000000	28.790527
1509.000000	28.750580
1508.000000	28.716803
1507.000000	28.663263
1506.000000	28.611186
1505.000000	28.584625
1504.000000	28.548652
1503.000000	28.513097
1502.000000	28.487373
1501.000000	28.463112
1500.000000	28.461439
1499.000000	28.439479
1498.000000	28.420133
1497.000000	28.408630
1496.000000	28.399951
1495.000000	28.409153
1494.000000	28.410408
1493.000000	28.426094
1492.000000	28.439479
1491.000000	28.468550
1490.000000	28.472210
1489.000000	28.490928
1488.000000	28.509751
1487.000000	28.515712
1486.000000	28.539554
1485.000000	28.560468
1484.000000	28.582219
1483.000000	28.630113
1482.000000	28.655001
1481.000000	28.708856
1480.000000	28.752462
1479.000000	28.809036
1478.000000	28.847100
1477.000000	28.903778
1476.000000	28.953345
1475.000000	29.012533
1474.000000	29.109680
1473.000000	29.185599
1472.000000	29.248552
1471.000000	29.296655
1470.000000	29.380208
1469.000000	29.421514
1468.000000	29.487603
1467.000000	29.579731
1466.000000	29.647807
1465.000000	29.701034
1464.000000	29.788665
1463.000000	29.869290
1462.000000	29.963719
1461.000000	30.042357
1460.000000	30.135949
1459.000000	30.233514
1458.000000	30.363393
1457.000000	30.476958
1456.000000	30.577556
1455.000000	30.688716
1454.000000	30.810960
1453.000000	30.943662
1452.000000	31.074795
1451.000000	31.217431
1450.000000	31.319912
1449.000000	31.428353
1448.000000	31.591903
1447.000000	31.727638
1446.000000	31.875607
1445.000000	32.011237
1444.000000	32.135991
1443.000000	32.291176
1442.000000	32.420531
1441.000000	32.565572
1440.000000	32.729959
1439.000000	32.873223
1438.000000	33.015754
1437.000000	33.149815
1436.000000	33.282413
1435.000000	33.426931
1434.000000	33.591318
1433.000000	33.742634
1432.000000	33.870630
1431.000000	34.051330
1430.000000	34.223873
1429.000000	34.432076
1428.000000	34.640174
1427.000000	34.843671
1426.000000	35.112316
1425.000000	35.341643
1424.000000	35.603909
1423.000000	35.840660
1422.000000	36.087031
1421.000000	36.348984
1420.000000	36.643249
1419.000000	36.857308
1418.000000	37.085588
1417.000000	37.338129
1416.000000	37.608448
1415.000000	37.900412
1414.000000	38.161528
1413.000000	38.386044
1412.000000	38.610142
1411.000000	38.936824
1410.000000	39.291846
1409.000000	39.650841
1408.000000	40.048842
1407.000000	40.423942
1406.000000	40.831772
1405.000000	41.236883
1404.000000	41.672216
1403.000000	42.048257
1402.000000	42.438101
1401.000000	42.885355
1400.000000	43.211515
1399.000000	43.422436
1398.000000	43.643710
1397.000000	43.910369
1396.000000	44.159773
1395.000000	44.297389
1394.000000	44.397046
1393.000000	44.531839
1392.000000	44.710448
1391.000000	44.874522
1390.000000	45.048948
1389.000000	45.324076
1388.000000	45.609244
1387.000000	45.893052
1386.000000	46.245355
1385.000000	46.631225
1384.000000	47.023474
1383.000000	47.401606
1382.000000	47.665964
1381.000000	47.848756
1380.000000	47.915368
1379.000000	47.984281
1378.000000	48.029874
1377.000000	48.138211
1376.000000	48.278023
1375.000000	48.495010
1374.000000	48.793667
1373.000000	49.171276
1372.000000	49.544598
1371.000000	49.929527
1370.000000	50.267608
1369.000000	50.609454
1368.000000	50.907588
1367.000000	51.157515
1366.000000	51.377430
1365.000000	51.588665
1364.000000	51.761313
1363.000000	51.941386
1362.000000	52.098662
1361.000000	52.175209
1360.000000	52.187653
1359.000000	52.282186
1358.000000	52.417188
1357.000000	52.670671
1356.000000	53.062606
1355.000000	53.593831
1354.000000	54.201185
1353.000000	54.823806
1352.000000	55.469537
1351.000000	56.104916
1350.000000	56.676297
1349.000000	57.196438
1348.000000	57.701834
1347.000000	58.160695
1346.000000	58.597701
1345.000000	59.023727
1344.000000	59.412526
1343.000000	59.781142
1342.000000	60.142437
1341.000000	60.478845
1340.000000	60.788796
1339.000000	61.088813
1338.000000	61.390294
1337.000000	61.674834
1336.000000	61.926852
1335.000000	62.167368
1334.000000	62.418863
1333.000000	62.639510
1332.000000	62.844680
1331.000000	63.047759
1330.000000	63.243831
1329.000000	63.425995
1328.000000	63.587872
1327.000000	63.751632
1326.000000	63.901484
1325.000000	64.041296
1324.000000	64.168351
1323.000000	64.302621
1322.000000	64.439506
1321.000000	64.565306
1320.000000	64.666113
1319.000000	64.767443
1318.000000	64.865427
1317.000000	64.963307
1316.000000	65.041422
1315.000000	65.135641
1314.000000	65.227664
1313.000000	65.282042
1312.000000	65.349909
1311.000000	65.419240
1310.000000	65.480415
1309.000000	65.539602
1308.000000	65.580385
1307.000000	65.610816
1306.000000	65.642606
1305.000000	65.665193
1304.000000	65.682552
1303.000000	65.683598
1302.000000	65.678265
1301.000000	65.679415
1300.000000	65.673141
1299.000000	65.664775
1298.000000	65.663625
1297.000000	65.641142
1296.000000	65.617613
1295.000000	65.591261
1294.000000	65.563027
1293.000000	65.537825
1292.000000	65.502479
1291.000000	65.443501
1290.000000	65.383999
1289.000000	65.333387
1288.000000	65.262591
1287.000000	65.178411
1286.000000	65.094335
1285.000000	65.005972
1284.000000	64.921896
1283.000000	64.834579
1282.000000	64.737536
1281.000000	64.645094
1280.000000	64.548575
1279.000000	64.455506
1278.000000	64.371221
1277.000000	64.295824
1276.000000	64.230362
1275.000000	64.155280
1274.000000	64.087831
1273.000000	64.029584
1272.000000	63.975102
1271.000000	63.923130
1270.000000	63.855681
1269.000000	63.802454
1268.000000	63.750900
1267.000000	63.697150
1266.000000	63.641727
1265.000000	63.573755
1264.000000	63.515718
1263.000000	63.463327
1262.000000	63.411983
1261.000000	63.347462
1260.000000	63.292875
1259.000000	63.237138
1258.000000	63.179205
1257.000000	63.123155
1256.000000	63.061144
1255.000000	62.994427
1254.000000	62.905645
1253.000000	62.839556
1252.000000	62.756003
1251.000000	62.649026
1250.000000	62.562859
1249.000000	62.457764
1248.000000	62.313978
1247.000000	62.192988
1246.000000	62.057358
1245.000000	61.887638
1244.000000	61.726702
1243.000000	61.565034
1242.000000	61.385065
1241.000000	61.220887
1240.000000	61.043847
1239.000000	60.846834
1238.000000	60.630579
1237.000000	60.438585
1236.000000	60.235402
1235.000000	60.024062
1234.000000	59.822866
1233.000000	59.612258
1232.000000	59.398408
1231.000000	59.192820
1230.000000	58.976356
1229.000000	58.764703
1228.000000	58.542383
1227.000000	58.334494
1226.000000	58.128278
1225.000000	57.901566
1224.000000	57.702252
1223.000000	57.508167
1222.000000	57.307807
1221.000000	57.097617
1220.000000	56.922982
1219.000000	56.751798
1218.000000	56.602574
1217.000000	56.447285
1216.000000	56.303080
1215.000000	56.168078
1214.000000	56.044578
1213.000000	55.938124
1212.000000	55.840872
1211.000000	55.728144
1210.000000	55.624304
1209.000000	55.531967
1208.000000	55.446218
1207.000000	55.370194
1206.000000	55.336313
1205.000000	55.323660
1204.000000	55.299922
1203.000000	55.267295
1202.000000	55.236447
1201.000000	55.211140
1200.000000	55.145365
1199.000000	55.048740
1198.000000	54.881425
1197.000000	54.698738
1196.000000	54.457491
1195.000000	54.146180
1194.000000	53.752049
1193.000000	53.303121
1192.000000	52.782458
1191.000000	52.272565
1190.000000	51.804501
1189.000000	51.444042
1188.000000	51.161803
1187.000000	51.042486
1186.000000	51.074590
1185.000000	51.231552
1184.000000	51.538052
1183.000000	51.964810
1182.000000	52.478363
1181.000000	53.039182
1180.000000	53.584420
1179.000000	54.104351
1178.000000	54.547736
1177.000000	54.933188
1176.000000	55.281413
1175.000000	55.622317
1174.000000	55.967718
1173.000000	56.318661
1172.000000	56.702545
1171.000000	57.075657
1170.000000	57.473135
1169.000000	57.891423
1168.000000	58.322050
1167.000000	58.731972
1166.000000	59.146495
1165.000000	59.612572
1164.000000	60.046336
1163.000000	60.509067
1162.000000	60.922753
1161.000000	61.352648
1160.000000	61.760165
1159.000000	62.179707
1158.000000	62.530337
1157.000000	62.847713
1156.000000	63.116567
1155.000000	63.340560
1154.000000	63.449942
1153.000000	63.506516
1152.000000	63.527325
1151.000000	63.524188
1150.000000	63.491875
1149.000000	63.482464
1148.000000	63.481837
1147.000000	63.558801
1146.000000	63.712313
1145.000000	63.955547
1144.000000	64.275328
1143.000000	64.634323
1142.000000	65.020507
1141.000000	65.417776
1140.000000	65.838469
1139.000000	66.268259
1138.000000	66.719173
1137.000000	67.174166
1136.000000	67.641916
1135.000000	68.073275
1134.000000	68.453708
1133.000000	68.818977
1132.000000	69.163123
1131.000000	69.471192
1130.000000	69.742765
1129.000000	69.985058
1128.000000	70.179562
1127.000000	70.327218
1126.000000	70.474037
1125.000000	70.566478
1124.000000	70.655051
1123.000000	70.739231
1122.000000	70.814732
1121.000000	70.848195
1120.000000	70.890128
1119.000000	70.928820
1118.000000	70.954231
1117.000000	70.946806
1116.000000	70.948793
1115.000000	70.937604
1114.000000	70.941891
1113.000000	70.914180
1112.000000	70.909056
1111.000000	70.910834
1110.000000	70.901213
1109.000000	70.891069
1108.000000	70.865345
1107.000000	70.850600
1106.000000	70.831045
1105.000000	70.807621
1104.000000	70.797582
1103.000000	70.770289
1102.000000	70.745715
1101.000000	70.728042
1100.000000	70.689559
1099.000000	70.655887
1098.000000	70.626816
1097.000000	70.604333
1096.000000	70.550583
1095.000000	70.522349
1094.000000	70.485749
1093.000000	70.449567
1092.000000	70.403242
1091.000000	70.350642
1090.000000	70.289572
1089.000000	70.250567
1088.000000	70.209261
1087.000000	70.149341
1086.000000	70.090153
1085.000000	70.046860
1084.000000	69.995411
1083.000000	69.953373
1082.000000	69.899832
1081.000000	69.849638
1080.000000	69.813770
1079.000000	69.765458
1078.000000	69.726975
1077.000000	69.693826
1076.000000	69.660258
1075.000000	69.633174
1074.000000	69.598665
1073.000000	69.556523
1072.000000	69.513858
1071.000000	69.486146
1070.000000	69.466696
1069.000000	69.443690
1068.000000	69.402384
1067.000000	69.375300
1066.000000	69.346020
1065.000000	69.304818
1064.000000	69.281708
1063.000000	69.259539
1062.000000	69.238624
1061.000000	69.216664
1060.000000	69.190730
1059.000000	69.159150
1058.000000	69.140640
1057.000000	69.103099
1056.000000	69.075074
1055.000000	69.065035
1054.000000	69.055519
1053.000000	69.032513
1052.000000	69.022788
1051.000000	69.011285
1050.000000	69.017559
1049.000000	69.017768
1048.000000	69.011076
1047.000000	69.011912
1046.000000	69.035859
1045.000000	69.054578
1044.000000	69.057087
1043.000000	69.065662
1042.000000	69.090028
1041.000000	69.120667
1040.000000	69.129033
1039.000000	69.134575
1038.000000	69.161764
1037.000000	69.175149
1036.000000	69.176090
1035.000000	69.178182
1034.000000	69.194704
1033.000000	69.196063
1032.000000	69.208717
1031.000000	69.223461
1030.000000	69.223775
1029.000000	69.230154
1028.000000	69.246258
1027.000000	69.256192
1026.000000	69.252114
1025.000000	69.259120
1024.000000	69.280871
1023.000000	69.277420
1022.000000	69.293629
1021.000000	69.319877
1020.000000	69.330229
1019.000000	69.366934
1018.000000	69.390149
1017.000000	69.440971
1016.000000	69.511871
1015.000000	69.573986
1014.000000	69.628364
1013.000000	69.696963
1012.000000	69.794633
1011.000000	69.879650
1010.000000	69.982862
1009.000000	70.080637
1008.000000	70.177994
1007.000000	70.295951
1006.000000	70.408156
1005.000000	70.510741
1004.000000	70.608516
1003.000000	70.724382
1002.000000	70.838261
1001.000000	70.952662
1000.000000	71.058071
999.000000	71.151663
998.000000	71.259476
997.000000	71.368754
996.000000	71.487129
995.000000	71.597975
994.000000	71.699306
993.000000	71.820400
992.000000	71.942017
991.000000	72.056314
990.000000	72.156180
989.000000	72.264517
988.000000	72.389376
987.000000	72.504196
986.000000	72.609395
985.000000	72.723692
984.000000	72.830983
983.000000	72.937437
982.000000	73.035735
981.000000	73.153587
980.000000	73.259728
979.000000	73.352483
978.000000	73.462911
977.000000	73.574907
976.000000	73.666303
975.000000	73.761568
974.000000	73.862166
973.000000	73.953248
972.000000	74.053219
971.000000	74.136668
970.000000	74.234024
969.000000	74.307433
968.000000	74.413260
967.000000	74.501728
966.000000	74.574092
965.000000	74.650429
964.000000	74.724675
963.000000	74.805823
962.000000	74.903807
961.000000	75.006287
960.000000	75.064116
959.000000	75.131355
958.000000	75.221287
957.000000	75.300553
956.000000	75.366538
955.000000	75.441307
954.000000	75.497462
953.000000	75.541382
952.000000	75.605589
951.000000	75.659757
950.000000	75.704619
949.000000	75.766002
948.000000	75.789845
947.000000	75.837216
946.000000	75.877581
945.000000	75.945552
944.000000	75.962598
943.000000	75.994492
942.000000	76.026805
941.000000	76.079300
940.000000	76.100319
939.000000	76.133573
938.000000	76.156578
937.000000	76.210015
936.000000	76.222668
935.000000	76.260314
934.000000	76.296077
933.000000	76.327449
932.000000	76.383290
931.000000	76.390192
930.000000	76.399499
929.000000	76.412884
928.000000	76.483366
927.000000	76.475732
926.000000	76.488071
925.000000	76.493823
924.000000	76.499992
923.000000	76.507103
922.000000	76.553638
921.000000	76.530005
920.000000	76.528959
919.000000	76.534083
918.000000	76.503234
917.000000	76.461928
916.000000	76.451680
915.000000	76.425537
914.000000	76.403682
913.000000	76.373983
912.000000	76.369173
911.000000	76.342821
910.000000	76.327553
909.000000	76.326508
908.000000	76.285306
907.000000	76.283842
906.000000	76.286143
905.000000	76.301620
904.000000	76.296496
903.000000	76.305384
902.000000	76.323789
901.000000	76.311868
900.000000	76.322429
899.000000	76.378480
898.000000	76.377225
897.000000	76.370114
896.000000	76.373983
895.000000	76.339893
894.000000	76.330481
893.000000	76.326089
892.000000	76.284052
891.000000	76.278718
890.000000	76.278928
889.000000	76.272967
888.000000	76.213256
887.000000	76.212106
886.000000	76.139742
885.000000	76.098123
884.000000	76.033916
883.000000	75.997734
882.000000	75.892221
881.000000	75.844745
880.000000	75.724906
879.000000	75.625249
878.000000	75.474770
877.000000	75.360054
876.000000	75.106676
875.000000	74.799863
874.000000	74.486356
873.000000	74.110106
872.000000	73.824207
871.000000	73.782796
870.000000	73.871159
869.000000	73.977823
868.000000	74.088983
867.000000	74.181843
866.000000	74.246991
865.000000	74.340583
864.000000	74.440344
863.000000	74.551818
862.000000	74.627319
861.000000	74.755733
860.000000	74.865638
859.000000	74.959753
858.000000	75.714867
857.000000	75.992300
856.000000	75.444200
855.000000	75.708100
854.000000	75.496400
853.000000	75.960700
852.000000	76.317500
851.000000	76.449300
850.000000	76.355300
849.000000	76.620500
848.000000	76.594800
847.000000	76.882900
846.000000	76.876700
845.000000	77.120800
844.000000	77.396200
843.000000	77.367400
842.000000	77.592000
841.000000	77.666900
840.000000	78.086300
839.000000	78.306600
838.000000	78.381200
837.000000	78.783200
836.000000	78.845500
835.000000	79.060700
834.000000	79.191600
833.000000	79.449600
832.000000	79.727500
831.000000	79.786100
830.000000	80.048200
829.000000	80.348800
828.000000	80.452200
827.000000	80.794900
826.000000	81.133200
825.000000	81.534900
824.000000	81.571800
823.000000	81.725400
822.000000	82.105100
821.000000	82.445200
820.000000	82.640500
819.000000	82.974200
818.000000	83.134800
817.000000	83.433800
816.000000	83.949200
815.000000	84.140600
814.000000	84.443600
813.000000	84.705800
812.000000	85.097800
811.000000	85.361700
810.000000	85.734600
809.000000	86.206300
808.000000	86.373800
807.000000	86.817600
806.000000	87.171400
805.000000	87.480600
804.000000	87.832800
803.000000	88.290300
802.000000	88.747200
801.000000	89.079600
800.000000	89.450900
799.000000	89.612100
798.000000	90.043300
797.000000	90.536500
796.000000	90.818100
795.000000	91.157400
794.000000	91.483400
793.000000	91.804100
792.000000	92.280200
791.000000	92.600800
790.000000	92.877900
789.000000	93.256800
788.000000	93.565700
787.000000	93.843600
786.000000	94.089100
785.000000	94.431400
784.000000	94.822200
783.000000	95.145400
782.000000	95.269600
781.000000	95.493800
780.000000	95.803200
779.000000	96.005600
778.000000	96.255400
777.000000	96.575900
776.000000	96.843600
775.000000	97.026600
774.000000	97.247500
773.000000	97.431500
772.000000	97.666900
771.000000	97.979300
770.000000	98.189700
769.000000	98.345500
768.000000	98.562600
767.000000	98.691900
766.000000	98.814500
765.000000	99.025900
764.000000	99.087500
763.000000	99.214300
762.000000	99.367800
761.000000	99.413200
760.000000	99.479000
759.000000	99.599300
758.000000	99.661500
757.000000	99.644300
756.000000	99.579500
755.000000	99.517400
754.000000	99.543900
753.000000	99.631400
752.000000	99.588300
751.000000	99.514400
750.000000	99.504600
749.000000	99.433700
748.000000	99.404500
747.000000	99.349500
746.000000	99.231000
745.000000	99.213800
744.000000	99.238000
743.000000	99.159200
742.000000	99.001000
741.000000	98.892900
740.000000	98.808900
739.000000	98.685100
738.000000	98.548800
737.000000	98.424800
736.000000	98.314400
735.000000	98.129900
734.000000	97.981900
733.000000	97.826300
732.000000	97.609300
731.000000	97.420200
730.000000	97.208000
729.000000	97.012900
728.000000	96.860200
727.000000	96.620000
726.000000	96.420200
725.000000	96.243900
724.000000	95.989700
723.000000	95.822800
722.000000	95.569800
721.000000	95.304200
720.000000	95.061800
719.000000	94.719000
718.000000	94.470600
717.000000	94.239700
716.000000	93.894800
715.000000	93.524300
714.000000	93.147100
713.000000	92.779200
712.000000	92.408500
711.000000	92.042000
710.000000	91.613600
709.000000	91.219100
708.000000	90.808100
707.000000	90.381300
706.000000	89.982100
705.000000	89.504600
704.000000	89.065100
703.000000	88.592100
702.000000	88.078900
701.000000	87.633400
700.000000	87.190400
699.000000	86.749600
698.000000	86.324800
697.000000	85.846000
696.000000	85.407300
695.000000	84.937900
694.000000	84.454000
693.000000	84.066800
692.000000	83.563300
691.000000	83.118900
690.000000	82.702200
689.000000	82.168500
688.000000	81.673400
687.000000	81.236700
686.000000	80.771100
685.000000	80.240400
684.000000	79.732600
683.000000	79.284000
682.000000	78.752900
681.000000	78.262500
680.000000	77.797100
679.000000	77.429800
678.000000	76.957900
677.000000	76.557700
676.000000	76.090400
675.000000	75.651000
674.000000	75.310700
673.000000	74.903500
672.000000	74.440500
671.000000	74.039200
670.000000	73.612100
669.000000	73.168700
668.000000	72.727600
667.000000	72.243000
666.000000	71.781400
665.000000	71.332400
664.000000	70.846500
663.000000	70.337600
662.000000	69.826300
661.000000	69.290900
660.000000	68.779200
659.000000	68.309500
658.000000	67.813000
657.000000	67.351500
656.000000	66.932800
655.000000	66.474700
654.000000	66.053000
653.000000	65.714800
652.000000	65.300600
651.000000	64.974300
650.000000	64.683700
649.000000	64.467500
648.000000	64.225800
647.000000	64.010000
646.000000	63.860100
645.000000	63.701000
644.000000	63.596900
643.000000	63.446300
642.000000	63.320200
641.000000	63.186800
640.000000	63.099900
639.000000	62.974200
638.000000	62.828200
637.000000	62.771700
636.000000	62.609900
635.000000	62.529900
634.000000	62.390300
633.000000	62.221100
632.000000	62.157200
631.000000	61.956700
630.000000	61.846100
629.000000	61.753100
628.000000	61.633000
627.000000	61.520900
626.000000	61.462500
625.000000	61.402100
624.000000	61.303300
623.000000	61.241800
622.000000	61.256800
621.000000	61.208500
620.000000	61.176300
619.000000	61.191900
618.000000	61.261600
617.000000	61.262600
616.000000	61.265700
615.000000	61.330200
614.000000	61.350800
613.000000	61.494600
612.000000	61.662300
611.000000	61.780500
610.000000	61.966800
609.000000	62.176200
608.000000	62.404800
607.000000	62.701100
606.000000	62.947600
605.000000	63.274600
604.000000	63.565700
603.000000	63.944600
602.000000	64.262000
601.000000	64.628800
600.000000	65.004800
599.000000	65.338200
598.000000	65.719600
597.000000	66.085100
596.000000	66.508500
595.000000	66.806700
594.000000	67.168400
593.000000	67.498900
592.000000	67.805500
591.000000	68.044100
590.000000	68.387300
589.000000	68.644500
588.000000	68.923500
587.000000	69.145700
586.000000	69.412500
585.000000	69.664600
584.000000	69.807200
583.000000	70.104400
582.000000	70.290900
581.000000	70.496500
580.000000	70.628200
579.000000	70.804300
578.000000	70.969800
577.000000	71.111500
576.000000	71.242000
575.000000	71.330500
574.000000	71.451500
573.000000	71.473300
572.000000	71.581200
571.000000	71.596500
570.000000	71.565800
569.000000	71.534600
568.000000	71.545400
567.000000	71.494000
566.000000	71.400700
565.000000	71.304300
564.000000	71.218200
563.000000	71.083000
562.000000	70.915700
561.000000	70.762800
560.000000	70.611100
559.000000	70.419300
558.000000	70.182900
557.000000	69.995100
556.000000	69.755400
555.000000	69.518500
554.000000	69.234200
553.000000	68.929300
552.000000	68.615300
551.000000	68.311500
550.000000	67.959300
549.000000	67.595200
548.000000	67.239900
547.000000	66.806200
546.000000	66.381600
545.000000	65.947800
544.000000	65.462000
543.000000	64.952400
542.000000	64.423600
541.000000	63.861500
540.000000	63.292800
539.000000	62.745100
538.000000	62.134900
537.000000	61.549400
536.000000	60.951400
535.000000	60.319400
534.000000	59.686000
533.000000	59.079000
532.000000	58.457000
531.000000	57.850800
530.000000	57.219400
529.000000	56.596400
528.000000	55.932200
527.000000	55.339400
526.000000	54.676400
525.000000	54.026000
524.000000	53.339200
523.000000	52.619900
522.000000	51.930100
521.000000	51.215800
520.000000	50.484300
519.000000	49.748000
518.000000	49.036900
517.000000	48.307000
516.000000	47.549200
515.000000	46.806300
514.000000	46.032500
513.000000	45.279500
512.000000	44.510300
511.000000	43.754400
510.000000	42.973700
509.000000	42.165700
508.000000	41.365000
507.000000	40.561500
506.000000	39.741500
505.000000	38.925900
504.000000	38.118700
503.000000	37.307300
502.000000	36.539700
501.000000	35.766400
500.000000	35.010500
499.000000	34.288600
498.000000	33.614600
497.000000	32.993300
496.000000	32.423400
495.000000	31.915100
494.000000	31.403700
493.000000	30.928300
492.000000	30.525500
491.000000	30.140900
490.000000	29.832100
489.000000	29.581600
488.000000	29.369800
487.000000	29.172600
486.000000	29.015100
485.000000	28.895200
484.000000	28.782400
483.000000	28.703700
482.000000	28.629100
481.000000	28.573700
480.000000	28.543200
479.000000	28.501000
478.000000	28.469300
477.000000	28.472900
476.000000	28.456400
475.000000	28.473900
474.000000	28.492200
473.000000	28.505500
472.000000	28.524400
471.000000	28.543000
470.000000	28.555700
469.000000	28.554600
468.000000	28.578100
467.000000	28.580100
466.000000	28.560100
465.000000	28.541800
464.000000	28.513700
463.000000	28.465500
462.000000	28.393500
461.000000	28.317900
460.000000	28.221000
459.000000	28.136400
458.000000	28.011000
457.000000	27.863200
456.000000	27.726300
455.000000	27.577600
454.000000	27.392600
453.000000	27.193900
452.000000	26.997000
451.000000	26.785600
450.000000	26.563600
449.000000	26.317200
448.000000	26.039100
447.000000	25.764000
446.000000	25.500900
445.000000	25.197100
444.000000	24.899800
443.000000	24.597500
442.000000	24.236300
441.000000	23.905400
440.000000	23.577600
439.000000	23.219600
438.000000	22.841100
437.000000	22.476100
436.000000	22.104000
435.000000	21.711500
434.000000	21.319300
433.000000	20.926800
432.000000	20.508000
431.000000	20.075300
430.000000	19.661800
429.000000	19.215300
428.000000	18.774900
427.000000	18.347700
426.000000	17.900000
425.000000	17.447400
424.000000	17.004600
423.000000	16.547600
422.000000	16.104700
421.000000	15.698000
420.000000	15.245200
419.000000	14.789300
418.000000	14.360300
417.000000	13.952700
416.000000	13.563100
415.000000	13.193900
414.000000	12.799700
413.000000	12.394400
412.000000	12.035200
411.000000	11.702800
410.000000	11.355300
409.000000	11.027500
408.000000	10.712200
407.000000	10.414100
406.000000	10.131200
405.000000	9.864500
404.000000	9.588400
403.000000	9.354400
402.000000	9.117900
401.000000	8.870300
400.000000	8.692100
399.000000	8.500500
398.000000	8.334500
397.000000	8.154600
396.000000	7.983400
395.000000	7.853700
394.000000	7.709800
393.000000	7.593100
392.000000	7.483400
391.000000	7.340500
390.000000	7.240500
389.000000	7.138800
388.000000	7.058600
387.000000	6.994900
386.000000	6.925400
385.000000	6.850500
384.000000	6.783100
383.000000	6.727700
382.000000	6.667900
381.000000	6.613500
380.000000	6.548200
379.000000	6.540900
378.000000	6.516400
377.000000	6.464600
376.000000	6.452500
375.000000	6.139900
374.000000	5.950100
373.000000	5.832000
372.000000	6.145400
371.000000	6.125500
370.000000	6.093900
369.000000	6.236600
368.000000	6.014500
367.000000	6.248500
366.000000	6.329100
365.000000	6.004500
364.000000	6.039300
363.000000	6.110900
362.000000	6.008000
361.000000	6.014900
360.000000	6.213800
359.000000	5.952900
358.000000	6.057700
357.000000	6.038100
356.000000	5.962100
355.000000	6.091500
354.000000	6.084000
353.000000	6.043000
352.000000	6.003700
351.000000	6.135500
350.000000	6.045500
349.000000	6.038400
348.000000	6.029500
347.000000	5.911600
346.000000	5.782800
345.000000	5.951100
344.000000	5.844600
343.000000	5.640200
342.000000	6.092500
341.000000	5.724300
340.000000	5.373200
339.000000	5.854300
338.000000	5.782000
337.000000	6.002200
336.000000	6.172400
335.000000	6.082700
334.000000	5.896900
333.000000	5.997600
332.000000	5.950700
331.000000	5.663000
330.000000	5.320700
329.000000	5.570400
328.000000	5.824300
327.000000	5.845000
326.000000	5.990000
325.000000	5.458500
324.000000	5.799300
323.000000	6.654300
322.000000	6.525900
321.000000	5.857800
320.000000	6.415900
319.000000	6.923500
318.000000	6.122900
317.000000	5.741400
316.000000	5.588000
315.000000	5.626000
314.000000	5.677200
313.000000	5.604600
312.000000	5.666300
311.000000	5.679500
310.000000	5.802700
309.000000	5.676300
308.000000	5.651700
307.000000	5.697200
306.000000	5.691800
305.000000	5.650700
304.000000	5.694700
303.000000	5.715700
302.000000	5.672100
301.000000	5.560200
300.000000	5.667300
299.000000	5.745500
298.000000	5.673800
297.000000	5.717300
296.000000	5.677800
295.000000	5.711600
294.000000	5.702200
293.000000	5.718200
292.000000	5.718200
291.000000	5.739100
290.000000	5.682200
289.000000	5.785700
288.000000	5.763800
287.000000	5.722900
286.000000	5.757500
285.000000	5.762200
284.000000	5.800500
283.000000	5.755000
282.000000	5.800500
281.000000	5.799400
280.000000	5.795400
279.000000	5.760800
278.000000	5.857300
277.000000	5.820100
276.000000	5.820300
275.000000	5.834700
274.000000	5.878000
273.000000	5.849100
272.000000	5.920500
271.000000	5.824800
270.000000	5.903300
269.000000	5.947000
268.000000	5.913700
267.000000	5.927100
266.000000	6.047500
265.000000	6.024800
264.000000	6.036000
263.000000	6.075500
262.000000	6.101500
261.000000	6.164600
260.000000	6.148200
259.000000	6.172400
258.000000	6.146400
257.000000	6.115800
256.000000	6.196600
255.000000	6.274500
254.000000	6.266900
253.000000	6.149300
252.000000	6.233000
251.000000	6.263200
250.000000	6.339800
