PE UV       SUBTECH     SPECTRUM    ASCII       PEDS        4.00        
   -1
CICIMAUCR0015-2fail.Sample.ASC
24/04/12
10:52:46.00
24/04/12
10:52:46.00
Vinicio Soto Monge
C. resplendens
250,000000
1
Lambda 1050
1050L1511233
PerkinElmer UV WinLab 6.3.2.0749 / 2.02.05 Lambda 900 UV/VIS/NIR, Aug  7 2015 09:38:08

0
0
3350/servo 860,8/2
0
0
UV/VIS
1
1
1
DoubleDePol,CommonBeamDepol,RBeamAtt,SBeamAtt,60mm sphere, WB InGaAs Detector
0
0
0
0
Program
Program
3350/servo 860,8/2
3350/0,2 860,8/0,2
3350/0,2 860,8/0,2
0
15.00
 
 
 
0
 
860,8
319,2
860,8
Front
100
on
S:100 R:100
0
0
0
0
 
0
 
 
 
0
 
 
0
0
0
0
0
 
 
 
 
0
0


0
0
#HDR
-1
-1
#GR
nm
%R
1.0
0.0
2500,000000
-1,000000
2251
8
44,686200
2,535300
#DATA
2500.000000	8.263000
2499.000000	8.217300
2498.000000	8.307100
2497.000000	8.221700
2496.000000	8.176000
2495.000000	8.178400
2494.000000	8.211200
2493.000000	8.163900
2492.000000	8.112700
2491.000000	8.136800
2490.000000	8.099800
2489.000000	8.157600
2488.000000	7.982900
2487.000000	7.997000
2486.000000	8.028000
2485.000000	8.039300
2484.000000	8.069100
2483.000000	8.022100
2482.000000	8.059300
2481.000000	8.047400
2480.000000	8.075500
2479.000000	8.112100
2478.000000	8.079600
2477.000000	8.100000
2476.000000	8.099600
2475.000000	8.081000
2474.000000	8.153100
2473.000000	8.147200
2472.000000	8.208600
2471.000000	8.198600
2470.000000	8.204500
2469.000000	8.232400
2468.000000	8.298700
2467.000000	8.337300
2466.000000	8.331800
2465.000000	8.404800
2464.000000	8.497500
2463.000000	8.520100
2462.000000	8.573600
2461.000000	8.626800
2460.000000	8.675700
2459.000000	8.779500
2458.000000	8.856500
2457.000000	8.934900
2456.000000	8.995000
2455.000000	9.079700
2454.000000	9.139700
2453.000000	9.205000
2452.000000	9.266200
2451.000000	9.352900
2450.000000	9.420100
2449.000000	9.493900
2448.000000	9.576100
2447.000000	9.633300
2446.000000	9.690700
2445.000000	9.781800
2444.000000	9.835000
2443.000000	9.918600
2442.000000	9.990200
2441.000000	10.061400
2440.000000	10.123800
2439.000000	10.202400
2438.000000	10.258800
2437.000000	10.325700
2436.000000	10.377300
2435.000000	10.432300
2434.000000	10.516700
2433.000000	10.587200
2432.000000	10.645200
2431.000000	10.677800
2430.000000	10.645400
2429.000000	10.551800
2428.000000	10.490500
2427.000000	10.460500
2426.000000	10.456500
2425.000000	10.494300
2424.000000	10.521800
2423.000000	10.504700
2422.000000	10.498200
2421.000000	10.531500
2420.000000	10.540300
2419.000000	10.502200
2418.000000	10.490400
2417.000000	10.501900
2416.000000	10.518500
2415.000000	10.502200
2414.000000	10.492600
2413.000000	10.474700
2412.000000	10.486600
2411.000000	10.465700
2410.000000	10.480100
2409.000000	10.483300
2408.000000	10.437700
2407.000000	10.417900
2406.000000	10.423100
2405.000000	10.449700
2404.000000	10.444300
2403.000000	10.413200
2402.000000	10.433700
2401.000000	10.415400
2400.000000	10.428000
2399.000000	10.436700
2398.000000	10.433800
2397.000000	10.388900
2396.000000	10.339400
2395.000000	10.356400
2394.000000	10.379800
2393.000000	10.392100
2392.000000	10.367300
2391.000000	10.326300
2390.000000	10.333000
2389.000000	10.311900
2388.000000	10.267700
2387.000000	10.256600
2386.000000	10.255900
2385.000000	10.233600
2384.000000	10.195400
2383.000000	10.168800
2382.000000	10.133800
2381.000000	10.089000
2380.000000	10.079900
2379.000000	10.066700
2378.000000	10.014600
2377.000000	9.958000
2376.000000	9.938500
2375.000000	9.930100
2374.000000	9.887900
2373.000000	9.835300
2372.000000	9.803300
2371.000000	9.769000
2370.000000	9.713000
2369.000000	9.652600
2368.000000	9.616000
2367.000000	9.572200
2366.000000	9.503800
2365.000000	9.447400
2364.000000	9.410100
2363.000000	9.324000
2362.000000	9.252300
2361.000000	9.227400
2360.000000	9.188400
2359.000000	9.143500
2358.000000	9.077600
2357.000000	9.027300
2356.000000	9.009200
2355.000000	9.001700
2354.000000	8.968300
2353.000000	8.927300
2352.000000	8.926500
2351.000000	8.920400
2350.000000	8.896800
2349.000000	8.912600
2348.000000	8.933700
2347.000000	8.929800
2346.000000	8.928200
2345.000000	8.933400
2344.000000	8.914800
2343.000000	8.898100
2342.000000	8.899400
2341.000000	8.908300
2340.000000	8.872500
2339.000000	8.798400
2338.000000	8.779300
2337.000000	8.770200
2336.000000	8.746600
2335.000000	8.698400
2334.000000	8.619800
2333.000000	8.578200
2332.000000	8.563200
2331.000000	8.537700
2330.000000	8.468700
2329.000000	8.372500
2328.000000	8.322400
2327.000000	8.317100
2326.000000	8.274100
2325.000000	8.202100
2324.000000	8.111600
2323.000000	8.043600
2322.000000	7.998600
2321.000000	7.962800
2320.000000	7.884200
2319.000000	7.789800
2318.000000	7.727700
2317.000000	7.662600
2316.000000	7.623200
2315.000000	7.586000
2314.000000	7.489500
2313.000000	7.444100
2312.000000	7.417800
2311.000000	7.407300
2310.000000	7.348200
2309.000000	7.337200
2308.000000	7.350700
2307.000000	7.298700
2306.000000	7.297300
2305.000000	7.337900
2304.000000	7.343800
2303.000000	7.365000
2302.000000	7.380600
2301.000000	7.407000
2300.000000	7.451900
2299.000000	7.516300
2298.000000	7.558600
2297.000000	7.593800
2296.000000	7.644200
2295.000000	7.703600
2294.000000	7.679900
2293.000000	7.676700
2292.000000	7.665600
2291.000000	7.668000
2290.000000	7.677900
2289.000000	7.682900
2288.000000	7.665400
2287.000000	7.592500
2286.000000	7.579500
2285.000000	7.559400
2284.000000	7.500700
2283.000000	7.469300
2282.000000	7.425800
2281.000000	7.419700
2280.000000	7.326200
2279.000000	7.296900
2278.000000	7.260600
2277.000000	7.247300
2276.000000	7.188100
2275.000000	7.163200
2274.000000	7.166400
2273.000000	7.149700
2272.000000	7.128000
2271.000000	7.131100
2270.000000	7.159300
2269.000000	7.181800
2268.000000	7.234000
2267.000000	7.255100
2266.000000	7.307500
2265.000000	7.395200
2264.000000	7.490800
2263.000000	7.582200
2262.000000	7.699500
2261.000000	7.794400
2260.000000	7.942500
2259.000000	8.083100
2258.000000	8.229100
2257.000000	8.352300
2256.000000	8.503000
2255.000000	8.651500
2254.000000	8.796000
2253.000000	8.953400
2252.000000	9.058200
2251.000000	9.178400
2250.000000	9.301600
2249.000000	9.427000
2248.000000	9.534000
2247.000000	9.627100
2246.000000	9.726500
2245.000000	9.818100
2244.000000	9.915800
2243.000000	10.010200
2242.000000	10.043400
2241.000000	10.096200
2240.000000	10.189200
2239.000000	10.273000
2238.000000	10.270700
2237.000000	10.335600
2236.000000	10.397300
2235.000000	10.443400
2234.000000	10.491900
2233.000000	10.519000
2232.000000	10.512400
2231.000000	10.545800
2230.000000	10.570200
2229.000000	10.606500
2228.000000	10.592400
2227.000000	10.613500
2226.000000	10.575600
2225.000000	10.576500
2224.000000	10.575100
2223.000000	10.579900
2222.000000	10.562000
2221.000000	10.572300
2220.000000	10.534700
2219.000000	10.529400
2218.000000	10.532200
2217.000000	10.511000
2216.000000	10.477200
2215.000000	10.467700
2214.000000	10.457600
2213.000000	10.435700
2212.000000	10.397800
2211.000000	10.391800
2210.000000	10.336000
2209.000000	10.334000
2208.000000	10.315800
2207.000000	10.290700
2206.000000	10.292000
2205.000000	10.279300
2204.000000	10.262300
2203.000000	10.255100
2202.000000	10.239000
2201.000000	10.219500
2200.000000	10.194000
2199.000000	10.193300
2198.000000	10.149400
2197.000000	10.146500
2196.000000	10.154500
2195.000000	10.143100
2194.000000	10.142700
2193.000000	10.118100
2192.000000	10.091500
2191.000000	10.076600
2190.000000	10.059000
2189.000000	10.046800
2188.000000	10.037800
2187.000000	10.009900
2186.000000	10.000800
2185.000000	10.020100
2184.000000	9.994200
2183.000000	9.978400
2182.000000	9.971700
2181.000000	9.956400
2180.000000	9.957700
2179.000000	10.001900
2178.000000	9.978900
2177.000000	9.975700
2176.000000	9.949800
2175.000000	9.965000
2174.000000	9.978200
2173.000000	10.003400
2172.000000	10.010900
2171.000000	10.025100
2170.000000	10.023500
2169.000000	10.024900
2168.000000	10.071400
2167.000000	10.085400
2166.000000	10.103200
2165.000000	10.082600
2164.000000	10.111100
2163.000000	10.170600
2162.000000	10.171200
2161.000000	10.192200
2160.000000	10.225800
2159.000000	10.275300
2158.000000	10.292200
2157.000000	10.301000
2156.000000	10.318800
2155.000000	10.355900
2154.000000	10.375800
2153.000000	10.414900
2152.000000	10.447700
2151.000000	10.473200
2150.000000	10.502300
2149.000000	10.525600
2148.000000	10.536100
2147.000000	10.557400
2146.000000	10.589500
2145.000000	10.600900
2144.000000	10.620200
2143.000000	10.652300
2142.000000	10.657800
2141.000000	10.645600
2140.000000	10.665100
2139.000000	10.691300
2138.000000	10.707200
2137.000000	10.715800
2136.000000	10.716100
2135.000000	10.706200
2134.000000	10.707900
2133.000000	10.716800
2132.000000	10.721500
2131.000000	10.698700
2130.000000	10.685900
2129.000000	10.685200
2128.000000	10.664500
2127.000000	10.639500
2126.000000	10.623800
2125.000000	10.596300
2124.000000	10.564100
2123.000000	10.546000
2122.000000	10.518000
2121.000000	10.493800
2120.000000	10.482000
2119.000000	10.448100
2118.000000	10.401300
2117.000000	10.358500
2116.000000	10.329400
2115.000000	10.340100
2114.000000	10.306700
2113.000000	10.263000
2112.000000	10.233100
2111.000000	10.178700
2110.000000	10.162900
2109.000000	10.143400
2108.000000	10.111300
2107.000000	10.077200
2106.000000	10.045200
2105.000000	10.033400
2104.000000	10.008300
2103.000000	9.977700
2102.000000	9.942800
2101.000000	9.924200
2100.000000	9.912900
2099.000000	9.891700
2098.000000	9.873100
2097.000000	9.846300
2096.000000	9.829500
2095.000000	9.815900
2094.000000	9.803100
2093.000000	9.803000
2092.000000	9.787100
2091.000000	9.770700
2090.000000	9.765500
2089.000000	9.759600
2088.000000	9.745500
2087.000000	9.740800
2086.000000	9.728000
2085.000000	9.707000
2084.000000	9.696700
2083.000000	9.682800
2082.000000	9.667500
2081.000000	9.650500
2080.000000	9.627600
2079.000000	9.618600
2078.000000	9.608000
2077.000000	9.593100
2076.000000	9.570800
2075.000000	9.543900
2074.000000	9.527900
2073.000000	9.508200
2072.000000	9.506100
2071.000000	9.482400
2070.000000	9.453100
2069.000000	9.439800
2068.000000	9.417500
2067.000000	9.409400
2066.000000	9.412700
2065.000000	9.388000
2064.000000	9.363800
2063.000000	9.359300
2062.000000	9.360500
2061.000000	9.347600
2060.000000	9.354800
2059.000000	9.342400
2058.000000	9.350800
2057.000000	9.369500
2056.000000	9.388300
2055.000000	9.401800
2054.000000	9.428800
2053.000000	9.489200
2052.000000	9.537800
2051.000000	9.588400
2050.000000	9.646300
2049.000000	9.705400
2048.000000	9.779200
2047.000000	9.863700
2046.000000	9.946700
2045.000000	10.042500
2044.000000	10.137400
2043.000000	10.224100
2042.000000	10.307400
2041.000000	10.423700
2040.000000	10.513800
2039.000000	10.619100
2038.000000	10.707100
2037.000000	10.780100
2036.000000	10.865700
2035.000000	10.965700
2034.000000	11.047600
2033.000000	11.115100
2032.000000	11.194000
2031.000000	11.271800
2030.000000	11.344400
2029.000000	11.395600
2028.000000	11.460000
2027.000000	11.526500
2026.000000	11.606300
2025.000000	11.648000
2024.000000	11.688200
2023.000000	11.750800
2022.000000	11.802200
2021.000000	11.840300
2020.000000	11.903300
2019.000000	11.960200
2018.000000	11.999300
2017.000000	12.049500
2016.000000	12.072100
2015.000000	12.108700
2014.000000	12.156400
2013.000000	12.189000
2012.000000	12.201800
2011.000000	12.219200
2010.000000	12.260800
2009.000000	12.279200
2008.000000	12.274900
2007.000000	12.277100
2006.000000	12.287500
2005.000000	12.308300
2004.000000	12.290200
2003.000000	12.281800
2002.000000	12.297200
2001.000000	12.292300
2000.000000	12.264200
1999.000000	12.234800
1998.000000	12.218400
1997.000000	12.190900
1996.000000	12.179300
1995.000000	12.154200
1994.000000	12.134900
1993.000000	12.093500
1992.000000	12.052700
1991.000000	11.991600
1990.000000	11.975200
1989.000000	11.928700
1988.000000	11.887600
1987.000000	11.845300
1986.000000	11.800100
1985.000000	11.752600
1984.000000	11.681200
1983.000000	11.644500
1982.000000	11.605600
1981.000000	11.536900
1980.000000	11.503700
1979.000000	11.446700
1978.000000	11.401500
1977.000000	11.349400
1976.000000	11.280200
1975.000000	11.246800
1974.000000	11.175300
1973.000000	11.130800
1972.000000	11.101100
1971.000000	11.047300
1970.000000	11.016300
1969.000000	10.964100
1968.000000	10.906100
1967.000000	10.876200
1966.000000	10.814600
1965.000000	10.779200
1964.000000	10.734400
1963.000000	10.693400
1962.000000	10.644500
1961.000000	10.598100
1960.000000	10.558400
1959.000000	10.521200
1958.000000	10.465400
1957.000000	10.441300
1956.000000	10.393300
1955.000000	10.338200
1954.000000	10.299500
1953.000000	10.284000
1952.000000	10.238300
1951.000000	10.176600
1950.000000	10.131500
1949.000000	10.105700
1948.000000	10.067000
1947.000000	10.047800
1946.000000	10.041500
1945.000000	9.996400
1944.000000	9.981500
1943.000000	9.971500
1942.000000	9.944300
1941.000000	9.943200
1940.000000	9.951300
1939.000000	9.964700
1938.000000	10.015000
1937.000000	10.032800
1936.000000	10.038700
1935.000000	10.081300
1934.000000	10.085800
1933.000000	10.084600
1932.000000	10.153500
1931.000000	10.177600
1930.000000	10.255500
1929.000000	10.314500
1928.000000	10.422400
1927.000000	10.497400
1926.000000	10.610300
1925.000000	10.701900
1924.000000	10.747500
1923.000000	10.802800
1922.000000	10.961000
1921.000000	11.125500
1920.000000	11.270500
1919.000000	11.412100
1918.000000	11.567100
1917.000000	11.609300
1916.000000	11.678200
1915.000000	11.846500
1914.000000	12.047500
1913.000000	12.293100
1912.000000	12.500800
1911.000000	12.692000
1910.000000	12.796800
1909.000000	12.875000
1908.000000	13.018300
1907.000000	13.208200
1906.000000	13.474800
1905.000000	13.813700
1904.000000	14.092600
1903.000000	14.232200
1902.000000	14.396000
1901.000000	14.587100
1900.000000	14.845900
1899.000000	15.154300
1898.000000	15.444300
1897.000000	15.659700
1896.000000	15.757600
1895.000000	15.887200
1894.000000	16.072500
1893.000000	16.265100
1892.000000	16.558000
1891.000000	16.864200
1890.000000	17.090600
1889.000000	17.286000
1888.000000	17.482200
1887.000000	17.640100
1886.000000	17.895400
1885.000000	18.207100
1884.000000	18.554100
1883.000000	18.900900
1882.000000	19.237900
1881.000000	19.551000
1880.000000	19.804000
1879.000000	20.049500
1878.000000	20.343700
1877.000000	20.624600
1876.000000	20.872100
1875.000000	21.128300
1874.000000	21.356100
1873.000000	21.596700
1872.000000	21.846500
1871.000000	22.042300
1870.000000	22.231100
1869.000000	22.410300
1868.000000	22.511100
1867.000000	22.521700
1866.000000	22.483900
1865.000000	22.444700
1864.000000	22.392800
1863.000000	22.323600
1862.000000	22.283200
1861.000000	22.322100
1860.000000	22.378700
1859.000000	22.450100
1858.000000	22.489800
1857.000000	22.427500
1856.000000	22.322100
1855.000000	22.295900
1854.000000	22.291100
1853.000000	22.244400
1852.000000	22.170500
1851.000000	22.042000
1850.000000	21.895000
1849.000000	21.856200
1848.000000	21.944600
1847.000000	22.051800
1846.000000	22.015800
1845.000000	21.822300
1844.000000	21.593000
1843.000000	21.474300
1842.000000	21.503300
1841.000000	21.590600
1840.000000	21.601300
1839.000000	21.553300
1838.000000	21.487200
1837.000000	21.473100
1836.000000	21.496000
1835.000000	21.452100
1834.000000	21.317800
1833.000000	21.140800
1832.000000	20.998800
1831.000000	20.940200
1830.000000	20.916700
1829.000000	20.881100
1828.000000	20.807300
1827.000000	20.759100
1826.000000	20.731800
1825.000000	20.666800
1824.000000	20.545600
1823.000000	20.402300
1822.000000	20.389200
1821.000000	20.501000
1820.000000	20.590900
1819.000000	20.579600
1818.000000	20.499600
1817.000000	20.439700
1816.000000	20.424900
1815.000000	20.428800
1814.000000	20.434700
1813.000000	20.410900
1812.000000	20.388800
1811.000000	20.397600
1810.000000	20.376500
1809.000000	20.308100
1808.000000	20.244400
1807.000000	20.225100
1806.000000	20.211300
1805.000000	20.173800
1804.000000	20.126900
1803.000000	20.064000
1802.000000	20.027200
1801.000000	20.008600
1800.000000	19.984200
1799.000000	19.936600
1798.000000	19.872200
1797.000000	19.831700
1796.000000	19.792600
1795.000000	19.758600
1794.000000	19.731100
1793.000000	19.692600
1792.000000	19.644400
1791.000000	19.601000
1790.000000	19.550300
1789.000000	19.483000
1788.000000	19.415600
1787.000000	19.377800
1786.000000	19.345500
1785.000000	19.291100
1784.000000	19.212000
1783.000000	19.151300
1782.000000	19.086500
1781.000000	19.012700
1780.000000	18.942600
1779.000000	18.885300
1778.000000	18.815100
1777.000000	18.723100
1776.000000	18.624800
1775.000000	18.518400
1774.000000	18.417000
1773.000000	18.297900
1772.000000	18.187200
1771.000000	18.077400
1770.000000	17.960900
1769.000000	17.859200
1768.000000	17.769900
1767.000000	17.671500
1766.000000	17.591200
1765.000000	17.533200
1764.000000	17.493400
1763.000000	17.505500
1762.000000	17.519100
1761.000000	17.558000
1760.000000	17.608600
1759.000000	17.644500
1758.000000	17.703200
1757.000000	17.759400
1756.000000	17.798700
1755.000000	17.804700
1754.000000	17.811400
1753.000000	17.815300
1752.000000	17.796800
1751.000000	17.758300
1750.000000	17.685800
1749.000000	17.631200
1748.000000	17.575500
1747.000000	17.478300
1746.000000	17.374700
1745.000000	17.253100
1744.000000	17.110500
1743.000000	16.930500
1742.000000	16.723900
1741.000000	16.527900
1740.000000	16.319000
1739.000000	16.142700
1738.000000	15.965500
1737.000000	15.800800
1736.000000	15.663800
1735.000000	15.598900
1734.000000	15.580200
1733.000000	15.581800
1732.000000	15.629400
1731.000000	15.711400
1730.000000	15.779900
1729.000000	15.876900
1728.000000	15.954000
1727.000000	16.029800
1726.000000	16.092000
1725.000000	16.153400
1724.000000	16.164300
1723.000000	16.193700
1722.000000	16.201800
1721.000000	16.228400
1720.000000	16.238500
1719.000000	16.226400
1718.000000	16.266500
1717.000000	16.314400
1716.000000	16.363800
1715.000000	16.445800
1714.000000	16.478100
1713.000000	16.526800
1712.000000	16.568900
1711.000000	16.596600
1710.000000	16.606900
1709.000000	16.588000
1708.000000	16.596700
1707.000000	16.580900
1706.000000	16.570000
1705.000000	16.502300
1704.000000	16.477000
1703.000000	16.414600
1702.000000	16.319800
1701.000000	16.212200
1700.000000	16.097300
1699.000000	15.961300
1698.000000	15.839200
1697.000000	15.772800
1696.000000	15.728100
1695.000000	15.709700
1694.000000	15.764900
1693.000000	15.891500
1692.000000	16.000300
1691.000000	16.111100
1690.000000	16.228500
1689.000000	16.325100
1688.000000	16.377600
1687.000000	16.373300
1686.000000	16.376800
1685.000000	16.422200
1684.000000	16.508600
1683.000000	16.697600
1682.000000	17.003200
1681.000000	17.399100
1680.000000	17.850600
1679.000000	18.369700
1678.000000	18.825700
1677.000000	19.225700
1676.000000	19.606600
1675.000000	19.956100
1674.000000	20.225600
1673.000000	20.484400
1672.000000	20.712600
1671.000000	20.883600
1670.000000	21.038300
1669.000000	21.193600
1668.000000	21.323800
1667.000000	21.423900
1666.000000	21.531700
1665.000000	21.603400
1664.000000	21.671700
1663.000000	21.759100
1662.000000	21.777300
1661.000000	21.828000
1660.000000	21.905200
1659.000000	21.923700
1658.000000	21.940700
1657.000000	21.957500
1656.000000	21.972600
1655.000000	21.982800
1654.000000	21.996100
1653.000000	21.988700
1652.000000	21.972600
1651.000000	21.961700
1650.000000	21.936700
1649.000000	21.908300
1648.000000	21.866100
1647.000000	21.843300
1646.000000	21.790100
1645.000000	21.740600
1644.000000	21.712500
1643.000000	21.672900
1642.000000	21.604100
1641.000000	21.570800
1640.000000	21.526700
1639.000000	21.461200
1638.000000	21.420500
1637.000000	21.357200
1636.000000	21.295300
1635.000000	21.240500
1634.000000	21.190500
1633.000000	21.107000
1632.000000	21.052400
1631.000000	20.987900
1630.000000	20.927900
1629.000000	20.854300
1628.000000	20.771100
1627.000000	20.696600
1626.000000	20.630300
1625.000000	20.539200
1624.000000	20.465500
1623.000000	20.393500
1622.000000	20.321800
1621.000000	20.238400
1620.000000	20.166300
1619.000000	20.092700
1618.000000	20.036600
1617.000000	19.956600
1616.000000	19.873500
1615.000000	19.802000
1614.000000	19.736600
1613.000000	19.682700
1612.000000	19.618200
1611.000000	19.570600
1610.000000	19.504300
1609.000000	19.421100
1608.000000	19.361200
1607.000000	19.300900
1606.000000	19.232400
1605.000000	19.171700
1604.000000	19.102500
1603.000000	19.024100
1602.000000	18.952700
1601.000000	18.897000
1600.000000	18.842200
1599.000000	18.770900
1598.000000	18.717200
1597.000000	18.669300
1596.000000	18.615600
1595.000000	18.555700
1594.000000	18.496400
1593.000000	18.456600
1592.000000	18.415600
1591.000000	18.386900
1590.000000	18.345100
1589.000000	18.302600
1588.000000	18.278200
1587.000000	18.255100
1586.000000	18.227400
1585.000000	18.195800
1584.000000	18.175000
1583.000000	18.160800
1582.000000	18.156300
1581.000000	18.139300
1580.000000	18.125300
1579.000000	18.129200
1578.000000	18.128300
1577.000000	18.134600
1576.000000	18.145100
1575.000000	18.169600
1574.000000	18.193000
1573.000000	18.213100
1572.000000	18.239900
1571.000000	18.251800
1570.000000	18.273500
1569.000000	18.302000
1568.000000	18.323200
1567.000000	18.352900
1566.000000	18.393400
1565.000000	18.418000
1564.000000	18.442300
1563.000000	18.475600
1562.000000	18.504700
1561.000000	18.535100
1560.000000	18.556200
1559.000000	18.580800
1558.000000	18.597400
1557.000000	18.602400
1556.000000	18.622600
1555.000000	18.640300
1554.000000	18.638600
1553.000000	18.639100
1552.000000	18.655400
1551.000000	18.651600
1550.000000	18.640400
1549.000000	18.642800
1548.000000	18.636700
1547.000000	18.628500
1546.000000	18.633800
1545.000000	18.639900
1544.000000	18.639800
1543.000000	18.636900
1542.000000	18.640400
1541.000000	18.656400
1540.000000	18.650900
1539.000000	18.635500
1538.000000	18.652300
1537.000000	18.676100
1536.000000	18.663500
1535.000000	18.669300
1534.000000	18.668900
1533.000000	18.668100
1532.000000	18.655400
1531.000000	18.646900
1530.000000	18.633400
1529.000000	18.620100
1528.000000	18.620100
1527.000000	18.605000
1526.000000	18.587100
1525.000000	18.572800
1524.000000	18.560800
1523.000000	18.541900
1522.000000	18.521000
1521.000000	18.515100
1520.000000	18.488400
1519.000000	18.457400
1518.000000	18.435900
1517.000000	18.420800
1516.000000	18.407800
1515.000000	18.382800
1514.000000	18.365600
1513.000000	18.341500
1512.000000	18.322100
1511.000000	18.290400
1510.000000	18.260400
1509.000000	18.249500
1508.000000	18.209200
1507.000000	18.177800
1506.000000	18.152700
1505.000000	18.135500
1504.000000	18.122100
1503.000000	18.096500
1502.000000	18.077000
1501.000000	18.064200
1500.000000	18.042500
1499.000000	18.033500
1498.000000	18.035900
1497.000000	18.023100
1496.000000	18.010900
1495.000000	18.005500
1494.000000	18.015000
1493.000000	18.028000
1492.000000	18.030700
1491.000000	18.055400
1490.000000	18.067400
1489.000000	18.071500
1488.000000	18.094500
1487.000000	18.115000
1486.000000	18.132100
1485.000000	18.148100
1484.000000	18.176100
1483.000000	18.175200
1482.000000	18.205500
1481.000000	18.248200
1480.000000	18.294300
1479.000000	18.300400
1478.000000	18.333600
1477.000000	18.389600
1476.000000	18.433900
1475.000000	18.480100
1474.000000	18.534300
1473.000000	18.591800
1472.000000	18.655300
1471.000000	18.692400
1470.000000	18.734000
1469.000000	18.779100
1468.000000	18.816300
1467.000000	18.870300
1466.000000	18.939800
1465.000000	18.989900
1464.000000	19.063100
1463.000000	19.119600
1462.000000	19.192000
1461.000000	19.269800
1460.000000	19.356400
1459.000000	19.435400
1458.000000	19.518500
1457.000000	19.596500
1456.000000	19.695000
1455.000000	19.791000
1454.000000	19.903900
1453.000000	19.988400
1452.000000	20.090700
1451.000000	20.223700
1450.000000	20.341100
1449.000000	20.434400
1448.000000	20.528400
1447.000000	20.615400
1446.000000	20.781300
1445.000000	20.920200
1444.000000	21.022500
1443.000000	21.108900
1442.000000	21.261300
1441.000000	21.371200
1440.000000	21.499100
1439.000000	21.578500
1438.000000	21.712500
1437.000000	21.844600
1436.000000	21.973500
1435.000000	22.063900
1434.000000	22.180100
1433.000000	22.304700
1432.000000	22.451600
1431.000000	22.582600
1430.000000	22.682800
1429.000000	22.820200
1428.000000	23.001900
1427.000000	23.170300
1426.000000	23.338200
1425.000000	23.516700
1424.000000	23.730900
1423.000000	23.919800
1422.000000	24.099100
1421.000000	24.259200
1420.000000	24.439800
1419.000000	24.659700
1418.000000	24.871500
1417.000000	24.984900
1416.000000	25.116200
1415.000000	25.277100
1414.000000	25.572200
1413.000000	25.769900
1412.000000	25.837500
1411.000000	25.983700
1410.000000	26.191000
1409.000000	26.537600
1408.000000	26.817900
1407.000000	27.092300
1406.000000	27.376000
1405.000000	27.703300
1404.000000	28.042300
1403.000000	28.279300
1402.000000	28.403600
1401.000000	28.815400
1400.000000	29.264700
1399.000000	29.455800
1398.000000	29.405100
1397.000000	29.489000
1396.000000	29.760300
1395.000000	30.052200
1394.000000	30.055100
1393.000000	30.054700
1392.000000	30.225500
1391.000000	30.351400
1390.000000	30.357100
1389.000000	30.445000
1388.000000	30.741500
1387.000000	30.957900
1386.000000	31.102800
1385.000000	31.330500
1384.000000	31.608700
1383.000000	31.900600
1382.000000	32.166400
1381.000000	32.407700
1380.000000	32.444000
1379.000000	32.440900
1378.000000	32.384700
1377.000000	32.415000
1376.000000	32.490800
1375.000000	32.630500
1374.000000	32.810900
1373.000000	33.025600
1372.000000	33.293600
1371.000000	33.599500
1370.000000	33.864600
1369.000000	34.035800
1368.000000	34.297900
1367.000000	34.486900
1366.000000	34.568300
1365.000000	34.767000
1364.000000	34.909500
1363.000000	34.948000
1362.000000	35.087000
1361.000000	35.317600
1360.000000	35.351000
1359.000000	35.317600
1358.000000	35.361800
1357.000000	35.468900
1356.000000	35.673300
1355.000000	36.048000
1354.000000	36.502900
1353.000000	36.872700
1352.000000	37.274300
1351.000000	37.679100
1350.000000	38.050100
1349.000000	38.360800
1348.000000	38.681500
1347.000000	38.985600
1346.000000	39.245100
1345.000000	39.501000
1344.000000	39.764800
1343.000000	39.974200
1342.000000	40.173700
1341.000000	40.393800
1340.000000	40.598500
1339.000000	40.775500
1338.000000	40.954400
1337.000000	41.133600
1336.000000	41.301500
1335.000000	41.445200
1334.000000	41.590200
1333.000000	41.721800
1332.000000	41.835700
1331.000000	41.948800
1330.000000	42.058800
1329.000000	42.158500
1328.000000	42.242900
1327.000000	42.332700
1326.000000	42.408000
1325.000000	42.474000
1324.000000	42.547200
1323.000000	42.617400
1322.000000	42.694700
1321.000000	42.746500
1320.000000	42.801100
1319.000000	42.849400
1318.000000	42.908000
1317.000000	42.959400
1316.000000	42.992000
1315.000000	43.036800
1314.000000	43.073200
1313.000000	43.112000
1312.000000	43.147100
1311.000000	43.168100
1310.000000	43.193500
1309.000000	43.217600
1308.000000	43.241600
1307.000000	43.255200
1306.000000	43.263400
1305.000000	43.276900
1304.000000	43.274800
1303.000000	43.279500
1302.000000	43.291900
1301.000000	43.279400
1300.000000	43.250300
1299.000000	43.227800
1298.000000	43.215100
1297.000000	43.202700
1296.000000	43.170600
1295.000000	43.155700
1294.000000	43.157200
1293.000000	43.148500
1292.000000	43.124600
1291.000000	43.083200
1290.000000	43.049000
1289.000000	43.013000
1288.000000	42.957700
1287.000000	42.905900
1286.000000	42.848600
1285.000000	42.803400
1284.000000	42.751200
1283.000000	42.676500
1282.000000	42.627400
1281.000000	42.566800
1280.000000	42.502900
1279.000000	42.441400
1278.000000	42.375400
1277.000000	42.329200
1276.000000	42.286200
1275.000000	42.237300
1274.000000	42.188800
1273.000000	42.155800
1272.000000	42.108400
1271.000000	42.060100
1270.000000	42.018900
1269.000000	41.993400
1268.000000	41.947900
1267.000000	41.896100
1266.000000	41.862200
1265.000000	41.825800
1264.000000	41.781100
1263.000000	41.732100
1262.000000	41.681000
1261.000000	41.633600
1260.000000	41.608800
1259.000000	41.563900
1258.000000	41.514400
1257.000000	41.488400
1256.000000	41.459200
1255.000000	41.409200
1254.000000	41.354100
1253.000000	41.311700
1252.000000	41.266300
1251.000000	41.215100
1250.000000	41.157800
1249.000000	41.085000
1248.000000	41.016800
1247.000000	40.943500
1246.000000	40.853600
1245.000000	40.764000
1244.000000	40.671700
1243.000000	40.583600
1242.000000	40.471200
1241.000000	40.374100
1240.000000	40.239000
1239.000000	40.130800
1238.000000	39.998100
1237.000000	39.889800
1236.000000	39.767800
1235.000000	39.655200
1234.000000	39.533300
1233.000000	39.414600
1232.000000	39.283700
1231.000000	39.151300
1230.000000	39.019400
1229.000000	38.894100
1228.000000	38.753000
1227.000000	38.620700
1226.000000	38.492200
1225.000000	38.357500
1224.000000	38.241000
1223.000000	38.130800
1222.000000	37.993200
1221.000000	37.864700
1220.000000	37.749500
1219.000000	37.650500
1218.000000	37.555800
1217.000000	37.467100
1216.000000	37.378400
1215.000000	37.288800
1214.000000	37.215900
1213.000000	37.129200
1212.000000	37.054500
1211.000000	36.974100
1210.000000	36.892500
1209.000000	36.823200
1208.000000	36.761100
1207.000000	36.724300
1206.000000	36.695500
1205.000000	36.659000
1204.000000	36.639500
1203.000000	36.608400
1202.000000	36.607400
1201.000000	36.586800
1200.000000	36.556200
1199.000000	36.481900
1198.000000	36.399000
1197.000000	36.285100
1196.000000	36.135000
1195.000000	35.933600
1194.000000	35.691500
1193.000000	35.408300
1192.000000	35.044300
1191.000000	34.693400
1190.000000	34.349100
1189.000000	34.057800
1188.000000	33.835300
1187.000000	33.706400
1186.000000	33.659300
1185.000000	33.756400
1184.000000	33.919000
1183.000000	34.197700
1182.000000	34.545600
1181.000000	34.920300
1180.000000	35.278800
1179.000000	35.597700
1178.000000	35.892400
1177.000000	36.152900
1176.000000	36.406000
1175.000000	36.597300
1174.000000	36.806600
1173.000000	37.011800
1172.000000	37.213400
1171.000000	37.456500
1170.000000	37.693500
1169.000000	37.921100
1168.000000	38.158600
1167.000000	38.420400
1166.000000	38.699200
1165.000000	38.963300
1164.000000	39.228100
1163.000000	39.481500
1162.000000	39.742600
1161.000000	39.950100
1160.000000	40.215000
1159.000000	40.432700
1158.000000	40.611500
1157.000000	40.802900
1156.000000	40.967200
1155.000000	41.119700
1154.000000	41.193300
1153.000000	41.236500
1152.000000	41.249500
1151.000000	41.244200
1150.000000	41.230800
1149.000000	41.194000
1148.000000	41.180400
1147.000000	41.199000
1146.000000	41.280300
1145.000000	41.438600
1144.000000	41.604700
1143.000000	41.782000
1142.000000	41.957800
1141.000000	42.166000
1140.000000	42.372700
1139.000000	42.556300
1138.000000	42.765300
1137.000000	42.998000
1136.000000	43.216600
1135.000000	43.492600
1134.000000	43.730600
1133.000000	43.872100
1132.000000	43.968900
1131.000000	44.095500
1130.000000	44.242400
1129.000000	44.364400
1128.000000	44.454100
1127.000000	44.479200
1126.000000	44.539200
1125.000000	44.596700
1124.000000	44.617800
1123.000000	44.639800
1122.000000	44.684200
1121.000000	44.686200
1120.000000	44.683500
1119.000000	44.675000
1118.000000	44.681500
1117.000000	44.657500
1116.000000	44.638200
1115.000000	44.636200
1114.000000	44.602200
1113.000000	44.575300
1112.000000	44.574400
1111.000000	44.556000
1110.000000	44.536800
1109.000000	44.519300
1108.000000	44.466900
1107.000000	44.441200
1106.000000	44.405700
1105.000000	44.373500
1104.000000	44.334200
1103.000000	44.307100
1102.000000	44.277700
1101.000000	44.250700
1100.000000	44.219200
1099.000000	44.187300
1098.000000	44.146500
1097.000000	44.101800
1096.000000	44.074000
1095.000000	44.010000
1094.000000	43.953600
1093.000000	43.948200
1092.000000	43.908800
1091.000000	43.842500
1090.000000	43.780800
1089.000000	43.760700
1088.000000	43.715000
1087.000000	43.652000
1086.000000	43.595700
1085.000000	43.551100
1084.000000	43.491300
1083.000000	43.425700
1082.000000	43.384300
1081.000000	43.328300
1080.000000	43.285300
1079.000000	43.225800
1078.000000	43.177600
1077.000000	43.124900
1076.000000	43.093500
1075.000000	43.055400
1074.000000	43.011800
1073.000000	42.959600
1072.000000	42.911400
1071.000000	42.843200
1070.000000	42.795000
1069.000000	42.765900
1068.000000	42.729600
1067.000000	42.674200
1066.000000	42.624100
1065.000000	42.569500
1064.000000	42.515300
1063.000000	42.451200
1062.000000	42.404000
1061.000000	42.339600
1060.000000	42.309800
1059.000000	42.260400
1058.000000	42.194200
1057.000000	42.136100
1056.000000	42.077000
1055.000000	42.005800
1054.000000	41.950900
1053.000000	41.897900
1052.000000	41.852200
1051.000000	41.796800
1050.000000	41.741600
1049.000000	41.706600
1048.000000	41.663700
1047.000000	41.605800
1046.000000	41.551000
1045.000000	41.504900
1044.000000	41.456500
1043.000000	41.421000
1042.000000	41.387100
1041.000000	41.332300
1040.000000	41.292600
1039.000000	41.246700
1038.000000	41.190400
1037.000000	41.131400
1036.000000	41.066300
1035.000000	41.015000
1034.000000	40.956700
1033.000000	40.889400
1032.000000	40.826600
1031.000000	40.762400
1030.000000	40.692000
1029.000000	40.633900
1028.000000	40.577700
1027.000000	40.517700
1026.000000	40.446500
1025.000000	40.374500
1024.000000	40.295400
1023.000000	40.221300
1022.000000	40.152100
1021.000000	40.079100
1020.000000	40.008700
1019.000000	39.947400
1018.000000	39.885200
1017.000000	39.829600
1016.000000	39.782400
1015.000000	39.726800
1014.000000	39.662000
1013.000000	39.612000
1012.000000	39.597600
1011.000000	39.570700
1010.000000	39.531000
1009.000000	39.506600
1008.000000	39.501300
1007.000000	39.491200
1006.000000	39.449300
1005.000000	39.400800
1004.000000	39.357000
1003.000000	39.326100
1002.000000	39.280700
1001.000000	39.250600
1000.000000	39.228300
999.000000	39.188300
998.000000	39.150500
997.000000	39.109400
996.000000	39.077300
995.000000	39.052600
994.000000	39.021900
993.000000	38.968000
992.000000	38.926300
991.000000	38.889300
990.000000	38.845400
989.000000	38.818200
988.000000	38.777300
987.000000	38.750700
986.000000	38.720700
985.000000	38.695800
984.000000	38.658000
983.000000	38.604800
982.000000	38.572600
981.000000	38.527100
980.000000	38.482500
979.000000	38.442800
978.000000	38.400100
977.000000	38.338000
976.000000	38.266300
975.000000	38.224300
974.000000	38.194800
973.000000	38.163000
972.000000	38.098600
971.000000	38.055300
970.000000	38.007900
969.000000	37.973400
968.000000	37.906700
967.000000	37.850900
966.000000	37.798500
965.000000	37.734000
964.000000	37.674700
963.000000	37.635100
962.000000	37.602900
961.000000	37.555100
960.000000	37.521700
959.000000	37.486900
958.000000	37.427700
957.000000	37.370500
956.000000	37.331600
955.000000	37.258900
954.000000	37.229500
953.000000	37.188200
952.000000	37.130500
951.000000	37.072800
950.000000	36.983000
949.000000	36.927100
948.000000	36.864900
947.000000	36.808700
946.000000	36.728200
945.000000	36.707200
944.000000	36.650300
943.000000	36.599300
942.000000	36.527200
941.000000	36.481800
940.000000	36.408000
939.000000	36.353600
938.000000	36.315900
937.000000	36.270400
936.000000	36.248600
935.000000	36.225000
934.000000	36.222000
933.000000	36.166500
932.000000	36.139000
931.000000	36.103800
930.000000	36.072700
929.000000	36.040300
928.000000	35.996900
927.000000	35.944500
926.000000	35.889300
925.000000	35.892500
924.000000	35.856200
923.000000	35.812500
922.000000	35.788500
921.000000	35.765400
920.000000	35.743300
919.000000	35.748000
918.000000	35.705300
917.000000	35.673800
916.000000	35.659900
915.000000	35.641200
914.000000	35.618200
913.000000	35.609800
912.000000	35.595400
911.000000	35.594600
910.000000	35.608300
909.000000	35.606100
908.000000	35.622400
907.000000	35.637500
906.000000	35.686600
905.000000	35.728200
904.000000	35.734400
903.000000	35.766100
902.000000	35.881100
901.000000	35.933400
900.000000	36.001800
899.000000	36.044600
898.000000	36.126900
897.000000	36.235600
896.000000	36.329300
895.000000	36.401700
894.000000	36.484900
893.000000	36.576500
892.000000	36.658900
891.000000	36.733600
890.000000	36.853100
889.000000	37.037000
888.000000	37.141900
887.000000	37.240200
886.000000	37.353100
885.000000	37.491100
884.000000	37.595400
883.000000	37.738700
882.000000	37.950700
881.000000	38.073500
880.000000	38.238800
879.000000	38.444400
878.000000	38.554200
877.000000	38.704500
876.000000	38.872400
875.000000	39.038100
874.000000	39.275300
873.000000	39.479600
872.000000	39.708000
871.000000	39.900200
870.000000	40.170000
869.000000	40.358500
868.000000	40.580700
867.000000	40.876600
866.000000	41.132100
865.000000	41.441100
864.000000	41.712500
863.000000	42.022900
862.000000	42.330500
861.000000	42.742300
860.000000	43.080300
859.000000	43.379000
858.000000	42.869800
857.000000	43.097940
856.000000	43.064328
855.000000	42.588535
854.000000	42.493150
853.000000	42.790208
852.000000	42.498714
851.000000	42.618854
850.000000	42.813032
849.000000	42.835289
848.000000	42.843124
847.000000	43.017771
846.000000	42.932378
845.000000	43.158919
844.000000	43.074548
843.000000	43.224894
842.000000	43.158919
841.000000	43.066031
840.000000	43.163801
839.000000	43.351507
838.000000	43.306993
837.000000	43.493790
836.000000	43.689785
835.000000	43.415438
834.000000	43.593037
833.000000	43.556926
832.000000	43.655378
831.000000	43.759507
830.000000	43.759280
829.000000	43.669232
828.000000	43.681495
827.000000	43.914736
826.000000	43.962088
825.000000	43.946645
824.000000	43.920868
823.000000	43.975715
822.000000	43.999220
821.000000	44.036466
820.000000	44.091313
819.000000	44.023635
818.000000	44.036012
817.000000	44.074961
816.000000	44.176365
815.000000	44.211340
814.000000	44.155585
813.000000	44.111185
812.000000	44.114024
811.000000	44.253809
810.000000	44.326030
809.000000	44.370429
808.000000	44.317172
807.000000	44.426866
806.000000	44.455254
805.000000	44.526566
804.000000	44.530200
803.000000	44.631718
802.000000	44.632513
801.000000	44.615707
800.000000	44.549845
799.000000	44.673619
798.000000	44.754016
797.000000	44.813518
796.000000	44.845540
795.000000	44.942970
794.000000	45.023480
793.000000	45.094338
792.000000	45.107964
791.000000	45.124316
790.000000	45.211072
789.000000	45.292717
788.000000	45.348700
787.000000	45.401956
786.000000	45.453737
785.000000	45.479741
784.000000	45.430913
783.000000	45.457939
782.000000	45.529932
781.000000	45.541288
780.000000	45.543332
779.000000	45.516419
778.000000	45.520621
777.000000	45.539130
776.000000	45.465660
775.000000	45.382652
774.000000	45.395711
773.000000	45.423532
772.000000	45.390601
771.000000	45.394803
770.000000	45.417173
769.000000	45.390147
768.000000	45.386740
767.000000	45.365733
766.000000	45.321447
765.000000	45.292944
764.000000	45.284996
763.000000	45.334619
762.000000	45.278182
761.000000	45.259332
760.000000	45.294648
759.000000	45.278523
758.000000	45.258765
757.000000	45.282157
756.000000	45.308388
755.000000	45.260241
754.000000	45.171782
753.000000	45.176665
752.000000	45.228673
751.000000	45.226288
750.000000	45.216749
749.000000	45.181548
748.000000	45.127950
747.000000	45.110917
746.000000	45.092294
745.000000	45.078100
744.000000	45.045055
743.000000	44.972040
742.000000	44.908677
741.000000	44.842134
740.000000	44.779338
739.000000	44.749701
738.000000	44.732327
737.000000	44.653180
736.000000	44.581413
735.000000	44.519299
734.000000	44.439016
733.000000	44.372928
732.000000	44.292190
731.000000	44.182724
730.000000	44.064855
729.000000	43.928590
728.000000	43.806405
727.000000	43.729643
726.000000	43.629033
725.000000	43.492428
724.000000	43.374785
723.000000	43.229663
722.000000	43.104867
721.000000	42.986089
720.000000	42.805651
719.000000	42.651445
718.000000	42.533007
717.000000	42.376416
716.000000	42.226865
715.000000	42.106838
714.000000	41.987833
713.000000	41.848389
712.000000	41.723820
711.000000	41.614807
710.000000	41.485242
709.000000	41.305713
708.000000	41.184096
707.000000	41.072359
706.000000	40.937229
705.000000	40.762810
704.000000	40.641647
703.000000	40.464730
702.000000	40.292354
701.000000	40.135649
700.000000	40.024593
699.000000	39.845859
698.000000	39.717315
697.000000	39.610688
696.000000	39.459434
695.000000	39.305454
694.000000	39.134555
693.000000	39.008169
692.000000	38.895069
691.000000	38.766866
690.000000	38.594377
689.000000	38.454819
688.000000	38.338085
687.000000	38.227256
686.000000	38.166277
685.000000	38.034554
684.000000	37.881483
683.000000	37.755892
682.000000	37.644155
681.000000	37.521743
680.000000	37.388430
679.000000	37.246942
678.000000	37.107270
677.000000	36.960444
676.000000	36.849388
675.000000	36.707786
674.000000	36.589803
673.000000	36.477271
672.000000	36.367123
671.000000	36.282412
670.000000	36.171128
669.000000	36.035658
668.000000	35.945496
667.000000	35.864418
666.000000	35.815590
665.000000	35.666720
664.000000	35.538404
663.000000	35.417809
662.000000	35.336164
661.000000	35.212390
660.000000	35.125748
659.000000	35.038879
658.000000	34.929072
657.000000	34.813928
656.000000	34.675051
655.000000	34.621226
654.000000	34.489617
653.000000	34.368227
652.000000	34.225262
651.000000	34.094448
650.000000	33.995428
649.000000	33.826119
648.000000	33.654538
647.000000	33.542801
646.000000	33.431972
645.000000	33.312740
644.000000	33.106412
643.000000	32.917003
642.000000	32.729071
641.000000	32.560670
640.000000	32.386023
639.000000	32.211831
638.000000	32.038888
637.000000	31.849252
636.000000	31.653485
635.000000	31.428307
634.000000	31.226975
633.000000	31.019965
632.000000	30.813410
631.000000	30.605833
630.000000	30.434025
629.000000	30.263580
628.000000	30.126407
627.000000	29.975152
626.000000	29.876701
625.000000	29.789378
624.000000	29.696604
623.000000	29.632218
622.000000	29.575328
621.000000	29.495385
620.000000	29.469268
619.000000	29.437132
618.000000	29.439744
617.000000	29.417374
616.000000	29.453597
615.000000	29.446557
614.000000	29.469041
613.000000	29.496521
612.000000	29.480169
611.000000	29.541375
610.000000	29.595086
609.000000	29.665036
608.000000	29.769846
607.000000	29.838660
606.000000	29.928141
605.000000	30.046578
604.000000	30.168762
603.000000	30.310819
602.000000	30.491597
601.000000	30.647053
600.000000	30.852473
599.000000	31.062321
598.000000	31.240374
597.000000	31.439776
596.000000	31.644968
595.000000	31.833922
594.000000	32.006071
593.000000	32.260887
592.000000	32.520131
591.000000	32.727822
590.000000	33.008414
589.000000	33.261981
588.000000	33.490566
587.000000	33.763437
586.000000	34.010985
585.000000	34.294303
584.000000	34.520617
583.000000	34.768279
582.000000	34.997431
581.000000	35.272006
580.000000	35.474814
579.000000	35.716344
578.000000	35.955148
577.000000	36.147963
576.000000	36.319998
575.000000	36.494758
574.000000	36.610129
573.000000	36.771831
572.000000	36.894242
571.000000	37.025965
570.000000	37.164956
569.000000	37.275557
568.000000	37.318481
567.000000	37.420793
566.000000	37.472006
565.000000	37.553765
564.000000	37.616220
563.000000	37.646880
562.000000	37.641884
561.000000	37.641656
560.000000	37.668910
559.000000	37.662210
558.000000	37.614290
557.000000	37.614063
556.000000	37.561828
555.000000	37.476435
554.000000	37.423405
553.000000	37.356522
552.000000	37.308942
551.000000	37.224117
550.000000	37.147014
549.000000	37.065255
548.000000	36.964419
547.000000	36.887088
546.000000	36.780347
545.000000	36.747530
544.000000	36.706423
543.000000	36.554374
542.000000	36.478861
541.000000	36.397783
540.000000	36.250957
539.000000	36.067794
538.000000	35.858968
537.000000	35.693292
536.000000	35.537950
535.000000	35.332076
534.000000	35.172759
533.000000	34.974153
532.000000	34.769982
531.000000	34.590226
530.000000	34.370157
529.000000	34.130444
528.000000	33.890050
527.000000	33.653743
526.000000	33.454342
525.000000	33.190783
524.000000	32.875102
523.000000	32.581677
522.000000	32.269857
521.000000	31.959286
520.000000	31.607041
519.000000	31.240942
518.000000	30.867121
517.000000	30.494095
516.000000	30.115505
515.000000	29.715681
514.000000	29.277361
513.000000	28.860617
512.000000	28.460338
511.000000	28.077774
510.000000	27.704975
509.000000	27.296861
508.000000	26.846618
507.000000	26.482790
506.000000	26.111241
505.000000	25.736057
504.000000	25.362918
503.000000	24.972745
502.000000	24.559521
501.000000	24.151748
500.000000	23.753740
499.000000	23.341765
498.000000	22.937739
497.000000	22.532577
496.000000	22.184874
495.000000	21.806170
494.000000	21.450518
493.000000	21.106790
492.000000	20.765786
491.000000	20.424328
490.000000	20.102515
489.000000	19.786607
488.000000	19.484326
487.000000	19.179546
486.000000	18.909287
485.000000	18.615749
484.000000	18.317329
483.000000	18.020384
482.000000	17.685967
481.000000	17.298179
480.000000	16.913684
479.000000	16.601183
478.000000	16.334898
477.000000	16.090756
476.000000	15.839460
475.000000	15.595773
474.000000	15.376727
473.000000	15.166878
472.000000	14.951466
471.000000	14.742072
470.000000	14.548462
469.000000	14.369614
468.000000	14.193377
467.000000	14.020321
466.000000	13.865319
465.000000	13.720197
464.000000	13.578935
463.000000	13.442329
462.000000	13.310834
461.000000	13.201254
460.000000	13.077025
459.000000	12.950072
458.000000	12.830045
457.000000	12.713197
456.000000	12.587947
455.000000	12.452477
454.000000	12.317234
453.000000	12.177448
452.000000	12.049132
451.000000	11.937281
450.000000	11.813053
449.000000	11.685531
448.000000	11.557669
447.000000	11.421290
446.000000	11.289340
445.000000	11.185665
444.000000	11.069953
443.000000	10.926534
442.000000	10.792994
441.000000	10.669902
440.000000	10.549648
439.000000	10.440635
438.000000	10.329920
437.000000	10.225450
436.000000	10.123478
435.000000	10.024118
434.000000	9.937931
433.000000	9.859805
432.000000	9.793944
431.000000	9.735463
430.000000	9.673349
429.000000	9.627246
428.000000	9.595110
427.000000	9.565700
426.000000	9.537879
425.000000	9.515282
424.000000	9.508695
423.000000	9.498703
422.000000	9.494955
421.000000	9.492798
420.000000	9.484963
419.000000	9.484735
418.000000	9.477127
417.000000	9.459640
416.000000	9.460208
415.000000	9.450442
414.000000	9.421145
413.000000	9.410812
412.000000	9.391394
411.000000	9.347221
410.000000	9.304525
409.000000	9.267960
408.000000	9.226513
407.000000	9.198011
406.000000	9.136010
405.000000	9.074804
404.000000	9.012463
403.000000	8.941378
402.000000	8.862231
401.000000	8.783424
400.000000	8.689401
399.000000	8.583114
398.000000	8.491476
397.000000	8.402563
396.000000	8.297071
395.000000	8.173638
394.000000	8.046797
393.000000	7.932108
392.000000	7.807652
391.000000	7.671501
390.000000	7.540345
389.000000	7.410212
388.000000	7.272471
387.000000	7.128370
386.000000	6.998919
385.000000	6.841419
384.000000	6.694479
383.000000	6.563211
382.000000	6.413433
381.000000	6.272852
380.000000	6.115807
379.000000	5.989648
378.000000	5.852588
377.000000	5.721433
376.000000	5.559164
375.000000	5.257223
374.000000	5.042832
373.000000	4.905772
372.000000	4.860578
371.000000	4.864325
370.000000	4.746569
369.000000	4.591795
368.000000	4.590546
367.000000	4.452464
366.000000	4.358441
365.000000	4.283381
364.000000	4.188109
363.000000	4.021639
362.000000	3.977239
361.000000	3.995975
360.000000	3.875381
359.000000	3.824395
358.000000	3.775112
357.000000	3.660422
356.000000	3.662580
355.000000	3.569920
354.000000	3.511780
353.000000	3.561857
352.000000	3.465109
351.000000	3.274565
350.000000	3.184403
349.000000	3.295345
348.000000	3.396522
347.000000	3.370973
346.000000	3.321690
345.000000	3.154765
344.000000	3.173729
343.000000	3.260030
342.000000	3.336793
341.000000	3.261733
340.000000	3.012027
339.000000	3.051317
338.000000	3.124900
337.000000	2.937309
336.000000	3.226532
335.000000	3.138754
334.000000	3.157718
333.000000	3.100827
332.000000	3.123197
331.000000	3.168732
330.000000	3.262982
329.000000	3.413896
328.000000	3.223806
327.000000	3.531993
326.000000	3.072552
325.000000	3.093900
324.000000	3.481234
323.000000	2.878942
322.000000	3.189967
321.000000	3.242088
320.000000	3.326119
319.000000	3.457047
318.000000	3.325210
317.000000	3.528699
316.000000	3.084929
315.000000	2.981481
314.000000	2.957862
313.000000	3.032921
312.000000	3.042346
311.000000	2.996130
310.000000	3.009643
309.000000	2.929133
308.000000	3.013277
307.000000	3.002148
306.000000	3.038259
305.000000	2.995108
304.000000	2.973987
303.000000	3.029855
302.000000	3.021566
301.000000	3.000104
300.000000	2.939466
299.000000	2.942078
298.000000	2.933675
297.000000	2.968990
296.000000	2.989090
295.000000	3.003624
294.000000	3.046548
293.000000	2.981936
292.000000	2.989203
291.000000	3.001808
290.000000	2.976712
289.000000	2.952979
288.000000	2.975463
287.000000	3.003965
286.000000	2.954796
285.000000	3.016229
284.000000	3.063808
283.000000	2.999537
282.000000	3.012368
281.000000	3.030310
280.000000	3.079479
279.000000	3.025540
278.000000	2.996130
277.000000	2.996130
276.000000	3.085270
275.000000	2.973873
274.000000	2.979664
273.000000	3.002943
272.000000	3.064262
271.000000	3.073347
270.000000	3.057336
269.000000	3.032354
268.000000	3.080728
267.000000	3.039621
266.000000	3.121267
265.000000	3.118201
264.000000	3.109457
263.000000	3.055973
262.000000	3.086292
261.000000	3.105596
260.000000	3.092083
259.000000	3.192011
258.000000	3.171003
257.000000	3.177590
256.000000	3.176454
255.000000	3.188604
254.000000	3.140230
253.000000	3.141139
252.000000	3.152381
251.000000	3.141252
250.000000	3.144659
