PE UV       SUBTECH     SPECTRUM    ASCII       PEDS        4.00        
   -1
CICIMAUCR0012-1.Sample.ASC
24/04/11
15:46:55.00
24/04/11
15:46:55.00
Vinicio Soto Monge
C. cupreomarginata
250,000000
1
Lambda 1050
1050L1511233
PerkinElmer UV WinLab 6.3.2.0749 / 2.02.05 Lambda 900 UV/VIS/NIR, Aug  7 2015 09:38:08

0
0
3350/2 860,8/2
0
0
UV/VIS
1
1
1
DoubleDePol,CommonBeamDepol,RBeamAtt,SBeamAtt,60mm sphere, WB InGaAs Detector
0
0
0
0
Program
Program
3350/2 860,8/2
3350/0,2 860,8/0,2
3350/0,2 860,8/0,2
0
15.00
 
 
 
0
 
860,8
319,2
860,8
Front
100
on
S:100 R:100
0
0
0
0
 
0
 
 
 
0
 
 
0
0
0
0
0
 
 
 
 
0
0


0
0
#HDR
-1
-1
#GR
nm
%R
1.0
0.0
2400,000000
-1,000000
2151
8
43,719100
3,105100
#DATA
2400.000000	10.156001
2399.000000	10.867817
2398.000000	9.529797
2397.000000	8.998280
2396.000000	10.175665
2395.000000	10.881329
2394.000000	9.933049
2393.000000	9.658265
2392.000000	9.739440
2391.000000	10.890606
2390.000000	9.736717
2389.000000	9.862260
2388.000000	9.359684
2387.000000	10.554412
2386.000000	9.740851
2385.000000	10.162455
2384.000000	9.966728
2383.000000	10.319964
2382.000000	9.730364
2381.000000	9.574872
2380.000000	10.041449
2379.000000	9.741658
2378.000000	9.604720
2377.000000	9.010179
2376.000000	10.048105
2375.000000	9.553091
2374.000000	9.307147
2373.000000	9.394775
2372.000000	9.828580
2371.000000	10.162052
2370.000000	9.880310
2369.000000	9.785825
2368.000000	9.821723
2367.000000	9.841992
2366.000000	9.275686
2365.000000	10.132405
2364.000000	10.365543
2363.000000	8.573550
2362.000000	9.197939
2361.000000	8.926080
2360.000000	8.676909
2359.000000	9.401229
2358.000000	9.629022
2357.000000	8.862048
2356.000000	8.923963
2355.000000	9.613190
2354.000000	8.451738
2353.000000	8.456276
2352.000000	8.249860
2351.000000	8.317825
2350.000000	8.683161
2349.000000	9.113639
2348.000000	9.122210
2347.000000	8.808201
2346.000000	7.782073
2345.000000	8.758891
2344.000000	9.027120
2343.000000	8.961474
2342.000000	8.796806
2341.000000	8.793277
2340.000000	9.127958
2339.000000	8.843796
2338.000000	9.017238
2337.000000	8.554694
2336.000000	8.418966
2335.000000	8.768975
2334.000000	8.624877
2333.000000	8.842687
2332.000000	9.225267
2331.000000	8.981642
2330.000000	9.169906
2329.000000	8.462830
2328.000000	8.537955
2327.000000	8.526157
2326.000000	8.588172
2325.000000	8.688002
2324.000000	8.557013
2323.000000	8.785512
2322.000000	8.837948
2321.000000	8.244214
2320.000000	7.969934
2319.000000	7.848828
2318.000000	8.024790
2317.000000	8.118872
2316.000000	7.647757
2315.000000	7.510516
2314.000000	7.836021
2313.000000	7.744763
2312.000000	7.663891
2311.000000	8.130670
2310.000000	8.454965
2309.000000	7.973262
2308.000000	7.613673
2307.000000	7.831484
2306.000000	7.972959
2305.000000	7.929196
2304.000000	7.764225
2303.000000	8.015210
2302.000000	8.100822
2301.000000	7.794879
2300.000000	7.903079
2299.000000	7.620934
2298.000000	7.582514
2297.000000	8.131678
2296.000000	7.950573
2295.000000	7.803753
2294.000000	7.799215
2293.000000	7.604094
2292.000000	8.112217
2291.000000	8.343035
2290.000000	8.538862
2289.000000	8.065932
2288.000000	7.807686
2287.000000	7.931212
2286.000000	7.756662
2285.000000	7.549238
2284.000000	7.864054
2283.000000	7.964388
2282.000000	7.683252
2281.000000	8.108385
2280.000000	8.354530
2279.000000	7.985564
2278.000000	7.784392
2277.000000	7.877062
2276.000000	8.151846
2275.000000	7.932422
2274.000000	7.622850
2273.000000	7.619119
2272.000000	7.443459
2271.000000	7.607018
2270.000000	7.467357
2269.000000	7.633539
2268.000000	8.055646
2267.000000	7.708663
2266.000000	7.517171
2265.000000	7.747284
2264.000000	7.813534
2263.000000	7.861533
2262.000000	7.916994
2261.000000	7.995244
2260.000000	8.184013
2259.000000	8.356950
2258.000000	8.299775
2257.000000	8.364211
2256.000000	8.716539
2255.000000	8.676909
2254.000000	8.710085
2253.000000	8.828570
2252.000000	8.883022
2251.000000	9.051623
2250.000000	9.127655
2249.000000	9.406271
2248.000000	9.532318
2247.000000	9.330138
2246.000000	9.352020
2245.000000	9.402741
2244.000000	9.713827
2243.000000	9.892008
2242.000000	9.872142
2241.000000	9.746196
2240.000000	9.667542
2239.000000	9.767473
2238.000000	10.222050
2237.000000	10.319460
2236.000000	10.189480
2235.000000	10.191396
2234.000000	10.191194
2233.000000	10.569841
2232.000000	10.594748
2231.000000	10.391660
2230.000000	10.276705
2229.000000	9.950191
2228.000000	9.940410
2227.000000	10.094994
2226.000000	10.107398
2225.000000	10.055869
2224.000000	10.428062
2223.000000	10.332670
2222.000000	10.332266
2221.000000	10.396097
2220.000000	10.163766
2219.000000	10.139666
2218.000000	10.032576
2217.000000	9.950998
2216.000000	9.978426
2215.000000	10.172136
2214.000000	9.891604
2213.000000	9.917318
2212.000000	10.277007
2211.000000	10.409609
2210.000000	9.928208
2209.000000	9.954325
2208.000000	10.277713
2207.000000	10.694174
2206.000000	10.058390
2205.000000	9.938191
2204.000000	10.162354
2203.000000	9.902595
2202.000000	10.035500
2201.000000	10.182724
2200.000000	9.931839
2199.000000	10.145514
2198.000000	10.179093
2197.000000	9.921049
2196.000000	9.875067
2195.000000	10.308973
2194.000000	10.050928
2193.000000	9.959065
2192.000000	9.934057
2191.000000	10.148640
2190.000000	9.657156
2189.000000	9.847538
2188.000000	9.960981
2187.000000	10.100541
2186.000000	9.857319
2185.000000	9.699306
2184.000000	9.966527
2183.000000	10.128775
2182.000000	10.101448
2181.000000	10.174455
2180.000000	10.024609
2179.000000	9.535041
2178.000000	9.559343
2177.000000	9.818698
2176.000000	9.787842
2175.000000	9.981451
2174.000000	9.907537
2173.000000	9.764145
2172.000000	10.205815
2171.000000	9.780783
2170.000000	10.131498
2169.000000	10.346686
2168.000000	10.258352
2167.000000	9.918528
2166.000000	10.045785
2165.000000	9.709491
2164.000000	9.579309
2163.000000	10.123431
2162.000000	9.812245
2161.000000	10.129985
2160.000000	10.050525
2159.000000	9.205099
2158.000000	9.529999
2157.000000	9.676214
2156.000000	10.199967
2155.000000	10.015433
2154.000000	10.176673
2153.000000	9.976812
2152.000000	9.687407
2151.000000	9.793993
2150.000000	9.912881
2149.000000	9.942830
2148.000000	10.076440
2147.000000	10.369576
2146.000000	10.279326
2145.000000	10.156707
2144.000000	10.163363
2143.000000	10.298385
2142.000000	10.112439
2141.000000	9.904612
2140.000000	10.167497
2139.000000	10.607957
2138.000000	10.450650
2137.000000	9.960477
2136.000000	9.819303
2135.000000	9.927502
2134.000000	9.900579
2133.000000	10.159632
2132.000000	10.290015
2131.000000	10.136641
2130.000000	9.933553
2129.000000	10.438348
2128.000000	10.029147
2127.000000	9.801556
2126.000000	9.844009
2125.000000	9.771002
2124.000000	10.208639
2123.000000	9.916007
2122.000000	9.958964
2121.000000	9.696079
2120.000000	9.587880
2119.000000	9.704449
2118.000000	9.426640
2117.000000	9.657962
2116.000000	9.788346
2115.000000	9.899974
2114.000000	9.780682
2113.000000	9.685290
2112.000000	9.856815
2111.000000	9.641223
2110.000000	9.830698
2109.000000	9.440455
2108.000000	9.660383
2107.000000	9.573864
2106.000000	9.660584
2105.000000	9.602905
2104.000000	9.653526
2103.000000	9.814967
2102.000000	9.531411
2101.000000	9.400321
2100.000000	9.125538
2099.000000	9.279316
2098.000000	9.219418
2097.000000	9.093673
2096.000000	9.271047
2095.000000	9.311987
2094.000000	8.827965
2093.000000	9.367852
2092.000000	9.183520
2091.000000	9.119387
2090.000000	9.449934
2089.000000	9.327214
2088.000000	9.387212
2087.000000	9.217805
2086.000000	9.118882
2085.000000	9.305433
2084.000000	9.281030
2083.000000	9.291719
2082.000000	9.254510
2081.000000	9.176360
2080.000000	9.331449
2079.000000	9.123218
2078.000000	9.156394
2077.000000	9.054850
2076.000000	8.992734
2075.000000	9.264493
2074.000000	9.288189
2073.000000	9.119891
2072.000000	9.066043
2071.000000	9.231014
2070.000000	8.975592
2069.000000	9.164159
2068.000000	9.264493
2067.000000	9.158209
2066.000000	9.127655
2065.000000	9.124429
2064.000000	9.038010
2063.000000	9.128260
2062.000000	9.062716
2061.000000	9.032868
2060.000000	9.079858
2059.000000	9.217704
2058.000000	8.958046
2057.000000	8.912568
2056.000000	8.993541
2055.000000	9.004734
2054.000000	9.163150
2053.000000	9.088127
2052.000000	8.829679
2051.000000	9.155487
2050.000000	9.355045
2049.000000	9.299080
2048.000000	9.149537
2047.000000	9.154478
2046.000000	9.124025
2045.000000	9.432690
2044.000000	9.526066
2043.000000	9.374507
2042.000000	9.430371
2041.000000	9.681760
2040.000000	9.761221
2039.000000	9.824749
2038.000000	9.863874
2037.000000	9.932746
2036.000000	10.044777
2035.000000	10.023198
2034.000000	10.075533
2033.000000	10.105885
2032.000000	10.138556
2031.000000	10.142489
2030.000000	10.195631
2029.000000	10.276604
2028.000000	10.441070
2027.000000	10.450953
2026.000000	10.405676
2025.000000	10.397004
2024.000000	10.330955
2023.000000	10.412130
2022.000000	10.517002
2021.000000	10.471524
2020.000000	10.495523
2019.000000	10.596664
2018.000000	10.611890
2017.000000	10.667956
2016.000000	10.630243
2015.000000	10.588496
2014.000000	10.511556
2013.000000	10.642242
2012.000000	10.690947
2011.000000	10.635285
2010.000000	10.652729
2009.000000	10.619554
2008.000000	10.608058
2007.000000	10.644662
2006.000000	10.606445
2005.000000	10.574782
2004.000000	10.681065
2003.000000	10.625402
2002.000000	10.587386
2001.000000	10.541707
2000.000000	10.488767
1999.000000	10.483019
1998.000000	10.493809
1997.000000	10.521136
1996.000000	10.504699
1995.000000	10.415558
1994.000000	10.376433
1993.000000	10.328132
1992.000000	10.235260
1991.000000	10.273679
1990.000000	10.341342
1989.000000	10.353140
1988.000000	10.256638
1987.000000	10.193311
1986.000000	10.162657
1985.000000	10.207530
1984.000000	10.146825
1983.000000	10.005854
1982.000000	9.976106
1981.000000	9.956947
1980.000000	9.990728
1979.000000	9.883840
1978.000000	9.789959
1977.000000	9.831202
1976.000000	9.835740
1975.000000	9.731171
1974.000000	9.686701
1973.000000	9.648988
1972.000000	9.605123
1971.000000	9.552385
1970.000000	9.575679
1969.000000	9.575174
1968.000000	9.506000
1967.000000	9.417665
1966.000000	9.395582
1965.000000	9.359179
1964.000000	9.338104
1963.000000	9.307651
1962.000000	9.355650
1961.000000	9.282543
1960.000000	9.239586
1959.000000	9.180293
1958.000000	9.120899
1957.000000	9.146714
1956.000000	9.111925
1955.000000	9.120698
1954.000000	9.099622
1953.000000	9.002616
1952.000000	8.991927
1951.000000	8.991524
1950.000000	8.961979
1949.000000	8.866787
1948.000000	8.882619
1947.000000	8.898148
1946.000000	8.881711
1945.000000	8.743160
1944.000000	8.802957
1943.000000	8.779865
1942.000000	8.741143
1941.000000	8.802352
1940.000000	8.864468
1939.000000	8.869913
1938.000000	8.807293
1937.000000	8.791966
1936.000000	8.716942
1935.000000	8.781579
1934.000000	8.808806
1933.000000	8.755563
1932.000000	8.852670
1931.000000	8.999894
1930.000000	8.944634
1929.000000	8.963693
1928.000000	8.908232
1927.000000	9.076228
1926.000000	9.037506
1925.000000	9.037002
1924.000000	9.069068
1923.000000	9.115252
1922.000000	9.202881
1921.000000	9.464757
1920.000000	9.620753
1919.000000	9.450640
1918.000000	9.589897
1917.000000	9.616720
1916.000000	9.723306
1915.000000	9.726129
1914.000000	9.995568
1913.000000	10.184337
1912.000000	10.228403
1911.000000	10.253008
1910.000000	10.365543
1909.000000	10.444196
1908.000000	10.580227
1907.000000	10.649604
1906.000000	10.953428
1905.000000	11.219641
1904.000000	11.184751
1903.000000	11.308177
1902.000000	11.421014
1901.000000	11.700638
1900.000000	11.844836
1899.000000	12.155720
1898.000000	12.157434
1897.000000	12.220861
1896.000000	12.361127
1895.000000	12.524787
1894.000000	12.862897
1893.000000	13.040574
1892.000000	13.296601
1891.000000	13.247191
1890.000000	13.585200
1889.000000	13.831648
1888.000000	14.013560
1887.000000	14.149187
1886.000000	14.568169
1885.000000	14.652873
1884.000000	15.016495
1883.000000	15.509794
1882.000000	15.637758
1881.000000	16.117343
1880.000000	16.448294
1879.000000	16.756454
1878.000000	17.015911
1877.000000	17.423800
1876.000000	17.774616
1875.000000	17.954511
1874.000000	18.200757
1873.000000	18.624479
1872.000000	18.779870
1871.000000	19.147324
1870.000000	19.224767
1869.000000	19.377134
1868.000000	19.338916
1867.000000	19.612893
1866.000000	19.559550
1865.000000	19.619246
1864.000000	19.847240
1863.000000	19.821123
1862.000000	19.833627
1861.000000	19.959171
1860.000000	20.154595
1859.000000	20.115974
1858.000000	19.979137
1857.000000	20.035808
1856.000000	20.120915
1855.000000	20.011001
1854.000000	20.075437
1853.000000	20.116175
1852.000000	19.935776
1851.000000	19.894231
1850.000000	19.886870
1849.000000	19.824854
1848.000000	20.035203
1847.000000	19.989019
1846.000000	19.795611
1845.000000	19.535147
1844.000000	19.577499
1843.000000	19.596053
1842.000000	19.631649
1841.000000	19.582843
1840.000000	19.488862
1839.000000	19.475753
1838.000000	19.441972
1837.000000	19.507215
1836.000000	19.478879
1835.000000	19.321068
1834.000000	19.203491
1833.000000	19.148332
1832.000000	19.110215
1831.000000	19.069073
1830.000000	19.075225
1829.000000	18.925077
1828.000000	18.890389
1827.000000	18.820004
1826.000000	18.865179
1825.000000	18.688511
1824.000000	18.601790
1823.000000	18.593017
1822.000000	18.596345
1821.000000	18.601689
1820.000000	18.610966
1819.000000	18.447407
1818.000000	18.374300
1817.000000	18.436012
1816.000000	18.389829
1815.000000	18.480280
1814.000000	18.378938
1813.000000	18.351712
1812.000000	18.423408
1811.000000	18.352519
1810.000000	18.326603
1809.000000	18.293932
1808.000000	18.245933
1807.000000	18.220118
1806.000000	18.222337
1805.000000	18.160120
1804.000000	18.079147
1803.000000	18.026408
1802.000000	18.013602
1801.000000	17.985166
1800.000000	17.946545
1799.000000	17.860933
1798.000000	17.803960
1797.000000	17.755658
1796.000000	17.748297
1795.000000	17.689609
1794.000000	17.643325
1793.000000	17.637779
1792.000000	17.580704
1791.000000	17.521210
1790.000000	17.481076
1789.000000	17.405045
1788.000000	17.394961
1787.000000	17.348172
1786.000000	17.281316
1785.000000	17.210226
1784.000000	17.177554
1783.000000	17.153655
1782.000000	17.011776
1781.000000	16.980517
1780.000000	16.950164
1779.000000	16.850436
1778.000000	16.809294
1777.000000	16.685465
1776.000000	16.604290
1775.000000	16.545804
1774.000000	16.483284
1773.000000	16.404328
1772.000000	16.281608
1771.000000	16.112805
1770.000000	16.039496
1769.000000	15.979699
1768.000000	15.892273
1767.000000	15.805451
1766.000000	15.756646
1765.000000	15.679303
1764.000000	15.648951
1763.000000	15.642699
1762.000000	15.641892
1761.000000	15.680513
1760.000000	15.757654
1759.000000	15.803031
1758.000000	15.844879
1757.000000	15.901550
1756.000000	15.954792
1755.000000	15.984338
1754.000000	15.982119
1753.000000	16.009547
1752.000000	16.017614
1751.000000	15.998052
1750.000000	15.961145
1749.000000	15.924743
1748.000000	15.885012
1747.000000	15.834694
1746.000000	15.752511
1745.000000	15.643102
1744.000000	15.527945
1743.000000	15.402200
1742.000000	15.259817
1741.000000	15.075384
1740.000000	14.906783
1739.000000	14.736568
1738.000000	14.552942
1737.000000	14.408441
1736.000000	14.303267
1735.000000	14.260915
1734.000000	14.196480
1733.000000	14.151708
1732.000000	14.191236
1731.000000	14.246193
1730.000000	14.332914
1729.000000	14.409450
1728.000000	14.502422
1727.000000	14.587731
1726.000000	14.636739
1725.000000	14.728098
1724.000000	14.790113
1723.000000	14.808970
1722.000000	14.794348
1721.000000	14.780029
1720.000000	14.808567
1719.000000	14.832263
1718.000000	14.853339
1717.000000	14.855255
1716.000000	14.862212
1715.000000	14.939858
1714.000000	15.033032
1713.000000	15.060561
1712.000000	15.074678
1711.000000	15.075888
1710.000000	15.094745
1709.000000	15.077905
1708.000000	15.094039
1707.000000	15.074981
1706.000000	15.047653
1705.000000	15.019419
1704.000000	14.987957
1703.000000	14.940967
1702.000000	14.832163
1701.000000	14.786080
1700.000000	14.663763
1699.000000	14.533279
1698.000000	14.429617
1697.000000	14.305788
1696.000000	14.267974
1695.000000	14.269083
1694.000000	14.300545
1693.000000	14.398055
1692.000000	14.497985
1691.000000	14.627764
1690.000000	14.741207
1689.000000	14.841036
1688.000000	14.881170
1687.000000	14.918682
1686.000000	14.912531
1685.000000	14.893270
1684.000000	14.933707
1683.000000	15.055116
1682.000000	15.285026
1681.000000	15.623035
1680.000000	15.994522
1679.000000	16.407857
1678.000000	16.843377
1677.000000	17.223738
1676.000000	17.603695
1675.000000	17.953099
1674.000000	18.221933
1673.000000	18.479373
1672.000000	18.622764
1671.000000	18.829482
1670.000000	18.989109
1669.000000	19.128770
1668.000000	19.232229
1667.000000	19.368159
1666.000000	19.463955
1665.000000	19.537769
1664.000000	19.589700
1663.000000	19.657967
1662.000000	19.671581
1661.000000	19.723210
1660.000000	19.790065
1659.000000	19.820821
1658.000000	19.859946
1657.000000	19.824955
1656.000000	19.827476
1655.000000	19.828585
1654.000000	19.845930
1653.000000	19.826165
1652.000000	19.797527
1651.000000	19.790166
1650.000000	19.752957
1649.000000	19.731882
1648.000000	19.695378
1647.000000	19.639212
1646.000000	19.596355
1645.000000	19.545231
1644.000000	19.489971
1643.000000	19.472022
1642.000000	19.419385
1641.000000	19.397301
1640.000000	19.319858
1639.000000	19.264296
1638.000000	19.247456
1637.000000	19.140668
1636.000000	19.064132
1635.000000	19.024201
1634.000000	18.980235
1633.000000	18.898556
1632.000000	18.868305
1631.000000	18.843297
1630.000000	18.737115
1629.000000	18.630226
1628.000000	18.569320
1627.000000	18.507708
1626.000000	18.419172
1625.000000	18.376216
1624.000000	18.300385
1623.000000	18.233933
1622.000000	18.169498
1621.000000	18.091651
1620.000000	18.056660
1619.000000	17.937368
1618.000000	17.939688
1617.000000	17.815153
1616.000000	17.755759
1615.000000	17.713004
1614.000000	17.626082
1613.000000	17.587965
1612.000000	17.487328
1611.000000	17.420574
1610.000000	17.399700
1609.000000	17.315702
1608.000000	17.296240
1607.000000	17.197419
1606.000000	17.182495
1605.000000	17.129555
1604.000000	17.035171
1603.000000	16.991710
1602.000000	16.927274
1601.000000	16.893897
1600.000000	16.778235
1599.000000	16.779244
1598.000000	16.681229
1597.000000	16.612559
1596.000000	16.586845
1595.000000	16.548123
1594.000000	16.551451
1593.000000	16.478545
1592.000000	16.468159
1591.000000	16.427521
1590.000000	16.359959
1589.000000	16.338279
1588.000000	16.299255
1587.000000	16.249441
1586.000000	16.226248
1585.000000	16.199728
1584.000000	16.205677
1583.000000	16.170586
1582.000000	16.163829
1581.000000	16.138519
1580.000000	16.101512
1579.000000	16.098083
1578.000000	16.103327
1577.000000	16.109478
1576.000000	16.115125
1575.000000	16.106352
1574.000000	16.070958
1573.000000	16.098587
1572.000000	16.106352
1571.000000	16.115730
1570.000000	16.117141
1569.000000	16.144872
1568.000000	16.137410
1567.000000	16.171291
1566.000000	16.194484
1565.000000	16.193678
1564.000000	16.211929
1563.000000	16.231189
1562.000000	16.245710
1561.000000	16.256701
1560.000000	16.241676
1559.000000	16.259222
1558.000000	16.268701
1557.000000	16.299154
1556.000000	16.293810
1555.000000	16.262449
1554.000000	16.261239
1553.000000	16.271020
1552.000000	16.282919
1551.000000	16.263054
1550.000000	16.250651
1549.000000	16.266483
1548.000000	16.214047
1547.000000	16.229475
1546.000000	16.200635
1545.000000	16.183997
1544.000000	16.189745
1543.000000	16.185711
1542.000000	16.204064
1541.000000	16.188131
1540.000000	16.201140
1539.000000	16.170081
1538.000000	16.184400
1537.000000	16.185409
1536.000000	16.184804
1535.000000	16.133780
1534.000000	16.124603
1533.000000	16.149208
1532.000000	16.111394
1531.000000	16.099192
1530.000000	16.073277
1529.000000	16.072874
1528.000000	16.035059
1527.000000	15.997951
1526.000000	15.976069
1525.000000	15.950154
1524.000000	15.940070
1523.000000	15.915566
1522.000000	15.899634
1521.000000	15.879164
1520.000000	15.841551
1519.000000	15.807670
1518.000000	15.777418
1517.000000	15.746965
1516.000000	15.722865
1515.000000	15.702395
1514.000000	15.685252
1513.000000	15.650362
1512.000000	15.627775
1511.000000	15.580582
1510.000000	15.558196
1509.000000	15.538936
1508.000000	15.494467
1507.000000	15.485896
1506.000000	15.458770
1505.000000	15.414603
1504.000000	15.396654
1503.000000	15.378301
1502.000000	15.347042
1501.000000	15.325765
1500.000000	15.282909
1499.000000	15.260220
1498.000000	15.253968
1497.000000	15.242473
1496.000000	15.224221
1495.000000	15.214540
1494.000000	15.212120
1493.000000	15.192356
1492.000000	15.195785
1491.000000	15.196894
1490.000000	15.185902
1489.000000	15.213230
1488.000000	15.198911
1487.000000	15.168357
1486.000000	15.185499
1485.000000	15.193667
1484.000000	15.182171
1483.000000	15.185297
1482.000000	15.181365
1481.000000	15.189835
1480.000000	15.215851
1479.000000	15.244388
1478.000000	15.241565
1477.000000	15.246103
1476.000000	15.284320
1475.000000	15.298538
1474.000000	15.309328
1473.000000	15.335143
1472.000000	15.368621
1471.000000	15.417527
1470.000000	15.454636
1469.000000	15.490837
1468.000000	15.575137
1467.000000	15.680815
1466.000000	15.735470
1465.000000	15.756646
1464.000000	15.793956
1463.000000	15.840039
1462.000000	15.886827
1461.000000	15.927969
1460.000000	15.994119
1459.000000	16.055731
1458.000000	16.095865
1457.000000	16.142351
1456.000000	16.217274
1455.000000	16.299961
1454.000000	16.357741
1453.000000	16.416933
1452.000000	16.483788
1451.000000	16.588862
1450.000000	16.690103
1449.000000	16.752723
1448.000000	16.806268
1447.000000	16.876048
1446.000000	17.002802
1445.000000	17.097489
1444.000000	17.157891
1443.000000	17.257216
1442.000000	17.355735
1441.000000	17.445178
1440.000000	17.545512
1439.000000	17.660165
1438.000000	17.780364
1437.000000	17.881303
1436.000000	17.952595
1435.000000	18.067550
1434.000000	18.169598
1433.000000	18.296049
1432.000000	18.430466
1431.000000	18.518296
1430.000000	18.636176
1429.000000	18.779668
1428.000000	18.913884
1427.000000	19.063225
1426.000000	19.245238
1425.000000	19.420191
1424.000000	19.577196
1423.000000	19.780587
1422.000000	19.927508
1421.000000	20.114159
1420.000000	20.323801
1419.000000	20.541309
1418.000000	20.723926
1417.000000	20.886175
1416.000000	21.051751
1415.000000	21.262300
1414.000000	21.524177
1413.000000	21.679669
1412.000000	21.830018
1411.000000	22.046820
1410.000000	22.324326
1409.000000	22.589429
1408.000000	22.827810
1407.000000	23.155937
1406.000000	23.448670
1405.000000	23.769738
1404.000000	24.095344
1403.000000	24.327171
1402.000000	24.587131
1401.000000	24.960938
1400.000000	25.301064
1399.000000	25.500825
1398.000000	25.671846
1397.000000	25.867673
1396.000000	26.123600
1395.000000	26.373981
1394.000000	26.460601
1393.000000	26.592396
1392.000000	26.828660
1391.000000	26.985967
1390.000000	27.124417
1389.000000	27.351505
1388.000000	27.704438
1387.000000	27.984162
1386.000000	28.175553
1385.000000	28.588585
1384.000000	28.904208
1383.000000	29.268637
1382.000000	29.604024
1381.000000	29.791684
1380.000000	29.964419
1379.000000	30.048014
1378.000000	30.113559
1377.000000	30.243136
1376.000000	30.341957
1375.000000	30.510054
1374.000000	30.691764
1373.000000	30.936296
1372.000000	31.234272
1371.000000	31.520148
1370.000000	31.772747
1369.000000	31.964844
1368.000000	32.282282
1367.000000	32.526209
1366.000000	32.612526
1365.000000	32.799783
1364.000000	33.027777
1363.000000	33.050062
1362.000000	33.296208
1361.000000	33.478826
1360.000000	33.393315
1359.000000	33.447163
1358.000000	33.520875
1357.000000	33.641074
1356.000000	33.847086
1355.000000	34.138508
1354.000000	34.512516
1353.000000	34.876239
1352.000000	35.239558
1351.000000	35.662271
1350.000000	36.068850
1349.000000	36.349986
1348.000000	36.700499
1347.000000	37.027618
1346.000000	37.242907
1345.000000	37.518397
1344.000000	37.764744
1343.000000	38.006553
1342.000000	38.200566
1341.000000	38.438745
1340.000000	38.640219
1339.000000	38.840988
1338.000000	39.052445
1337.000000	39.249483
1336.000000	39.401143
1335.000000	39.523258
1334.000000	39.710111
1333.000000	39.828898
1332.000000	39.981063
1331.000000	40.110337
1330.000000	40.254535
1329.000000	40.367978
1328.000000	40.514496
1327.000000	40.577620
1326.000000	40.704172
1325.000000	40.799262
1324.000000	40.874992
1323.000000	40.982485
1322.000000	41.033811
1321.000000	41.113675
1320.000000	41.196665
1319.000000	41.281772
1318.000000	41.333704
1317.000000	41.408021
1316.000000	41.476389
1315.000000	41.537800
1314.000000	41.599714
1313.000000	41.624520
1312.000000	41.683813
1311.000000	41.731812
1310.000000	41.774870
1309.000000	41.839104
1308.000000	41.865120
1307.000000	41.881557
1306.000000	41.917858
1305.000000	41.895573
1304.000000	41.909892
1303.000000	41.940244
1302.000000	41.944076
1301.000000	41.950631
1300.000000	41.945488
1299.000000	41.932681
1298.000000	41.958093
1297.000000	41.974126
1296.000000	41.970496
1295.000000	41.970597
1294.000000	41.942261
1293.000000	41.925925
1292.000000	41.922295
1291.000000	41.906564
1290.000000	41.874599
1289.000000	41.873389
1288.000000	41.866128
1287.000000	41.819541
1286.000000	41.753795
1285.000000	41.692183
1284.000000	41.651444
1283.000000	41.609697
1282.000000	41.563917
1281.000000	41.529632
1280.000000	41.475784
1279.000000	41.415685
1278.000000	41.380997
1277.000000	41.343082
1276.000000	41.281974
1275.000000	41.228025
1274.000000	41.199488
1273.000000	41.186480
1272.000000	41.153809
1271.000000	41.127288
1270.000000	41.093003
1269.000000	41.048130
1268.000000	40.996300
1267.000000	40.957880
1266.000000	40.932973
1265.000000	40.887092
1264.000000	40.860975
1263.000000	40.815195
1262.000000	40.798758
1261.000000	40.757314
1260.000000	40.701248
1259.000000	40.670190
1258.000000	40.649518
1257.000000	40.623199
1256.000000	40.567133
1255.000000	40.521756
1254.000000	40.471438
1253.000000	40.424044
1252.000000	40.377961
1251.000000	40.325021
1250.000000	40.247577
1249.000000	40.185562
1248.000000	40.117597
1247.000000	40.052658
1246.000000	39.986709
1245.000000	39.904930
1244.000000	39.809235
1243.000000	39.706481
1242.000000	39.591324
1241.000000	39.502183
1240.000000	39.409916
1239.000000	39.310288
1238.000000	39.181820
1237.000000	39.036715
1236.000000	38.924784
1235.000000	38.810333
1234.000000	38.683277
1233.000000	38.556524
1232.000000	38.429871
1231.000000	38.304328
1230.000000	38.173239
1229.000000	38.029544
1228.000000	37.878388
1227.000000	37.744375
1226.000000	37.599369
1225.000000	37.455171
1224.000000	37.309460
1223.000000	37.161228
1222.000000	37.002509
1221.000000	36.859521
1220.000000	36.725608
1219.000000	36.587863
1218.000000	36.472101
1217.000000	36.358356
1216.000000	36.238460
1215.000000	36.125824
1214.000000	36.031036
1213.000000	35.963273
1212.000000	35.875544
1211.000000	35.784386
1210.000000	35.684153
1209.000000	35.599953
1208.000000	35.537736
1207.000000	35.469771
1206.000000	35.434982
1205.000000	35.398681
1204.000000	35.363690
1203.000000	35.348766
1202.000000	35.329203
1201.000000	35.297439
1200.000000	35.261238
1199.000000	35.224937
1198.000000	35.165745
1197.000000	35.084873
1196.000000	34.979396
1195.000000	34.809787
1194.000000	34.576952
1193.000000	34.310134
1192.000000	33.995621
1191.000000	33.642889
1190.000000	33.301048
1189.000000	33.006803
1188.000000	32.768119
1187.000000	32.594779
1186.000000	32.535284
1185.000000	32.589838
1184.000000	32.731717
1183.000000	32.962434
1182.000000	33.303670
1181.000000	33.686955
1180.000000	34.064594
1179.000000	34.412989
1178.000000	34.754225
1177.000000	35.037580
1176.000000	35.283019
1175.000000	35.497401
1174.000000	35.702707
1173.000000	35.932517
1172.000000	36.158798
1171.000000	36.399800
1170.000000	36.632232
1169.000000	36.840967
1168.000000	37.089734
1167.000000	37.355241
1166.000000	37.622461
1165.000000	37.871229
1164.000000	38.091257
1163.000000	38.356562
1162.000000	38.619850
1161.000000	38.851979
1160.000000	39.106192
1159.000000	39.317246
1158.000000	39.547862
1157.000000	39.774950
1156.000000	39.958576
1155.000000	40.103077
1154.000000	40.220351
1153.000000	40.285291
1152.000000	40.301425
1151.000000	40.326735
1150.000000	40.328752
1149.000000	40.362230
1148.000000	40.344684
1147.000000	40.348012
1146.000000	40.440783
1145.000000	40.568242
1144.000000	40.732709
1143.000000	40.905243
1142.000000	41.084835
1141.000000	41.315553
1140.000000	41.541430
1139.000000	41.733728
1138.000000	41.931068
1137.000000	42.160575
1136.000000	42.394620
1135.000000	42.694714
1134.000000	42.929465
1133.000000	43.106133
1132.000000	43.291070
1131.000000	43.436983
1130.000000	43.565249
1129.000000	43.709145
1128.000000	43.823999
1127.000000	43.859293
1126.000000	43.902149
1125.000000	43.991592
1124.000000	44.035053
1123.000000	44.069943
1122.000000	44.085472
1121.000000	44.059960
1120.000000	44.078514
1119.000000	44.070750
1118.000000	44.065809
1117.000000	44.083254
1116.000000	44.061271
1115.000000	44.029507
1114.000000	44.007827
1113.000000	44.008533
1112.000000	43.961139
1111.000000	43.947929
1110.000000	43.916165
1109.000000	43.930283
1108.000000	43.906686
1107.000000	43.867057
1106.000000	43.813210
1105.000000	43.780034
1104.000000	43.742522
1103.000000	43.738690
1102.000000	43.725077
1101.000000	43.682322
1100.000000	43.642087
1099.000000	43.606794
1098.000000	43.592979
1097.000000	43.566661
1096.000000	43.490326
1095.000000	43.445252
1094.000000	43.405219
1093.000000	43.350565
1092.000000	43.360346
1091.000000	43.318196
1090.000000	43.247508
1089.000000	43.259508
1088.000000	43.199711
1087.000000	43.133360
1086.000000	43.065395
1085.000000	43.060454
1084.000000	42.932692
1083.000000	42.936221
1082.000000	42.881769
1081.000000	42.900424
1080.000000	42.823888
1079.000000	42.786679
1078.000000	42.703487
1077.000000	42.642884
1076.000000	42.520769
1075.000000	42.565037
1074.000000	42.479425
1073.000000	42.384234
1072.000000	42.345916
1071.000000	42.276741
1070.000000	42.282589
1069.000000	42.218860
1068.000000	42.220877
1067.000000	42.131534
1066.000000	42.067502
1065.000000	41.990462
1064.000000	41.925320
1063.000000	41.941354
1062.000000	41.893153
1061.000000	41.806836
1060.000000	41.808550
1059.000000	41.732014
1058.000000	41.672923
1057.000000	41.629260
1056.000000	41.540926
1055.000000	41.539615
1054.000000	41.477700
1053.000000	41.397736
1052.000000	41.352359
1051.000000	41.369703
1050.000000	41.275318
1049.000000	41.233269
1048.000000	41.181337
1047.000000	41.152599
1046.000000	41.150985
1045.000000	41.088365
1044.000000	41.039761
1043.000000	40.955158
1042.000000	40.894151
1041.000000	40.903730
1040.000000	40.902319
1039.000000	40.823060
1038.000000	40.781616
1037.000000	40.736541
1036.000000	40.687433
1035.000000	40.637115
1034.000000	40.588813
1033.000000	40.531739
1032.000000	40.481824
1031.000000	40.418094
1030.000000	40.307677
1029.000000	40.272384
1028.000000	40.223679
1027.000000	40.179310
1026.000000	40.133227
1025.000000	40.069699
1024.000000	40.043784
1023.000000	39.930744
1022.000000	39.828595
1021.000000	39.774647
1020.000000	39.740463
1019.000000	39.684498
1018.000000	39.640835
1017.000000	39.632667
1016.000000	39.621777
1015.000000	39.528401
1014.000000	39.429378
1013.000000	39.380169
1012.000000	39.357077
1011.000000	39.300708
1010.000000	39.226088
1009.000000	39.142494
1008.000000	39.094192
1007.000000	39.096713
1006.000000	39.121519
1005.000000	39.018362
1004.000000	39.018362
1003.000000	38.878399
1002.000000	38.875878
1001.000000	38.884449
1000.000000	38.835845
999.000000	38.813358
998.000000	38.743982
997.000000	38.694067
996.000000	38.672286
995.000000	38.623077
994.000000	38.644757
993.000000	38.547247
992.000000	38.502979
991.000000	38.448728
990.000000	38.434006
989.000000	38.355352
988.000000	38.325907
987.000000	38.227288
986.000000	38.236867
985.000000	38.215490
984.000000	38.177978
983.000000	38.143189
982.000000	38.147323
981.000000	38.133206
980.000000	38.078753
979.000000	37.976100
978.000000	38.026519
977.000000	37.998083
976.000000	37.909850
975.000000	37.865078
974.000000	37.825549
973.000000	37.783500
972.000000	37.655738
971.000000	37.629117
970.000000	37.587975
969.000000	37.517792
968.000000	37.524649
967.000000	37.516682
966.000000	37.415743
965.000000	37.362804
964.000000	37.339006
963.000000	37.344350
962.000000	37.312788
961.000000	37.304217
960.000000	37.299276
959.000000	37.153565
958.000000	37.148220
957.000000	37.142372
956.000000	37.131582
955.000000	37.090743
954.000000	36.989098
953.000000	36.990711
952.000000	36.981434
951.000000	36.848731
950.000000	36.761305
949.000000	36.674382
948.000000	36.637879
947.000000	36.650181
946.000000	36.610149
945.000000	36.540268
944.000000	36.429346
943.000000	36.385381
942.000000	36.402826
941.000000	36.300778
940.000000	36.167772
939.000000	36.086194
938.000000	36.104748
937.000000	36.148310
936.000000	36.121891
935.000000	36.103337
934.000000	35.979407
933.000000	35.902669
932.000000	35.926366
931.000000	35.793562
930.000000	35.655717
929.000000	35.623549
928.000000	35.580592
927.000000	35.501334
926.000000	35.503250
925.000000	35.369639
924.000000	35.387588
923.000000	35.460999
922.000000	35.224332
921.000000	35.162720
920.000000	35.286448
919.000000	35.230281
918.000000	35.072369
917.000000	35.003698
916.000000	34.846391
915.000000	34.861920
914.000000	34.940372
913.000000	34.707335
912.000000	34.678798
911.000000	34.724881
910.000000	34.675672
909.000000	34.492550
908.000000	34.220590
907.000000	34.327075
906.000000	34.329193
905.000000	34.400082
904.000000	34.317092
903.000000	34.303681
902.000000	34.365091
901.000000	34.301361
900.000000	34.521390
899.000000	34.699571
898.000000	34.356318
897.000000	34.345730
896.000000	34.202742
895.000000	34.484181
894.000000	34.528953
893.000000	34.431039
892.000000	34.375276
891.000000	34.288252
890.000000	34.304084
889.000000	34.540146
888.000000	34.601254
887.000000	34.472786
886.000000	34.162306
885.000000	34.145768
884.000000	34.005200
883.000000	34.013973
882.000000	34.305798
881.000000	34.086677
880.000000	34.422871
879.000000	34.071350
878.000000	33.872699
877.000000	34.795568
876.000000	35.450713
875.000000	34.909515
874.000000	34.220893
873.000000	35.112906
872.000000	34.202338
871.000000	34.576145
870.000000	34.430535
869.000000	34.634732
868.000000	34.911633
867.000000	34.324756
866.000000	34.561322
865.000000	34.403107
864.000000	34.052291
863.000000	34.860811
862.000000	35.737093
861.000000	34.898222
860.000000	34.221094
859.000000	35.324061
858.000000	35.653700
857.000000	35.704300
856.000000	35.694900
855.000000	35.561900
854.000000	35.382200
853.000000	35.672500
852.000000	35.716600
851.000000	35.677700
850.000000	35.737700
849.000000	35.832000
848.000000	35.753400
847.000000	35.855900
846.000000	35.789100
845.000000	35.870300
844.000000	35.875900
843.000000	35.979300
842.000000	36.010900
841.000000	35.995200
840.000000	36.111000
839.000000	36.179000
838.000000	36.083700
837.000000	36.133200
836.000000	36.102500
835.000000	36.157100
834.000000	36.163500
833.000000	36.135400
832.000000	36.229500
831.000000	36.292900
830.000000	36.375500
829.000000	36.328800
828.000000	36.452700
827.000000	36.342700
826.000000	36.433800
825.000000	36.456200
824.000000	36.561700
823.000000	36.550800
822.000000	36.646500
821.000000	36.569600
820.000000	36.555600
819.000000	36.660600
818.000000	36.636800
817.000000	36.651700
816.000000	36.809200
815.000000	36.653600
814.000000	36.640200
813.000000	36.688300
812.000000	36.756200
811.000000	36.893000
810.000000	36.889600
809.000000	36.789600
808.000000	36.730500
807.000000	36.816800
806.000000	36.863700
805.000000	36.822800
804.000000	36.865300
803.000000	36.979300
802.000000	36.872500
801.000000	36.865400
800.000000	36.888400
799.000000	36.994300
798.000000	36.988400
797.000000	36.921900
796.000000	36.973000
795.000000	36.888700
794.000000	36.765200
793.000000	36.815300
792.000000	36.800100
791.000000	36.724400
790.000000	36.721600
789.000000	36.727300
788.000000	36.771200
787.000000	36.721900
786.000000	36.674400
785.000000	36.631100
784.000000	36.623400
783.000000	36.707800
782.000000	36.556900
781.000000	36.589800
780.000000	36.666300
779.000000	36.496400
778.000000	36.513400
777.000000	36.409400
776.000000	36.388800
775.000000	36.322100
774.000000	36.222000
773.000000	36.255500
772.000000	36.102600
771.000000	36.086800
770.000000	36.100500
769.000000	35.977100
768.000000	35.911300
767.000000	35.812100
766.000000	35.791200
765.000000	35.753100
764.000000	35.591000
763.000000	35.572000
762.000000	35.547700
761.000000	35.461900
760.000000	35.396900
759.000000	35.379000
758.000000	35.260200
757.000000	35.174200
756.000000	35.097300
755.000000	34.966400
754.000000	34.927400
753.000000	34.802400
752.000000	34.724800
751.000000	34.640500
750.000000	34.506700
749.000000	34.456500
748.000000	34.373500
747.000000	34.288200
746.000000	34.222700
745.000000	34.122800
744.000000	34.021700
743.000000	33.904200
742.000000	33.863200
741.000000	33.781700
740.000000	33.662100
739.000000	33.576800
738.000000	33.515100
737.000000	33.422500
736.000000	33.363400
735.000000	33.269000
734.000000	33.149800
733.000000	33.088900
732.000000	33.066100
731.000000	33.019000
730.000000	32.927900
729.000000	32.834100
728.000000	32.792200
727.000000	32.704400
726.000000	32.617200
725.000000	32.584500
724.000000	32.555200
723.000000	32.521400
722.000000	32.415500
721.000000	32.322500
720.000000	32.281600
719.000000	32.216500
718.000000	32.158100
717.000000	32.146800
716.000000	32.102000
715.000000	31.994400
714.000000	31.918200
713.000000	31.874300
712.000000	31.808200
711.000000	31.727400
710.000000	31.671100
709.000000	31.608500
708.000000	31.552300
707.000000	31.497200
706.000000	31.408800
705.000000	31.379200
704.000000	31.336800
703.000000	31.281100
702.000000	31.205700
701.000000	31.170500
700.000000	31.119600
699.000000	31.058300
698.000000	31.042400
697.000000	30.988700
696.000000	30.936500
695.000000	30.886200
694.000000	30.818700
693.000000	30.733900
692.000000	30.659200
691.000000	30.592100
690.000000	30.548200
689.000000	30.501900
688.000000	30.456000
687.000000	30.420200
686.000000	30.386400
685.000000	30.304400
684.000000	30.270100
683.000000	30.188600
682.000000	30.109600
681.000000	30.029000
680.000000	29.958900
679.000000	29.909500
678.000000	29.876900
677.000000	29.837100
676.000000	29.780500
675.000000	29.738000
674.000000	29.691200
673.000000	29.621300
672.000000	29.537600
671.000000	29.462200
670.000000	29.423200
669.000000	29.342000
668.000000	29.273400
667.000000	29.215500
666.000000	29.133400
665.000000	29.058200
664.000000	29.008400
663.000000	28.952400
662.000000	28.882800
661.000000	28.800400
660.000000	28.740300
659.000000	28.716200
658.000000	28.676100
657.000000	28.620300
656.000000	28.546300
655.000000	28.470300
654.000000	28.417100
653.000000	28.378600
652.000000	28.314800
651.000000	28.248100
650.000000	28.185100
649.000000	28.121700
648.000000	28.039600
647.000000	27.962400
646.000000	27.918200
645.000000	27.841400
644.000000	27.730900
643.000000	27.631600
642.000000	27.548600
641.000000	27.466300
640.000000	27.398900
639.000000	27.334100
638.000000	27.245400
637.000000	27.162000
636.000000	27.092300
635.000000	27.022900
634.000000	26.960700
633.000000	26.909300
632.000000	26.848100
631.000000	26.790000
630.000000	26.754000
629.000000	26.705100
628.000000	26.629000
627.000000	26.565000
626.000000	26.501900
625.000000	26.428600
624.000000	26.352700
623.000000	26.280000
622.000000	26.193600
621.000000	26.095400
620.000000	25.991700
619.000000	25.879200
618.000000	25.762400
617.000000	25.677300
616.000000	25.593300
615.000000	25.510200
614.000000	25.432500
613.000000	25.350000
612.000000	25.294200
611.000000	25.222100
610.000000	25.161700
609.000000	25.106700
608.000000	25.038200
607.000000	24.984100
606.000000	24.914700
605.000000	24.827000
604.000000	24.747400
603.000000	24.704300
602.000000	24.638700
601.000000	24.560800
600.000000	24.488600
599.000000	24.415200
598.000000	24.354700
597.000000	24.321400
596.000000	24.267900
595.000000	24.225700
594.000000	24.201700
593.000000	24.191300
592.000000	24.201200
591.000000	24.242900
590.000000	24.300400
589.000000	24.365900
588.000000	24.417100
587.000000	24.467200
586.000000	24.544900
585.000000	24.649200
584.000000	24.757600
583.000000	24.858300
582.000000	24.951300
581.000000	25.040800
580.000000	25.151700
579.000000	25.259400
578.000000	25.362400
577.000000	25.447300
576.000000	25.580700
575.000000	25.684400
574.000000	25.790900
573.000000	25.934900
572.000000	26.075700
571.000000	26.208200
570.000000	26.339100
569.000000	26.507600
568.000000	26.666200
567.000000	26.856800
566.000000	27.059200
565.000000	27.207200
564.000000	27.362700
563.000000	27.533700
562.000000	27.684200
561.000000	27.819000
560.000000	27.936000
559.000000	28.188100
558.000000	28.373100
557.000000	28.522400
556.000000	28.701200
555.000000	28.796800
554.000000	28.887400
553.000000	28.997200
552.000000	29.084400
551.000000	29.194900
550.000000	29.278700
549.000000	29.361500
548.000000	29.446200
547.000000	29.555000
546.000000	29.631900
545.000000	29.699800
544.000000	29.769300
543.000000	29.829300
542.000000	29.867700
541.000000	29.882600
540.000000	29.903000
539.000000	29.891300
538.000000	29.835700
537.000000	29.764900
536.000000	29.719700
535.000000	29.647700
534.000000	29.546800
533.000000	29.430300
532.000000	29.259700
531.000000	29.081300
530.000000	28.909400
529.000000	28.703900
528.000000	28.511300
527.000000	28.281000
526.000000	28.042500
525.000000	27.800900
524.000000	27.508300
523.000000	27.192900
522.000000	26.863000
521.000000	26.522900
520.000000	26.153500
519.000000	25.819800
518.000000	25.476700
517.000000	25.171600
516.000000	24.825700
515.000000	24.491800
514.000000	24.134800
513.000000	23.770200
512.000000	23.407500
511.000000	23.058100
510.000000	22.735000
509.000000	22.393300
508.000000	22.064100
507.000000	21.753700
506.000000	21.416500
505.000000	21.135200
504.000000	20.812600
503.000000	20.490800
502.000000	20.179300
501.000000	19.873000
500.000000	19.570500
499.000000	19.262900
498.000000	18.952500
497.000000	18.651800
496.000000	18.373800
495.000000	18.082600
494.000000	17.755200
493.000000	17.460500
492.000000	17.184600
491.000000	16.875800
490.000000	16.552500
489.000000	16.266500
488.000000	15.973300
487.000000	15.691900
486.000000	15.384000
485.000000	15.107500
484.000000	14.799100
483.000000	14.515000
482.000000	14.201500
481.000000	13.833500
480.000000	13.490700
479.000000	13.193700
478.000000	12.958000
477.000000	12.718100
476.000000	12.476700
475.000000	12.251900
474.000000	12.051300
473.000000	11.846800
472.000000	11.644500
471.000000	11.454000
470.000000	11.278900
469.000000	11.088900
468.000000	10.913400
467.000000	10.742600
466.000000	10.586900
465.000000	10.420900
464.000000	10.286200
463.000000	10.141500
462.000000	10.003200
461.000000	9.882000
460.000000	9.768200
459.000000	9.655400
458.000000	9.537900
457.000000	9.441900
456.000000	9.340400
455.000000	9.245600
454.000000	9.139600
453.000000	9.053900
452.000000	8.948900
451.000000	8.840600
450.000000	8.762300
449.000000	8.687500
448.000000	8.603200
447.000000	8.507000
446.000000	8.422900
445.000000	8.363900
444.000000	8.299900
443.000000	8.202700
442.000000	8.114200
441.000000	8.053300
440.000000	7.968200
439.000000	7.903300
438.000000	7.842400
437.000000	7.799700
436.000000	7.762600
435.000000	7.727900
434.000000	7.683200
433.000000	7.641200
432.000000	7.611700
431.000000	7.574300
430.000000	7.526400
429.000000	7.496000
428.000000	7.480800
427.000000	7.458900
426.000000	7.430900
425.000000	7.394000
424.000000	7.355100
423.000000	7.330400
422.000000	7.297200
421.000000	7.258100
420.000000	7.218600
419.000000	7.181600
418.000000	7.153700
417.000000	7.100300
416.000000	7.059000
415.000000	7.007600
414.000000	6.964300
413.000000	6.925700
412.000000	6.872600
411.000000	6.802900
410.000000	6.730400
409.000000	6.667500
408.000000	6.588300
407.000000	6.520500
406.000000	6.457700
405.000000	6.382300
404.000000	6.301500
403.000000	6.215400
402.000000	6.138800
401.000000	6.045900
400.000000	5.956600
399.000000	5.867000
398.000000	5.778400
397.000000	5.696300
396.000000	5.601900
395.000000	5.498600
394.000000	5.404400
393.000000	5.320500
392.000000	5.210000
391.000000	5.095800
390.000000	5.017000
389.000000	4.920900
388.000000	4.819000
387.000000	4.724000
386.000000	4.643600
385.000000	4.558800
384.000000	4.474500
383.000000	4.377800
382.000000	4.306400
381.000000	4.234300
380.000000	4.154300
379.000000	4.079600
378.000000	4.013700
377.000000	3.961900
376.000000	3.954900
375.000000	3.958400
374.000000	3.867300
373.000000	3.814800
372.000000	3.788200
371.000000	3.698500
370.000000	3.658600
369.000000	3.667400
368.000000	3.616500
367.000000	3.541100
366.000000	3.491700
365.000000	3.499600
364.000000	3.472200
363.000000	3.436900
362.000000	3.445900
361.000000	3.436700
360.000000	3.415500
359.000000	3.412300
358.000000	3.391800
357.000000	3.336400
356.000000	3.319600
355.000000	3.316300
354.000000	3.328600
353.000000	3.341800
352.000000	3.315600
351.000000	3.274200
350.000000	3.309800
349.000000	3.280500
348.000000	3.228900
347.000000	3.253000
346.000000	3.254900
345.000000	3.243700
344.000000	3.224400
343.000000	3.236200
342.000000	3.251000
341.000000	3.241500
340.000000	3.189000
339.000000	3.202100
338.000000	3.240100
337.000000	3.207700
336.000000	3.249000
335.000000	3.255500
334.000000	3.180900
333.000000	3.158200
332.000000	3.209500
331.000000	3.207200
330.000000	3.222600
329.000000	3.237800
328.000000	3.228300
327.000000	3.271000
326.000000	3.241500
325.000000	3.143700
324.000000	3.161700
323.000000	3.177200
322.000000	3.164600
321.000000	3.105100
320.000000	3.138700
319.000000	3.199800
318.000000	3.146600
317.000000	3.159400
316.000000	3.181800
315.000000	3.181100
314.000000	3.186600
313.000000	3.189200
312.000000	3.183100
311.000000	3.181300
310.000000	3.189700
309.000000	3.197700
308.000000	3.190800
307.000000	3.192300
306.000000	3.208400
305.000000	3.202100
304.000000	3.207100
303.000000	3.209000
302.000000	3.193700
301.000000	3.176000
300.000000	3.187200
299.000000	3.192800
298.000000	3.196000
297.000000	3.197000
296.000000	3.195600
295.000000	3.192900
294.000000	3.200400
293.000000	3.179300
292.000000	3.190500
291.000000	3.197600
290.000000	3.186000
289.000000	3.174100
288.000000	3.178400
287.000000	3.207000
286.000000	3.218500
285.000000	3.177500
284.000000	3.173000
283.000000	3.200300
282.000000	3.195600
281.000000	3.195300
280.000000	3.198400
279.000000	3.209900
278.000000	3.220100
277.000000	3.207700
276.000000	3.225800
275.000000	3.224800
274.000000	3.232800
273.000000	3.236200
272.000000	3.235100
271.000000	3.238500
270.000000	3.257500
269.000000	3.250900
268.000000	3.264700
267.000000	3.281700
266.000000	3.282800
265.000000	3.293700
264.000000	3.290000
263.000000	3.298200
262.000000	3.339000
261.000000	3.348400
260.000000	3.376000
259.000000	3.366700
258.000000	3.370000
257.000000	3.368500
256.000000	3.408500
255.000000	3.401800
254.000000	3.410000
253.000000	3.409000
252.000000	3.401000
251.000000	3.412400
250.000000	3.418700
