PE UV       SUBTECH     SPECTRUM    ASCII       PEDS        4.00        
   -1
CICIMAUCR0112-1.Sample.ASC
24/04/19
15:29:01.00
24/04/19
15:29:01.00
Vinicio Soto Monge
C. resplendens
250,000000
1
Lambda 1050
1050L1511233
PerkinElmer UV WinLab 6.3.2.0749 / 2.02.05 Lambda 900 UV/VIS/NIR, Aug  7 2015 09:38:08

0
0
3350/servo 860,8/2
0
0
UV/VIS
1
1
1
DoubleDePol,CommonBeamDepol,RBeamAtt,SBeamAtt,60mm sphere, WB InGaAs Detector
0
0
0
0
Program
Program
3350/servo 860,8/2
3350/0,2 860,8/0,2
3350/0,2 860,8/0,2
0
15.00
 
 
 
0
 
860,8
319,2
860,8
Front
100
on
S:100 R:100
0
0
0
0
 
0
 
 
 
0
 
 
0
0
0
0
0
 
 
 
 
0
0


0
0
#HDR
-1
-1
#GR
nm
%R
1.0
0.0
2500,000000
-1,000000
2251
8
88,637500
5,329100
#DATA
2500.000000	7.584200
2499.000000	7.584400
2498.000000	7.512100
2497.000000	7.365900
2496.000000	7.401700
2495.000000	7.376500
2494.000000	7.461200
2493.000000	7.403100
2492.000000	7.330200
2491.000000	7.400800
2490.000000	7.278400
2489.000000	7.341600
2488.000000	7.273600
2487.000000	7.231400
2486.000000	7.285700
2485.000000	7.200500
2484.000000	7.239800
2483.000000	7.206100
2482.000000	7.206400
2481.000000	7.218800
2480.000000	7.198300
2479.000000	7.241600
2478.000000	7.184300
2477.000000	7.197400
2476.000000	7.164300
2475.000000	7.185700
2474.000000	7.181900
2473.000000	7.179100
2472.000000	7.193200
2471.000000	7.172900
2470.000000	7.143000
2469.000000	7.200100
2468.000000	7.174900
2467.000000	7.204000
2466.000000	7.218700
2465.000000	7.238900
2464.000000	7.215600
2463.000000	7.247300
2462.000000	7.264500
2461.000000	7.333300
2460.000000	7.318500
2459.000000	7.345700
2458.000000	7.388300
2457.000000	7.426300
2456.000000	7.470600
2455.000000	7.493400
2454.000000	7.550800
2453.000000	7.615400
2452.000000	7.677400
2451.000000	7.736200
2450.000000	7.800200
2449.000000	7.843100
2448.000000	7.900900
2447.000000	7.968000
2446.000000	8.006300
2445.000000	8.082500
2444.000000	8.147300
2443.000000	8.205000
2442.000000	8.262100
2441.000000	8.314000
2440.000000	8.369800
2439.000000	8.416900
2438.000000	8.484900
2437.000000	8.543700
2436.000000	8.590000
2435.000000	8.635500
2434.000000	8.681500
2433.000000	8.741100
2432.000000	8.791100
2431.000000	8.824900
2430.000000	8.862200
2429.000000	8.905700
2428.000000	8.943700
2427.000000	8.970500
2426.000000	9.000200
2425.000000	8.999700
2424.000000	9.053900
2423.000000	9.103400
2422.000000	9.117700
2421.000000	9.171700
2420.000000	9.200400
2419.000000	9.226200
2418.000000	9.242100
2417.000000	9.266700
2416.000000	9.295500
2415.000000	9.310900
2414.000000	9.321500
2413.000000	9.343300
2412.000000	9.371900
2411.000000	9.387000
2410.000000	9.399900
2409.000000	9.427200
2408.000000	9.454700
2407.000000	9.466000
2406.000000	9.482000
2405.000000	9.499700
2404.000000	9.519900
2403.000000	9.539900
2402.000000	9.551100
2401.000000	9.576100
2400.000000	9.602600
2399.000000	9.628800
2398.000000	9.649600
2397.000000	9.660000
2396.000000	9.684500
2395.000000	9.701900
2394.000000	9.735300
2393.000000	9.764900
2392.000000	9.776400
2391.000000	9.787300
2390.000000	9.802900
2389.000000	9.810700
2388.000000	9.810300
2387.000000	9.812900
2386.000000	9.829800
2385.000000	9.831000
2384.000000	9.830500
2383.000000	9.826500
2382.000000	9.801600
2381.000000	9.785500
2380.000000	9.772600
2379.000000	9.756000
2378.000000	9.733000
2377.000000	9.712800
2376.000000	9.688400
2375.000000	9.671100
2374.000000	9.652000
2373.000000	9.619400
2372.000000	9.584800
2371.000000	9.551300
2370.000000	9.509700
2369.000000	9.459800
2368.000000	9.411800
2367.000000	9.363900
2366.000000	9.318000
2365.000000	9.267500
2364.000000	9.198900
2363.000000	9.129200
2362.000000	9.062900
2361.000000	8.999400
2360.000000	8.927000
2359.000000	8.866900
2358.000000	8.815400
2357.000000	8.751400
2356.000000	8.712700
2355.000000	8.687000
2354.000000	8.648100
2353.000000	8.631200
2352.000000	8.631900
2351.000000	8.640800
2350.000000	8.657700
2349.000000	8.668700
2348.000000	8.689400
2347.000000	8.731100
2346.000000	8.777900
2345.000000	8.811100
2344.000000	8.848800
2343.000000	8.884800
2342.000000	8.915200
2341.000000	8.942000
2340.000000	8.962200
2339.000000	8.982200
2338.000000	8.981900
2337.000000	8.973600
2336.000000	8.954300
2335.000000	8.940900
2334.000000	8.913800
2333.000000	8.886100
2332.000000	8.848200
2331.000000	8.796100
2330.000000	8.754400
2329.000000	8.699200
2328.000000	8.621600
2327.000000	8.561200
2326.000000	8.492100
2325.000000	8.427700
2324.000000	8.347500
2323.000000	8.272700
2322.000000	8.175800
2321.000000	8.097800
2320.000000	8.005500
2319.000000	7.906900
2318.000000	7.820900
2317.000000	7.719100
2316.000000	7.643200
2315.000000	7.541200
2314.000000	7.446400
2313.000000	7.352700
2312.000000	7.281400
2311.000000	7.248300
2310.000000	7.172300
2309.000000	7.135300
2308.000000	7.114000
2307.000000	7.083900
2306.000000	7.063900
2305.000000	7.070800
2304.000000	7.081200
2303.000000	7.116600
2302.000000	7.181700
2301.000000	7.246700
2300.000000	7.308600
2299.000000	7.377000
2298.000000	7.436600
2297.000000	7.511900
2296.000000	7.574400
2295.000000	7.657200
2294.000000	7.700500
2293.000000	7.728800
2292.000000	7.772700
2291.000000	7.809300
2290.000000	7.819600
2289.000000	7.817700
2288.000000	7.819200
2287.000000	7.809400
2286.000000	7.785400
2285.000000	7.765200
2284.000000	7.722400
2283.000000	7.695300
2282.000000	7.656600
2281.000000	7.623000
2280.000000	7.584200
2279.000000	7.551100
2278.000000	7.499900
2277.000000	7.478300
2276.000000	7.452800
2275.000000	7.405100
2274.000000	7.404700
2273.000000	7.387000
2272.000000	7.382800
2271.000000	7.413300
2270.000000	7.440600
2269.000000	7.475000
2268.000000	7.517500
2267.000000	7.585600
2266.000000	7.668900
2265.000000	7.745600
2264.000000	7.875300
2263.000000	8.019800
2262.000000	8.190800
2261.000000	8.335900
2260.000000	8.526600
2259.000000	8.732600
2258.000000	8.942300
2257.000000	9.160400
2256.000000	9.408300
2255.000000	9.633800
2254.000000	9.864400
2253.000000	10.126600
2252.000000	10.289500
2251.000000	10.511900
2250.000000	10.743600
2249.000000	10.934800
2248.000000	11.112700
2247.000000	11.285000
2246.000000	11.449500
2245.000000	11.616800
2244.000000	11.746400
2243.000000	11.888000
2242.000000	12.009700
2241.000000	12.150700
2240.000000	12.246600
2239.000000	12.358500
2238.000000	12.452100
2237.000000	12.550100
2236.000000	12.645700
2235.000000	12.735200
2234.000000	12.815400
2233.000000	12.871700
2232.000000	12.931600
2231.000000	12.983800
2230.000000	13.044200
2229.000000	13.085300
2228.000000	13.111100
2227.000000	13.130600
2226.000000	13.129100
2225.000000	13.171400
2224.000000	13.174800
2223.000000	13.187100
2222.000000	13.192200
2221.000000	13.154300
2220.000000	13.157900
2219.000000	13.154800
2218.000000	13.148500
2217.000000	13.144500
2216.000000	13.123400
2215.000000	13.091500
2214.000000	13.090400
2213.000000	13.071900
2212.000000	13.056200
2211.000000	13.046200
2210.000000	13.027700
2209.000000	13.017800
2208.000000	13.016000
2207.000000	13.001300
2206.000000	12.969100
2205.000000	12.964000
2204.000000	12.957900
2203.000000	12.954800
2202.000000	12.934100
2201.000000	12.945400
2200.000000	12.943600
2199.000000	12.926500
2198.000000	12.941600
2197.000000	12.933400
2196.000000	12.928500
2195.000000	12.916500
2194.000000	12.924300
2193.000000	12.913200
2192.000000	12.908500
2191.000000	12.897000
2190.000000	12.904300
2189.000000	12.885800
2188.000000	12.891000
2187.000000	12.901400
2186.000000	12.852800
2185.000000	12.855100
2184.000000	12.832100
2183.000000	12.821600
2182.000000	12.825600
2181.000000	12.792800
2180.000000	12.788300
2179.000000	12.783900
2178.000000	12.790200
2177.000000	12.788900
2176.000000	12.780300
2175.000000	12.784900
2174.000000	12.798500
2173.000000	12.788800
2172.000000	12.792000
2171.000000	12.804100
2170.000000	12.816200
2169.000000	12.831500
2168.000000	12.830100
2167.000000	12.845400
2166.000000	12.896100
2165.000000	12.898200
2164.000000	12.923500
2163.000000	12.947400
2162.000000	12.972600
2161.000000	12.993100
2160.000000	13.016000
2159.000000	13.030500
2158.000000	13.074000
2157.000000	13.112900
2156.000000	13.149500
2155.000000	13.179600
2154.000000	13.216400
2153.000000	13.234200
2152.000000	13.261500
2151.000000	13.308800
2150.000000	13.352300
2149.000000	13.370400
2148.000000	13.392400
2147.000000	13.439500
2146.000000	13.457100
2145.000000	13.469200
2144.000000	13.501700
2143.000000	13.520300
2142.000000	13.535700
2141.000000	13.549200
2140.000000	13.566600
2139.000000	13.600000
2138.000000	13.601600
2137.000000	13.621500
2136.000000	13.632900
2135.000000	13.650300
2134.000000	13.668400
2133.000000	13.642600
2132.000000	13.634200
2131.000000	13.645300
2130.000000	13.631000
2129.000000	13.624800
2128.000000	13.626200
2127.000000	13.614400
2126.000000	13.600000
2125.000000	13.584400
2124.000000	13.566300
2123.000000	13.544400
2122.000000	13.530200
2121.000000	13.507000
2120.000000	13.476800
2119.000000	13.436700
2118.000000	13.402800
2117.000000	13.374800
2116.000000	13.345200
2115.000000	13.313100
2114.000000	13.269100
2113.000000	13.241700
2112.000000	13.206400
2111.000000	13.168400
2110.000000	13.143400
2109.000000	13.111000
2108.000000	13.086900
2107.000000	13.058300
2106.000000	13.021400
2105.000000	12.997400
2104.000000	12.963400
2103.000000	12.919200
2102.000000	12.895600
2101.000000	12.882900
2100.000000	12.851300
2099.000000	12.814800
2098.000000	12.782800
2097.000000	12.748900
2096.000000	12.716300
2095.000000	12.700200
2094.000000	12.685400
2093.000000	12.666400
2092.000000	12.640500
2091.000000	12.624400
2090.000000	12.620100
2089.000000	12.611500
2088.000000	12.593200
2087.000000	12.578500
2086.000000	12.560700
2085.000000	12.539200
2084.000000	12.520400
2083.000000	12.511600
2082.000000	12.503400
2081.000000	12.487000
2080.000000	12.474900
2079.000000	12.449000
2078.000000	12.430600
2077.000000	12.414100
2076.000000	12.393500
2075.000000	12.375000
2074.000000	12.368800
2073.000000	12.354400
2072.000000	12.335600
2071.000000	12.320300
2070.000000	12.304600
2069.000000	12.278500
2068.000000	12.266500
2067.000000	12.253100
2066.000000	12.253500
2065.000000	12.228400
2064.000000	12.227000
2063.000000	12.224400
2062.000000	12.217200
2061.000000	12.228100
2060.000000	12.233700
2059.000000	12.248000
2058.000000	12.262600
2057.000000	12.298100
2056.000000	12.337900
2055.000000	12.391600
2054.000000	12.442200
2053.000000	12.519600
2052.000000	12.583300
2051.000000	12.664100
2050.000000	12.764300
2049.000000	12.882200
2048.000000	13.001200
2047.000000	13.128200
2046.000000	13.274200
2045.000000	13.404900
2044.000000	13.547000
2043.000000	13.702400
2042.000000	13.855500
2041.000000	14.020200
2040.000000	14.157000
2039.000000	14.318700
2038.000000	14.467900
2037.000000	14.605800
2036.000000	14.746500
2035.000000	14.890200
2034.000000	15.016700
2033.000000	15.157900
2032.000000	15.297000
2031.000000	15.407400
2030.000000	15.509400
2029.000000	15.624500
2028.000000	15.758100
2027.000000	15.845700
2026.000000	15.925000
2025.000000	16.044400
2024.000000	16.142800
2023.000000	16.246400
2022.000000	16.317200
2021.000000	16.427100
2020.000000	16.516200
2019.000000	16.617400
2018.000000	16.698200
2017.000000	16.767000
2016.000000	16.857100
2015.000000	16.931200
2014.000000	16.995500
2013.000000	17.065500
2012.000000	17.113300
2011.000000	17.153000
2010.000000	17.221700
2009.000000	17.275100
2008.000000	17.301900
2007.000000	17.328600
2006.000000	17.366200
2005.000000	17.392800
2004.000000	17.399000
2003.000000	17.414800
2002.000000	17.399100
2001.000000	17.448500
2000.000000	17.472000
1999.000000	17.460000
1998.000000	17.448900
1997.000000	17.419700
1996.000000	17.403300
1995.000000	17.396700
1994.000000	17.358100
1993.000000	17.331300
1992.000000	17.283300
1991.000000	17.253400
1990.000000	17.214400
1989.000000	17.168700
1988.000000	17.115600
1987.000000	17.050300
1986.000000	17.022000
1985.000000	16.954500
1984.000000	16.880600
1983.000000	16.824700
1982.000000	16.740200
1981.000000	16.683000
1980.000000	16.637800
1979.000000	16.546400
1978.000000	16.498400
1977.000000	16.405900
1976.000000	16.344900
1975.000000	16.283100
1974.000000	16.224000
1973.000000	16.155600
1972.000000	16.105900
1971.000000	16.043300
1970.000000	15.970000
1969.000000	15.902000
1968.000000	15.853200
1967.000000	15.791100
1966.000000	15.730100
1965.000000	15.671200
1964.000000	15.597300
1963.000000	15.531400
1962.000000	15.480100
1961.000000	15.425900
1960.000000	15.365000
1959.000000	15.304200
1958.000000	15.258900
1957.000000	15.186300
1956.000000	15.129400
1955.000000	15.062400
1954.000000	15.015100
1953.000000	14.937200
1952.000000	14.901800
1951.000000	14.847700
1950.000000	14.788400
1949.000000	14.762400
1948.000000	14.719100
1947.000000	14.671900
1946.000000	14.668100
1945.000000	14.618300
1944.000000	14.605800
1943.000000	14.580200
1942.000000	14.583800
1941.000000	14.594500
1940.000000	14.576700
1939.000000	14.594600
1938.000000	14.608300
1937.000000	14.637900
1936.000000	14.662200
1935.000000	14.700300
1934.000000	14.769100
1933.000000	14.817000
1932.000000	14.927200
1931.000000	14.995700
1930.000000	15.078300
1929.000000	15.169000
1928.000000	15.290500
1927.000000	15.401400
1926.000000	15.525700
1925.000000	15.655200
1924.000000	15.790200
1923.000000	15.957600
1922.000000	16.123600
1921.000000	16.286900
1920.000000	16.459800
1919.000000	16.623100
1918.000000	16.792300
1917.000000	16.994100
1916.000000	17.223000
1915.000000	17.445100
1914.000000	17.678900
1913.000000	17.907700
1912.000000	18.146100
1911.000000	18.356600
1910.000000	18.609700
1909.000000	18.846000
1908.000000	19.101400
1907.000000	19.364800
1906.000000	19.655600
1905.000000	19.926600
1904.000000	20.202000
1903.000000	20.468800
1902.000000	20.722400
1901.000000	20.993200
1900.000000	21.287500
1899.000000	21.548900
1898.000000	21.821900
1897.000000	22.098300
1896.000000	22.353500
1895.000000	22.611600
1894.000000	22.875600
1893.000000	23.148100
1892.000000	23.441800
1891.000000	23.709700
1890.000000	23.955400
1889.000000	24.222700
1888.000000	24.529100
1887.000000	24.839500
1886.000000	25.188300
1885.000000	25.591200
1884.000000	26.033300
1883.000000	26.481900
1882.000000	26.963600
1881.000000	27.459900
1880.000000	27.925100
1879.000000	28.380200
1878.000000	28.825700
1877.000000	29.277300
1876.000000	29.653500
1875.000000	30.011000
1874.000000	30.318600
1873.000000	30.583500
1872.000000	30.843600
1871.000000	31.036500
1870.000000	31.155000
1869.000000	31.277800
1868.000000	31.412100
1867.000000	31.471200
1866.000000	31.520500
1865.000000	31.556500
1864.000000	31.589700
1863.000000	31.633600
1862.000000	31.661900
1861.000000	31.660700
1860.000000	31.642900
1859.000000	31.582800
1858.000000	31.537600
1857.000000	31.483400
1856.000000	31.421700
1855.000000	31.351400
1854.000000	31.245400
1853.000000	31.110000
1852.000000	31.012100
1851.000000	30.952500
1850.000000	30.899900
1849.000000	30.830500
1848.000000	30.682800
1847.000000	30.497700
1846.000000	30.373500
1845.000000	30.298500
1844.000000	30.269700
1843.000000	30.263000
1842.000000	30.215500
1841.000000	30.142100
1840.000000	30.059800
1839.000000	29.988000
1838.000000	29.933000
1837.000000	29.842700
1836.000000	29.733000
1835.000000	29.614700
1834.000000	29.501700
1833.000000	29.429100
1832.000000	29.339200
1831.000000	29.218700
1830.000000	29.108900
1829.000000	29.007600
1828.000000	28.886700
1827.000000	28.783100
1826.000000	28.688900
1825.000000	28.599100
1824.000000	28.553700
1823.000000	28.554000
1822.000000	28.549400
1821.000000	28.506500
1820.000000	28.453300
1819.000000	28.403600
1818.000000	28.371600
1817.000000	28.385500
1816.000000	28.397900
1815.000000	28.380900
1814.000000	28.370500
1813.000000	28.357800
1812.000000	28.329400
1811.000000	28.275100
1810.000000	28.218100
1809.000000	28.188400
1808.000000	28.133700
1807.000000	28.078900
1806.000000	28.007700
1805.000000	27.933600
1804.000000	27.882500
1803.000000	27.838100
1802.000000	27.776400
1801.000000	27.685400
1800.000000	27.606400
1799.000000	27.531300
1798.000000	27.489100
1797.000000	27.445200
1796.000000	27.377300
1795.000000	27.313800
1794.000000	27.251800
1793.000000	27.169200
1792.000000	27.085500
1791.000000	27.018200
1790.000000	26.942800
1789.000000	26.867000
1788.000000	26.778100
1787.000000	26.688100
1786.000000	26.569400
1785.000000	26.474500
1784.000000	26.351700
1783.000000	26.230200
1782.000000	26.145500
1781.000000	26.020900
1780.000000	25.904900
1779.000000	25.788900
1778.000000	25.670800
1777.000000	25.511400
1776.000000	25.337500
1775.000000	25.172200
1774.000000	24.995000
1773.000000	24.800500
1772.000000	24.615100
1771.000000	24.452200
1770.000000	24.279200
1769.000000	24.093500
1768.000000	23.943000
1767.000000	23.809700
1766.000000	23.680500
1765.000000	23.565900
1764.000000	23.521300
1763.000000	23.523200
1762.000000	23.544100
1761.000000	23.580500
1760.000000	23.666500
1759.000000	23.775900
1758.000000	23.853300
1757.000000	23.913400
1756.000000	23.977300
1755.000000	24.001500
1754.000000	24.006600
1753.000000	23.978500
1752.000000	23.949600
1751.000000	23.872100
1750.000000	23.792600
1749.000000	23.692000
1748.000000	23.561100
1747.000000	23.417200
1746.000000	23.248000
1745.000000	23.050100
1744.000000	22.812500
1743.000000	22.532500
1742.000000	22.251700
1741.000000	21.929900
1740.000000	21.611200
1739.000000	21.300800
1738.000000	21.037600
1737.000000	20.798500
1736.000000	20.644500
1735.000000	20.544000
1734.000000	20.503300
1733.000000	20.538900
1732.000000	20.618100
1731.000000	20.717500
1730.000000	20.862100
1729.000000	21.035300
1728.000000	21.164800
1727.000000	21.294200
1726.000000	21.401700
1725.000000	21.489600
1724.000000	21.538300
1723.000000	21.550000
1722.000000	21.587100
1721.000000	21.575600
1720.000000	21.594200
1719.000000	21.614200
1718.000000	21.632500
1717.000000	21.681000
1716.000000	21.766900
1715.000000	21.827700
1714.000000	21.897800
1713.000000	21.944700
1712.000000	22.008900
1711.000000	22.033900
1710.000000	22.055300
1709.000000	22.039800
1708.000000	22.028600
1707.000000	22.011200
1706.000000	21.962300
1705.000000	21.908500
1704.000000	21.828200
1703.000000	21.733200
1702.000000	21.590400
1701.000000	21.437000
1700.000000	21.248300
1699.000000	21.044500
1698.000000	20.868600
1697.000000	20.755900
1696.000000	20.703300
1695.000000	20.702700
1694.000000	20.815300
1693.000000	20.959000
1692.000000	21.204400
1691.000000	21.434900
1690.000000	21.613800
1689.000000	21.795400
1688.000000	21.832300
1687.000000	21.846400
1686.000000	21.824100
1685.000000	21.869600
1684.000000	21.981300
1683.000000	22.274300
1682.000000	22.760800
1681.000000	23.380400
1680.000000	24.138900
1679.000000	24.829100
1678.000000	25.566600
1677.000000	26.204000
1676.000000	26.812700
1675.000000	27.323700
1674.000000	27.755000
1673.000000	28.152900
1672.000000	28.456700
1671.000000	28.713800
1670.000000	28.966600
1669.000000	29.175500
1668.000000	29.361200
1667.000000	29.504400
1666.000000	29.620400
1665.000000	29.727400
1664.000000	29.826900
1663.000000	29.880500
1662.000000	29.938900
1661.000000	29.981800
1660.000000	30.013200
1659.000000	30.041000
1658.000000	30.056200
1657.000000	30.065700
1656.000000	30.056300
1655.000000	30.049200
1654.000000	30.031600
1653.000000	29.991000
1652.000000	29.974200
1651.000000	29.927000
1650.000000	29.867300
1649.000000	29.815600
1648.000000	29.742500
1647.000000	29.688900
1646.000000	29.601800
1645.000000	29.528100
1644.000000	29.451500
1643.000000	29.369200
1642.000000	29.288600
1641.000000	29.197900
1640.000000	29.115500
1639.000000	29.025000
1638.000000	28.923700
1637.000000	28.826100
1636.000000	28.746600
1635.000000	28.647900
1634.000000	28.536800
1633.000000	28.422800
1632.000000	28.325100
1631.000000	28.228300
1630.000000	28.099400
1629.000000	27.982600
1628.000000	27.882100
1627.000000	27.770900
1626.000000	27.658300
1625.000000	27.539100
1624.000000	27.420400
1623.000000	27.312000
1622.000000	27.222200
1621.000000	27.110100
1620.000000	26.987100
1619.000000	26.888600
1618.000000	26.803500
1617.000000	26.691900
1616.000000	26.581000
1615.000000	26.482700
1614.000000	26.378600
1613.000000	26.287300
1612.000000	26.198200
1611.000000	26.115000
1610.000000	26.020500
1609.000000	25.927100
1608.000000	25.839300
1607.000000	25.755700
1606.000000	25.678900
1605.000000	25.567000
1604.000000	25.477100
1603.000000	25.400300
1602.000000	25.320400
1601.000000	25.242100
1600.000000	25.159400
1599.000000	25.093000
1598.000000	25.025700
1597.000000	24.953400
1596.000000	24.883800
1595.000000	24.814700
1594.000000	24.755000
1593.000000	24.708800
1592.000000	24.659300
1591.000000	24.616100
1590.000000	24.582500
1589.000000	24.543800
1588.000000	24.513200
1587.000000	24.488300
1586.000000	24.455400
1585.000000	24.413300
1584.000000	24.397700
1583.000000	24.387800
1582.000000	24.383000
1581.000000	24.373900
1580.000000	24.366400
1579.000000	24.371900
1578.000000	24.378700
1577.000000	24.390900
1576.000000	24.408100
1575.000000	24.426700
1574.000000	24.441300
1573.000000	24.477400
1572.000000	24.516300
1571.000000	24.564500
1570.000000	24.608300
1569.000000	24.639000
1568.000000	24.684400
1567.000000	24.733400
1566.000000	24.775500
1565.000000	24.818700
1564.000000	24.870100
1563.000000	24.910100
1562.000000	24.948900
1561.000000	24.987500
1560.000000	25.029400
1559.000000	25.072100
1558.000000	25.099700
1557.000000	25.129100
1556.000000	25.147600
1555.000000	25.168100
1554.000000	25.189900
1553.000000	25.212300
1552.000000	25.227000
1551.000000	25.228200
1550.000000	25.230400
1549.000000	25.238700
1548.000000	25.240900
1547.000000	25.248200
1546.000000	25.257500
1545.000000	25.250100
1544.000000	25.249700
1543.000000	25.269800
1542.000000	25.286100
1541.000000	25.301600
1540.000000	25.305800
1539.000000	25.320600
1538.000000	25.326500
1537.000000	25.330300
1536.000000	25.339400
1535.000000	25.340300
1534.000000	25.348600
1533.000000	25.358900
1532.000000	25.354400
1531.000000	25.341300
1530.000000	25.338300
1529.000000	25.314900
1528.000000	25.300900
1527.000000	25.282600
1526.000000	25.265200
1525.000000	25.260100
1524.000000	25.256100
1523.000000	25.233300
1522.000000	25.218600
1521.000000	25.198800
1520.000000	25.164600
1519.000000	25.144500
1518.000000	25.133500
1517.000000	25.111800
1516.000000	25.081100
1515.000000	25.060500
1514.000000	25.054500
1513.000000	25.035500
1512.000000	25.000600
1511.000000	24.965700
1510.000000	24.947600
1509.000000	24.938000
1508.000000	24.918300
1507.000000	24.892100
1506.000000	24.860300
1505.000000	24.845800
1504.000000	24.822100
1503.000000	24.808700
1502.000000	24.789600
1501.000000	24.781300
1500.000000	24.775200
1499.000000	24.778900
1498.000000	24.771400
1497.000000	24.786800
1496.000000	24.789200
1495.000000	24.785500
1494.000000	24.808400
1493.000000	24.835600
1492.000000	24.860300
1491.000000	24.868000
1490.000000	24.890800
1489.000000	24.936800
1488.000000	24.950400
1487.000000	24.984400
1486.000000	25.019600
1485.000000	25.036700
1484.000000	25.077800
1483.000000	25.121400
1482.000000	25.179900
1481.000000	25.228500
1480.000000	25.283500
1479.000000	25.352200
1478.000000	25.399600
1477.000000	25.451900
1476.000000	25.511200
1475.000000	25.607700
1474.000000	25.677900
1473.000000	25.744600
1472.000000	25.823700
1471.000000	25.911200
1470.000000	25.937500
1469.000000	26.012800
1468.000000	26.087000
1467.000000	26.168100
1466.000000	26.243300
1465.000000	26.306900
1464.000000	26.412000
1463.000000	26.506800
1462.000000	26.621100
1461.000000	26.733300
1460.000000	26.843000
1459.000000	26.969600
1458.000000	27.102700
1457.000000	27.223100
1456.000000	27.365200
1455.000000	27.497300
1454.000000	27.631900
1453.000000	27.791800
1452.000000	27.952000
1451.000000	28.112600
1450.000000	28.256400
1449.000000	28.372400
1448.000000	28.566400
1447.000000	28.753900
1446.000000	28.938600
1445.000000	29.086000
1444.000000	29.248500
1443.000000	29.417800
1442.000000	29.580400
1441.000000	29.779100
1440.000000	29.947900
1439.000000	30.101300
1438.000000	30.272500
1437.000000	30.401100
1436.000000	30.572400
1435.000000	30.734000
1434.000000	30.901800
1433.000000	31.090500
1432.000000	31.234300
1431.000000	31.375600
1430.000000	31.587500
1429.000000	31.804400
1428.000000	32.021300
1427.000000	32.264600
1426.000000	32.546700
1425.000000	32.790600
1424.000000	33.074700
1423.000000	33.332000
1422.000000	33.610100
1421.000000	33.885800
1420.000000	34.196000
1419.000000	34.444500
1418.000000	34.646100
1417.000000	34.854000
1416.000000	35.148600
1415.000000	35.431900
1414.000000	35.625600
1413.000000	35.807100
1412.000000	36.004700
1411.000000	36.300900
1410.000000	36.634400
1409.000000	36.976000
1408.000000	37.381200
1407.000000	37.804200
1406.000000	38.217900
1405.000000	38.680800
1404.000000	39.109000
1403.000000	39.536900
1402.000000	40.031400
1401.000000	40.533300
1400.000000	40.878300
1399.000000	41.122700
1398.000000	41.363400
1397.000000	41.633500
1396.000000	41.874600
1395.000000	41.988300
1394.000000	42.053500
1393.000000	42.192800
1392.000000	42.335000
1391.000000	42.453800
1390.000000	42.639600
1389.000000	42.887100
1388.000000	43.168300
1387.000000	43.460000
1386.000000	43.823100
1385.000000	44.258800
1384.000000	44.693100
1383.000000	45.078100
1382.000000	45.350600
1381.000000	45.517800
1380.000000	45.566200
1379.000000	45.618600
1378.000000	45.638700
1377.000000	45.736600
1376.000000	45.898000
1375.000000	46.146600
1374.000000	46.498500
1373.000000	46.960000
1372.000000	47.441000
1371.000000	47.912300
1370.000000	48.322600
1369.000000	48.740100
1368.000000	49.118600
1367.000000	49.405400
1366.000000	49.688100
1365.000000	49.949900
1364.000000	50.138600
1363.000000	50.355200
1362.000000	50.564700
1361.000000	50.658400
1360.000000	50.688900
1359.000000	50.756300
1358.000000	50.925500
1357.000000	51.202900
1356.000000	51.647300
1355.000000	52.271700
1354.000000	53.007400
1353.000000	53.738100
1352.000000	54.593000
1351.000000	55.370900
1350.000000	56.077000
1349.000000	56.703800
1348.000000	57.280100
1347.000000	57.816700
1346.000000	58.275200
1345.000000	58.755200
1344.000000	59.226000
1343.000000	59.646200
1342.000000	60.034600
1341.000000	60.407500
1340.000000	60.772700
1339.000000	61.114400
1338.000000	61.427600
1337.000000	61.733100
1336.000000	62.021800
1335.000000	62.281200
1334.000000	62.534300
1333.000000	62.777900
1332.000000	63.003700
1331.000000	63.220700
1330.000000	63.421200
1329.000000	63.607300
1328.000000	63.788800
1327.000000	63.957400
1326.000000	64.110300
1325.000000	64.263700
1324.000000	64.410300
1323.000000	64.533000
1322.000000	64.644200
1321.000000	64.758100
1320.000000	64.869000
1319.000000	64.970600
1318.000000	65.072000
1317.000000	65.168500
1316.000000	65.260900
1315.000000	65.343200
1314.000000	65.407300
1313.000000	65.477900
1312.000000	65.548800
1311.000000	65.610700
1310.000000	65.657200
1309.000000	65.700900
1308.000000	65.734900
1307.000000	65.769500
1306.000000	65.786100
1305.000000	65.785900
1304.000000	65.790300
1303.000000	65.788500
1302.000000	65.769500
1301.000000	65.756400
1300.000000	65.737400
1299.000000	65.705400
1298.000000	65.685900
1297.000000	65.664500
1296.000000	65.628700
1295.000000	65.582700
1294.000000	65.544900
1293.000000	65.509200
1292.000000	65.454300
1291.000000	65.397100
1290.000000	65.329900
1289.000000	65.251500
1288.000000	65.176900
1287.000000	65.083200
1286.000000	64.971200
1285.000000	64.864300
1284.000000	64.759000
1283.000000	64.645200
1282.000000	64.521900
1281.000000	64.410600
1280.000000	64.301600
1279.000000	64.193000
1278.000000	64.096800
1277.000000	63.999400
1276.000000	63.897900
1275.000000	63.799100
1274.000000	63.723600
1273.000000	63.636900
1272.000000	63.558700
1271.000000	63.467600
1270.000000	63.393100
1269.000000	63.318600
1268.000000	63.225900
1267.000000	63.157900
1266.000000	63.072800
1265.000000	62.983700
1264.000000	62.909600
1263.000000	62.831100
1262.000000	62.753500
1261.000000	62.684600
1260.000000	62.613200
1259.000000	62.527300
1258.000000	62.437900
1257.000000	62.352800
1256.000000	62.268400
1255.000000	62.161300
1254.000000	62.084000
1253.000000	61.979300
1252.000000	61.878400
1251.000000	61.756300
1250.000000	61.631900
1249.000000	61.505800
1248.000000	61.348100
1247.000000	61.195500
1246.000000	61.029400
1245.000000	60.833300
1244.000000	60.615200
1243.000000	60.414400
1242.000000	60.218200
1241.000000	59.999300
1240.000000	59.748500
1239.000000	59.520600
1238.000000	59.285100
1237.000000	59.025400
1236.000000	58.773900
1235.000000	58.535300
1234.000000	58.273000
1233.000000	58.010900
1232.000000	57.751100
1231.000000	57.482600
1230.000000	57.207500
1229.000000	56.949800
1228.000000	56.686200
1227.000000	56.429600
1226.000000	56.180500
1225.000000	55.917700
1224.000000	55.654300
1223.000000	55.409200
1222.000000	55.188200
1221.000000	54.955600
1220.000000	54.720600
1219.000000	54.516200
1218.000000	54.343900
1217.000000	54.180800
1216.000000	53.992100
1215.000000	53.842500
1214.000000	53.690200
1213.000000	53.542800
1212.000000	53.415100
1211.000000	53.284200
1210.000000	53.153700
1209.000000	53.052300
1208.000000	52.981600
1207.000000	52.910100
1206.000000	52.884400
1205.000000	52.858700
1204.000000	52.849700
1203.000000	52.837300
1202.000000	52.819600
1201.000000	52.794700
1200.000000	52.721400
1199.000000	52.622500
1198.000000	52.466400
1197.000000	52.247600
1196.000000	51.992300
1195.000000	51.612700
1194.000000	51.139000
1193.000000	50.580300
1192.000000	49.963900
1191.000000	49.313800
1190.000000	48.723800
1189.000000	48.233700
1188.000000	47.883200
1187.000000	47.710800
1186.000000	47.717600
1185.000000	47.907600
1184.000000	48.271700
1183.000000	48.803600
1182.000000	49.451200
1181.000000	50.150700
1180.000000	50.832900
1179.000000	51.458300
1178.000000	52.021400
1177.000000	52.510600
1176.000000	52.934200
1175.000000	53.347300
1174.000000	53.735700
1173.000000	54.160700
1172.000000	54.631700
1171.000000	55.109200
1170.000000	55.577800
1169.000000	56.065700
1168.000000	56.586500
1167.000000	57.047200
1166.000000	57.551800
1165.000000	58.075700
1164.000000	58.603400
1163.000000	59.131100
1162.000000	59.610200
1161.000000	60.130300
1160.000000	60.592400
1159.000000	61.058200
1158.000000	61.516900
1157.000000	61.880500
1156.000000	62.184900
1155.000000	62.436100
1154.000000	62.586400
1153.000000	62.661400
1152.000000	62.664000
1151.000000	62.603600
1150.000000	62.575400
1149.000000	62.534500
1148.000000	62.523600
1147.000000	62.571100
1146.000000	62.760200
1145.000000	63.040100
1144.000000	63.426700
1143.000000	63.835000
1142.000000	64.290000
1141.000000	64.778000
1140.000000	65.270100
1139.000000	65.749000
1138.000000	66.250100
1137.000000	66.791000
1136.000000	67.326400
1135.000000	67.844700
1134.000000	68.291700
1133.000000	68.623400
1132.000000	68.980500
1131.000000	69.339400
1130.000000	69.632800
1129.000000	69.877300
1128.000000	70.068300
1127.000000	70.213400
1126.000000	70.344200
1125.000000	70.424200
1124.000000	70.512000
1123.000000	70.600400
1122.000000	70.676400
1121.000000	70.714400
1120.000000	70.769100
1119.000000	70.809000
1118.000000	70.799600
1117.000000	70.792200
1116.000000	70.798700
1115.000000	70.784000
1114.000000	70.758300
1113.000000	70.742300
1112.000000	70.721700
1111.000000	70.717400
1110.000000	70.698700
1109.000000	70.661500
1108.000000	70.638900
1107.000000	70.612100
1106.000000	70.608400
1105.000000	70.600000
1104.000000	70.571800
1103.000000	70.533000
1102.000000	70.505400
1101.000000	70.483800
1100.000000	70.434400
1099.000000	70.397900
1098.000000	70.371800
1097.000000	70.328400
1096.000000	70.279200
1095.000000	70.233900
1094.000000	70.179500
1093.000000	70.131200
1092.000000	70.078100
1091.000000	70.012800
1090.000000	69.952800
1089.000000	69.878200
1088.000000	69.829900
1087.000000	69.767300
1086.000000	69.708300
1085.000000	69.622700
1084.000000	69.562500
1083.000000	69.497100
1082.000000	69.451300
1081.000000	69.389100
1080.000000	69.320300
1079.000000	69.268800
1078.000000	69.224200
1077.000000	69.164700
1076.000000	69.096200
1075.000000	69.022500
1074.000000	68.960700
1073.000000	68.919900
1072.000000	68.880400
1071.000000	68.822600
1070.000000	68.755800
1069.000000	68.700100
1068.000000	68.650300
1067.000000	68.587400
1066.000000	68.542200
1065.000000	68.488000
1064.000000	68.427700
1063.000000	68.371600
1062.000000	68.313600
1061.000000	68.256000
1060.000000	68.202800
1059.000000	68.136600
1058.000000	68.075200
1057.000000	68.008700
1056.000000	67.951400
1055.000000	67.904000
1054.000000	67.850000
1053.000000	67.782200
1052.000000	67.736300
1051.000000	67.714100
1050.000000	67.680900
1049.000000	67.635100
1048.000000	67.604700
1047.000000	67.591200
1046.000000	67.569300
1045.000000	67.538200
1044.000000	67.515000
1043.000000	67.499600
1042.000000	67.496200
1041.000000	67.487800
1040.000000	67.479200
1039.000000	67.472100
1038.000000	67.465900
1037.000000	67.446600
1036.000000	67.424500
1035.000000	67.422900
1034.000000	67.411200
1033.000000	67.389100
1032.000000	67.381200
1031.000000	67.365000
1030.000000	67.328000
1029.000000	67.302900
1028.000000	67.303100
1027.000000	67.287500
1026.000000	67.243500
1025.000000	67.211400
1024.000000	67.181800
1023.000000	67.160100
1022.000000	67.145100
1021.000000	67.113600
1020.000000	67.099100
1019.000000	67.105900
1018.000000	67.101300
1017.000000	67.095500
1016.000000	67.116900
1015.000000	67.139000
1014.000000	67.169500
1013.000000	67.221900
1012.000000	67.263100
1011.000000	67.325400
1010.000000	67.396600
1009.000000	67.467700
1008.000000	67.557000
1007.000000	67.637400
1006.000000	67.710900
1005.000000	67.773600
1004.000000	67.838300
1003.000000	67.915100
1002.000000	67.997500
1001.000000	68.069000
1000.000000	68.120600
999.000000	68.185000
998.000000	68.268700
997.000000	68.357900
996.000000	68.444500
995.000000	68.528800
994.000000	68.605100
993.000000	68.711200
992.000000	68.813300
991.000000	68.887700
990.000000	68.962000
989.000000	69.053700
988.000000	69.164400
987.000000	69.264700
986.000000	69.352600
985.000000	69.443100
984.000000	69.569000
983.000000	69.673900
982.000000	69.754900
981.000000	69.850000
980.000000	69.965800
979.000000	70.071900
978.000000	70.158500
977.000000	70.254400
976.000000	70.366000
975.000000	70.476900
974.000000	70.577900
973.000000	70.675700
972.000000	70.770900
971.000000	70.879900
970.000000	70.973900
969.000000	71.060800
968.000000	71.176400
967.000000	71.264600
966.000000	71.344500
965.000000	71.478500
964.000000	71.597200
963.000000	71.685000
962.000000	71.778700
961.000000	71.881700
960.000000	72.016100
959.000000	72.148500
958.000000	72.237400
957.000000	72.318200
956.000000	72.401200
955.000000	72.510800
954.000000	72.579300
953.000000	72.632900
952.000000	72.740400
951.000000	72.787300
950.000000	72.864200
949.000000	72.910600
948.000000	72.967600
947.000000	73.001000
946.000000	73.071600
945.000000	73.129200
944.000000	73.159500
943.000000	73.187300
942.000000	73.224400
941.000000	73.268400
940.000000	73.359300
939.000000	73.379200
938.000000	73.399900
937.000000	73.503300
936.000000	73.518200
935.000000	73.561800
934.000000	73.611700
933.000000	73.665800
932.000000	73.743700
931.000000	73.773700
930.000000	73.809300
929.000000	73.894700
928.000000	73.909500
927.000000	73.950600
926.000000	73.992800
925.000000	74.063300
924.000000	74.081100
923.000000	74.111700
922.000000	74.139600
921.000000	74.174100
920.000000	74.194400
919.000000	74.292300
918.000000	74.277900
917.000000	74.318800
916.000000	74.296700
915.000000	74.315300
914.000000	74.418700
913.000000	74.420000
912.000000	74.460700
911.000000	74.504400
910.000000	74.549800
909.000000	74.600200
908.000000	74.656300
907.000000	74.764600
906.000000	74.861200
905.000000	74.959300
904.000000	75.045700
903.000000	75.169200
902.000000	75.295800
901.000000	75.417100
900.000000	75.536000
899.000000	75.662000
898.000000	75.785700
897.000000	75.894000
896.000000	76.014200
895.000000	76.079000
894.000000	76.127700
893.000000	76.204200
892.000000	76.277500
891.000000	76.354100
890.000000	76.405200
889.000000	76.466600
888.000000	76.515700
887.000000	76.562300
886.000000	76.574900
885.000000	76.526000
884.000000	76.507100
883.000000	76.517900
882.000000	76.523100
881.000000	76.465500
880.000000	76.462300
879.000000	76.437500
878.000000	76.367400
877.000000	76.366400
876.000000	76.392600
875.000000	76.374600
874.000000	76.337900
873.000000	76.339300
872.000000	76.331100
871.000000	76.313900
870.000000	76.321800
869.000000	76.380800
868.000000	76.400800
867.000000	76.395900
866.000000	76.438600
865.000000	76.461900
864.000000	76.487500
863.000000	76.479300
862.000000	76.439200
861.000000	76.454400
860.000000	76.331900
859.000000	76.182700
858.000000	76.778600
857.000000	76.391400
856.000000	76.438960
855.000000	76.733323
854.000000	76.904901
853.000000	76.726786
852.000000	77.594716
851.000000	77.606464
850.000000	77.641045
849.000000	77.950188
848.000000	78.258004
847.000000	78.543651
846.000000	78.999359
845.000000	79.145167
844.000000	79.393769
843.000000	79.810255
842.000000	79.901207
841.000000	80.167337
840.000000	80.708881
839.000000	80.984580
838.000000	81.025887
837.000000	81.107839
836.000000	81.430719
835.000000	81.811771
834.000000	82.170558
833.000000	82.202771
832.000000	82.479701
831.000000	82.683301
830.000000	82.724514
829.000000	82.858669
828.000000	82.903292
827.000000	83.020867
826.000000	83.236310
825.000000	83.419540
824.000000	83.408077
823.000000	83.319777
822.000000	83.305850
821.000000	83.437068
820.000000	83.377854
819.000000	83.536357
818.000000	83.493060
817.000000	83.547347
816.000000	83.586475
815.000000	83.355495
814.000000	83.483965
813.000000	83.536546
812.000000	83.494765
811.000000	83.481975
810.000000	83.532662
809.000000	83.504145
808.000000	83.479038
807.000000	83.450616
806.000000	83.532378
805.000000	83.429109
804.000000	83.310113
803.000000	83.338725
802.000000	83.392918
801.000000	83.470511
800.000000	83.535694
799.000000	83.526220
798.000000	83.444552
797.000000	83.499787
796.000000	83.636120
795.000000	83.653079
794.000000	83.705376
793.000000	83.696944
792.000000	83.829394
791.000000	83.807698
790.000000	83.818309
789.000000	83.915893
788.000000	83.887565
787.000000	83.906798
786.000000	83.976812
785.000000	83.928115
784.000000	83.922146
783.000000	83.885954
782.000000	83.928683
781.000000	83.951611
780.000000	83.875722
779.000000	83.885765
778.000000	83.868332
777.000000	83.872312
776.000000	83.945926
775.000000	83.900166
774.000000	83.854879
773.000000	83.901776
772.000000	83.762695
771.000000	83.759190
770.000000	83.831004
769.000000	83.767622
768.000000	83.726030
767.000000	83.650710
766.000000	83.503292
765.000000	83.408740
764.000000	83.380886
763.000000	83.309261
762.000000	83.151137
761.000000	83.024088
760.000000	82.853173
759.000000	82.666343
758.000000	82.522335
757.000000	82.377190
756.000000	82.263121
755.000000	82.147631
754.000000	82.019919
753.000000	81.880175
752.000000	81.697702
751.000000	81.457815
750.000000	81.246825
749.000000	81.048057
748.000000	80.780222
747.000000	80.541567
746.000000	80.217929
745.000000	79.842183
744.000000	79.573116
743.000000	79.215181
742.000000	78.773589
741.000000	78.347346
740.000000	77.939103
739.000000	77.546966
738.000000	77.167525
737.000000	76.741850
736.000000	76.338629
735.000000	75.971978
734.000000	75.506037
733.000000	75.037349
732.000000	74.603526
731.000000	74.142702
730.000000	73.645876
729.000000	73.213190
728.000000	72.800020
727.000000	72.339101
726.000000	71.891730
725.000000	71.425695
724.000000	70.985998
723.000000	70.570555
722.000000	70.104330
721.000000	69.697414
720.000000	69.256012
719.000000	68.869749
718.000000	68.532753
717.000000	68.211009
716.000000	67.955585
715.000000	67.713520
714.000000	67.513804
713.000000	67.357196
712.000000	67.166007
711.000000	67.067191
710.000000	66.994808
709.000000	66.904235
708.000000	66.872307
707.000000	66.806367
706.000000	66.718920
705.000000	66.682918
704.000000	66.677802
703.000000	66.620483
702.000000	66.548574
701.000000	66.546584
700.000000	66.472401
699.000000	66.441137
698.000000	66.466149
697.000000	66.480076
696.000000	66.449853
695.000000	66.442558
694.000000	66.444642
693.000000	66.506793
692.000000	66.555016
691.000000	66.589123
690.000000	66.625694
689.000000	66.628062
688.000000	66.637158
687.000000	66.582492
686.000000	66.535689
685.000000	66.435926
684.000000	66.307172
683.000000	66.148005
682.000000	66.014609
681.000000	65.816788
680.000000	65.652411
679.000000	65.442842
678.000000	65.213282
677.000000	64.939005
676.000000	64.762311
675.000000	64.526404
674.000000	64.325362
673.000000	64.130288
672.000000	63.882822
671.000000	63.670222
670.000000	63.452410
669.000000	63.176711
668.000000	62.885285
667.000000	62.544120
666.000000	62.190449
665.000000	61.777185
664.000000	61.298833
663.000000	60.865957
662.000000	60.340330
661.000000	59.810533
660.000000	59.280074
659.000000	58.773394
658.000000	58.260367
657.000000	57.731139
656.000000	57.266430
655.000000	56.742318
654.000000	56.243408
653.000000	55.739191
652.000000	55.207026
651.000000	54.687652
650.000000	54.166666
649.000000	53.680640
648.000000	53.177372
647.000000	52.653165
646.000000	52.166381
645.000000	51.665197
644.000000	51.208446
643.000000	50.769318
642.000000	50.364012
641.000000	50.049090
640.000000	49.802383
639.000000	49.623889
638.000000	49.561549
637.000000	49.557191
636.000000	49.637437
635.000000	49.801625
634.000000	50.040564
633.000000	50.363444
632.000000	50.737011
631.000000	51.169981
630.000000	51.725263
629.000000	52.210910
628.000000	52.750086
627.000000	53.355107
626.000000	53.992910
625.000000	54.667472
624.000000	55.395279
623.000000	56.193858
622.000000	56.993195
621.000000	57.881021
620.000000	58.816407
619.000000	59.750183
618.000000	60.689169
617.000000	61.709444
616.000000	62.700255
615.000000	63.648336
614.000000	64.663590
613.000000	65.603998
612.000000	66.591113
611.000000	67.501866
610.000000	68.397840
609.000000	69.276097
608.000000	70.140238
607.000000	70.972450
606.000000	71.816316
605.000000	72.582683
604.000000	73.366766
603.000000	74.086046
602.000000	74.857056
601.000000	75.515038
600.000000	76.187231
599.000000	76.796327
598.000000	77.386853
597.000000	77.888890
596.000000	78.401727
595.000000	78.909733
594.000000	79.381074
593.000000	79.768947
592.000000	80.172074
591.000000	80.555020
590.000000	80.918261
589.000000	81.296754
588.000000	81.577569
587.000000	81.897797
586.000000	82.141567
585.000000	82.429772
584.000000	82.694007
583.000000	82.955684
582.000000	83.075912
581.000000	83.197939
580.000000	83.346400
579.000000	83.422004
578.000000	83.540336
577.000000	83.561179
576.000000	83.594244
575.000000	83.560516
574.000000	83.533325
573.000000	83.465111
572.000000	83.394149
571.000000	83.324704
570.000000	83.196518
569.000000	83.074775
568.000000	82.987612
567.000000	82.841804
566.000000	82.733325
565.000000	82.591023
564.000000	82.441141
563.000000	82.317503
562.000000	82.111724
561.000000	81.952652
560.000000	81.742799
559.000000	81.511913
558.000000	81.306797
557.000000	81.008455
556.000000	80.781548
555.000000	80.445499
554.000000	80.123376
553.000000	79.745262
552.000000	79.375958
551.000000	78.977095
550.000000	78.499691
549.000000	78.049098
548.000000	77.559851
547.000000	77.074110
546.000000	76.570273
545.000000	76.024086
544.000000	75.466435
543.000000	74.895995
542.000000	74.284341
541.000000	73.675056
540.000000	73.055539
539.000000	72.402578
538.000000	71.715889
537.000000	71.035359
536.000000	70.308689
535.000000	69.569702
534.000000	68.753122
533.000000	67.879792
532.000000	67.013377
531.000000	66.096561
530.000000	65.153784
529.000000	64.223040
528.000000	63.243789
527.000000	62.237062
526.000000	61.222376
525.000000	60.207596
524.000000	59.182774
523.000000	58.148003
522.000000	57.065483
521.000000	56.030333
520.000000	54.955582
519.000000	53.913042
518.000000	52.827301
517.000000	51.757002
516.000000	50.622184
515.000000	49.466238
514.000000	48.330284
513.000000	47.148095
512.000000	45.962874
511.000000	44.779264
510.000000	43.561263
509.000000	42.420760
508.000000	41.296269
507.000000	40.216686
506.000000	39.158798
505.000000	38.159556
504.000000	37.191768
503.000000	36.275804
502.000000	35.409484
501.000000	34.578314
500.000000	33.798209
499.000000	33.074192
498.000000	32.405694
497.000000	31.815736
496.000000	31.238000
495.000000	30.695414
494.000000	30.224357
493.000000	29.819241
492.000000	29.460927
491.000000	29.153395
490.000000	28.923362
489.000000	28.740037
488.000000	28.594229
487.000000	28.487171
486.000000	28.424925
485.000000	28.394513
484.000000	28.378786
483.000000	28.377838
482.000000	28.362301
481.000000	28.339657
480.000000	28.317583
479.000000	28.298918
478.000000	28.299771
477.000000	28.279307
476.000000	28.237620
475.000000	28.202566
474.000000	28.125825
473.000000	28.037715
472.000000	27.959174
471.000000	27.863769
470.000000	27.771585
469.000000	27.666138
468.000000	27.565048
467.000000	27.459885
466.000000	27.340889
465.000000	27.218388
464.000000	27.100150
463.000000	26.956332
462.000000	26.808629
461.000000	26.647757
460.000000	26.471064
459.000000	26.313508
458.000000	26.116540
457.000000	25.923645
456.000000	25.737004
455.000000	25.527056
454.000000	25.311897
453.000000	25.084896
452.000000	24.859884
451.000000	24.602849
450.000000	24.348846
449.000000	24.084990
448.000000	23.801428
447.000000	23.539182
446.000000	23.216302
445.000000	22.875705
444.000000	22.549414
443.000000	22.185227
442.000000	21.826344
441.000000	21.443398
440.000000	21.057419
439.000000	20.679305
438.000000	20.266988
437.000000	19.835439
436.000000	19.411753
435.000000	18.996310
434.000000	18.554813
433.000000	18.078546
432.000000	17.603037
431.000000	17.146570
430.000000	16.692852
429.000000	16.217627
428.000000	15.731222
427.000000	15.255712
426.000000	14.783235
425.000000	14.312463
424.000000	13.851354
423.000000	13.395930
422.000000	12.945432
421.000000	12.493135
420.000000	12.057985
419.000000	11.639037
418.000000	11.243205
417.000000	10.851543
416.000000	10.467649
415.000000	10.108956
414.000000	9.780581
413.000000	9.456943
412.000000	9.150642
411.000000	8.865943
410.000000	8.610424
409.000000	8.357369
408.000000	8.116440
407.000000	7.907155
406.000000	7.715208
405.000000	7.554242
404.000000	7.391191
403.000000	7.234109
402.000000	7.094933
401.000000	6.974516
400.000000	6.859026
399.000000	6.766937
398.000000	6.675890
397.000000	6.587306
396.000000	6.531503
395.000000	6.462247
394.000000	6.393275
393.000000	6.328661
392.000000	6.276932
391.000000	6.225298
390.000000	6.175179
389.000000	6.155094
388.000000	6.121082
387.000000	6.072195
386.000000	6.033635
385.000000	5.999054
384.000000	5.967884
383.000000	5.939177
382.000000	5.898154
381.000000	5.868974
380.000000	5.828803
379.000000	5.814781
378.000000	5.796875
377.000000	5.768358
376.000000	5.664047
375.000000	5.546567
374.000000	5.493985
373.000000	5.505544
372.000000	5.520513
371.000000	5.614876
370.000000	5.542967
369.000000	5.527429
368.000000	5.592327
367.000000	5.545051
366.000000	5.542020
365.000000	5.479206
364.000000	5.442162
363.000000	5.431456
362.000000	5.417718
361.000000	5.421413
360.000000	5.405970
359.000000	5.441498
358.000000	5.415444
357.000000	5.387117
356.000000	5.336619
355.000000	5.325913
354.000000	5.401707
353.000000	5.296638
352.000000	5.316534
351.000000	5.392612
350.000000	5.246235
349.000000	5.187685
348.000000	5.225487
347.000000	5.243867
346.000000	5.204644
345.000000	5.170631
344.000000	5.189769
343.000000	5.372621
342.000000	5.313692
341.000000	5.277311
340.000000	5.199907
339.000000	5.266131
338.000000	5.075605
337.000000	5.266984
336.000000	5.288964
335.000000	5.364379
334.000000	5.220466
333.000000	5.123071
332.000000	5.327808
331.000000	5.239983
330.000000	5.183801
329.000000	5.258173
328.000000	5.263005
327.000000	5.278732
326.000000	5.335861
325.000000	5.466037
324.000000	5.244625
323.000000	5.323071
322.000000	5.669732
321.000000	5.048888
320.000000	5.209665
319.000000	5.345620
318.000000	5.120513
317.000000	5.149125
316.000000	5.162578
315.000000	5.219234
314.000000	5.200096
313.000000	5.200854
312.000000	5.248983
311.000000	5.272289
310.000000	5.232877
309.000000	5.252109
308.000000	5.268310
307.000000	5.221224
306.000000	5.242446
305.000000	5.222929
304.000000	5.246141
303.000000	5.268405
302.000000	5.249457
301.000000	5.247562
300.000000	5.252015
299.000000	5.227666
298.000000	5.235530
297.000000	5.257320
296.000000	5.269826
295.000000	5.266984
294.000000	5.247183
293.000000	5.330650
292.000000	5.311323
291.000000	5.322692
290.000000	5.297396
289.000000	5.271626
288.000000	5.283090
287.000000	5.329135
286.000000	5.310091
285.000000	5.343062
284.000000	5.381053
283.000000	5.324208
282.000000	5.381148
281.000000	5.312934
280.000000	5.402181
279.000000	5.408718
278.000000	5.407202
277.000000	5.456183
276.000000	5.452110
275.000000	5.458363
274.000000	5.469447
273.000000	5.518808
272.000000	5.473711
271.000000	5.503365
270.000000	5.525819
269.000000	5.607865
268.000000	5.558126
267.000000	5.607012
266.000000	5.630793
265.000000	5.637046
264.000000	5.656373
263.000000	5.642920
262.000000	5.622076
261.000000	5.679301
260.000000	5.752441
259.000000	5.773948
258.000000	5.775274
257.000000	5.824445
256.000000	5.830130
255.000000	5.805591
254.000000	5.849267
253.000000	5.854099
252.000000	5.853815
251.000000	5.874469
250.000000	5.867837
