PE UV       SUBTECH     SPECTRUM    ASCII       PEDS        4.00        
   -1
CICIMAUCR0100-1.Sample.ASC
24/04/18
15:25:56.00
24/04/18
15:25:56.00
Vinicio Soto Monge
C. cupreomarginata
250,000000
1
Lambda 1050
1050L1511233
PerkinElmer UV WinLab 6.3.2.0749 / 2.02.05 Lambda 900 UV/VIS/NIR, Aug  7 2015 09:38:08

0
0
3350/servo 860,8/2
0
0
UV/VIS
1
1
1
DoubleDePol,CommonBeamDepol,RBeamAtt,SBeamAtt,60mm sphere, WB InGaAs Detector
0
0
0
0
Program
Program
3350/servo 860,8/2
3350/0,2 860,8/0,2
3350/0,2 860,8/0,2
0
15.00
 
 
 
0
 
860,8
319,2
860,8
Front
100
on
S:100 R:100
0
0
0
0
 
0
 
 
 
0
 
 
0
0
0
0
0
 
 
 
 
0
0


0
0
#HDR
-1
-1
#GR
nm
%R
1.0
0.0
2500,000000
-1,000000
2251
8
67,533200
4,656700
#DATA
2500.000000	9.357300
2499.000000	9.290500
2498.000000	9.220300
2497.000000	9.220300
2496.000000	9.243800
2495.000000	9.160200
2494.000000	9.231000
2493.000000	9.122000
2492.000000	9.131600
2491.000000	9.163400
2490.000000	9.125600
2489.000000	9.089800
2488.000000	9.100200
2487.000000	9.061200
2486.000000	9.079500
2485.000000	9.109900
2484.000000	9.033600
2483.000000	9.075900
2482.000000	9.085700
2481.000000	9.060200
2480.000000	9.077900
2479.000000	9.089500
2478.000000	9.044500
2477.000000	9.063800
2476.000000	9.087100
2475.000000	9.128000
2474.000000	9.064300
2473.000000	9.057600
2472.000000	9.074100
2471.000000	9.105000
2470.000000	9.137600
2469.000000	9.126100
2468.000000	9.128500
2467.000000	9.121100
2466.000000	9.171600
2465.000000	9.188400
2464.000000	9.245500
2463.000000	9.262400
2462.000000	9.282300
2461.000000	9.331800
2460.000000	9.371900
2459.000000	9.420400
2458.000000	9.504100
2457.000000	9.560000
2456.000000	9.609000
2455.000000	9.655800
2454.000000	9.730300
2453.000000	9.809000
2452.000000	9.891300
2451.000000	9.950300
2450.000000	10.055900
2449.000000	10.107900
2448.000000	10.170000
2447.000000	10.265800
2446.000000	10.353600
2445.000000	10.436100
2444.000000	10.495700
2443.000000	10.567600
2442.000000	10.647900
2441.000000	10.741900
2440.000000	10.818900
2439.000000	10.876700
2438.000000	10.955900
2437.000000	11.016800
2436.000000	11.078600
2435.000000	11.169600
2434.000000	11.218800
2433.000000	11.270400
2432.000000	11.342500
2431.000000	11.392900
2430.000000	11.439900
2429.000000	11.500600
2428.000000	11.560100
2427.000000	11.613600
2426.000000	11.628800
2425.000000	11.676500
2424.000000	11.741900
2423.000000	11.772000
2422.000000	11.808200
2421.000000	11.833500
2420.000000	11.861800
2419.000000	11.895300
2418.000000	11.922000
2417.000000	11.951400
2416.000000	11.976800
2415.000000	12.007800
2414.000000	12.042100
2413.000000	12.074700
2412.000000	12.092400
2411.000000	12.118800
2410.000000	12.138900
2409.000000	12.157000
2408.000000	12.176100
2407.000000	12.198900
2406.000000	12.222800
2405.000000	12.250900
2404.000000	12.289000
2403.000000	12.305900
2402.000000	12.312700
2401.000000	12.322200
2400.000000	12.354200
2399.000000	12.399800
2398.000000	12.417000
2397.000000	12.439100
2396.000000	12.472200
2395.000000	12.493000
2394.000000	12.516800
2393.000000	12.538100
2392.000000	12.565300
2391.000000	12.574900
2390.000000	12.596700
2389.000000	12.614400
2388.000000	12.624100
2387.000000	12.637300
2386.000000	12.640400
2385.000000	12.636000
2384.000000	12.641900
2383.000000	12.626700
2382.000000	12.626600
2381.000000	12.654300
2380.000000	12.639200
2379.000000	12.610600
2378.000000	12.608000
2377.000000	12.588100
2376.000000	12.562000
2375.000000	12.557500
2374.000000	12.541800
2373.000000	12.498800
2372.000000	12.468400
2371.000000	12.451200
2370.000000	12.417200
2369.000000	12.382200
2368.000000	12.342500
2367.000000	12.293200
2366.000000	12.237500
2365.000000	12.190600
2364.000000	12.146100
2363.000000	12.081800
2362.000000	12.011800
2361.000000	11.951900
2360.000000	11.906700
2359.000000	11.837700
2358.000000	11.760900
2357.000000	11.724300
2356.000000	11.677400
2355.000000	11.630800
2354.000000	11.605600
2353.000000	11.575800
2352.000000	11.552200
2351.000000	11.564000
2350.000000	11.567600
2349.000000	11.577600
2348.000000	11.605700
2347.000000	11.644500
2346.000000	11.684800
2345.000000	11.727900
2344.000000	11.776200
2343.000000	11.817300
2342.000000	11.858800
2341.000000	11.902200
2340.000000	11.946700
2339.000000	11.965400
2338.000000	11.988200
2337.000000	12.024100
2336.000000	12.022500
2335.000000	12.014800
2334.000000	12.019900
2333.000000	11.979000
2332.000000	11.949000
2331.000000	11.933200
2330.000000	11.894600
2329.000000	11.848400
2328.000000	11.794500
2327.000000	11.734400
2326.000000	11.684300
2325.000000	11.619600
2324.000000	11.538200
2323.000000	11.463300
2322.000000	11.383400
2321.000000	11.272700
2320.000000	11.174800
2319.000000	11.072200
2318.000000	10.953900
2317.000000	10.840700
2316.000000	10.736500
2315.000000	10.622200
2314.000000	10.507100
2313.000000	10.400300
2312.000000	10.302700
2311.000000	10.209500
2310.000000	10.122200
2309.000000	10.061300
2308.000000	9.999600
2307.000000	9.939800
2306.000000	9.934500
2305.000000	9.927100
2304.000000	9.933100
2303.000000	9.978600
2302.000000	10.024900
2301.000000	10.102400
2300.000000	10.162600
2299.000000	10.241000
2298.000000	10.347500
2297.000000	10.440200
2296.000000	10.534300
2295.000000	10.638400
2294.000000	10.723400
2293.000000	10.784300
2292.000000	10.852900
2291.000000	10.903600
2290.000000	10.952200
2289.000000	10.979300
2288.000000	10.990200
2287.000000	10.985300
2286.000000	10.978600
2285.000000	10.968200
2284.000000	10.927100
2283.000000	10.906200
2282.000000	10.880500
2281.000000	10.812700
2280.000000	10.774400
2279.000000	10.707800
2278.000000	10.667600
2277.000000	10.639400
2276.000000	10.589400
2275.000000	10.540100
2274.000000	10.522500
2273.000000	10.497600
2272.000000	10.493000
2271.000000	10.479800
2270.000000	10.499000
2269.000000	10.528100
2268.000000	10.581400
2267.000000	10.677500
2266.000000	10.783400
2265.000000	10.873300
2264.000000	11.017700
2263.000000	11.185800
2262.000000	11.353400
2261.000000	11.561700
2260.000000	11.772800
2259.000000	12.018500
2258.000000	12.285900
2257.000000	12.537100
2256.000000	12.794800
2255.000000	13.049700
2254.000000	13.326700
2253.000000	13.570300
2252.000000	13.814300
2251.000000	14.090000
2250.000000	14.299100
2249.000000	14.536700
2248.000000	14.741700
2247.000000	14.937800
2246.000000	15.118000
2245.000000	15.274800
2244.000000	15.433000
2243.000000	15.584500
2242.000000	15.724100
2241.000000	15.849000
2240.000000	15.950400
2239.000000	16.077900
2238.000000	16.143200
2237.000000	16.238100
2236.000000	16.337100
2235.000000	16.417800
2234.000000	16.475200
2233.000000	16.531300
2232.000000	16.574300
2231.000000	16.629200
2230.000000	16.654200
2229.000000	16.706200
2228.000000	16.723700
2227.000000	16.717800
2226.000000	16.713400
2225.000000	16.738000
2224.000000	16.726100
2223.000000	16.714200
2222.000000	16.689400
2221.000000	16.673300
2220.000000	16.663700
2219.000000	16.657300
2218.000000	16.617300
2217.000000	16.595200
2216.000000	16.557100
2215.000000	16.513500
2214.000000	16.496200
2213.000000	16.457200
2212.000000	16.421100
2211.000000	16.407200
2210.000000	16.364700
2209.000000	16.333800
2208.000000	16.303300
2207.000000	16.307300
2206.000000	16.284900
2205.000000	16.260500
2204.000000	16.259700
2203.000000	16.212600
2202.000000	16.206800
2201.000000	16.195900
2200.000000	16.170200
2199.000000	16.161500
2198.000000	16.134000
2197.000000	16.129500
2196.000000	16.120600
2195.000000	16.122200
2194.000000	16.120700
2193.000000	16.086300
2192.000000	16.074200
2191.000000	16.067700
2190.000000	16.056100
2189.000000	16.056600
2188.000000	16.037100
2187.000000	16.045700
2186.000000	16.018800
2185.000000	16.001400
2184.000000	15.981700
2183.000000	15.967800
2182.000000	15.944800
2181.000000	15.928600
2180.000000	15.936200
2179.000000	15.915700
2178.000000	15.901800
2177.000000	15.892300
2176.000000	15.896000
2175.000000	15.888000
2174.000000	15.894500
2173.000000	15.889900
2172.000000	15.897000
2171.000000	15.892000
2170.000000	15.911600
2169.000000	15.927900
2168.000000	15.937300
2167.000000	15.968800
2166.000000	16.001300
2165.000000	16.019500
2164.000000	16.032200
2163.000000	16.056600
2162.000000	16.081500
2161.000000	16.115300
2160.000000	16.143600
2159.000000	16.180300
2158.000000	16.214000
2157.000000	16.257000
2156.000000	16.297300
2155.000000	16.334500
2154.000000	16.395000
2153.000000	16.451100
2152.000000	16.492800
2151.000000	16.555100
2150.000000	16.606800
2149.000000	16.654200
2148.000000	16.705200
2147.000000	16.738700
2146.000000	16.788900
2145.000000	16.827400
2144.000000	16.884900
2143.000000	16.931100
2142.000000	16.952800
2141.000000	17.005000
2140.000000	17.066200
2139.000000	17.094500
2138.000000	17.120600
2137.000000	17.155400
2136.000000	17.184600
2135.000000	17.218700
2134.000000	17.246900
2133.000000	17.266600
2132.000000	17.287900
2131.000000	17.331100
2130.000000	17.334600
2129.000000	17.335900
2128.000000	17.362500
2127.000000	17.371800
2126.000000	17.379300
2125.000000	17.383800
2124.000000	17.377000
2123.000000	17.368800
2122.000000	17.370900
2121.000000	17.360900
2120.000000	17.342500
2119.000000	17.332600
2118.000000	17.303200
2117.000000	17.291200
2116.000000	17.280600
2115.000000	17.245400
2114.000000	17.219600
2113.000000	17.209600
2112.000000	17.203700
2111.000000	17.164700
2110.000000	17.121300
2109.000000	17.099900
2108.000000	17.078500
2107.000000	17.044200
2106.000000	17.019100
2105.000000	16.993200
2104.000000	16.971300
2103.000000	16.954600
2102.000000	16.919700
2101.000000	16.892800
2100.000000	16.857200
2099.000000	16.822900
2098.000000	16.816600
2097.000000	16.788100
2096.000000	16.750400
2095.000000	16.730200
2094.000000	16.709800
2093.000000	16.696200
2092.000000	16.688000
2091.000000	16.658900
2090.000000	16.629300
2089.000000	16.617500
2088.000000	16.613200
2087.000000	16.579700
2086.000000	16.546600
2085.000000	16.535500
2084.000000	16.514600
2083.000000	16.481000
2082.000000	16.448900
2081.000000	16.416900
2080.000000	16.399900
2079.000000	16.366200
2078.000000	16.319000
2077.000000	16.278300
2076.000000	16.244200
2075.000000	16.204500
2074.000000	16.163100
2073.000000	16.123900
2072.000000	16.079100
2071.000000	16.037000
2070.000000	15.993700
2069.000000	15.944900
2068.000000	15.895600
2067.000000	15.852300
2066.000000	15.803600
2065.000000	15.758300
2064.000000	15.726200
2063.000000	15.680600
2062.000000	15.666900
2061.000000	15.644000
2060.000000	15.605400
2059.000000	15.590500
2058.000000	15.577300
2057.000000	15.579100
2056.000000	15.573700
2055.000000	15.596600
2054.000000	15.631700
2053.000000	15.678900
2052.000000	15.725900
2051.000000	15.787100
2050.000000	15.866900
2049.000000	15.945500
2048.000000	16.036400
2047.000000	16.130700
2046.000000	16.242900
2045.000000	16.356500
2044.000000	16.484500
2043.000000	16.592000
2042.000000	16.718800
2041.000000	16.825800
2040.000000	16.935500
2039.000000	17.068800
2038.000000	17.197800
2037.000000	17.300100
2036.000000	17.413400
2035.000000	17.503700
2034.000000	17.588500
2033.000000	17.687800
2032.000000	17.763800
2031.000000	17.860500
2030.000000	17.951600
2029.000000	18.031100
2028.000000	18.075900
2027.000000	18.125400
2026.000000	18.193300
2025.000000	18.255500
2024.000000	18.317300
2023.000000	18.363900
2022.000000	18.423700
2021.000000	18.454000
2020.000000	18.505200
2019.000000	18.537700
2018.000000	18.582100
2017.000000	18.614000
2016.000000	18.626300
2015.000000	18.652200
2014.000000	18.656500
2013.000000	18.696600
2012.000000	18.705700
2011.000000	18.686800
2010.000000	18.680000
2009.000000	18.703100
2008.000000	18.680700
2007.000000	18.684500
2006.000000	18.663200
2005.000000	18.648600
2004.000000	18.613500
2003.000000	18.581100
2002.000000	18.525800
2001.000000	18.494200
2000.000000	18.472400
1999.000000	18.418300
1998.000000	18.373900
1997.000000	18.318300
1996.000000	18.245400
1995.000000	18.201900
1994.000000	18.139100
1993.000000	18.053900
1992.000000	17.992000
1991.000000	17.914300
1990.000000	17.839600
1989.000000	17.786300
1988.000000	17.690000
1987.000000	17.631800
1986.000000	17.539700
1985.000000	17.472500
1984.000000	17.352000
1983.000000	17.283100
1982.000000	17.181700
1981.000000	17.118300
1980.000000	17.031000
1979.000000	16.934700
1978.000000	16.850700
1977.000000	16.755900
1976.000000	16.678200
1975.000000	16.599900
1974.000000	16.506000
1973.000000	16.426800
1972.000000	16.348600
1971.000000	16.265400
1970.000000	16.197100
1969.000000	16.114400
1968.000000	16.033900
1967.000000	15.968200
1966.000000	15.904000
1965.000000	15.798200
1964.000000	15.737500
1963.000000	15.660500
1962.000000	15.591600
1961.000000	15.532600
1960.000000	15.441200
1959.000000	15.375400
1958.000000	15.295600
1957.000000	15.244500
1956.000000	15.155700
1955.000000	15.083200
1954.000000	15.014300
1953.000000	14.957500
1952.000000	14.864400
1951.000000	14.795400
1950.000000	14.734600
1949.000000	14.700500
1948.000000	14.648400
1947.000000	14.599900
1946.000000	14.526400
1945.000000	14.507800
1944.000000	14.462200
1943.000000	14.433700
1942.000000	14.411800
1941.000000	14.398600
1940.000000	14.387300
1939.000000	14.394800
1938.000000	14.381700
1937.000000	14.383100
1936.000000	14.399900
1935.000000	14.426300
1934.000000	14.447200
1933.000000	14.507300
1932.000000	14.547200
1931.000000	14.609500
1930.000000	14.679600
1929.000000	14.765600
1928.000000	14.863300
1927.000000	14.957700
1926.000000	15.036400
1925.000000	15.159100
1924.000000	15.305000
1923.000000	15.443200
1922.000000	15.574000
1921.000000	15.741500
1920.000000	15.902600
1919.000000	16.055300
1918.000000	16.235700
1917.000000	16.437100
1916.000000	16.630000
1915.000000	16.823000
1914.000000	17.042200
1913.000000	17.310600
1912.000000	17.538500
1911.000000	17.753400
1910.000000	18.016200
1909.000000	18.258800
1908.000000	18.512200
1907.000000	18.779200
1906.000000	19.102000
1905.000000	19.410700
1904.000000	19.726300
1903.000000	20.025500
1902.000000	20.353600
1901.000000	20.646200
1900.000000	21.008700
1899.000000	21.369400
1898.000000	21.688800
1897.000000	22.072300
1896.000000	22.411600
1895.000000	22.738500
1894.000000	23.094000
1893.000000	23.476400
1892.000000	23.873900
1891.000000	24.284000
1890.000000	24.681500
1889.000000	25.061900
1888.000000	25.491400
1887.000000	25.902200
1886.000000	26.343300
1885.000000	26.814900
1884.000000	27.360900
1883.000000	27.910800
1882.000000	28.418500
1881.000000	28.972400
1880.000000	29.511500
1879.000000	30.006700
1878.000000	30.487900
1877.000000	30.925700
1876.000000	31.343400
1875.000000	31.734900
1874.000000	32.106900
1873.000000	32.473100
1872.000000	32.786100
1871.000000	33.048700
1870.000000	33.273600
1869.000000	33.493100
1868.000000	33.702000
1867.000000	33.845300
1866.000000	33.944900
1865.000000	34.051300
1864.000000	34.154000
1863.000000	34.256700
1862.000000	34.336100
1861.000000	34.413100
1860.000000	34.501900
1859.000000	34.529500
1858.000000	34.557100
1857.000000	34.586500
1856.000000	34.595900
1855.000000	34.596200
1854.000000	34.579100
1853.000000	34.533800
1852.000000	34.488000
1851.000000	34.484100
1850.000000	34.489900
1849.000000	34.473100
1848.000000	34.423000
1847.000000	34.340800
1846.000000	34.228400
1845.000000	34.164300
1844.000000	34.156100
1843.000000	34.159600
1842.000000	34.173600
1841.000000	34.148300
1840.000000	34.094500
1839.000000	34.034100
1838.000000	33.980700
1837.000000	33.934400
1836.000000	33.861600
1835.000000	33.789500
1834.000000	33.708100
1833.000000	33.627000
1832.000000	33.569800
1831.000000	33.505300
1830.000000	33.431800
1829.000000	33.358100
1828.000000	33.270000
1827.000000	33.184500
1826.000000	33.112500
1825.000000	33.047400
1824.000000	33.000200
1823.000000	33.002800
1822.000000	33.034900
1821.000000	33.008900
1820.000000	32.932300
1819.000000	32.875500
1818.000000	32.850000
1817.000000	32.844900
1816.000000	32.845300
1815.000000	32.823200
1814.000000	32.805600
1813.000000	32.809100
1812.000000	32.792600
1811.000000	32.750200
1810.000000	32.691700
1809.000000	32.646900
1808.000000	32.628000
1807.000000	32.603300
1806.000000	32.546700
1805.000000	32.473800
1804.000000	32.421300
1803.000000	32.385400
1802.000000	32.354500
1801.000000	32.309600
1800.000000	32.238800
1799.000000	32.153800
1798.000000	32.116800
1797.000000	32.073300
1796.000000	32.031700
1795.000000	31.990800
1794.000000	31.938400
1793.000000	31.874400
1792.000000	31.817700
1791.000000	31.764900
1790.000000	31.704200
1789.000000	31.641300
1788.000000	31.573300
1787.000000	31.521200
1786.000000	31.458300
1785.000000	31.379200
1784.000000	31.289500
1783.000000	31.203300
1782.000000	31.137200
1781.000000	31.057600
1780.000000	30.956000
1779.000000	30.882000
1778.000000	30.775400
1777.000000	30.667500
1776.000000	30.565000
1775.000000	30.434100
1774.000000	30.303600
1773.000000	30.179600
1772.000000	30.030400
1771.000000	29.889600
1770.000000	29.755700
1769.000000	29.605600
1768.000000	29.482600
1767.000000	29.360000
1766.000000	29.257000
1765.000000	29.156600
1764.000000	29.108100
1763.000000	29.054900
1762.000000	29.062200
1761.000000	29.089000
1760.000000	29.134800
1759.000000	29.183200
1758.000000	29.234200
1757.000000	29.295700
1756.000000	29.335300
1755.000000	29.373100
1754.000000	29.382200
1753.000000	29.360500
1752.000000	29.341700
1751.000000	29.314600
1750.000000	29.274600
1749.000000	29.201200
1748.000000	29.102800
1747.000000	29.000500
1746.000000	28.888100
1745.000000	28.744100
1744.000000	28.597900
1743.000000	28.409100
1742.000000	28.194700
1741.000000	27.959900
1740.000000	27.726100
1739.000000	27.487600
1738.000000	27.264100
1737.000000	27.060500
1736.000000	26.886500
1735.000000	26.776200
1734.000000	26.714000
1733.000000	26.700400
1732.000000	26.732300
1731.000000	26.790500
1730.000000	26.872200
1729.000000	26.977700
1728.000000	27.081700
1727.000000	27.199300
1726.000000	27.299000
1725.000000	27.386100
1724.000000	27.469400
1723.000000	27.500600
1722.000000	27.535400
1721.000000	27.550900
1720.000000	27.599400
1719.000000	27.653000
1718.000000	27.698500
1717.000000	27.760100
1716.000000	27.823000
1715.000000	27.907200
1714.000000	28.004600
1713.000000	28.082400
1712.000000	28.155100
1711.000000	28.197900
1710.000000	28.215800
1709.000000	28.260800
1708.000000	28.224100
1707.000000	28.214300
1706.000000	28.181600
1705.000000	28.134500
1704.000000	28.068700
1703.000000	28.000200
1702.000000	27.881200
1701.000000	27.763500
1700.000000	27.615500
1699.000000	27.414900
1698.000000	27.288400
1697.000000	27.153200
1696.000000	27.059700
1695.000000	27.028200
1694.000000	27.073800
1693.000000	27.171300
1692.000000	27.316900
1691.000000	27.468200
1690.000000	27.643300
1689.000000	27.763100
1688.000000	27.872700
1687.000000	27.927700
1686.000000	27.965400
1685.000000	28.030500
1684.000000	28.134200
1683.000000	28.337800
1682.000000	28.651400
1681.000000	29.124000
1680.000000	29.620700
1679.000000	30.185400
1678.000000	30.751900
1677.000000	31.296600
1676.000000	31.769000
1675.000000	32.217500
1674.000000	32.599300
1673.000000	32.954600
1672.000000	33.220200
1671.000000	33.482500
1670.000000	33.703800
1669.000000	33.928900
1668.000000	34.105800
1667.000000	34.289800
1666.000000	34.442300
1665.000000	34.558600
1664.000000	34.665800
1663.000000	34.774900
1662.000000	34.853500
1661.000000	34.932000
1660.000000	34.993000
1659.000000	35.051100
1658.000000	35.094100
1657.000000	35.127700
1656.000000	35.154500
1655.000000	35.171600
1654.000000	35.180200
1653.000000	35.180400
1652.000000	35.162700
1651.000000	35.152800
1650.000000	35.124900
1649.000000	35.105600
1648.000000	35.073100
1647.000000	35.034600
1646.000000	34.979800
1645.000000	34.944500
1644.000000	34.882400
1643.000000	34.856100
1642.000000	34.805400
1641.000000	34.752000
1640.000000	34.692000
1639.000000	34.625000
1638.000000	34.560700
1637.000000	34.504900
1636.000000	34.437600
1635.000000	34.381900
1634.000000	34.323700
1633.000000	34.239200
1632.000000	34.158400
1631.000000	34.073700
1630.000000	34.001000
1629.000000	33.915200
1628.000000	33.813900
1627.000000	33.742300
1626.000000	33.674000
1625.000000	33.585500
1624.000000	33.499700
1623.000000	33.421400
1622.000000	33.331700
1621.000000	33.248800
1620.000000	33.170600
1619.000000	33.096900
1618.000000	33.015900
1617.000000	32.922400
1616.000000	32.856300
1615.000000	32.781600
1614.000000	32.704400
1613.000000	32.636400
1612.000000	32.557200
1611.000000	32.468200
1610.000000	32.394600
1609.000000	32.320300
1608.000000	32.251700
1607.000000	32.180900
1606.000000	32.096600
1605.000000	32.013800
1604.000000	31.936800
1603.000000	31.842500
1602.000000	31.751700
1601.000000	31.680100
1600.000000	31.599700
1599.000000	31.529700
1598.000000	31.461000
1597.000000	31.389200
1596.000000	31.318500
1595.000000	31.245900
1594.000000	31.190500
1593.000000	31.132900
1592.000000	31.067500
1591.000000	30.994200
1590.000000	30.935300
1589.000000	30.882900
1588.000000	30.833800
1587.000000	30.782800
1586.000000	30.737000
1585.000000	30.701200
1584.000000	30.661300
1583.000000	30.618300
1582.000000	30.581600
1581.000000	30.554800
1580.000000	30.530800
1579.000000	30.493300
1578.000000	30.467900
1577.000000	30.460400
1576.000000	30.441900
1575.000000	30.433400
1574.000000	30.429400
1573.000000	30.433200
1572.000000	30.437000
1571.000000	30.447200
1570.000000	30.461600
1569.000000	30.470700
1568.000000	30.476900
1567.000000	30.491700
1566.000000	30.509800
1565.000000	30.529800
1564.000000	30.570900
1563.000000	30.591900
1562.000000	30.589600
1561.000000	30.593800
1560.000000	30.599500
1559.000000	30.606900
1558.000000	30.601600
1557.000000	30.604800
1556.000000	30.611400
1555.000000	30.584300
1554.000000	30.556700
1553.000000	30.525100
1552.000000	30.500600
1551.000000	30.480600
1550.000000	30.460600
1549.000000	30.431600
1548.000000	30.400000
1547.000000	30.376600
1546.000000	30.352700
1545.000000	30.323300
1544.000000	30.295200
1543.000000	30.284600
1542.000000	30.265100
1541.000000	30.245900
1540.000000	30.230800
1539.000000	30.230600
1538.000000	30.210300
1537.000000	30.193700
1536.000000	30.176300
1535.000000	30.167700
1534.000000	30.144700
1533.000000	30.106700
1532.000000	30.087900
1531.000000	30.067300
1530.000000	30.045000
1529.000000	30.013900
1528.000000	29.994200
1527.000000	29.960600
1526.000000	29.923700
1525.000000	29.887400
1524.000000	29.846100
1523.000000	29.806000
1522.000000	29.785100
1521.000000	29.750200
1520.000000	29.712700
1519.000000	29.670500
1518.000000	29.642900
1517.000000	29.605900
1516.000000	29.564200
1515.000000	29.522300
1514.000000	29.486300
1513.000000	29.434600
1512.000000	29.391700
1511.000000	29.356400
1510.000000	29.308800
1509.000000	29.272800
1508.000000	29.245200
1507.000000	29.195800
1506.000000	29.153700
1505.000000	29.121700
1504.000000	29.080400
1503.000000	29.049300
1502.000000	29.015200
1501.000000	28.991000
1500.000000	28.988800
1499.000000	28.935100
1498.000000	28.930900
1497.000000	28.904200
1496.000000	28.904600
1495.000000	28.887600
1494.000000	28.878800
1493.000000	28.888800
1492.000000	28.890800
1491.000000	28.867100
1490.000000	28.890800
1489.000000	28.882100
1488.000000	28.899400
1487.000000	28.916000
1486.000000	28.933900
1485.000000	28.934100
1484.000000	28.951000
1483.000000	28.976200
1482.000000	29.006500
1481.000000	29.033900
1480.000000	29.054400
1479.000000	29.075800
1478.000000	29.109300
1477.000000	29.134200
1476.000000	29.168700
1475.000000	29.209200
1474.000000	29.250200
1473.000000	29.295100
1472.000000	29.353600
1471.000000	29.404100
1470.000000	29.436000
1469.000000	29.462000
1468.000000	29.505400
1467.000000	29.550600
1466.000000	29.591600
1465.000000	29.666000
1464.000000	29.716800
1463.000000	29.779900
1462.000000	29.840800
1461.000000	29.908100
1460.000000	30.006000
1459.000000	30.068600
1458.000000	30.154000
1457.000000	30.273200
1456.000000	30.372400
1455.000000	30.466000
1454.000000	30.569300
1453.000000	30.682800
1452.000000	30.831200
1451.000000	30.962100
1450.000000	31.071400
1449.000000	31.173600
1448.000000	31.278300
1447.000000	31.441000
1446.000000	31.594700
1445.000000	31.696800
1444.000000	31.824300
1443.000000	31.951200
1442.000000	32.095700
1441.000000	32.247200
1440.000000	32.387500
1439.000000	32.542300
1438.000000	32.699800
1437.000000	32.843600
1436.000000	32.958100
1435.000000	33.109900
1434.000000	33.289900
1433.000000	33.434800
1432.000000	33.587500
1431.000000	33.749200
1430.000000	33.915800
1429.000000	34.111300
1428.000000	34.314200
1427.000000	34.514200
1426.000000	34.716500
1425.000000	34.972600
1424.000000	35.242300
1423.000000	35.465200
1422.000000	35.685200
1421.000000	35.971400
1420.000000	36.245900
1419.000000	36.534900
1418.000000	36.746100
1417.000000	36.949900
1416.000000	37.253700
1415.000000	37.553700
1414.000000	37.858300
1413.000000	38.114700
1412.000000	38.337200
1411.000000	38.638700
1410.000000	38.983600
1409.000000	39.385400
1408.000000	39.724200
1407.000000	40.117200
1406.000000	40.505200
1405.000000	40.932700
1404.000000	41.345900
1403.000000	41.717000
1402.000000	42.078300
1401.000000	42.605400
1400.000000	42.922500
1399.000000	43.191400
1398.000000	43.386900
1397.000000	43.676100
1396.000000	44.001500
1395.000000	44.237900
1394.000000	44.394000
1393.000000	44.560900
1392.000000	44.806400
1391.000000	45.017800
1390.000000	45.222700
1389.000000	45.476600
1388.000000	45.837300
1387.000000	46.125900
1386.000000	46.470600
1385.000000	46.842100
1384.000000	47.284800
1383.000000	47.666600
1382.000000	47.993200
1381.000000	48.236500
1380.000000	48.356400
1379.000000	48.505300
1378.000000	48.590400
1377.000000	48.693000
1376.000000	48.812600
1375.000000	48.983400
1374.000000	49.205500
1373.000000	49.508000
1372.000000	49.840300
1371.000000	50.176500
1370.000000	50.466500
1369.000000	50.750000
1368.000000	51.034700
1367.000000	51.254300
1366.000000	51.447600
1365.000000	51.661500
1364.000000	51.847800
1363.000000	51.981100
1362.000000	52.161000
1361.000000	52.305100
1360.000000	52.347500
1359.000000	52.401600
1358.000000	52.489900
1357.000000	52.636000
1356.000000	52.873700
1355.000000	53.224000
1354.000000	53.633900
1353.000000	54.034800
1352.000000	54.478100
1351.000000	54.938000
1350.000000	55.364600
1349.000000	55.749300
1348.000000	56.106300
1347.000000	56.447700
1346.000000	56.721000
1345.000000	57.015800
1344.000000	57.300500
1343.000000	57.536000
1342.000000	57.772700
1341.000000	58.023900
1340.000000	58.247800
1339.000000	58.449600
1338.000000	58.654500
1337.000000	58.849000
1336.000000	59.025100
1335.000000	59.199800
1334.000000	59.373000
1333.000000	59.527900
1332.000000	59.687500
1331.000000	59.830100
1330.000000	59.947500
1329.000000	60.065200
1328.000000	60.190900
1327.000000	60.290300
1326.000000	60.398900
1325.000000	60.506800
1324.000000	60.611700
1323.000000	60.696300
1322.000000	60.778400
1321.000000	60.855200
1320.000000	60.928100
1319.000000	60.997000
1318.000000	61.071200
1317.000000	61.140000
1316.000000	61.203100
1315.000000	61.269800
1314.000000	61.333500
1313.000000	61.388800
1312.000000	61.431300
1311.000000	61.484000
1310.000000	61.529500
1309.000000	61.556700
1308.000000	61.592700
1307.000000	61.624000
1306.000000	61.637400
1305.000000	61.654200
1304.000000	61.682600
1303.000000	61.692700
1302.000000	61.695700
1301.000000	61.703600
1300.000000	61.686100
1299.000000	61.671700
1298.000000	61.681800
1297.000000	61.686200
1296.000000	61.683700
1295.000000	61.674700
1294.000000	61.654800
1293.000000	61.639300
1292.000000	61.618500
1291.000000	61.590800
1290.000000	61.567400
1289.000000	61.522200
1288.000000	61.470600
1287.000000	61.436900
1286.000000	61.398000
1285.000000	61.342200
1284.000000	61.284400
1283.000000	61.233300
1282.000000	61.179400
1281.000000	61.130200
1280.000000	61.080000
1279.000000	61.026600
1278.000000	60.997500
1277.000000	60.950400
1276.000000	60.907300
1275.000000	60.873800
1274.000000	60.843600
1273.000000	60.810000
1272.000000	60.792700
1271.000000	60.776900
1270.000000	60.747200
1269.000000	60.717400
1268.000000	60.695900
1267.000000	60.665300
1266.000000	60.642000
1265.000000	60.629700
1264.000000	60.600700
1263.000000	60.570300
1262.000000	60.535700
1261.000000	60.504300
1260.000000	60.467100
1259.000000	60.432200
1258.000000	60.388200
1257.000000	60.347200
1256.000000	60.310900
1255.000000	60.263300
1254.000000	60.220500
1253.000000	60.156600
1252.000000	60.101400
1251.000000	60.027300
1250.000000	59.941600
1249.000000	59.856000
1248.000000	59.797600
1247.000000	59.725000
1246.000000	59.617300
1245.000000	59.518900
1244.000000	59.418300
1243.000000	59.308300
1242.000000	59.201400
1241.000000	59.099300
1240.000000	58.994300
1239.000000	58.869700
1238.000000	58.747200
1237.000000	58.634500
1236.000000	58.523400
1235.000000	58.403800
1234.000000	58.281900
1233.000000	58.151500
1232.000000	58.015800
1231.000000	57.904800
1230.000000	57.770900
1229.000000	57.621500
1228.000000	57.467300
1227.000000	57.334400
1226.000000	57.203800
1225.000000	57.050900
1224.000000	56.902200
1223.000000	56.763600
1222.000000	56.649300
1221.000000	56.501300
1220.000000	56.362200
1219.000000	56.240800
1218.000000	56.127000
1217.000000	56.006700
1216.000000	55.877400
1215.000000	55.767200
1214.000000	55.665400
1213.000000	55.553000
1212.000000	55.433900
1211.000000	55.347700
1210.000000	55.225600
1209.000000	55.131800
1208.000000	55.053500
1207.000000	54.990900
1206.000000	54.902300
1205.000000	54.827400
1204.000000	54.803000
1203.000000	54.761200
1202.000000	54.711400
1201.000000	54.662200
1200.000000	54.593100
1199.000000	54.521200
1198.000000	54.424900
1197.000000	54.304000
1196.000000	54.105500
1195.000000	53.893300
1194.000000	53.654900
1193.000000	53.342800
1192.000000	52.991000
1191.000000	52.599000
1190.000000	52.223900
1189.000000	51.903700
1188.000000	51.646600
1187.000000	51.515100
1186.000000	51.450800
1185.000000	51.513600
1184.000000	51.679000
1183.000000	51.952700
1182.000000	52.313900
1181.000000	52.728100
1180.000000	53.155600
1179.000000	53.546200
1178.000000	53.904200
1177.000000	54.202700
1176.000000	54.492400
1175.000000	54.754900
1174.000000	54.998600
1173.000000	55.248200
1172.000000	55.523400
1171.000000	55.776500
1170.000000	56.068100
1169.000000	56.350500
1168.000000	56.659500
1167.000000	56.942000
1166.000000	57.235100
1165.000000	57.545000
1164.000000	57.858600
1163.000000	58.127000
1162.000000	58.438000
1161.000000	58.723600
1160.000000	58.985200
1159.000000	59.251900
1158.000000	59.510500
1157.000000	59.733900
1156.000000	59.927200
1155.000000	60.082200
1154.000000	60.194100
1153.000000	60.264400
1152.000000	60.329200
1151.000000	60.336000
1150.000000	60.325800
1149.000000	60.327600
1148.000000	60.350500
1147.000000	60.409500
1146.000000	60.468300
1145.000000	60.608000
1144.000000	60.768400
1143.000000	60.976800
1142.000000	61.195000
1141.000000	61.438000
1140.000000	61.667700
1139.000000	61.921000
1138.000000	62.164200
1137.000000	62.432900
1136.000000	62.720800
1135.000000	62.989600
1134.000000	63.259600
1133.000000	63.447700
1132.000000	63.628100
1131.000000	63.807000
1130.000000	63.977700
1129.000000	64.142600
1128.000000	64.254000
1127.000000	64.334400
1126.000000	64.417000
1125.000000	64.492200
1124.000000	64.555700
1123.000000	64.587700
1122.000000	64.628900
1121.000000	64.645200
1120.000000	64.651500
1119.000000	64.672800
1118.000000	64.695600
1117.000000	64.687100
1116.000000	64.679700
1115.000000	64.673000
1114.000000	64.656700
1113.000000	64.648600
1112.000000	64.652600
1111.000000	64.619600
1110.000000	64.613200
1109.000000	64.607600
1108.000000	64.597300
1107.000000	64.575800
1106.000000	64.553600
1105.000000	64.533700
1104.000000	64.511200
1103.000000	64.504600
1102.000000	64.476600
1101.000000	64.463100
1100.000000	64.436900
1099.000000	64.404900
1098.000000	64.394300
1097.000000	64.366500
1096.000000	64.335200
1095.000000	64.308100
1094.000000	64.251600
1093.000000	64.221800
1092.000000	64.198500
1091.000000	64.152200
1090.000000	64.109600
1089.000000	64.079800
1088.000000	64.045200
1087.000000	64.003100
1086.000000	63.960800
1085.000000	63.910000
1084.000000	63.870100
1083.000000	63.828200
1082.000000	63.776000
1081.000000	63.731300
1080.000000	63.692600
1079.000000	63.650100
1078.000000	63.601500
1077.000000	63.553200
1076.000000	63.490700
1075.000000	63.465900
1074.000000	63.418800
1073.000000	63.370700
1072.000000	63.334800
1071.000000	63.287400
1070.000000	63.239500
1069.000000	63.201100
1068.000000	63.151700
1067.000000	63.112900
1066.000000	63.075200
1065.000000	63.017600
1064.000000	62.968500
1063.000000	62.926100
1062.000000	62.876700
1061.000000	62.833000
1060.000000	62.791000
1059.000000	62.740200
1058.000000	62.677900
1057.000000	62.630100
1056.000000	62.586800
1055.000000	62.545700
1054.000000	62.505200
1053.000000	62.462900
1052.000000	62.418700
1051.000000	62.379400
1050.000000	62.342300
1049.000000	62.290100
1048.000000	62.232800
1047.000000	62.195600
1046.000000	62.168200
1045.000000	62.138900
1044.000000	62.111800
1043.000000	62.073400
1042.000000	62.041700
1041.000000	62.023100
1040.000000	61.979800
1039.000000	61.932600
1038.000000	61.907400
1037.000000	61.866400
1036.000000	61.834400
1035.000000	61.815800
1034.000000	61.771800
1033.000000	61.724200
1032.000000	61.696300
1031.000000	61.666000
1030.000000	61.628400
1029.000000	61.584900
1028.000000	61.557700
1027.000000	61.523600
1026.000000	61.475100
1025.000000	61.449400
1024.000000	61.427800
1023.000000	61.377800
1022.000000	61.341000
1021.000000	61.314300
1020.000000	61.287900
1019.000000	61.276900
1018.000000	61.266300
1017.000000	61.246100
1016.000000	61.233500
1015.000000	61.228200
1014.000000	61.238300
1013.000000	61.254500
1012.000000	61.283100
1011.000000	61.306000
1010.000000	61.326900
1009.000000	61.348200
1008.000000	61.382400
1007.000000	61.433900
1006.000000	61.472700
1005.000000	61.508400
1004.000000	61.536500
1003.000000	61.565300
1002.000000	61.613000
1001.000000	61.655200
1000.000000	61.675100
999.000000	61.712600
998.000000	61.767700
997.000000	61.792300
996.000000	61.837100
995.000000	61.879900
994.000000	61.923000
993.000000	61.967300
992.000000	62.001100
991.000000	62.041500
990.000000	62.090100
989.000000	62.134900
988.000000	62.168200
987.000000	62.209700
986.000000	62.259400
985.000000	62.297500
984.000000	62.335600
983.000000	62.364900
982.000000	62.393000
981.000000	62.444500
980.000000	62.490800
979.000000	62.507200
978.000000	62.522700
977.000000	62.566700
976.000000	62.593100
975.000000	62.616500
974.000000	62.644600
973.000000	62.674900
972.000000	62.692000
971.000000	62.731100
970.000000	62.769500
969.000000	62.806400
968.000000	62.825500
967.000000	62.847700
966.000000	62.884900
965.000000	62.926000
964.000000	62.948800
963.000000	62.981700
962.000000	63.009400
961.000000	63.057100
960.000000	63.095100
959.000000	63.132800
958.000000	63.167600
957.000000	63.208900
956.000000	63.272300
955.000000	63.302600
954.000000	63.351500
953.000000	63.419400
952.000000	63.443100
951.000000	63.523000
950.000000	63.571800
949.000000	63.608900
948.000000	63.695000
947.000000	63.744000
946.000000	63.797800
945.000000	63.880600
944.000000	63.942900
943.000000	63.993700
942.000000	64.065400
941.000000	64.133400
940.000000	64.173000
939.000000	64.264600
938.000000	64.292900
937.000000	64.374800
936.000000	64.445200
935.000000	64.504700
934.000000	64.570500
933.000000	64.667000
932.000000	64.699400
931.000000	64.762300
930.000000	64.852100
929.000000	64.872600
928.000000	64.906400
927.000000	65.008200
926.000000	65.042900
925.000000	65.059300
924.000000	65.103100
923.000000	65.113900
922.000000	65.174400
921.000000	65.186500
920.000000	65.183500
919.000000	65.223700
918.000000	65.224000
917.000000	65.245400
916.000000	65.215800
915.000000	65.224300
914.000000	65.274600
913.000000	65.253600
912.000000	65.208100
911.000000	65.200700
910.000000	65.202400
909.000000	65.174200
908.000000	65.177000
907.000000	65.180400
906.000000	65.188900
905.000000	65.170800
904.000000	65.192800
903.000000	65.187500
902.000000	65.217000
901.000000	65.229100
900.000000	65.238500
899.000000	65.276800
898.000000	65.298400
897.000000	65.328500
896.000000	65.354600
895.000000	65.387200
894.000000	65.397300
893.000000	65.441200
892.000000	65.478700
891.000000	65.508100
890.000000	65.538600
889.000000	65.588800
888.000000	65.584000
887.000000	65.639900
886.000000	65.640400
885.000000	65.669700
884.000000	65.672600
883.000000	65.717900
882.000000	65.728100
881.000000	65.724100
880.000000	65.746400
879.000000	65.760700
878.000000	65.773500
877.000000	65.768200
876.000000	65.764900
875.000000	65.764200
874.000000	65.777400
873.000000	65.761400
872.000000	65.753500
871.000000	65.737000
870.000000	65.731200
869.000000	65.715900
868.000000	65.685600
867.000000	65.631800
866.000000	65.597800
865.000000	65.557200
864.000000	65.511800
863.000000	65.433200
862.000000	65.383000
861.000000	65.254100
860.000000	65.097900
859.000000	64.964000
858.000000	65.197500
857.000000	65.091040
856.000000	64.915911
855.000000	64.438811
854.000000	64.745697
853.000000	64.390234
852.000000	64.451148
851.000000	64.726131
850.000000	64.580592
849.000000	64.941838
848.000000	64.525075
847.000000	64.466955
846.000000	64.593893
845.000000	64.447004
844.000000	64.414233
843.000000	64.291922
842.000000	64.197273
841.000000	64.313705
840.000000	64.223490
839.000000	64.325753
838.000000	64.244309
837.000000	63.995928
836.000000	64.040843
835.000000	63.825232
834.000000	63.990145
833.000000	63.829184
832.000000	63.768269
831.000000	63.808076
830.000000	63.658874
829.000000	63.663018
828.000000	63.638729
827.000000	63.450588
826.000000	63.414637
825.000000	63.441046
824.000000	63.331844
823.000000	63.375023
822.000000	63.273724
821.000000	63.117872
820.000000	63.086065
819.000000	63.072186
818.000000	63.045777
817.000000	62.942164
816.000000	62.965007
815.000000	62.822552
814.000000	62.668820
813.000000	62.596821
812.000000	62.481064
811.000000	62.353163
810.000000	62.283670
809.000000	62.185648
808.000000	62.210033
807.000000	62.092348
806.000000	61.920978
805.000000	61.764933
804.000000	61.641369
803.000000	61.516745
802.000000	61.336700
801.000000	61.184028
800.000000	61.134872
799.000000	61.010151
798.000000	60.895551
797.000000	60.772855
796.000000	60.574593
795.000000	60.377585
794.000000	60.228575
793.000000	60.071374
792.000000	59.879088
791.000000	59.703670
790.000000	59.538757
789.000000	59.420301
788.000000	59.269461
787.000000	59.104741
786.000000	58.879203
785.000000	58.716025
784.000000	58.518631
783.000000	58.294539
782.000000	58.039893
781.000000	57.886257
780.000000	57.751031
779.000000	57.562504
778.000000	57.422651
777.000000	57.185740
776.000000	57.100633
775.000000	56.974756
774.000000	56.799434
773.000000	56.643581
772.000000	56.500066
771.000000	56.384598
770.000000	56.208698
769.000000	56.034436
768.000000	55.852656
767.000000	55.748273
766.000000	55.591649
765.000000	55.500855
764.000000	55.447073
763.000000	55.360328
762.000000	55.229824
761.000000	55.073490
760.000000	54.984913
759.000000	54.913396
758.000000	54.850265
757.000000	54.795326
756.000000	54.727279
755.000000	54.618077
754.000000	54.564776
753.000000	54.540295
752.000000	54.427430
751.000000	54.371238
750.000000	54.372009
749.000000	54.312347
748.000000	54.331720
747.000000	54.352057
746.000000	54.227530
745.000000	54.213458
744.000000	54.256156
743.000000	54.269360
742.000000	54.251818
741.000000	54.202084
740.000000	54.224831
739.000000	54.239288
738.000000	54.194952
737.000000	54.155145
736.000000	54.113218
735.000000	54.127387
734.000000	54.109363
733.000000	54.065798
732.000000	54.029750
731.000000	54.026859
730.000000	53.984643
729.000000	53.896066
728.000000	53.879777
727.000000	53.897222
726.000000	53.912740
725.000000	53.863392
724.000000	53.755635
723.000000	53.757852
722.000000	53.758237
721.000000	53.695009
720.000000	53.585517
719.000000	53.477760
718.000000	53.402388
717.000000	53.308992
716.000000	53.241716
715.000000	53.114008
714.000000	53.033335
713.000000	52.928855
712.000000	52.844133
711.000000	52.774930
710.000000	52.668233
709.000000	52.574452
708.000000	52.464863
707.000000	52.371275
706.000000	52.270939
705.000000	52.170989
704.000000	52.093882
703.000000	51.968969
702.000000	51.867188
701.000000	51.752395
700.000000	51.625457
699.000000	51.496206
698.000000	51.380450
697.000000	51.309897
696.000000	51.198381
695.000000	51.138334
694.000000	51.105852
693.000000	51.066624
692.000000	51.021998
691.000000	50.996071
690.000000	50.963204
689.000000	50.958192
688.000000	50.932940
687.000000	50.956265
686.000000	50.956072
685.000000	50.928988
684.000000	50.941325
683.000000	51.020071
682.000000	51.068841
681.000000	51.103443
680.000000	51.158671
679.000000	51.217465
678.000000	51.295825
677.000000	51.352691
676.000000	51.416979
675.000000	51.451966
674.000000	51.517315
673.000000	51.548928
672.000000	51.591241
671.000000	51.666806
670.000000	51.715576
669.000000	51.725311
668.000000	51.751623
667.000000	51.759045
666.000000	51.706805
665.000000	51.674709
664.000000	51.610614
663.000000	51.594132
662.000000	51.522230
661.000000	51.422473
660.000000	51.332450
659.000000	51.198959
658.000000	51.064022
657.000000	50.890435
656.000000	50.676366
655.000000	50.502394
654.000000	50.265675
653.000000	50.042932
652.000000	49.811322
651.000000	49.500484
650.000000	49.217887
649.000000	48.940205
648.000000	48.620211
647.000000	48.287687
646.000000	47.990729
645.000000	47.655506
644.000000	47.324621
643.000000	47.029590
642.000000	46.751908
641.000000	46.521166
640.000000	46.315868
639.000000	46.118764
638.000000	46.035006
637.000000	45.982862
636.000000	45.963875
635.000000	46.038958
634.000000	46.154329
633.000000	46.353940
632.000000	46.611574
631.000000	46.903520
630.000000	47.277971
629.000000	47.698590
628.000000	48.165087
627.000000	48.639970
626.000000	49.143864
625.000000	49.642458
624.000000	50.206688
623.000000	50.750100
622.000000	51.303053
621.000000	51.906801
620.000000	52.522597
619.000000	53.121430
618.000000	53.676696
617.000000	54.233698
616.000000	54.828868
615.000000	55.351268
614.000000	55.887451
613.000000	56.401562
612.000000	56.860059
611.000000	57.272196
610.000000	57.698694
609.000000	58.097338
608.000000	58.424271
607.000000	58.737037
606.000000	59.100211
605.000000	59.392543
604.000000	59.665598
603.000000	59.921400
602.000000	60.225588
601.000000	60.481197
600.000000	60.707410
599.000000	60.945478
598.000000	61.153667
597.000000	61.375253
596.000000	61.553852
595.000000	61.734861
594.000000	61.958375
593.000000	62.104878
592.000000	62.275188
591.000000	62.414366
590.000000	62.549593
589.000000	62.690217
588.000000	62.814070
587.000000	62.967706
586.000000	63.097535
585.000000	63.189485
584.000000	63.307844
583.000000	63.424468
582.000000	63.531743
581.000000	63.643259
580.000000	63.742053
579.000000	63.806630
578.000000	63.888749
577.000000	63.935302
576.000000	63.951013
575.000000	63.999687
574.000000	64.008843
573.000000	64.035541
572.000000	64.000265
571.000000	64.024554
570.000000	64.001903
569.000000	63.904845
568.000000	63.857906
567.000000	63.807497
566.000000	63.684030
565.000000	63.601525
564.000000	63.480467
563.000000	63.383120
562.000000	63.283652
561.000000	63.120570
560.000000	62.981296
559.000000	62.823516
558.000000	62.629495
557.000000	62.379379
556.000000	62.128010
555.000000	61.847341
554.000000	61.532551
553.000000	61.200220
552.000000	60.825866
551.000000	60.410066
550.000000	59.962074
549.000000	59.475818
548.000000	58.898094
547.000000	58.345815
546.000000	57.715754
545.000000	57.046466
544.000000	56.327539
543.000000	55.559650
542.000000	54.790314
541.000000	53.953992
540.000000	53.113044
539.000000	52.196049
538.000000	51.303535
537.000000	50.375649
536.000000	49.443329
535.000000	48.499250
534.000000	47.558448
533.000000	46.597984
532.000000	45.602532
531.000000	44.625875
530.000000	43.673797
529.000000	42.706489
528.000000	41.781687
527.000000	40.871824
526.000000	39.989527
525.000000	39.137880
524.000000	38.305414
523.000000	37.483549
522.000000	36.692528
521.000000	35.952301
520.000000	35.248410
519.000000	34.606494
518.000000	33.974698
517.000000	33.382420
516.000000	32.836213
515.000000	32.305428
514.000000	31.803076
513.000000	31.323470
512.000000	30.837600
511.000000	30.387391
510.000000	29.958098
509.000000	29.555214
508.000000	29.149342
507.000000	28.752915
506.000000	28.372681
505.000000	27.999773
504.000000	27.598334
503.000000	27.222823
502.000000	26.860035
501.000000	26.493102
500.000000	26.151036
499.000000	25.792295
498.000000	25.429603
497.000000	25.082429
496.000000	24.738821
495.000000	24.411501
494.000000	24.079652
493.000000	23.770067
492.000000	23.449881
491.000000	23.119670
490.000000	22.814230
489.000000	22.523343
488.000000	22.244794
487.000000	21.957667
486.000000	21.697431
485.000000	21.454351
484.000000	21.215994
483.000000	20.977444
482.000000	20.744581
481.000000	20.528200
480.000000	20.309987
479.000000	20.105075
478.000000	19.889850
477.000000	19.676553
476.000000	19.475882
475.000000	19.272897
474.000000	19.074540
473.000000	18.887170
472.000000	18.703655
471.000000	18.504912
470.000000	18.308481
469.000000	18.116485
468.000000	17.935862
467.000000	17.760540
466.000000	17.571338
465.000000	17.384065
464.000000	17.193803
463.000000	17.020602
462.000000	16.853376
461.000000	16.688752
460.000000	16.525864
459.000000	16.379360
458.000000	16.236327
457.000000	16.093004
456.000000	15.977440
455.000000	15.883080
454.000000	15.780046
453.000000	15.684626
452.000000	15.610218
451.000000	15.540340
450.000000	15.461498
449.000000	15.382656
448.000000	15.318657
447.000000	15.265646
446.000000	15.202611
445.000000	15.133215
444.000000	15.063337
443.000000	14.977459
442.000000	14.878665
441.000000	14.782281
440.000000	14.688404
439.000000	14.581129
438.000000	14.459878
437.000000	14.344506
436.000000	14.225183
435.000000	14.076945
434.000000	13.926876
433.000000	13.784131
432.000000	13.631652
431.000000	13.471366
430.000000	13.305104
429.000000	13.142312
428.000000	12.976532
427.000000	12.799089
426.000000	12.638707
425.000000	12.469553
424.000000	12.278135
423.000000	12.098283
422.000000	11.905901
421.000000	11.707254
420.000000	11.519980
419.000000	11.332803
418.000000	11.129819
417.000000	10.935702
416.000000	10.736766
415.000000	10.538890
414.000000	10.339279
413.000000	10.131572
412.000000	9.923672
411.000000	9.720592
410.000000	9.516740
409.000000	9.320985
408.000000	9.123783
407.000000	8.920799
406.000000	8.724851
405.000000	8.520228
404.000000	8.309726
403.000000	8.124380
402.000000	7.928818
401.000000	7.732773
400.000000	7.547523
399.000000	7.367286
398.000000	7.194759
397.000000	7.027533
396.000000	6.856548
395.000000	6.697804
394.000000	6.547542
393.000000	6.391015
392.000000	6.245957
391.000000	6.123550
390.000000	6.010588
389.000000	5.888084
388.000000	5.772424
387.000000	5.668426
386.000000	5.589487
385.000000	5.507657
384.000000	5.422358
383.000000	5.353251
382.000000	5.291083
381.000000	5.224193
380.000000	5.164531
379.000000	5.122797
378.000000	5.067569
377.000000	5.024871
376.000000	4.949210
375.000000	4.922608
374.000000	4.872392
373.000000	4.857838
372.000000	4.834610
371.000000	4.830369
370.000000	4.880488
369.000000	4.855525
368.000000	4.854175
367.000000	4.792490
366.000000	4.756250
365.000000	4.743527
364.000000	4.776490
363.000000	4.769261
362.000000	4.770225
361.000000	4.755768
360.000000	4.702757
359.000000	4.724154
358.000000	4.717985
357.000000	4.704492
356.000000	4.704973
355.000000	4.666902
354.000000	4.660155
353.000000	4.677311
352.000000	4.667577
351.000000	4.627288
350.000000	4.620541
349.000000	4.627288
348.000000	4.661986
347.000000	4.653794
346.000000	4.619385
345.000000	4.530904
344.000000	4.569265
343.000000	4.622469
342.000000	4.576301
341.000000	4.621120
340.000000	4.611385
339.000000	4.602228
338.000000	4.610228
337.000000	4.607915
336.000000	4.608493
335.000000	4.614469
334.000000	4.561458
333.000000	4.695046
332.000000	4.645312
331.000000	4.656685
330.000000	4.534471
329.000000	4.638854
328.000000	4.604252
327.000000	4.612445
326.000000	4.615722
325.000000	4.649553
324.000000	4.643191
323.000000	4.557795
322.000000	4.643770
321.000000	4.814465
320.000000	4.627577
319.000000	4.488303
318.000000	4.724732
317.000000	4.815718
316.000000	4.581988
315.000000	4.543049
314.000000	4.563000
313.000000	4.554615
312.000000	4.531675
311.000000	4.586614
310.000000	4.548832
309.000000	4.553747
308.000000	4.494086
307.000000	4.569747
306.000000	4.534760
305.000000	4.557603
304.000000	4.533796
303.000000	4.510278
302.000000	4.566084
301.000000	4.605698
300.000000	4.610614
299.000000	4.608204
298.000000	4.660348
297.000000	4.614565
296.000000	4.629216
295.000000	4.693215
294.000000	4.632011
293.000000	4.653215
292.000000	4.668444
291.000000	4.682998
290.000000	4.676637
289.000000	4.640685
288.000000	4.720780
287.000000	4.697166
286.000000	4.702275
285.000000	4.732057
284.000000	4.728491
283.000000	4.738997
282.000000	4.793743
281.000000	4.751430
280.000000	4.794418
279.000000	4.790755
278.000000	4.743141
277.000000	4.825742
276.000000	4.845501
275.000000	4.821116
274.000000	4.882705
273.000000	4.880488
272.000000	4.871235
271.000000	4.896970
270.000000	4.898705
269.000000	4.882320
268.000000	4.901693
267.000000	4.962222
266.000000	4.912391
265.000000	4.962607
264.000000	4.978607
263.000000	5.025739
262.000000	5.042027
261.000000	5.098123
260.000000	5.086557
259.000000	5.043377
258.000000	5.066316
257.000000	5.114701
256.000000	5.134652
255.000000	5.109014
254.000000	5.139375
253.000000	5.137351
252.000000	5.164531
251.000000	5.135809
250.000000	5.146989
