PE UV       SUBTECH     SPECTRUM    ASCII       PEDS        4.00        
   -1
CICIMAUCR0112-1.Sample.ASC
24/04/19
15:29:01.00
24/04/19
15:29:01.00
Vinicio Soto Monge
C. resplendens
250,000000
1
Lambda 1050
1050L1511233
PerkinElmer UV WinLab 6.3.2.0749 / 2.02.05 Lambda 900 UV/VIS/NIR, Aug  7 2015 09:38:08

0
0
3350/servo 860,8/2
0
0
UV/VIS
1
1
1
DoubleDePol,CommonBeamDepol,RBeamAtt,SBeamAtt,60mm sphere, WB InGaAs Detector
0
0
0
0
Program
Program
3350/servo 860,8/2
3350/0,2 860,8/0,2
3350/0,2 860,8/0,2
0
15.00
 
 
 
0
 
860,8
319,2
860,8
Front
100
on
S:100 R:100
0
0
0
0
 
0
 
 
 
0
 
 
0
0
0
0
0
 
 
 
 
0
0


0
0
#HDR
-1
-1
#GR
nm
%R
1.0
0.0
2500,000000
-1,000000
2251
8
88,637500
5,329100
#DATA
2500.000000	7.978287
2499.000000	7.978497
2498.000000	7.902440
2497.000000	7.748643
2496.000000	7.786304
2495.000000	7.759794
2494.000000	7.848895
2493.000000	7.787776
2492.000000	7.711088
2491.000000	7.785357
2490.000000	7.656597
2489.000000	7.723081
2488.000000	7.651547
2487.000000	7.607155
2486.000000	7.664276
2485.000000	7.574649
2484.000000	7.615991
2483.000000	7.580540
2482.000000	7.580856
2481.000000	7.593900
2480.000000	7.572335
2479.000000	7.617885
2478.000000	7.557607
2477.000000	7.571388
2476.000000	7.536568
2475.000000	7.559080
2474.000000	7.555082
2473.000000	7.552137
2472.000000	7.566970
2471.000000	7.545615
2470.000000	7.514161
2469.000000	7.574228
2468.000000	7.547719
2467.000000	7.578331
2466.000000	7.593795
2465.000000	7.615044
2464.000000	7.590534
2463.000000	7.623881
2462.000000	7.641975
2461.000000	7.714349
2460.000000	7.698780
2459.000000	7.727394
2458.000000	7.772207
2457.000000	7.812182
2456.000000	7.858784
2455.000000	7.882769
2454.000000	7.943151
2453.000000	8.011108
2452.000000	8.076329
2451.000000	8.138185
2450.000000	8.205510
2449.000000	8.250639
2448.000000	8.311443
2447.000000	8.382029
2446.000000	8.422320
2445.000000	8.502479
2444.000000	8.570646
2443.000000	8.631344
2442.000000	8.691411
2441.000000	8.746008
2440.000000	8.804708
2439.000000	8.854255
2438.000000	8.925788
2437.000000	8.987644
2436.000000	9.036350
2435.000000	9.084214
2434.000000	9.132604
2433.000000	9.195301
2432.000000	9.247899
2431.000000	9.283455
2430.000000	9.322693
2429.000000	9.368454
2428.000000	9.408428
2427.000000	9.436621
2426.000000	9.467864
2425.000000	9.467338
2424.000000	9.524354
2423.000000	9.576427
2422.000000	9.591470
2421.000000	9.648276
2420.000000	9.678467
2419.000000	9.705607
2418.000000	9.722334
2417.000000	9.748212
2416.000000	9.778508
2415.000000	9.794709
2414.000000	9.805859
2413.000000	9.828792
2412.000000	9.858878
2411.000000	9.874763
2410.000000	9.888333
2409.000000	9.917052
2408.000000	9.945981
2407.000000	9.957868
2406.000000	9.974699
2405.000000	9.993319
2404.000000	10.014569
2403.000000	10.035608
2402.000000	10.047390
2401.000000	10.073689
2400.000000	10.101566
2399.000000	10.129127
2398.000000	10.151008
2397.000000	10.161948
2396.000000	10.187721
2395.000000	10.206026
2394.000000	10.241161
2393.000000	10.272299
2392.000000	10.284397
2391.000000	10.295863
2390.000000	10.312274
2389.000000	10.320479
2388.000000	10.320058
2387.000000	10.322793
2386.000000	10.340571
2385.000000	10.341834
2384.000000	10.341308
2383.000000	10.337100
2382.000000	10.310906
2381.000000	10.293970
2380.000000	10.280399
2379.000000	10.262937
2378.000000	10.238742
2377.000000	10.217492
2376.000000	10.191824
2375.000000	10.173625
2374.000000	10.153533
2373.000000	10.119239
2372.000000	10.082841
2371.000000	10.047600
2370.000000	10.003839
2369.000000	9.951346
2368.000000	9.900852
2367.000000	9.850463
2366.000000	9.802178
2365.000000	9.749053
2364.000000	9.676889
2363.000000	9.603567
2362.000000	9.533822
2361.000000	9.467023
2360.000000	9.390861
2359.000000	9.327638
2358.000000	9.273462
2357.000000	9.206136
2356.000000	9.165425
2355.000000	9.138390
2354.000000	9.097468
2353.000000	9.079690
2352.000000	9.080427
2351.000000	9.089789
2350.000000	9.107567
2349.000000	9.119139
2348.000000	9.140914
2347.000000	9.184781
2346.000000	9.234013
2345.000000	9.268938
2344.000000	9.308597
2343.000000	9.346468
2342.000000	9.378447
2341.000000	9.406640
2340.000000	9.427890
2339.000000	9.448929
2338.000000	9.448613
2337.000000	9.439882
2336.000000	9.419579
2335.000000	9.405483
2334.000000	9.376975
2333.000000	9.347835
2332.000000	9.307966
2331.000000	9.253159
2330.000000	9.209292
2329.000000	9.151224
2328.000000	9.069592
2327.000000	9.006053
2326.000000	8.933362
2325.000000	8.865616
2324.000000	8.781249
2323.000000	8.702562
2322.000000	8.600627
2321.000000	8.518574
2320.000000	8.421478
2319.000000	8.317755
2318.000000	8.227286
2317.000000	8.120196
2316.000000	8.040352
2315.000000	7.933052
2314.000000	7.833326
2313.000000	7.734758
2312.000000	7.659753
2311.000000	7.624933
2310.000000	7.544984
2309.000000	7.506061
2308.000000	7.483654
2307.000000	7.451990
2306.000000	7.430951
2305.000000	7.438210
2304.000000	7.449150
2303.000000	7.486389
2302.000000	7.554872
2301.000000	7.623250
2300.000000	7.688366
2299.000000	7.760320
2298.000000	7.823017
2297.000000	7.902230
2296.000000	7.967977
2295.000000	8.055080
2294.000000	8.100630
2293.000000	8.130400
2292.000000	8.176581
2291.000000	8.215083
2290.000000	8.225918
2289.000000	8.223920
2288.000000	8.225498
2287.000000	8.215188
2286.000000	8.189941
2285.000000	8.168692
2284.000000	8.123668
2283.000000	8.095160
2282.000000	8.054449
2281.000000	8.019103
2280.000000	7.978287
2279.000000	7.943467
2278.000000	7.889606
2277.000000	7.866884
2276.000000	7.840059
2275.000000	7.789880
2274.000000	7.789460
2273.000000	7.770840
2272.000000	7.766422
2271.000000	7.798506
2270.000000	7.827225
2269.000000	7.863412
2268.000000	7.908121
2267.000000	7.979759
2266.000000	8.067388
2265.000000	8.148073
2264.000000	8.284513
2263.000000	8.436521
2262.000000	8.616406
2261.000000	8.769046
2260.000000	8.969655
2259.000000	9.186359
2258.000000	9.406956
2257.000000	9.636388
2256.000000	9.897170
2255.000000	10.134387
2254.000000	10.376969
2253.000000	10.652794
2252.000000	10.824158
2251.000000	11.058114
2250.000000	11.301854
2249.000000	11.502989
2248.000000	11.690133
2247.000000	11.871386
2246.000000	12.044434
2245.000000	12.220427
2244.000000	12.356761
2243.000000	12.505719
2242.000000	12.633742
2241.000000	12.782069
2240.000000	12.882952
2239.000000	13.000667
2238.000000	13.099130
2237.000000	13.202222
2236.000000	13.302790
2235.000000	13.396940
2234.000000	13.481308
2233.000000	13.540533
2232.000000	13.603546
2231.000000	13.658458
2230.000000	13.721997
2229.000000	13.765232
2228.000000	13.792373
2227.000000	13.812886
2226.000000	13.811308
2225.000000	13.855806
2224.000000	13.859383
2223.000000	13.872322
2222.000000	13.877687
2221.000000	13.837818
2220.000000	13.841605
2219.000000	13.838344
2218.000000	13.831716
2217.000000	13.827508
2216.000000	13.805312
2215.000000	13.771754
2214.000000	13.770597
2213.000000	13.751136
2212.000000	13.734620
2211.000000	13.724100
2210.000000	13.704639
2209.000000	13.694225
2208.000000	13.692331
2207.000000	13.676867
2206.000000	13.642994
2205.000000	13.637629
2204.000000	13.631212
2203.000000	13.627951
2202.000000	13.606176
2201.000000	13.618063
2200.000000	13.616169
2199.000000	13.598181
2198.000000	13.614065
2197.000000	13.605439
2196.000000	13.600285
2195.000000	13.587661
2194.000000	13.595866
2193.000000	13.584190
2192.000000	13.579245
2191.000000	13.567148
2190.000000	13.574827
2189.000000	13.555366
2188.000000	13.560836
2187.000000	13.571776
2186.000000	13.520651
2185.000000	13.523071
2184.000000	13.498876
2183.000000	13.487830
2182.000000	13.492038
2181.000000	13.457533
2180.000000	13.452800
2179.000000	13.448171
2178.000000	13.454798
2177.000000	13.453431
2176.000000	13.444384
2175.000000	13.449223
2174.000000	13.463530
2173.000000	13.453326
2172.000000	13.456692
2171.000000	13.469421
2170.000000	13.482149
2169.000000	13.498244
2168.000000	13.496772
2167.000000	13.512867
2166.000000	13.566201
2165.000000	13.568410
2164.000000	13.595025
2163.000000	13.620167
2162.000000	13.646676
2161.000000	13.668241
2160.000000	13.692331
2159.000000	13.707585
2158.000000	13.753345
2157.000000	13.794266
2156.000000	13.832768
2155.000000	13.864432
2154.000000	13.903144
2153.000000	13.921869
2152.000000	13.950588
2151.000000	14.000346
2150.000000	14.046106
2149.000000	14.065146
2148.000000	14.088290
2147.000000	14.137837
2146.000000	14.156351
2145.000000	14.169080
2144.000000	14.203269
2143.000000	14.222835
2142.000000	14.239036
2141.000000	14.253237
2140.000000	14.271541
2139.000000	14.306677
2138.000000	14.308360
2137.000000	14.329294
2136.000000	14.341286
2135.000000	14.359590
2134.000000	14.378631
2133.000000	14.351490
2132.000000	14.342654
2131.000000	14.354331
2130.000000	14.339288
2129.000000	14.332765
2128.000000	14.334238
2127.000000	14.321825
2126.000000	14.306677
2125.000000	14.290266
2124.000000	14.271226
2123.000000	14.248188
2122.000000	14.233250
2121.000000	14.208844
2120.000000	14.177075
2119.000000	14.134891
2118.000000	14.099230
2117.000000	14.069775
2116.000000	14.038637
2115.000000	14.004869
2114.000000	13.958583
2113.000000	13.929759
2112.000000	13.892625
2111.000000	13.852650
2110.000000	13.826351
2109.000000	13.792268
2108.000000	13.766915
2107.000000	13.736829
2106.000000	13.698012
2105.000000	13.672765
2104.000000	13.636998
2103.000000	13.590501
2102.000000	13.565675
2101.000000	13.552315
2100.000000	13.519073
2099.000000	13.480677
2098.000000	13.447014
2097.000000	13.411352
2096.000000	13.377058
2095.000000	13.360122
2094.000000	13.344553
2093.000000	13.324565
2092.000000	13.297320
2091.000000	13.280383
2090.000000	13.275860
2089.000000	13.266813
2088.000000	13.247562
2087.000000	13.232098
2086.000000	13.213373
2085.000000	13.190756
2084.000000	13.170979
2083.000000	13.161722
2082.000000	13.153096
2081.000000	13.135844
2080.000000	13.123115
2079.000000	13.095869
2078.000000	13.076513
2077.000000	13.059156
2076.000000	13.037485
2075.000000	13.018024
2074.000000	13.011502
2073.000000	12.996353
2072.000000	12.976577
2071.000000	12.960482
2070.000000	12.943966
2069.000000	12.916510
2068.000000	12.903886
2067.000000	12.889790
2066.000000	12.890211
2065.000000	12.863806
2064.000000	12.862334
2063.000000	12.859598
2062.000000	12.852024
2061.000000	12.863491
2060.000000	12.869382
2059.000000	12.884425
2058.000000	12.899783
2057.000000	12.937128
2056.000000	12.978996
2055.000000	13.035486
2054.000000	13.088716
2053.000000	13.170138
2052.000000	13.237147
2051.000000	13.322146
2050.000000	13.427553
2049.000000	13.551579
2048.000000	13.676762
2047.000000	13.810361
2046.000000	13.963948
2045.000000	14.101439
2044.000000	14.250923
2043.000000	14.414398
2042.000000	14.575453
2041.000000	14.748711
2040.000000	14.892619
2039.000000	15.062722
2038.000000	15.219674
2037.000000	15.364740
2036.000000	15.512751
2035.000000	15.663918
2034.000000	15.796991
2033.000000	15.945528
2032.000000	16.091855
2031.000000	16.207992
2030.000000	16.315292
2029.000000	16.436373
2028.000000	16.576915
2027.000000	16.669067
2026.000000	16.752487
2025.000000	16.878092
2024.000000	16.981605
2023.000000	17.090588
2022.000000	17.165067
2021.000000	17.280677
2020.000000	17.374407
2019.000000	17.480865
2018.000000	17.565864
2017.000000	17.638239
2016.000000	17.733021
2015.000000	17.810971
2014.000000	17.878612
2013.000000	17.952249
2012.000000	18.002533
2011.000000	18.044296
2010.000000	18.116566
2009.000000	18.172741
2008.000000	18.200933
2007.000000	18.229021
2006.000000	18.268574
2005.000000	18.296556
2004.000000	18.303079
2003.000000	18.319700
2002.000000	18.303184
2001.000000	18.355151
2000.000000	18.379872
1999.000000	18.367248
1998.000000	18.355571
1997.000000	18.324854
1996.000000	18.307602
1995.000000	18.300659
1994.000000	18.260053
1993.000000	18.231861
1992.000000	18.181367
1991.000000	18.149913
1990.000000	18.108887
1989.000000	18.060812
1988.000000	18.004953
1987.000000	17.936260
1986.000000	17.906489
1985.000000	17.835482
1984.000000	17.757742
1983.000000	17.698937
1982.000000	17.610046
1981.000000	17.549874
1980.000000	17.502326
1979.000000	17.406176
1978.000000	17.355682
1977.000000	17.258376
1976.000000	17.194206
1975.000000	17.129195
1974.000000	17.067024
1973.000000	16.995070
1972.000000	16.942787
1971.000000	16.876934
1970.000000	16.799826
1969.000000	16.728292
1968.000000	16.676956
1967.000000	16.611630
1966.000000	16.547460
1965.000000	16.485499
1964.000000	16.407760
1963.000000	16.338435
1962.000000	16.284470
1961.000000	16.227453
1960.000000	16.163389
1959.000000	16.099430
1958.000000	16.051776
1957.000000	15.975403
1956.000000	15.915547
1955.000000	15.845065
1954.000000	15.795308
1953.000000	15.713360
1952.000000	15.676120
1951.000000	15.619209
1950.000000	15.556828
1949.000000	15.529477
1948.000000	15.483927
1947.000000	15.434274
1946.000000	15.430277
1945.000000	15.377889
1944.000000	15.364740
1943.000000	15.337809
1942.000000	15.341597
1941.000000	15.352853
1940.000000	15.334128
1939.000000	15.352958
1938.000000	15.367370
1937.000000	15.398508
1936.000000	15.424070
1935.000000	15.464150
1934.000000	15.536525
1933.000000	15.586914
1932.000000	15.702840
1931.000000	15.774899
1930.000000	15.861791
1929.000000	15.957204
1928.000000	16.085018
1927.000000	16.201680
1926.000000	16.332439
1925.000000	16.468668
1924.000000	16.610683
1923.000000	16.786781
1922.000000	16.961407
1921.000000	17.133192
1920.000000	17.315076
1919.000000	17.486862
1918.000000	17.664854
1917.000000	17.877139
1916.000000	18.117933
1915.000000	18.351574
1914.000000	18.597523
1913.000000	18.838211
1912.000000	19.088999
1911.000000	19.310437
1910.000000	19.576688
1909.000000	19.825267
1908.000000	20.093938
1907.000000	20.371025
1906.000000	20.676935
1905.000000	20.962017
1904.000000	21.251727
1903.000000	21.532390
1902.000000	21.799168
1901.000000	22.084039
1900.000000	22.393631
1899.000000	22.668614
1898.000000	22.955799
1897.000000	23.246561
1896.000000	23.515022
1895.000000	23.786533
1894.000000	24.064251
1893.000000	24.350911
1892.000000	24.659872
1891.000000	24.941692
1890.000000	25.200159
1889.000000	25.481348
1888.000000	25.803670
1887.000000	26.130198
1886.000000	26.497123
1885.000000	26.920958
1884.000000	27.386030
1883.000000	27.857940
1882.000000	28.364670
1881.000000	28.886758
1880.000000	29.376131
1879.000000	29.854879
1878.000000	30.323527
1877.000000	30.798593
1876.000000	31.194341
1875.000000	31.570417
1874.000000	31.894001
1873.000000	32.172665
1872.000000	32.446281
1871.000000	32.649204
1870.000000	32.773861
1869.000000	32.903042
1868.000000	33.044321
1867.000000	33.106492
1866.000000	33.158353
1865.000000	33.196224
1864.000000	33.231149
1863.000000	33.277330
1862.000000	33.307101
1861.000000	33.305838
1860.000000	33.287113
1859.000000	33.223891
1858.000000	33.176342
1857.000000	33.119326
1856.000000	33.054420
1855.000000	32.980467
1854.000000	32.868959
1853.000000	32.726523
1852.000000	32.623536
1851.000000	32.560839
1850.000000	32.505506
1849.000000	32.432500
1848.000000	32.277125
1847.000000	32.082407
1846.000000	31.951753
1845.000000	31.872856
1844.000000	31.842560
1843.000000	31.835512
1842.000000	31.785544
1841.000000	31.708330
1840.000000	31.621753
1839.000000	31.546222
1838.000000	31.488364
1837.000000	31.393372
1836.000000	31.277972
1835.000000	31.153525
1834.000000	31.034653
1833.000000	30.958281
1832.000000	30.863710
1831.000000	30.736948
1830.000000	30.621443
1829.000000	30.514879
1828.000000	30.387697
1827.000000	30.278714
1826.000000	30.179619
1825.000000	30.085153
1824.000000	30.037394
1823.000000	30.037709
1822.000000	30.032870
1821.000000	29.987741
1820.000000	29.931777
1819.000000	29.879494
1818.000000	29.845832
1817.000000	29.860454
1816.000000	29.873498
1815.000000	29.855615
1814.000000	29.844675
1813.000000	29.831315
1812.000000	29.801439
1811.000000	29.744317
1810.000000	29.684356
1809.000000	29.653112
1808.000000	29.595570
1807.000000	29.537923
1806.000000	29.463023
1805.000000	29.385073
1804.000000	29.331317
1803.000000	29.284610
1802.000000	29.219704
1801.000000	29.123976
1800.000000	29.040871
1799.000000	28.961868
1798.000000	28.917476
1797.000000	28.871295
1796.000000	28.799866
1795.000000	28.733067
1794.000000	28.667845
1793.000000	28.580953
1792.000000	28.492904
1791.000000	28.422107
1790.000000	28.342789
1789.000000	28.263050
1788.000000	28.169531
1787.000000	28.074854
1786.000000	27.949987
1785.000000	27.850155
1784.000000	27.720975
1783.000000	27.593161
1782.000000	27.504060
1781.000000	27.372986
1780.000000	27.250958
1779.000000	27.128931
1778.000000	27.004694
1777.000000	26.837011
1776.000000	26.654075
1775.000000	26.480186
1774.000000	26.293778
1773.000000	26.089172
1772.000000	25.894138
1771.000000	25.722774
1770.000000	25.540784
1769.000000	25.345435
1768.000000	25.187115
1767.000000	25.046888
1766.000000	24.910975
1765.000000	24.790420
1764.000000	24.743503
1763.000000	24.745501
1762.000000	24.767487
1761.000000	24.805779
1760.000000	24.896247
1759.000000	25.011332
1758.000000	25.092754
1757.000000	25.155977
1756.000000	25.223197
1755.000000	25.248655
1754.000000	25.254020
1753.000000	25.224459
1752.000000	25.194058
1751.000000	25.112531
1750.000000	25.028900
1749.000000	24.923073
1748.000000	24.785371
1747.000000	24.633993
1746.000000	24.456002
1745.000000	24.247818
1744.000000	23.997872
1743.000000	23.703323
1742.000000	23.407932
1741.000000	23.069411
1740.000000	22.734151
1739.000000	22.407622
1738.000000	22.130746
1737.000000	21.879222
1736.000000	21.717220
1735.000000	21.611498
1734.000000	21.568683
1733.000000	21.606133
1732.000000	21.689448
1731.000000	21.794013
1730.000000	21.946127
1729.000000	22.128326
1728.000000	22.264555
1727.000000	22.400679
1726.000000	22.513765
1725.000000	22.606232
1724.000000	22.657463
1723.000000	22.669771
1722.000000	22.708799
1721.000000	22.696701
1720.000000	22.716268
1719.000000	22.737307
1718.000000	22.756558
1717.000000	22.807578
1716.000000	22.897941
1715.000000	22.961901
1714.000000	23.035643
1713.000000	23.084980
1712.000000	23.152516
1711.000000	23.178815
1710.000000	23.201327
1709.000000	23.185022
1708.000000	23.173240
1707.000000	23.154936
1706.000000	23.103495
1705.000000	23.046899
1704.000000	22.962427
1703.000000	22.862490
1702.000000	22.712270
1701.000000	22.550899
1700.000000	22.352394
1699.000000	22.138004
1698.000000	21.952964
1697.000000	21.834408
1696.000000	21.779075
1695.000000	21.778444
1694.000000	21.896895
1693.000000	22.048062
1692.000000	22.306213
1691.000000	22.548690
1690.000000	22.736886
1689.000000	22.927922
1688.000000	22.966740
1687.000000	22.981572
1686.000000	22.958114
1685.000000	23.005978
1684.000000	23.123482
1683.000000	23.431707
1682.000000	23.943486
1681.000000	24.595281
1680.000000	25.393194
1679.000000	26.119258
1678.000000	26.895080
1677.000000	27.565600
1676.000000	28.205929
1675.000000	28.743481
1674.000000	29.197192
1673.000000	29.615768
1672.000000	29.935354
1671.000000	30.205813
1670.000000	30.471749
1669.000000	30.691504
1668.000000	30.886853
1667.000000	31.037494
1666.000000	31.159521
1665.000000	31.272081
1664.000000	31.376751
1663.000000	31.433136
1662.000000	31.494571
1661.000000	31.539700
1660.000000	31.572732
1659.000000	31.601976
1658.000000	31.617966
1657.000000	31.627960
1656.000000	31.618071
1655.000000	31.610602
1654.000000	31.592088
1653.000000	31.549378
1652.000000	31.531705
1651.000000	31.482053
1650.000000	31.419251
1649.000000	31.364864
1648.000000	31.287966
1647.000000	31.231581
1646.000000	31.139955
1645.000000	31.062425
1644.000000	30.981845
1643.000000	30.895268
1642.000000	30.810480
1641.000000	30.715067
1640.000000	30.628386
1639.000000	30.533183
1638.000000	30.426620
1637.000000	30.323948
1636.000000	30.240317
1635.000000	30.136489
1634.000000	30.019616
1633.000000	29.899692
1632.000000	29.796915
1631.000000	29.695086
1630.000000	29.559488
1629.000000	29.436619
1628.000000	29.330897
1627.000000	29.213918
1626.000000	29.095468
1625.000000	28.970074
1624.000000	28.845206
1623.000000	28.731173
1622.000000	28.636707
1621.000000	28.518782
1620.000000	28.389391
1619.000000	28.285773
1618.000000	28.196251
1617.000000	28.078852
1616.000000	27.962189
1615.000000	27.858782
1614.000000	27.749272
1613.000000	27.653228
1612.000000	27.559498
1611.000000	27.471975
1610.000000	27.372565
1609.000000	27.274312
1608.000000	27.181949
1607.000000	27.094006
1606.000000	27.013215
1605.000000	26.895500
1604.000000	26.800929
1603.000000	26.720138
1602.000000	26.636087
1601.000000	26.553718
1600.000000	26.466721
1599.000000	26.396871
1598.000000	26.326074
1597.000000	26.250017
1596.000000	26.176800
1595.000000	26.104110
1594.000000	26.041308
1593.000000	25.992707
1592.000000	25.940635
1591.000000	25.895190
1590.000000	25.859844
1589.000000	25.819133
1588.000000	25.786943
1587.000000	25.760749
1586.000000	25.726140
1585.000000	25.681852
1584.000000	25.665442
1583.000000	25.655027
1582.000000	25.649978
1581.000000	25.640405
1580.000000	25.632515
1579.000000	25.638301
1578.000000	25.645454
1577.000000	25.658288
1576.000000	25.676382
1575.000000	25.695949
1574.000000	25.711307
1573.000000	25.749283
1572.000000	25.790204
1571.000000	25.840909
1570.000000	25.886985
1569.000000	25.919280
1568.000000	25.967039
1567.000000	26.018585
1566.000000	26.062873
1565.000000	26.108318
1564.000000	26.162388
1563.000000	26.204467
1562.000000	26.245283
1561.000000	26.285889
1560.000000	26.329966
1559.000000	26.374885
1558.000000	26.403919
1557.000000	26.434846
1556.000000	26.454308
1555.000000	26.475873
1554.000000	26.498806
1553.000000	26.522370
1552.000000	26.537833
1551.000000	26.539096
1550.000000	26.541410
1549.000000	26.550141
1548.000000	26.552456
1547.000000	26.560135
1546.000000	26.569918
1545.000000	26.562134
1544.000000	26.561713
1543.000000	26.582857
1542.000000	26.600004
1541.000000	26.616310
1540.000000	26.620728
1539.000000	26.636297
1538.000000	26.642504
1537.000000	26.646501
1536.000000	26.656074
1535.000000	26.657021
1534.000000	26.665752
1533.000000	26.676587
1532.000000	26.671853
1531.000000	26.658073
1530.000000	26.654917
1529.000000	26.630301
1528.000000	26.615573
1527.000000	26.596323
1526.000000	26.578018
1525.000000	26.572653
1524.000000	26.568446
1523.000000	26.544461
1522.000000	26.528997
1521.000000	26.508168
1520.000000	26.472191
1519.000000	26.451047
1518.000000	26.439475
1517.000000	26.416647
1516.000000	26.384352
1515.000000	26.362682
1514.000000	26.356370
1513.000000	26.336383
1512.000000	26.299669
1511.000000	26.262956
1510.000000	26.243915
1509.000000	26.233817
1508.000000	26.213093
1507.000000	26.185532
1506.000000	26.152079
1505.000000	26.136826
1504.000000	26.111894
1503.000000	26.097798
1502.000000	26.077705
1501.000000	26.068974
1500.000000	26.062557
1499.000000	26.066449
1498.000000	26.058560
1497.000000	26.074760
1496.000000	26.077285
1495.000000	26.073392
1494.000000	26.097482
1493.000000	26.126096
1492.000000	26.152079
1491.000000	26.160179
1490.000000	26.184164
1489.000000	26.232554
1488.000000	26.246861
1487.000000	26.282628
1486.000000	26.319657
1485.000000	26.337645
1484.000000	26.380881
1483.000000	26.426746
1482.000000	26.488286
1481.000000	26.539411
1480.000000	26.597269
1479.000000	26.669539
1478.000000	26.719402
1477.000000	26.774420
1476.000000	26.836801
1475.000000	26.938315
1474.000000	27.012163
1473.000000	27.082329
1472.000000	27.165539
1471.000000	27.257586
1470.000000	27.285252
1469.000000	27.364465
1468.000000	27.442520
1467.000000	27.527834
1466.000000	27.606942
1465.000000	27.673847
1464.000000	27.784408
1463.000000	27.884134
1462.000000	28.004373
1461.000000	28.122403
1460.000000	28.237803
1459.000000	28.370982
1458.000000	28.510998
1457.000000	28.637654
1456.000000	28.787138
1455.000000	28.926102
1454.000000	29.067696
1453.000000	29.235904
1452.000000	29.404429
1451.000000	29.573374
1450.000000	29.724646
1449.000000	29.846673
1448.000000	30.050754
1447.000000	30.247997
1446.000000	30.442294
1445.000000	30.597353
1444.000000	30.768297
1443.000000	30.946394
1442.000000	31.117443
1441.000000	31.326468
1440.000000	31.504039
1439.000000	31.665410
1438.000000	31.845505
1437.000000	31.980788
1436.000000	32.160989
1435.000000	32.330986
1434.000000	32.507505
1433.000000	32.706010
1432.000000	32.857282
1431.000000	33.005924
1430.000000	33.228835
1429.000000	33.457005
1428.000000	33.685176
1427.000000	33.941118
1426.000000	34.237876
1425.000000	34.494450
1424.000000	34.793312
1423.000000	35.063982
1422.000000	35.356532
1421.000000	35.646558
1420.000000	35.972876
1419.000000	36.234289
1418.000000	36.446364
1417.000000	36.665067
1416.000000	36.974975
1415.000000	37.272996
1414.000000	37.476761
1413.000000	37.667692
1412.000000	37.875559
1411.000000	38.187150
1410.000000	38.537979
1409.000000	38.897329
1408.000000	39.323584
1407.000000	39.768564
1406.000000	40.203760
1405.000000	40.690713
1404.000000	41.141163
1403.000000	41.591298
1402.000000	42.111493
1401.000000	42.639472
1400.000000	43.002399
1399.000000	43.259498
1398.000000	43.512705
1397.000000	43.796840
1396.000000	44.050468
1395.000000	44.170076
1394.000000	44.238664
1393.000000	44.385202
1392.000000	44.534791
1391.000000	44.659764
1390.000000	44.855219
1389.000000	45.115579
1388.000000	45.411391
1387.000000	45.718248
1386.000000	46.100215
1385.000000	46.558555
1384.000000	47.015422
1383.000000	47.420427
1382.000000	47.707086
1381.000000	47.882974
1380.000000	47.933889
1379.000000	47.989012
1378.000000	48.010157
1377.000000	48.113144
1376.000000	48.282930
1375.000000	48.544448
1374.000000	48.914633
1373.000000	49.400113
1372.000000	49.906107
1371.000000	50.401896
1370.000000	50.833516
1369.000000	51.272710
1368.000000	51.670877
1367.000000	51.972580
1366.000000	52.269970
1365.000000	52.545373
1364.000000	52.743878
1363.000000	52.971733
1362.000000	53.192119
1361.000000	53.290688
1360.000000	53.322773
1359.000000	53.393675
1358.000000	53.571667
1357.000000	53.863481
1356.000000	54.330973
1355.000000	54.987817
1354.000000	55.761745
1353.000000	56.530414
1352.000000	57.429736
1351.000000	58.248057
1350.000000	58.990847
1349.000000	59.650216
1348.000000	60.256461
1347.000000	60.820944
1346.000000	61.303268
1345.000000	61.808210
1344.000000	62.303473
1343.000000	62.745508
1342.000000	63.154090
1341.000000	63.546366
1340.000000	63.930542
1339.000000	64.289998
1338.000000	64.619472
1337.000000	64.940846
1336.000000	65.244547
1335.000000	65.517426
1334.000000	65.783678
1333.000000	66.039936
1332.000000	66.277468
1331.000000	66.505744
1330.000000	66.716662
1329.000000	66.912432
1328.000000	67.103363
1327.000000	67.280724
1326.000000	67.441569
1325.000000	67.602940
1324.000000	67.757158
1323.000000	67.886233
1322.000000	68.003211
1321.000000	68.123030
1320.000000	68.239692
1319.000000	68.346572
1318.000000	68.453241
1317.000000	68.554755
1316.000000	68.651956
1315.000000	68.738532
1314.000000	68.805963
1313.000000	68.880232
1312.000000	68.954816
1311.000000	69.019932
1310.000000	69.068848
1309.000000	69.114819
1308.000000	69.150586
1307.000000	69.186984
1306.000000	69.204446
1305.000000	69.204236
1304.000000	69.208864
1303.000000	69.206971
1302.000000	69.186984
1301.000000	69.173203
1300.000000	69.153216
1299.000000	69.119553
1298.000000	69.099040
1297.000000	69.076528
1296.000000	69.038867
1295.000000	68.990477
1294.000000	68.950713
1293.000000	68.913158
1292.000000	68.855405
1291.000000	68.795233
1290.000000	68.724541
1289.000000	68.642068
1288.000000	68.563591
1287.000000	68.465022
1286.000000	68.347203
1285.000000	68.234748
1284.000000	68.123977
1283.000000	68.004263
1282.000000	67.874556
1281.000000	67.757473
1280.000000	67.642809
1279.000000	67.528566
1278.000000	67.427368
1277.000000	67.324907
1276.000000	67.218132
1275.000000	67.114199
1274.000000	67.034776
1273.000000	66.943571
1272.000000	66.861307
1271.000000	66.765473
1270.000000	66.687102
1269.000000	66.608731
1268.000000	66.511214
1267.000000	66.439681
1266.000000	66.350159
1265.000000	66.256429
1264.000000	66.178479
1263.000000	66.095900
1262.000000	66.014268
1261.000000	65.941788
1260.000000	65.866678
1259.000000	65.776314
1258.000000	65.682269
1257.000000	65.592747
1256.000000	65.503961
1255.000000	65.391296
1254.000000	65.309979
1253.000000	65.199839
1252.000000	65.093696
1251.000000	64.965252
1250.000000	64.834388
1249.000000	64.701735
1248.000000	64.535841
1247.000000	64.375312
1246.000000	64.200581
1245.000000	63.994291
1244.000000	63.764858
1243.000000	63.553625
1242.000000	63.347230
1241.000000	63.116955
1240.000000	62.853123
1239.000000	62.613381
1238.000000	62.365644
1237.000000	62.092450
1236.000000	61.827882
1235.000000	61.576884
1234.000000	61.300954
1233.000000	61.025235
1232.000000	60.751935
1231.000000	60.469484
1230.000000	60.180089
1229.000000	59.908999
1228.000000	59.631702
1227.000000	59.361768
1226.000000	59.099725
1225.000000	58.823269
1224.000000	58.546182
1223.000000	58.288347
1222.000000	58.055863
1221.000000	57.811177
1220.000000	57.563966
1219.000000	57.348945
1218.000000	57.167692
1217.000000	56.996117
1216.000000	56.797612
1215.000000	56.640239
1214.000000	56.480025
1213.000000	56.324966
1212.000000	56.190630
1211.000000	56.052928
1210.000000	55.915647
1209.000000	55.808979
1208.000000	55.734605
1207.000000	55.659390
1206.000000	55.632354
1205.000000	55.605319
1204.000000	55.595851
1203.000000	55.582807
1202.000000	55.564187
1201.000000	55.537993
1200.000000	55.460884
1199.000000	55.356845
1198.000000	55.192634
1197.000000	54.962465
1196.000000	54.693899
1195.000000	54.294575
1194.000000	53.796261
1193.000000	53.208530
1192.000000	52.560101
1191.000000	51.876220
1190.000000	51.255563
1189.000000	50.739997
1188.000000	50.371284
1187.000000	50.189926
1186.000000	50.197079
1185.000000	50.396952
1184.000000	50.779971
1183.000000	51.339510
1182.000000	52.020760
1181.000000	52.756607
1180.000000	53.474255
1179.000000	54.132152
1178.000000	54.724511
1177.000000	55.239131
1176.000000	55.684742
1175.000000	56.119307
1174.000000	56.527889
1173.000000	56.974973
1172.000000	57.470447
1171.000000	57.972758
1170.000000	58.465707
1169.000000	58.978959
1168.000000	59.526821
1167.000000	60.011460
1166.000000	60.542279
1165.000000	61.093402
1164.000000	61.648522
1163.000000	62.203642
1162.000000	62.707637
1161.000000	63.254762
1160.000000	63.740874
1159.000000	64.230877
1158.000000	64.713412
1157.000000	65.095905
1156.000000	65.416122
1155.000000	65.680375
1154.000000	65.838485
1153.000000	65.917382
1152.000000	65.920117
1151.000000	65.856579
1150.000000	65.826913
1149.000000	65.783888
1148.000000	65.772422
1147.000000	65.822390
1146.000000	66.021316
1145.000000	66.315760
1144.000000	66.722448
1143.000000	67.151964
1142.000000	67.630607
1141.000000	68.143964
1140.000000	68.661634
1139.000000	69.165418
1138.000000	69.692556
1137.000000	70.261562
1136.000000	70.824783
1135.000000	71.370014
1134.000000	71.840241
1133.000000	72.189177
1132.000000	72.564832
1131.000000	72.942381
1130.000000	73.251027
1129.000000	73.508231
1128.000000	73.709156
1127.000000	73.861796
1126.000000	73.999392
1125.000000	74.083549
1124.000000	74.175911
1123.000000	74.268905
1122.000000	74.348854
1121.000000	74.388828
1120.000000	74.446371
1119.000000	74.488344
1118.000000	74.478455
1117.000000	74.470671
1116.000000	74.477509
1115.000000	74.462045
1114.000000	74.435009
1113.000000	74.418178
1112.000000	74.396508
1111.000000	74.391984
1110.000000	74.372312
1109.000000	74.333179
1108.000000	74.309405
1107.000000	74.281213
1106.000000	74.277320
1105.000000	74.268484
1104.000000	74.238819
1103.000000	74.198002
1102.000000	74.168968
1101.000000	74.146246
1100.000000	74.094279
1099.000000	74.055882
1098.000000	74.028426
1097.000000	73.982771
1096.000000	73.931015
1095.000000	73.883361
1094.000000	73.826134
1093.000000	73.775324
1092.000000	73.719465
1091.000000	73.650772
1090.000000	73.587654
1089.000000	73.509178
1088.000000	73.458368
1087.000000	73.392515
1086.000000	73.330450
1085.000000	73.240402
1084.000000	73.177074
1083.000000	73.108275
1082.000000	73.060096
1081.000000	72.994664
1080.000000	72.922289
1079.000000	72.868113
1078.000000	72.821195
1077.000000	72.758603
1076.000000	72.686544
1075.000000	72.609015
1074.000000	72.544003
1073.000000	72.501083
1072.000000	72.459531
1071.000000	72.398727
1070.000000	72.328456
1069.000000	72.269862
1068.000000	72.217474
1067.000000	72.151306
1066.000000	72.103757
1065.000000	72.046741
1064.000000	71.983308
1063.000000	71.924293
1062.000000	71.863279
1061.000000	71.802686
1060.000000	71.746722
1059.000000	71.677082
1058.000000	71.612491
1057.000000	71.542536
1056.000000	71.482259
1055.000000	71.432396
1054.000000	71.375590
1053.000000	71.304267
1052.000000	71.255982
1051.000000	71.232628
1050.000000	71.197703
1049.000000	71.149523
1048.000000	71.117543
1047.000000	71.103342
1046.000000	71.080304
1045.000000	71.047588
1044.000000	71.023183
1043.000000	71.006982
1042.000000	71.003406
1041.000000	70.994569
1040.000000	70.985522
1039.000000	70.978053
1038.000000	70.971531
1037.000000	70.951228
1036.000000	70.927980
1035.000000	70.926297
1034.000000	70.913989
1033.000000	70.890741
1032.000000	70.882430
1031.000000	70.865388
1030.000000	70.826466
1029.000000	70.800061
1028.000000	70.800272
1027.000000	70.783861
1026.000000	70.737575
1025.000000	70.703807
1024.000000	70.672669
1023.000000	70.649841
1022.000000	70.634062
1021.000000	70.600925
1020.000000	70.585672
1019.000000	70.592825
1018.000000	70.587986
1017.000000	70.581885
1016.000000	70.604397
1015.000000	70.627645
1014.000000	70.659730
1013.000000	70.714853
1012.000000	70.758193
1011.000000	70.823731
1010.000000	70.898630
1009.000000	70.973425
1008.000000	71.067365
1007.000000	71.151943
1006.000000	71.229262
1005.000000	71.295220
1004.000000	71.363282
1003.000000	71.444072
1002.000000	71.530754
1001.000000	71.605969
1000.000000	71.660250
999.000000	71.727997
998.000000	71.816046
997.000000	71.909881
996.000000	72.000981
995.000000	72.089661
994.000000	72.169926
993.000000	72.281539
992.000000	72.388944
991.000000	72.467210
990.000000	72.545371
989.000000	72.641836
988.000000	72.758288
987.000000	72.863800
986.000000	72.956267
985.000000	73.051470
984.000000	73.183912
983.000000	73.294262
982.000000	73.379471
981.000000	73.479513
980.000000	73.601330
979.000000	73.712943
978.000000	73.804043
977.000000	73.904926
976.000000	74.022325
975.000000	74.138987
974.000000	74.245235
973.000000	74.348117
972.000000	74.448264
971.000000	74.562928
970.000000	74.661812
969.000000	74.753228
968.000000	74.874834
967.000000	74.967617
966.000000	75.051669
965.000000	75.192632
964.000000	75.317500
963.000000	75.409862
962.000000	75.508431
961.000000	75.616783
960.000000	75.758167
959.000000	75.897446
958.000000	75.990966
957.000000	76.075964
956.000000	76.163277
955.000000	76.278572
954.000000	76.350631
953.000000	76.407016
952.000000	76.520102
951.000000	76.569439
950.000000	76.650335
949.000000	76.699146
948.000000	76.759108
947.000000	76.794243
946.000000	76.868512
945.000000	76.929105
944.000000	76.960979
943.000000	76.990224
942.000000	77.029252
941.000000	77.075538
940.000000	77.171161
939.000000	77.192095
938.000000	77.213871
937.000000	77.322644
936.000000	77.338318
935.000000	77.384183
934.000000	77.436676
933.000000	77.493587
932.000000	77.575535
931.000000	77.607094
930.000000	77.644544
929.000000	77.734381
928.000000	77.749951
927.000000	77.793186
926.000000	77.837579
925.000000	77.911742
924.000000	77.930467
923.000000	77.962657
922.000000	77.992007
921.000000	78.028300
920.000000	78.049654
919.000000	78.152641
918.000000	78.137493
917.000000	78.180518
916.000000	78.157270
915.000000	78.176837
914.000000	78.285609
913.000000	78.286977
912.000000	78.329792
911.000000	78.375762
910.000000	78.423521
909.000000	78.476540
908.000000	78.535555
907.000000	78.649483
906.000000	78.751102
905.000000	78.854300
904.000000	78.945189
903.000000	79.075106
902.000000	79.208285
901.000000	79.335888
900.000000	79.460966
899.000000	79.593513
898.000000	79.723641
897.000000	79.837568
896.000000	79.964014
895.000000	80.032181
894.000000	80.083412
893.000000	80.163887
892.000000	80.240995
891.000000	80.321576
890.000000	80.375331
889.000000	80.439921
888.000000	80.491573
887.000000	80.540594
886.000000	80.553849
885.000000	80.502408
884.000000	80.482526
883.000000	80.493887
882.000000	80.499357
881.000000	80.438764
880.000000	80.435398
879.000000	80.409309
878.000000	80.335567
877.000000	80.334515
876.000000	80.362076
875.000000	80.343141
874.000000	80.304534
873.000000	80.306007
872.000000	80.297381
871.000000	80.279287
870.000000	80.287597
869.000000	80.349663
868.000000	80.370702
867.000000	80.365548
866.000000	80.410466
865.000000	80.434977
864.000000	80.461907
863.000000	80.453281
862.000000	80.411098
861.000000	80.427087
860.000000	80.298222
859.000000	80.141269
858.000000	80.768133
857.000000	80.631100
856.000000	80.681300
855.000000	80.992000
854.000000	81.173100
853.000000	80.985100
852.000000	81.901200
851.000000	81.913600
850.000000	81.950100
849.000000	82.276400
848.000000	82.601300
847.000000	82.902800
846.000000	83.383800
845.000000	83.537700
844.000000	83.800100
843.000000	84.239700
842.000000	84.335700
841.000000	84.616600
840.000000	85.188200
839.000000	85.479200
838.000000	85.522800
837.000000	85.609300
836.000000	85.950100
835.000000	86.352300
834.000000	86.731000
833.000000	86.765000
832.000000	87.057300
831.000000	87.272200
830.000000	87.315700
829.000000	87.457300
828.000000	87.504400
827.000000	87.628500
826.000000	87.855900
825.000000	88.049300
824.000000	88.037200
823.000000	87.944000
822.000000	87.929300
821.000000	88.067800
820.000000	88.005300
819.000000	88.172600
818.000000	88.126900
817.000000	88.184200
816.000000	88.225500
815.000000	87.981700
814.000000	88.117300
813.000000	88.172800
812.000000	88.128700
811.000000	88.115200
810.000000	88.168700
809.000000	88.138600
808.000000	88.112100
807.000000	88.082100
806.000000	88.168400
805.000000	88.059400
804.000000	87.933800
803.000000	87.964000
802.000000	88.021200
801.000000	88.103100
800.000000	88.171900
799.000000	88.161900
798.000000	88.075700
797.000000	88.134000
796.000000	88.277900
795.000000	88.295800
794.000000	88.351000
793.000000	88.342100
792.000000	88.481900
791.000000	88.459000
790.000000	88.470200
789.000000	88.573200
788.000000	88.543300
787.000000	88.563600
786.000000	88.637500
785.000000	88.586100
784.000000	88.579800
783.000000	88.541600
782.000000	88.586700
781.000000	88.610900
780.000000	88.530800
779.000000	88.541400
778.000000	88.523000
777.000000	88.527200
776.000000	88.604900
775.000000	88.556600
774.000000	88.508800
773.000000	88.558300
772.000000	88.411500
771.000000	88.407800
770.000000	88.483600
769.000000	88.416700
768.000000	88.372800
767.000000	88.293300
766.000000	88.137700
765.000000	88.037900
764.000000	88.008500
763.000000	87.932900
762.000000	87.766000
761.000000	87.631900
760.000000	87.451500
759.000000	87.254300
758.000000	87.102300
757.000000	86.949100
756.000000	86.828700
755.000000	86.706800
754.000000	86.572000
753.000000	86.424500
752.000000	86.231900
751.000000	85.978700
750.000000	85.756000
749.000000	85.546200
748.000000	85.263500
747.000000	85.011600
746.000000	84.670000
745.000000	84.273400
744.000000	83.989400
743.000000	83.611600
742.000000	83.145500
741.000000	82.695600
740.000000	82.264700
739.000000	81.850800
738.000000	81.450300
737.000000	81.001000
736.000000	80.575400
735.000000	80.188400
734.000000	79.696600
733.000000	79.201900
732.000000	78.744000
731.000000	78.257600
730.000000	77.733200
729.000000	77.276500
728.000000	76.840400
727.000000	76.353900
726.000000	75.881700
725.000000	75.389800
724.000000	74.925700
723.000000	74.487200
722.000000	73.995100
721.000000	73.565600
720.000000	73.099700
719.000000	72.692000
718.000000	72.336300
717.000000	71.996700
716.000000	71.727100
715.000000	71.471600
714.000000	71.260800
713.000000	71.095500
712.000000	70.893700
711.000000	70.789400
710.000000	70.713000
709.000000	70.617400
708.000000	70.583700
707.000000	70.514100
706.000000	70.421800
705.000000	70.383800
704.000000	70.378400
703.000000	70.317900
702.000000	70.242000
701.000000	70.239900
700.000000	70.161600
699.000000	70.128600
698.000000	70.155000
697.000000	70.169700
696.000000	70.137800
695.000000	70.130100
694.000000	70.132300
693.000000	70.197900
692.000000	70.248800
691.000000	70.284800
690.000000	70.323400
689.000000	70.325900
688.000000	70.335500
687.000000	70.277800
686.000000	70.228400
685.000000	70.123100
684.000000	69.987200
683.000000	69.819200
682.000000	69.678400
681.000000	69.469600
680.000000	69.296100
679.000000	69.074900
678.000000	68.832600
677.000000	68.543100
676.000000	68.356600
675.000000	68.107600
674.000000	67.895400
673.000000	67.689500
672.000000	67.428300
671.000000	67.203900
670.000000	66.974000
669.000000	66.683000
668.000000	66.375400
667.000000	66.015300
666.000000	65.642000
665.000000	65.205800
664.000000	64.700900
663.000000	64.244000
662.000000	63.689200
661.000000	63.130000
660.000000	62.570100
659.000000	62.035300
658.000000	61.493800
657.000000	60.935200
656.000000	60.444700
655.000000	59.891500
654.000000	59.364900
653.000000	58.832700
652.000000	58.271000
651.000000	57.722800
650.000000	57.172900
649.000000	56.659900
648.000000	56.128700
647.000000	55.575400
646.000000	55.061600
645.000000	54.532600
644.000000	54.050500
643.000000	53.587000
642.000000	53.159200
641.000000	52.826800
640.000000	52.566400
639.000000	52.378000
638.000000	52.312200
637.000000	52.307600
636.000000	52.392300
635.000000	52.565600
634.000000	52.817800
633.000000	53.158600
632.000000	53.552900
631.000000	54.009900
630.000000	54.596000
629.000000	55.108600
628.000000	55.677700
627.000000	56.316300
626.000000	56.989500
625.000000	57.701500
624.000000	58.469700
623.000000	59.312600
622.000000	60.156300
621.000000	61.093400
620.000000	62.080700
619.000000	63.066300
618.000000	64.057400
617.000000	65.134300
616.000000	66.180100
615.000000	67.180800
614.000000	68.252400
613.000000	69.245000
612.000000	70.286900
611.000000	71.248200
610.000000	72.193900
609.000000	73.120900
608.000000	74.033000
607.000000	74.911400
606.000000	75.802100
605.000000	76.611000
604.000000	77.438600
603.000000	78.197800
602.000000	79.011600
601.000000	79.706100
600.000000	80.415600
599.000000	81.058500
598.000000	81.681800
597.000000	82.211700
596.000000	82.753000
595.000000	83.289200
594.000000	83.786700
593.000000	84.196100
592.000000	84.621600
591.000000	85.025800
590.000000	85.409200
589.000000	85.808700
588.000000	86.105100
587.000000	86.443100
586.000000	86.700400
585.000000	87.004600
584.000000	87.283500
583.000000	87.559700
582.000000	87.686600
581.000000	87.815400
580.000000	87.972100
579.000000	88.051900
578.000000	88.176800
577.000000	88.198800
576.000000	88.233700
575.000000	88.198100
574.000000	88.169400
573.000000	88.097400
572.000000	88.022500
571.000000	87.949200
570.000000	87.813900
569.000000	87.685400
568.000000	87.593400
567.000000	87.439500
566.000000	87.325000
565.000000	87.174800
564.000000	87.016600
563.000000	86.886100
562.000000	86.668900
561.000000	86.501000
560.000000	86.279500
559.000000	86.035800
558.000000	85.819300
557.000000	85.504400
556.000000	85.264900
555.000000	84.910200
554.000000	84.570200
553.000000	84.171100
552.000000	83.781300
551.000000	83.360300
550.000000	82.856400
549.000000	82.380800
548.000000	81.864400
547.000000	81.351700
546.000000	80.819900
545.000000	80.243400
544.000000	79.654800
543.000000	79.052700
542.000000	78.407100
541.000000	77.764000
540.000000	77.110100
539.000000	76.420900
538.000000	75.696100
537.000000	74.977800
536.000000	74.210800
535.000000	73.430800
534.000000	72.568900
533.000000	71.647100
532.000000	70.732600
531.000000	69.764900
530.000000	68.769800
529.000000	67.787400
528.000000	66.753800
527.000000	65.691200
526.000000	64.620200
525.000000	63.549100
524.000000	62.467400
523.000000	61.375200
522.000000	60.232600
521.000000	59.140000
520.000000	58.005600
519.000000	56.905200
518.000000	55.759200
517.000000	54.629500
516.000000	53.431700
515.000000	52.211600
514.000000	51.012600
513.000000	49.764800
512.000000	48.513800
511.000000	47.264500
510.000000	45.978900
509.000000	44.775100
508.000000	43.588200
507.000000	42.448700
506.000000	41.332100
505.000000	40.277400
504.000000	39.255900
503.000000	38.289100
502.000000	37.374700
501.000000	36.497400
500.000000	35.674000
499.000000	34.909800
498.000000	34.204200
497.000000	33.581500
496.000000	32.971700
495.000000	32.399000
494.000000	31.901800
493.000000	31.474200
492.000000	31.096000
491.000000	30.771400
490.000000	30.528600
489.000000	30.335100
488.000000	30.181200
487.000000	30.068200
486.000000	30.002500
485.000000	29.970400
484.000000	29.953800
483.000000	29.952800
482.000000	29.936400
481.000000	29.912500
480.000000	29.889200
479.000000	29.869500
478.000000	29.870400
477.000000	29.848800
476.000000	29.804800
475.000000	29.767800
474.000000	29.686800
473.000000	29.593800
472.000000	29.510900
471.000000	29.410200
470.000000	29.312900
469.000000	29.201600
468.000000	29.094900
467.000000	28.983900
466.000000	28.858300
465.000000	28.729000
464.000000	28.604200
463.000000	28.452400
462.000000	28.296500
461.000000	28.126700
460.000000	27.940200
459.000000	27.773900
458.000000	27.566000
457.000000	27.362400
456.000000	27.165400
455.000000	26.943800
454.000000	26.716700
453.000000	26.477100
452.000000	26.239600
451.000000	25.968300
450.000000	25.700200
449.000000	25.421700
448.000000	25.122400
447.000000	24.845600
446.000000	24.504800
445.000000	24.145300
444.000000	23.800900
443.000000	23.416500
442.000000	23.037700
441.000000	22.633500
440.000000	22.226100
439.000000	21.827000
438.000000	21.391800
437.000000	20.936300
436.000000	20.489100
435.000000	20.050600
434.000000	19.584600
433.000000	19.081900
432.000000	18.580000
431.000000	18.098200
430.000000	17.619300
429.000000	17.117700
428.000000	16.604300
427.000000	16.102400
426.000000	15.603700
425.000000	15.106800
424.000000	14.620100
423.000000	14.139400
422.000000	13.663900
421.000000	13.186500
420.000000	12.727200
419.000000	12.285000
418.000000	11.867200
417.000000	11.453800
416.000000	11.048600
415.000000	10.670000
414.000000	10.323400
413.000000	9.981800
412.000000	9.658500
411.000000	9.358000
410.000000	9.088300
409.000000	8.821200
408.000000	8.566900
407.000000	8.346000
406.000000	8.143400
405.000000	7.973500
404.000000	7.801400
403.000000	7.635600
402.000000	7.488700
401.000000	7.361600
400.000000	7.239700
399.000000	7.142500
398.000000	7.046400
397.000000	6.952900
396.000000	6.894000
395.000000	6.820900
394.000000	6.748100
393.000000	6.679900
392.000000	6.625300
391.000000	6.570800
390.000000	6.517900
389.000000	6.496700
388.000000	6.460800
387.000000	6.409200
386.000000	6.368500
385.000000	6.332000
384.000000	6.299100
383.000000	6.268800
382.000000	6.225500
381.000000	6.194700
380.000000	6.152300
379.000000	6.137500
378.000000	6.118600
377.000000	6.088500
376.000000	5.978400
375.000000	5.854400
374.000000	5.798900
373.000000	5.811100
372.000000	5.826900
371.000000	5.926500
370.000000	5.850600
369.000000	5.834200
368.000000	5.902700
367.000000	5.852800
366.000000	5.849600
365.000000	5.783300
364.000000	5.744200
363.000000	5.732900
362.000000	5.718400
361.000000	5.722300
360.000000	5.706000
359.000000	5.743500
358.000000	5.716000
357.000000	5.686100
356.000000	5.632800
355.000000	5.621500
354.000000	5.701500
353.000000	5.590600
352.000000	5.611600
351.000000	5.691900
350.000000	5.537400
349.000000	5.475600
348.000000	5.515500
347.000000	5.534900
346.000000	5.493500
345.000000	5.457600
344.000000	5.477800
343.000000	5.670800
342.000000	5.608600
341.000000	5.570200
340.000000	5.488500
339.000000	5.558400
338.000000	5.357300
337.000000	5.559300
336.000000	5.582500
335.000000	5.662100
334.000000	5.510200
333.000000	5.407400
332.000000	5.623500
331.000000	5.530800
330.000000	5.471500
329.000000	5.550000
328.000000	5.555100
327.000000	5.571700
326.000000	5.632000
325.000000	5.769400
324.000000	5.535700
323.000000	5.618500
322.000000	5.984400
321.000000	5.329100
320.000000	5.498800
319.000000	5.642300
318.000000	5.404700
317.000000	5.434900
316.000000	5.449100
315.000000	5.508900
314.000000	5.488700
313.000000	5.489500
312.000000	5.540300
311.000000	5.564900
310.000000	5.523300
309.000000	5.543600
308.000000	5.560700
307.000000	5.511000
306.000000	5.533400
305.000000	5.512800
304.000000	5.537300
303.000000	5.560800
302.000000	5.540800
301.000000	5.538800
300.000000	5.543500
299.000000	5.517800
298.000000	5.526100
297.000000	5.549100
296.000000	5.562300
295.000000	5.559300
294.000000	5.538400
293.000000	5.626500
292.000000	5.606100
291.000000	5.618100
290.000000	5.591400
289.000000	5.564200
288.000000	5.576300
287.000000	5.624900
286.000000	5.604800
285.000000	5.639600
284.000000	5.679700
283.000000	5.619700
282.000000	5.679800
281.000000	5.607800
280.000000	5.702000
279.000000	5.708900
278.000000	5.707300
277.000000	5.759000
276.000000	5.754700
275.000000	5.761300
274.000000	5.773000
273.000000	5.825100
272.000000	5.777500
271.000000	5.808800
270.000000	5.832500
269.000000	5.919100
268.000000	5.866600
267.000000	5.918200
266.000000	5.943300
265.000000	5.949900
264.000000	5.970300
263.000000	5.956100
262.000000	5.934100
261.000000	5.994500
260.000000	6.071700
259.000000	6.094400
258.000000	6.095800
257.000000	6.147700
256.000000	6.153700
255.000000	6.127800
254.000000	6.173900
253.000000	6.179000
252.000000	6.178700
251.000000	6.200500
250.000000	6.193500
