PE UV       SUBTECH     SPECTRUM    ASCII       PEDS        4.00        
   -1
CICIMAUCR0116-3.Sample.ASC
24/04/11
14:13:42.00
24/04/11
14:13:42.00
Vinicio Soto Monge
C. kalinini
250,000000
1
Lambda 1050
1050L1511233
PerkinElmer UV WinLab 6.3.2.0749 / 2.02.05 Lambda 900 UV/VIS/NIR, Aug  7 2015 09:38:08

0
0
3350/2 860,8/2
0
0
UV/VIS
1
1
1
DoubleDePol,CommonBeamDepol,RBeamAtt,SBeamAtt,60mm sphere, WB InGaAs Detector
0
0
0
0
Program
Program
3350/2 860,8/2
3350/0,2 860,8/0,2
3350/0,2 860,8/0,2
0
15.00
 
 
 
0
 
860,8
319,2
860,8
Front
100
on
S:100 R:100
0
0
0
0
 
0
 
 
 
0
 
 
0
0
0
0
0
 
 
 
 
0
0


0
0
#HDR
-1
-1
#GR
nm
%R
1.0
0.0
2400,000000
-1,000000
2151
8
95,435400
5,183200
#DATA
2400.000000	17.162700
2399.000000	17.732500
2398.000000	17.196700
2397.000000	18.170600
2396.000000	18.196900
2395.000000	18.714000
2394.000000	17.523000
2393.000000	17.528700
2392.000000	17.275700
2391.000000	17.936000
2390.000000	18.344000
2389.000000	17.963200
2388.000000	18.488000
2387.000000	18.864300
2386.000000	18.226900
2385.000000	17.379200
2384.000000	17.902600
2383.000000	17.992100
2382.000000	17.729200
2381.000000	17.711000
2380.000000	16.895100
2379.000000	17.006600
2378.000000	17.848000
2377.000000	18.062000
2376.000000	18.284900
2375.000000	17.311000
2374.000000	16.741100
2373.000000	16.576200
2372.000000	17.257700
2371.000000	17.343500
2370.000000	17.439500
2369.000000	17.356100
2368.000000	16.883900
2367.000000	16.708700
2366.000000	17.204700
2365.000000	17.075600
2364.000000	17.324800
2363.000000	17.531700
2362.000000	16.541100
2361.000000	16.423400
2360.000000	16.302000
2359.000000	16.067200
2358.000000	16.062200
2357.000000	16.257600
2356.000000	15.817600
2355.000000	15.883000
2354.000000	15.637600
2353.000000	16.006600
2352.000000	17.010700
2351.000000	15.539700
2350.000000	15.597500
2349.000000	15.862800
2348.000000	15.882800
2347.000000	16.249800
2346.000000	16.577100
2345.000000	16.147900
2344.000000	15.372700
2343.000000	16.482800
2342.000000	16.153400
2341.000000	16.538600
2340.000000	16.569400
2339.000000	16.885100
2338.000000	16.217200
2337.000000	16.016300
2336.000000	16.367000
2335.000000	16.021500
2334.000000	16.273300
2333.000000	16.128100
2332.000000	16.436000
2331.000000	16.019500
2330.000000	16.043700
2329.000000	15.841900
2328.000000	15.590700
2327.000000	15.814700
2326.000000	15.743900
2325.000000	15.696700
2324.000000	15.357100
2323.000000	15.511300
2322.000000	15.537500
2321.000000	15.445800
2320.000000	15.553000
2319.000000	15.348700
2318.000000	15.489600
2317.000000	14.866200
2316.000000	14.839700
2315.000000	14.690700
2314.000000	13.966800
2313.000000	13.482700
2312.000000	13.892300
2311.000000	13.813100
2310.000000	13.630500
2309.000000	13.663800
2308.000000	13.661400
2307.000000	13.708100
2306.000000	13.546100
2305.000000	13.266400
2304.000000	13.806500
2303.000000	13.991900
2302.000000	13.580200
2301.000000	13.612800
2300.000000	13.490400
2299.000000	13.674400
2298.000000	14.216900
2297.000000	14.431100
2296.000000	14.482300
2295.000000	14.287300
2294.000000	14.498000
2293.000000	14.428600
2292.000000	14.546600
2291.000000	14.794900
2290.000000	15.052100
2289.000000	14.682000
2288.000000	14.426700
2287.000000	14.842600
2286.000000	14.647400
2285.000000	14.535400
2284.000000	14.601300
2283.000000	14.341900
2282.000000	14.306500
2281.000000	14.148000
2280.000000	14.019300
2279.000000	14.087000
2278.000000	14.014300
2277.000000	13.842000
2276.000000	13.832400
2275.000000	14.256700
2274.000000	14.381700
2273.000000	13.967600
2272.000000	13.734200
2271.000000	13.594900
2270.000000	13.735900
2269.000000	14.089300
2268.000000	14.032700
2267.000000	13.934900
2266.000000	14.313400
2265.000000	14.392000
2264.000000	14.196800
2263.000000	14.472500
2262.000000	14.753800
2261.000000	15.033000
2260.000000	15.349800
2259.000000	15.756800
2258.000000	15.968000
2257.000000	15.891600
2256.000000	16.285200
2255.000000	16.696600
2254.000000	16.890700
2253.000000	17.244100
2252.000000	17.545600
2251.000000	17.659900
2250.000000	18.035900
2249.000000	18.389200
2248.000000	18.387300
2247.000000	18.768800
2246.000000	18.794000
2245.000000	18.959900
2244.000000	19.008900
2243.000000	19.151500
2242.000000	19.466900
2241.000000	19.384900
2240.000000	19.582300
2239.000000	19.953500
2238.000000	19.853100
2237.000000	19.581700
2236.000000	19.789100
2235.000000	20.300100
2234.000000	20.297300
2233.000000	20.046200
2232.000000	20.110700
2231.000000	20.076200
2230.000000	20.041300
2229.000000	20.138500
2228.000000	20.307500
2227.000000	19.972100
2226.000000	19.952300
2225.000000	19.989300
2224.000000	20.038100
2223.000000	19.944900
2222.000000	19.603200
2221.000000	19.995200
2220.000000	20.262600
2219.000000	19.809500
2218.000000	19.583800
2217.000000	19.914400
2216.000000	19.846200
2215.000000	19.775400
2214.000000	19.258100
2213.000000	19.116800
2212.000000	19.379800
2211.000000	19.433400
2210.000000	19.427000
2209.000000	19.381400
2208.000000	19.425000
2207.000000	19.050200
2206.000000	19.218900
2205.000000	19.098800
2204.000000	18.909400
2203.000000	18.811500
2202.000000	18.758000
2201.000000	18.696600
2200.000000	18.930200
2199.000000	18.873700
2198.000000	18.769600
2197.000000	18.807000
2196.000000	18.937900
2195.000000	18.593600
2194.000000	18.702200
2193.000000	18.416000
2192.000000	18.981000
2191.000000	18.734300
2190.000000	19.012500
2189.000000	18.907900
2188.000000	18.693900
2187.000000	18.799100
2186.000000	18.740600
2185.000000	18.786500
2184.000000	18.726700
2183.000000	18.591000
2182.000000	18.828700
2181.000000	18.505000
2180.000000	18.638900
2179.000000	18.706300
2178.000000	18.823900
2177.000000	18.632900
2176.000000	18.577600
2175.000000	18.558700
2174.000000	18.584200
2173.000000	18.625600
2172.000000	18.361900
2171.000000	18.658400
2170.000000	18.945300
2169.000000	18.691100
2168.000000	18.693300
2167.000000	18.668800
2166.000000	18.720300
2165.000000	18.795500
2164.000000	18.852700
2163.000000	18.777800
2162.000000	18.995500
2161.000000	19.316800
2160.000000	19.298300
2159.000000	19.050000
2158.000000	19.190100
2157.000000	18.943900
2156.000000	19.405900
2155.000000	18.929400
2154.000000	19.370600
2153.000000	19.416600
2152.000000	20.078500
2151.000000	19.605500
2150.000000	19.242900
2149.000000	19.279300
2148.000000	19.513800
2147.000000	19.870000
2146.000000	20.394900
2145.000000	20.077800
2144.000000	19.863600
2143.000000	19.920000
2142.000000	19.866800
2141.000000	20.628600
2140.000000	20.363400
2139.000000	20.560500
2138.000000	20.294300
2137.000000	20.510000
2136.000000	20.792800
2135.000000	20.819000
2134.000000	20.494500
2133.000000	20.892500
2132.000000	20.599000
2131.000000	20.465000
2130.000000	20.571800
2129.000000	21.036400
2128.000000	20.948700
2127.000000	21.044300
2126.000000	20.992800
2125.000000	20.934500
2124.000000	20.864100
2123.000000	20.839000
2122.000000	20.799400
2121.000000	20.932800
2120.000000	20.789800
2119.000000	20.805500
2118.000000	20.520000
2117.000000	21.196100
2116.000000	20.574100
2115.000000	20.772900
2114.000000	20.726800
2113.000000	21.154600
2112.000000	20.571500
2111.000000	20.839600
2110.000000	20.338200
2109.000000	20.674500
2108.000000	20.741900
2107.000000	20.488300
2106.000000	20.578500
2105.000000	20.347700
2104.000000	20.579900
2103.000000	20.464300
2102.000000	20.513400
2101.000000	20.139100
2100.000000	20.345300
2099.000000	20.496900
2098.000000	20.511200
2097.000000	20.496300
2096.000000	20.354700
2095.000000	19.815100
2094.000000	19.956000
2093.000000	20.044300
2092.000000	20.264300
2091.000000	20.273800
2090.000000	20.493000
2089.000000	20.300000
2088.000000	20.229100
2087.000000	20.195000
2086.000000	20.437300
2085.000000	20.155600
2084.000000	20.073700
2083.000000	20.237900
2082.000000	20.384900
2081.000000	20.248400
2080.000000	20.036700
2079.000000	20.257700
2078.000000	19.800600
2077.000000	19.763200
2076.000000	19.781000
2075.000000	19.870800
2074.000000	19.803500
2073.000000	19.751700
2072.000000	19.657500
2071.000000	19.748500
2070.000000	19.586400
2069.000000	19.567900
2068.000000	19.421000
2067.000000	19.302400
2066.000000	19.240800
2065.000000	19.074300
2064.000000	19.070000
2063.000000	18.979700
2062.000000	18.895400
2061.000000	18.807600
2060.000000	18.743600
2059.000000	18.784100
2058.000000	18.791600
2057.000000	18.895100
2056.000000	18.822300
2055.000000	18.763700
2054.000000	18.755700
2053.000000	18.781600
2052.000000	18.767800
2051.000000	18.816600
2050.000000	18.962200
2049.000000	19.186800
2048.000000	19.261600
2047.000000	19.417800
2046.000000	19.464600
2045.000000	19.579200
2044.000000	19.689600
2043.000000	19.880300
2042.000000	20.041900
2041.000000	20.256100
2040.000000	20.442900
2039.000000	20.484500
2038.000000	20.603700
2037.000000	20.778900
2036.000000	20.936300
2035.000000	21.072600
2034.000000	21.297600
2033.000000	21.327200
2032.000000	21.324800
2031.000000	21.446900
2030.000000	21.525500
2029.000000	21.632500
2028.000000	21.685200
2027.000000	21.693200
2026.000000	21.752800
2025.000000	21.794600
2024.000000	21.858800
2023.000000	22.012300
2022.000000	22.083500
2021.000000	22.117300
2020.000000	22.137100
2019.000000	22.183000
2018.000000	22.160300
2017.000000	22.228600
2016.000000	22.332000
2015.000000	22.353000
2014.000000	22.451700
2013.000000	22.509300
2012.000000	22.413700
2011.000000	22.334200
2010.000000	22.342300
2009.000000	22.341400
2008.000000	22.340200
2007.000000	22.315000
2006.000000	22.336600
2005.000000	22.334400
2004.000000	22.319100
2003.000000	22.282100
2002.000000	22.175400
2001.000000	22.136500
2000.000000	22.153900
1999.000000	22.183000
1998.000000	22.112400
1997.000000	22.034900
1996.000000	22.059700
1995.000000	21.953300
1994.000000	21.810500
1993.000000	21.752800
1992.000000	21.703300
1991.000000	21.642400
1990.000000	21.562400
1989.000000	21.501400
1988.000000	21.383200
1987.000000	21.282700
1986.000000	21.209700
1985.000000	21.142800
1984.000000	21.051900
1983.000000	20.946100
1982.000000	20.858300
1981.000000	20.764300
1980.000000	20.702000
1979.000000	20.582500
1978.000000	20.455700
1977.000000	20.328300
1976.000000	20.302800
1975.000000	20.241000
1974.000000	20.124800
1973.000000	20.098000
1972.000000	20.052700
1971.000000	19.912700
1970.000000	19.915900
1969.000000	19.787700
1968.000000	19.674800
1967.000000	19.609500
1966.000000	19.487800
1965.000000	19.396900
1964.000000	19.457800
1963.000000	19.390800
1962.000000	19.191200
1961.000000	19.175500
1960.000000	19.155600
1959.000000	19.086100
1958.000000	18.878800
1957.000000	18.872100
1956.000000	18.809500
1955.000000	18.740000
1954.000000	18.728000
1953.000000	18.638800
1952.000000	18.516200
1951.000000	18.453000
1950.000000	18.379000
1949.000000	18.314800
1948.000000	18.266200
1947.000000	18.330800
1946.000000	18.167600
1945.000000	18.088800
1944.000000	18.088600
1943.000000	18.056400
1942.000000	17.988300
1941.000000	18.016100
1940.000000	18.024400
1939.000000	18.082800
1938.000000	18.094300
1937.000000	18.082300
1936.000000	18.117600
1935.000000	18.114200
1934.000000	18.137100
1933.000000	18.231100
1932.000000	18.312000
1931.000000	18.418400
1930.000000	18.474400
1929.000000	18.550500
1928.000000	18.707700
1927.000000	18.745200
1926.000000	18.884400
1925.000000	18.976100
1924.000000	19.192100
1923.000000	19.298400
1922.000000	19.337700
1921.000000	19.638700
1920.000000	19.956400
1919.000000	19.869000
1918.000000	20.027400
1917.000000	20.224200
1916.000000	20.600300
1915.000000	20.840800
1914.000000	21.046500
1913.000000	21.417900
1912.000000	21.462200
1911.000000	21.690900
1910.000000	22.031200
1909.000000	22.186000
1908.000000	22.436800
1907.000000	22.882600
1906.000000	23.369300
1905.000000	23.738100
1904.000000	23.901200
1903.000000	24.130100
1902.000000	24.328400
1901.000000	24.606800
1900.000000	25.224300
1899.000000	25.647900
1898.000000	25.922800
1897.000000	26.138700
1896.000000	26.464900
1895.000000	26.782300
1894.000000	27.134100
1893.000000	27.542800
1892.000000	27.892900
1891.000000	28.230800
1890.000000	28.565300
1889.000000	28.977800
1888.000000	29.153200
1887.000000	29.595600
1886.000000	30.103100
1885.000000	30.468200
1884.000000	31.007700
1883.000000	31.296400
1882.000000	31.772800
1881.000000	32.360900
1880.000000	32.759100
1879.000000	33.212900
1878.000000	33.690700
1877.000000	34.153000
1876.000000	34.528000
1875.000000	34.720000
1874.000000	35.143800
1873.000000	35.659500
1872.000000	35.676000
1871.000000	36.182700
1870.000000	36.297400
1869.000000	36.242600
1868.000000	36.576400
1867.000000	36.696800
1866.000000	36.508500
1865.000000	36.645600
1864.000000	36.861900
1863.000000	36.897200
1862.000000	36.882700
1861.000000	37.054800
1860.000000	37.394200
1859.000000	37.265900
1858.000000	37.088600
1857.000000	37.212200
1856.000000	37.345400
1855.000000	37.082600
1854.000000	37.253700
1853.000000	37.234200
1852.000000	36.999900
1851.000000	37.004900
1850.000000	37.079700
1849.000000	37.047900
1848.000000	37.295900
1847.000000	37.248900
1846.000000	36.798100
1845.000000	36.632900
1844.000000	36.620000
1843.000000	36.749200
1842.000000	36.878700
1841.000000	36.869200
1840.000000	36.663000
1839.000000	36.593500
1838.000000	36.597200
1837.000000	36.690000
1836.000000	36.647600
1835.000000	36.442500
1834.000000	36.241200
1833.000000	36.144500
1832.000000	36.157800
1831.000000	36.153500
1830.000000	36.017400
1829.000000	35.982300
1828.000000	35.853800
1827.000000	35.861700
1826.000000	35.759400
1825.000000	35.665800
1824.000000	35.547600
1823.000000	35.616800
1822.000000	35.651400
1821.000000	35.791000
1820.000000	35.723500
1819.000000	35.540600
1818.000000	35.495700
1817.000000	35.472100
1816.000000	35.555800
1815.000000	35.544200
1814.000000	35.444200
1813.000000	35.473800
1812.000000	35.525200
1811.000000	35.458900
1810.000000	35.421400
1809.000000	35.335400
1808.000000	35.307800
1807.000000	35.302900
1806.000000	35.290900
1805.000000	35.201000
1804.000000	35.099700
1803.000000	35.096800
1802.000000	35.094900
1801.000000	35.077800
1800.000000	35.034800
1799.000000	34.954900
1798.000000	34.879800
1797.000000	34.862800
1796.000000	34.853100
1795.000000	34.802300
1794.000000	34.737800
1793.000000	34.684100
1792.000000	34.658100
1791.000000	34.641600
1790.000000	34.583000
1789.000000	34.507500
1788.000000	34.464300
1787.000000	34.441700
1786.000000	34.389600
1785.000000	34.346100
1784.000000	34.294300
1783.000000	34.233800
1782.000000	34.162500
1781.000000	34.082700
1780.000000	34.003200
1779.000000	33.944300
1778.000000	33.856700
1777.000000	33.791300
1776.000000	33.677400
1775.000000	33.596400
1774.000000	33.482500
1773.000000	33.341100
1772.000000	33.231500
1771.000000	33.097100
1770.000000	32.958900
1769.000000	32.851300
1768.000000	32.751000
1767.000000	32.638800
1766.000000	32.569200
1765.000000	32.504300
1764.000000	32.410800
1763.000000	32.383400
1762.000000	32.386000
1761.000000	32.423300
1760.000000	32.455200
1759.000000	32.490900
1758.000000	32.531000
1757.000000	32.604400
1756.000000	32.629800
1755.000000	32.639000
1754.000000	32.685600
1753.000000	32.688900
1752.000000	32.663400
1751.000000	32.646800
1750.000000	32.611500
1749.000000	32.533600
1748.000000	32.428300
1747.000000	32.369100
1746.000000	32.279400
1745.000000	32.151300
1744.000000	31.976700
1743.000000	31.783000
1742.000000	31.597200
1741.000000	31.374000
1740.000000	31.139000
1739.000000	30.943500
1738.000000	30.710000
1737.000000	30.513600
1736.000000	30.391800
1735.000000	30.298500
1734.000000	30.215900
1733.000000	30.172300
1732.000000	30.209000
1731.000000	30.247300
1730.000000	30.290900
1729.000000	30.371600
1728.000000	30.482300
1727.000000	30.545100
1726.000000	30.575600
1725.000000	30.612800
1724.000000	30.683400
1723.000000	30.733800
1722.000000	30.757900
1721.000000	30.787200
1720.000000	30.797800
1719.000000	30.875000
1718.000000	30.984200
1717.000000	31.088700
1716.000000	31.201100
1715.000000	31.313000
1714.000000	31.419000
1713.000000	31.535100
1712.000000	31.606000
1711.000000	31.651800
1710.000000	31.713300
1709.000000	31.738400
1708.000000	31.773700
1707.000000	31.774600
1706.000000	31.738900
1705.000000	31.724800
1704.000000	31.680500
1703.000000	31.630300
1702.000000	31.531900
1701.000000	31.381400
1700.000000	31.268600
1699.000000	31.134100
1698.000000	30.965700
1697.000000	30.842700
1696.000000	30.780400
1695.000000	30.757200
1694.000000	30.797400
1693.000000	30.875600
1692.000000	30.955600
1691.000000	31.103000
1690.000000	31.254200
1689.000000	31.349100
1688.000000	31.434800
1687.000000	31.475000
1686.000000	31.534900
1685.000000	31.600200
1684.000000	31.722000
1683.000000	31.923200
1682.000000	32.236400
1681.000000	32.701500
1680.000000	33.190600
1679.000000	33.724100
1678.000000	34.247100
1677.000000	34.752600
1676.000000	35.232300
1675.000000	35.629100
1674.000000	35.975200
1673.000000	36.274700
1672.000000	36.530800
1671.000000	36.760900
1670.000000	37.040600
1669.000000	37.234900
1668.000000	37.395300
1667.000000	37.600700
1666.000000	37.729900
1665.000000	37.865300
1664.000000	37.972700
1663.000000	38.118200
1662.000000	38.191500
1661.000000	38.258400
1660.000000	38.374100
1659.000000	38.455600
1658.000000	38.478700
1657.000000	38.570300
1656.000000	38.556900
1655.000000	38.601500
1654.000000	38.618500
1653.000000	38.630200
1652.000000	38.602300
1651.000000	38.627900
1650.000000	38.618200
1649.000000	38.608000
1648.000000	38.566500
1647.000000	38.532900
1646.000000	38.489400
1645.000000	38.465200
1644.000000	38.431500
1643.000000	38.382100
1642.000000	38.355700
1641.000000	38.302600
1640.000000	38.284500
1639.000000	38.220800
1638.000000	38.170400
1637.000000	38.094900
1636.000000	38.049400
1635.000000	38.017500
1634.000000	37.923400
1633.000000	37.884100
1632.000000	37.803500
1631.000000	37.728400
1630.000000	37.663700
1629.000000	37.570600
1628.000000	37.514000
1627.000000	37.444100
1626.000000	37.331900
1625.000000	37.295300
1624.000000	37.208700
1623.000000	37.134900
1622.000000	37.026900
1621.000000	36.968000
1620.000000	36.895400
1619.000000	36.808600
1618.000000	36.740500
1617.000000	36.679900
1616.000000	36.624300
1615.000000	36.525100
1614.000000	36.482800
1613.000000	36.413500
1612.000000	36.335400
1611.000000	36.265400
1610.000000	36.165100
1609.000000	36.065400
1608.000000	36.048100
1607.000000	35.985700
1606.000000	35.856500
1605.000000	35.786600
1604.000000	35.698600
1603.000000	35.653700
1602.000000	35.569000
1601.000000	35.459400
1600.000000	35.398100
1599.000000	35.327800
1598.000000	35.261700
1597.000000	35.171200
1596.000000	35.091400
1595.000000	35.068200
1594.000000	34.978700
1593.000000	34.921300
1592.000000	34.915300
1591.000000	34.806000
1590.000000	34.777300
1589.000000	34.697600
1588.000000	34.681400
1587.000000	34.652200
1586.000000	34.605100
1585.000000	34.503400
1584.000000	34.515000
1583.000000	34.489300
1582.000000	34.464800
1581.000000	34.433900
1580.000000	34.415600
1579.000000	34.417400
1578.000000	34.413500
1577.000000	34.381200
1576.000000	34.376800
1575.000000	34.384800
1574.000000	34.413600
1573.000000	34.424100
1572.000000	34.418500
1571.000000	34.420400
1570.000000	34.473300
1569.000000	34.512300
1568.000000	34.525500
1567.000000	34.541900
1566.000000	34.584900
1565.000000	34.654100
1564.000000	34.675800
1563.000000	34.693700
1562.000000	34.703800
1561.000000	34.731700
1560.000000	34.788600
1559.000000	34.784200
1558.000000	34.798100
1557.000000	34.797800
1556.000000	34.788100
1555.000000	34.795000
1554.000000	34.741100
1553.000000	34.731200
1552.000000	34.732400
1551.000000	34.714300
1550.000000	34.680600
1549.000000	34.655300
1548.000000	34.613900
1547.000000	34.590100
1546.000000	34.553300
1545.000000	34.557700
1544.000000	34.524900
1543.000000	34.518100
1542.000000	34.506200
1541.000000	34.511200
1540.000000	34.538400
1539.000000	34.493400
1538.000000	34.496100
1537.000000	34.506500
1536.000000	34.472400
1535.000000	34.472400
1534.000000	34.461000
1533.000000	34.425600
1532.000000	34.424700
1531.000000	34.399900
1530.000000	34.364000
1529.000000	34.352400
1528.000000	34.324400
1527.000000	34.288600
1526.000000	34.260100
1525.000000	34.234800
1524.000000	34.169400
1523.000000	34.129700
1522.000000	34.114600
1521.000000	34.074500
1520.000000	34.032800
1519.000000	33.998400
1518.000000	33.943700
1517.000000	33.920000
1516.000000	33.851800
1515.000000	33.807300
1514.000000	33.758300
1513.000000	33.699500
1512.000000	33.643000
1511.000000	33.585600
1510.000000	33.563400
1509.000000	33.521900
1508.000000	33.449700
1507.000000	33.413200
1506.000000	33.373100
1505.000000	33.331800
1504.000000	33.270300
1503.000000	33.223700
1502.000000	33.198100
1501.000000	33.172800
1500.000000	33.131500
1499.000000	33.089100
1498.000000	33.067900
1497.000000	33.055900
1496.000000	33.040300
1495.000000	33.011400
1494.000000	33.011200
1493.000000	33.016700
1492.000000	33.000000
1491.000000	33.001100
1490.000000	33.005900
1489.000000	33.009700
1488.000000	33.015300
1487.000000	33.027200
1486.000000	33.031300
1485.000000	33.029600
1484.000000	33.062300
1483.000000	33.076400
1482.000000	33.102900
1481.000000	33.125900
1480.000000	33.140300
1479.000000	33.142100
1478.000000	33.178300
1477.000000	33.224500
1476.000000	33.263700
1475.000000	33.303800
1474.000000	33.344100
1473.000000	33.396200
1472.000000	33.466000
1471.000000	33.519600
1470.000000	33.552400
1469.000000	33.591000
1468.000000	33.633100
1467.000000	33.695800
1466.000000	33.764400
1465.000000	33.817900
1464.000000	33.873600
1463.000000	33.945700
1462.000000	34.033300
1461.000000	34.107000
1460.000000	34.170600
1459.000000	34.241400
1458.000000	34.315400
1457.000000	34.405800
1456.000000	34.512400
1455.000000	34.588900
1454.000000	34.674700
1453.000000	34.786000
1452.000000	34.910800
1451.000000	35.035900
1450.000000	35.138500
1449.000000	35.217000
1448.000000	35.308700
1447.000000	35.415100
1446.000000	35.558400
1445.000000	35.677400
1444.000000	35.756200
1443.000000	35.884200
1442.000000	36.026100
1441.000000	36.161100
1440.000000	36.273500
1439.000000	36.398000
1438.000000	36.548900
1437.000000	36.673400
1436.000000	36.764600
1435.000000	36.891400
1434.000000	37.041900
1433.000000	37.190500
1432.000000	37.333400
1431.000000	37.477400
1430.000000	37.621900
1429.000000	37.789000
1428.000000	37.980200
1427.000000	38.148000
1426.000000	38.337100
1425.000000	38.562200
1424.000000	38.815700
1423.000000	39.044500
1422.000000	39.228200
1421.000000	39.450300
1420.000000	39.752800
1419.000000	40.027900
1418.000000	40.225700
1417.000000	40.425200
1416.000000	40.683700
1415.000000	41.001200
1414.000000	41.321700
1413.000000	41.527900
1412.000000	41.743800
1411.000000	42.056900
1410.000000	42.418900
1409.000000	42.779300
1408.000000	43.080600
1407.000000	43.486100
1406.000000	43.851700
1405.000000	44.285600
1404.000000	44.682100
1403.000000	44.962600
1402.000000	45.332000
1401.000000	45.846900
1400.000000	46.244100
1399.000000	46.382200
1398.000000	46.612400
1397.000000	46.972600
1396.000000	47.348100
1395.000000	47.579800
1394.000000	47.649200
1393.000000	47.828300
1392.000000	48.101700
1391.000000	48.280700
1390.000000	48.446900
1389.000000	48.732500
1388.000000	49.154700
1387.000000	49.351600
1386.000000	49.634300
1385.000000	50.167100
1384.000000	50.538300
1383.000000	50.998500
1382.000000	51.317100
1381.000000	51.547200
1380.000000	51.732800
1379.000000	51.811500
1378.000000	51.922400
1377.000000	52.058400
1376.000000	52.245100
1375.000000	52.364100
1374.000000	52.564500
1373.000000	52.841000
1372.000000	53.196300
1371.000000	53.539600
1370.000000	53.747900
1369.000000	53.993100
1368.000000	54.337400
1367.000000	54.520600
1366.000000	54.654700
1365.000000	54.942400
1364.000000	55.013100
1363.000000	55.143300
1362.000000	55.509500
1361.000000	55.562100
1360.000000	55.439000
1359.000000	55.506300
1358.000000	55.588600
1357.000000	55.710200
1356.000000	55.908900
1355.000000	56.231600
1354.000000	56.574200
1353.000000	56.953200
1352.000000	57.360600
1351.000000	57.831700
1350.000000	58.266100
1349.000000	58.640700
1348.000000	59.043600
1347.000000	59.370500
1346.000000	59.631200
1345.000000	59.936400
1344.000000	60.266600
1343.000000	60.528600
1342.000000	60.769600
1341.000000	61.034000
1340.000000	61.268600
1339.000000	61.535000
1338.000000	61.749100
1337.000000	61.960300
1336.000000	62.161000
1335.000000	62.350200
1334.000000	62.559300
1333.000000	62.750800
1332.000000	62.924000
1331.000000	63.085300
1330.000000	63.263800
1329.000000	63.424400
1328.000000	63.572200
1327.000000	63.703700
1326.000000	63.819400
1325.000000	63.948400
1324.000000	64.048300
1323.000000	64.184800
1322.000000	64.292000
1321.000000	64.400400
1320.000000	64.493100
1319.000000	64.583800
1318.000000	64.690900
1317.000000	64.769000
1316.000000	64.864100
1315.000000	64.943300
1314.000000	64.994900
1313.000000	65.073000
1312.000000	65.136700
1311.000000	65.200600
1310.000000	65.268800
1309.000000	65.306300
1308.000000	65.350100
1307.000000	65.401700
1306.000000	65.427200
1305.000000	65.461200
1304.000000	65.487700
1303.000000	65.488000
1302.000000	65.488400
1301.000000	65.524500
1300.000000	65.506400
1299.000000	65.504000
1298.000000	65.523900
1297.000000	65.511700
1296.000000	65.501600
1295.000000	65.491600
1294.000000	65.475900
1293.000000	65.447900
1292.000000	65.425200
1291.000000	65.409500
1290.000000	65.383600
1289.000000	65.349900
1288.000000	65.289800
1287.000000	65.266200
1286.000000	65.220400
1285.000000	65.146400
1284.000000	65.099900
1283.000000	65.048700
1282.000000	64.974400
1281.000000	64.921200
1280.000000	64.859600
1279.000000	64.823300
1278.000000	64.770400
1277.000000	64.700200
1276.000000	64.639300
1275.000000	64.606100
1274.000000	64.557900
1273.000000	64.506600
1272.000000	64.464400
1271.000000	64.433700
1270.000000	64.395000
1269.000000	64.383000
1268.000000	64.338000
1267.000000	64.283200
1266.000000	64.242700
1265.000000	64.198900
1264.000000	64.161000
1263.000000	64.109600
1262.000000	64.069900
1261.000000	64.031000
1260.000000	63.985900
1259.000000	63.941100
1258.000000	63.900300
1257.000000	63.856200
1256.000000	63.797000
1255.000000	63.757100
1254.000000	63.704900
1253.000000	63.635200
1252.000000	63.548400
1251.000000	63.477400
1250.000000	63.399700
1249.000000	63.313200
1248.000000	63.223300
1247.000000	63.128800
1246.000000	63.029300
1245.000000	62.926200
1244.000000	62.824100
1243.000000	62.722000
1242.000000	62.590700
1241.000000	62.461400
1240.000000	62.320400
1239.000000	62.209900
1238.000000	62.096500
1237.000000	61.965200
1236.000000	61.816900
1235.000000	61.675000
1234.000000	61.550900
1233.000000	61.410100
1232.000000	61.253800
1231.000000	61.115100
1230.000000	60.950400
1229.000000	60.797600
1228.000000	60.648900
1227.000000	60.495600
1226.000000	60.350900
1225.000000	60.203600
1224.000000	60.061600
1223.000000	59.894200
1222.000000	59.732400
1221.000000	59.605900
1220.000000	59.470000
1219.000000	59.328000
1218.000000	59.183900
1217.000000	59.052000
1216.000000	58.932400
1215.000000	58.816200
1214.000000	58.697000
1213.000000	58.594900
1212.000000	58.488900
1211.000000	58.372300
1210.000000	58.262500
1209.000000	58.171100
1208.000000	58.069400
1207.000000	57.979400
1206.000000	57.906800
1205.000000	57.839300
1204.000000	57.796100
1203.000000	57.748300
1202.000000	57.719100
1201.000000	57.682800
1200.000000	57.610100
1199.000000	57.534000
1198.000000	57.443600
1197.000000	57.318500
1196.000000	57.164200
1195.000000	56.962200
1194.000000	56.706000
1193.000000	56.422900
1192.000000	56.091600
1191.000000	55.716800
1190.000000	55.376500
1189.000000	55.091800
1188.000000	54.858600
1187.000000	54.677900
1186.000000	54.622400
1185.000000	54.659900
1184.000000	54.788300
1183.000000	55.004900
1182.000000	55.302800
1181.000000	55.655100
1180.000000	56.018000
1179.000000	56.384800
1178.000000	56.695800
1177.000000	56.947700
1176.000000	57.167600
1175.000000	57.383500
1174.000000	57.590300
1173.000000	57.822600
1172.000000	58.034100
1171.000000	58.258200
1170.000000	58.517000
1169.000000	58.771900
1168.000000	59.004900
1167.000000	59.238600
1166.000000	59.474400
1165.000000	59.736600
1164.000000	60.013200
1163.000000	60.287100
1162.000000	60.535200
1161.000000	60.804700
1160.000000	61.080600
1159.000000	61.294200
1158.000000	61.518500
1157.000000	61.723400
1156.000000	61.904300
1155.000000	62.034200
1154.000000	62.167300
1153.000000	62.248000
1152.000000	62.276800
1151.000000	62.284400
1150.000000	62.279200
1149.000000	62.248500
1148.000000	62.239000
1147.000000	62.297900
1146.000000	62.337500
1145.000000	62.459900
1144.000000	62.624300
1143.000000	62.808500
1142.000000	63.040800
1141.000000	63.301700
1140.000000	63.523200
1139.000000	63.742200
1138.000000	64.009000
1137.000000	64.264400
1136.000000	64.583700
1135.000000	64.899400
1134.000000	65.122100
1133.000000	65.313400
1132.000000	65.519100
1131.000000	65.748400
1130.000000	65.937300
1129.000000	66.116500
1128.000000	66.214700
1127.000000	66.275600
1126.000000	66.366800
1125.000000	66.403500
1124.000000	66.455000
1123.000000	66.520300
1122.000000	66.516900
1121.000000	66.507900
1120.000000	66.514400
1119.000000	66.503200
1118.000000	66.500500
1117.000000	66.451300
1116.000000	66.419800
1115.000000	66.385700
1114.000000	66.325000
1113.000000	66.289400
1112.000000	66.233600
1111.000000	66.179500
1110.000000	66.115200
1109.000000	66.082800
1108.000000	66.026300
1107.000000	65.994300
1106.000000	65.940100
1105.000000	65.866900
1104.000000	65.819000
1103.000000	65.764500
1102.000000	65.669100
1101.000000	65.662000
1100.000000	65.604900
1099.000000	65.496000
1098.000000	65.450500
1097.000000	65.337300
1096.000000	65.295500
1095.000000	65.206200
1094.000000	65.171100
1093.000000	65.120900
1092.000000	65.066200
1091.000000	64.943400
1090.000000	64.877400
1089.000000	64.793700
1088.000000	64.721800
1087.000000	64.661500
1086.000000	64.594500
1085.000000	64.501200
1084.000000	64.420700
1083.000000	64.359900
1082.000000	64.285300
1081.000000	64.246100
1080.000000	64.165800
1079.000000	64.077200
1078.000000	64.029300
1077.000000	63.886600
1076.000000	63.864400
1075.000000	63.765200
1074.000000	63.717600
1073.000000	63.623900
1072.000000	63.588500
1071.000000	63.525400
1070.000000	63.403000
1069.000000	63.394900
1068.000000	63.318000
1067.000000	63.243400
1066.000000	63.121600
1065.000000	63.082000
1064.000000	63.026500
1063.000000	62.966500
1062.000000	62.872500
1061.000000	62.823900
1060.000000	62.747200
1059.000000	62.680200
1058.000000	62.639800
1057.000000	62.536000
1056.000000	62.466100
1055.000000	62.336600
1054.000000	62.293500
1053.000000	62.228300
1052.000000	62.160000
1051.000000	62.102900
1050.000000	62.038500
1049.000000	61.925600
1048.000000	61.905000
1047.000000	61.862900
1046.000000	61.749800
1045.000000	61.698800
1044.000000	61.595000
1043.000000	61.596100
1042.000000	61.503100
1041.000000	61.414200
1040.000000	61.346800
1039.000000	61.339500
1038.000000	61.213900
1037.000000	61.154400
1036.000000	61.072000
1035.000000	60.985400
1034.000000	60.914700
1033.000000	60.863900
1032.000000	60.813000
1031.000000	60.717000
1030.000000	60.636900
1029.000000	60.589100
1028.000000	60.459000
1027.000000	60.407900
1026.000000	60.326900
1025.000000	60.242700
1024.000000	60.116200
1023.000000	60.036100
1022.000000	60.013400
1021.000000	59.924000
1020.000000	59.821100
1019.000000	59.766900
1018.000000	59.717100
1017.000000	59.638100
1016.000000	59.612300
1015.000000	59.583500
1014.000000	59.592300
1013.000000	59.555400
1012.000000	59.487300
1011.000000	59.497400
1010.000000	59.509500
1009.000000	59.486300
1008.000000	59.485600
1007.000000	59.485700
1006.000000	59.453300
1005.000000	59.462100
1004.000000	59.534600
1003.000000	59.541100
1002.000000	59.552500
1001.000000	59.544100
1000.000000	59.594200
999.000000	59.603200
998.000000	59.634900
997.000000	59.666400
996.000000	59.658500
995.000000	59.689300
994.000000	59.724800
993.000000	59.797000
992.000000	59.809400
991.000000	59.894100
990.000000	59.885500
989.000000	59.917100
988.000000	59.992200
987.000000	59.981000
986.000000	59.987200
985.000000	60.049000
984.000000	60.077200
983.000000	60.075600
982.000000	60.069300
981.000000	60.194400
980.000000	60.210500
979.000000	60.225900
978.000000	60.302900
977.000000	60.324300
976.000000	60.292000
975.000000	60.366200
974.000000	60.418700
973.000000	60.478100
972.000000	60.534400
971.000000	60.548000
970.000000	60.604000
969.000000	60.683600
968.000000	60.726400
967.000000	60.705200
966.000000	60.782500
965.000000	60.827200
964.000000	60.927300
963.000000	61.068700
962.000000	61.159700
961.000000	61.164000
960.000000	61.290600
959.000000	61.321900
958.000000	61.398800
957.000000	61.605400
956.000000	61.764800
955.000000	61.889700
954.000000	62.009000
953.000000	62.086000
952.000000	62.226800
951.000000	62.365300
950.000000	62.488800
949.000000	62.580600
948.000000	62.694500
947.000000	62.887400
946.000000	63.039200
945.000000	63.158300
944.000000	63.383200
943.000000	63.601400
942.000000	63.710300
941.000000	63.766700
940.000000	63.875200
939.000000	64.053200
938.000000	64.193100
937.000000	64.334200
936.000000	64.582600
935.000000	64.853500
934.000000	64.891200
933.000000	64.984500
932.000000	65.128900
931.000000	65.176500
930.000000	65.313100
929.000000	65.478300
928.000000	65.662800
927.000000	65.858400
926.000000	65.930300
925.000000	65.857100
924.000000	66.081000
923.000000	66.425700
922.000000	66.351800
921.000000	66.400100
920.000000	66.711000
919.000000	66.897800
918.000000	67.012200
917.000000	67.146800
916.000000	67.238100
915.000000	67.363300
914.000000	67.713100
913.000000	68.026000
912.000000	68.165400
911.000000	68.198900
910.000000	68.308500
909.000000	68.563200
908.000000	68.776300
907.000000	68.936900
906.000000	69.014900
905.000000	69.273200
904.000000	69.810800
903.000000	70.130700
902.000000	70.119200
901.000000	70.198900
900.000000	70.667900
899.000000	70.887400
898.000000	71.580700
897.000000	71.807400
896.000000	71.640300
895.000000	71.938900
894.000000	72.140500
893.000000	72.645000
892.000000	72.950000
891.000000	73.050500
890.000000	73.429300
889.000000	73.831800
888.000000	73.854900
887.000000	74.082300
886.000000	74.211500
885.000000	74.333400
884.000000	74.824500
883.000000	74.860100
882.000000	75.176100
881.000000	75.401700
880.000000	75.170300
879.000000	75.820300
878.000000	76.035500
877.000000	75.709800
876.000000	76.323400
875.000000	76.522100
874.000000	76.747800
873.000000	77.029900
872.000000	76.778900
871.000000	77.396400
870.000000	77.951900
869.000000	77.896000
868.000000	78.154900
867.000000	77.780000
866.000000	78.264700
865.000000	78.582300
864.000000	79.144200
863.000000	79.554800
862.000000	79.633000
861.000000	79.518200
860.000000	79.608700
859.000000	79.983700
858.000000	78.758000
857.000000	79.513560
856.000000	79.772952
855.000000	79.867203
854.000000	80.415339
853.000000	80.660309
852.000000	80.700528
851.000000	80.979420
850.000000	81.313055
849.000000	81.747644
848.000000	82.479000
847.000000	82.755455
846.000000	82.744994
845.000000	83.121082
844.000000	83.646062
843.000000	83.961517
842.000000	84.208417
841.000000	84.461512
840.000000	84.702115
839.000000	85.081352
838.000000	85.523862
837.000000	85.765989
836.000000	86.246687
835.000000	86.294117
834.000000	86.516235
833.000000	87.248302
832.000000	87.472147
831.000000	87.756930
830.000000	87.965642
829.000000	88.317660
828.000000	88.375450
827.000000	88.964313
826.000000	89.241478
825.000000	89.328315
824.000000	89.524230
823.000000	89.855834
822.000000	90.260055
821.000000	90.598666
820.000000	90.837136
819.000000	91.348710
818.000000	91.551633
817.000000	91.857947
816.000000	91.941635
815.000000	92.357841
814.000000	92.436248
813.000000	92.870532
812.000000	93.145971
811.000000	93.236362
810.000000	93.678060
809.000000	93.942937
808.000000	93.905968
807.000000	94.261642
806.000000	94.661191
805.000000	94.621073
804.000000	94.824403
803.000000	95.172967
802.000000	95.164233
801.000000	95.437133
800.000000	95.775440
799.000000	95.885940
798.000000	96.029144
797.000000	95.994918
796.000000	96.124918
795.000000	96.181692
794.000000	96.318396
793.000000	96.402490
792.000000	96.632836
791.000000	96.539296
790.000000	96.927166
789.000000	96.835454
788.000000	96.792087
787.000000	96.819001
786.000000	96.831087
785.000000	96.878517
784.000000	96.843376
783.000000	96.774922
782.000000	96.882782
781.000000	96.675391
780.000000	96.588960
779.000000	96.568140
778.000000	96.398936
777.000000	96.285084
776.000000	96.297779
775.000000	96.054738
774.000000	95.891730
773.000000	95.913261
772.000000	95.774830
771.000000	95.700689
770.000000	95.659048
769.000000	95.413875
768.000000	95.263460
767.000000	95.033826
766.000000	94.902810
765.000000	94.759402
764.000000	94.589995
763.000000	94.515346
762.000000	94.367369
761.000000	94.104422
760.000000	94.026726
759.000000	93.800647
758.000000	93.593153
757.000000	93.435324
756.000000	93.088181
755.000000	93.023486
754.000000	92.865047
753.000000	92.515467
752.000000	92.339356
751.000000	92.288169
750.000000	91.963268
749.000000	91.735462
748.000000	91.509383
747.000000	91.356124
746.000000	91.184381
745.000000	90.992223
744.000000	90.810324
743.000000	90.684386
742.000000	90.426415
741.000000	90.226844
740.000000	89.974967
739.000000	89.722887
738.000000	89.483808
737.000000	89.265650
736.000000	89.110767
735.000000	88.786069
734.000000	88.539880
733.000000	88.404294
732.000000	88.085182
731.000000	87.948478
730.000000	87.631094
729.000000	87.396077
728.000000	87.118606
727.000000	86.878714
726.000000	86.602869
725.000000	86.365211
724.000000	86.043154
723.000000	85.847239
722.000000	85.560628
721.000000	85.267314
720.000000	85.090289
719.000000	84.770365
718.000000	84.495840
717.000000	84.234214
716.000000	83.973704
715.000000	83.638749
714.000000	83.402005
713.000000	83.173184
712.000000	82.921917
711.000000	82.602196
710.000000	82.337116
709.000000	81.997591
708.000000	81.733019
707.000000	81.415431
706.000000	81.112976
705.000000	80.912897
704.000000	80.574793
703.000000	80.186517
702.000000	79.939516
701.000000	79.606490
700.000000	79.277324
699.000000	78.921752
698.000000	78.624781
697.000000	78.284951
696.000000	77.873620
695.000000	77.489001
694.000000	77.098897
693.000000	76.673754
692.000000	76.285275
691.000000	75.854241
690.000000	75.441692
689.000000	75.008017
688.000000	74.603186
687.000000	74.185559
686.000000	73.802666
685.000000	73.338421
684.000000	72.889715
683.000000	72.537596
682.000000	72.131445
681.000000	71.751802
680.000000	71.329909
679.000000	70.894812
678.000000	70.556709
677.000000	70.171988
676.000000	69.744813
675.000000	69.400210
674.000000	69.055200
673.000000	68.694041
672.000000	68.336031
671.000000	68.019764
670.000000	67.683590
669.000000	67.388143
668.000000	67.130376
667.000000	66.882968
666.000000	66.668670
665.000000	66.408567
664.000000	66.185534
663.000000	65.959454
662.000000	65.723117
661.000000	65.553608
660.000000	65.393849
659.000000	65.194583
658.000000	65.004660
657.000000	64.828955
656.000000	64.649189
655.000000	64.481914
654.000000	64.333429
653.000000	64.199772
652.000000	64.067638
651.000000	63.898129
650.000000	63.715824
649.000000	63.604409
648.000000	63.443838
647.000000	63.270673
646.000000	63.128586
645.000000	62.962936
644.000000	62.802162
643.000000	62.620364
642.000000	62.435417
641.000000	62.233307
640.000000	62.057298
639.000000	61.890836
638.000000	61.705686
637.000000	61.539529
636.000000	61.371544
635.000000	61.217574
634.000000	61.074878
633.000000	60.926697
632.000000	60.792736
631.000000	60.660094
630.000000	60.530804
629.000000	60.420507
628.000000	60.342506
627.000000	60.260646
626.000000	60.173708
625.000000	60.119880
624.000000	60.083825
623.000000	60.043505
622.000000	60.002676
621.000000	59.976574
620.000000	59.989574
619.000000	60.008567
618.000000	60.081692
617.000000	60.198693
616.000000	60.296194
615.000000	60.383639
614.000000	60.526843
613.000000	60.702954
612.000000	60.850119
611.000000	61.032221
610.000000	61.229051
609.000000	61.434919
608.000000	61.663741
607.000000	61.920594
606.000000	62.165564
605.000000	62.391237
604.000000	62.635903
603.000000	62.889709
602.000000	63.156211
601.000000	63.401587
600.000000	63.647167
599.000000	63.910012
598.000000	64.130506
597.000000	64.362882
596.000000	64.607446
595.000000	64.862370
594.000000	65.123082
593.000000	65.331794
592.000000	65.518467
591.000000	65.733578
590.000000	65.931220
589.000000	66.098393
588.000000	66.275316
587.000000	66.455387
586.000000	66.603161
585.000000	66.746061
584.000000	66.825178
583.000000	66.940046
582.000000	67.048211
581.000000	67.120422
580.000000	67.176079
579.000000	67.199235
578.000000	67.216603
577.000000	67.252556
576.000000	67.264033
575.000000	67.297041
574.000000	67.276525
573.000000	67.214571
572.000000	67.185727
571.000000	67.141141
570.000000	67.093711
569.000000	67.028812
568.000000	66.958734
567.000000	66.861538
566.000000	66.764139
565.000000	66.629162
564.000000	66.511247
563.000000	66.387137
562.000000	66.231745
561.000000	66.041924
560.000000	65.876173
559.000000	65.684117
558.000000	65.500084
557.000000	65.284364
556.000000	65.053207
555.000000	64.787010
554.000000	64.474906
553.000000	64.200584
552.000000	63.930833
551.000000	63.592120
550.000000	63.238477
549.000000	62.889506
548.000000	62.506715
547.000000	62.143017
546.000000	61.771702
545.000000	61.383427
544.000000	60.970471
543.000000	60.565031
542.000000	60.126888
541.000000	59.676862
540.000000	59.241562
539.000000	58.801895
538.000000	58.366596
537.000000	57.915960
536.000000	57.465630
535.000000	56.979650
534.000000	56.520178
533.000000	56.013683
532.000000	55.541516
531.000000	55.038474
530.000000	54.526291
529.000000	54.021929
528.000000	53.510863
527.000000	52.956329
526.000000	52.420990
525.000000	51.860971
524.000000	51.292217
523.000000	50.739917
522.000000	50.144452
521.000000	49.517706
520.000000	48.891265
519.000000	48.257917
518.000000	47.611367
517.000000	46.919316
516.000000	46.241280
515.000000	45.550245
514.000000	44.846717
513.000000	44.156596
512.000000	43.461092
511.000000	42.775540
510.000000	42.080950
509.000000	41.403118
508.000000	40.739606
507.000000	40.099556
506.000000	39.498607
505.000000	38.903650
504.000000	38.288177
503.000000	37.723080
502.000000	37.189671
501.000000	36.658699
500.000000	36.170891
499.000000	35.670185
498.000000	35.194971
497.000000	34.815125
496.000000	34.403185
495.000000	34.043449
494.000000	33.675892
493.000000	33.360944
492.000000	33.061943
491.000000	32.791886
490.000000	32.526705
489.000000	32.303165
488.000000	32.089374
487.000000	31.881373
486.000000	31.684950
485.000000	31.556676
484.000000	31.406667
483.000000	31.281643
482.000000	31.140775
481.000000	30.992289
480.000000	30.858226
479.000000	30.714921
478.000000	30.636818
477.000000	30.548255
476.000000	30.499505
475.000000	30.401497
474.000000	30.325934
473.000000	30.264183
472.000000	30.186589
471.000000	30.106354
470.000000	30.061057
469.000000	29.982854
468.000000	29.901400
467.000000	29.821978
466.000000	29.739204
465.000000	29.639672
464.000000	29.550093
463.000000	29.440710
462.000000	29.341889
461.000000	29.242357
460.000000	29.119872
459.000000	29.019731
458.000000	28.883636
457.000000	28.747135
456.000000	28.568790
455.000000	28.416039
454.000000	28.214335
453.000000	28.047264
452.000000	27.834895
451.000000	27.613995
450.000000	27.373900
449.000000	27.151172
448.000000	26.862530
447.000000	26.583739
446.000000	26.315206
445.000000	26.027275
444.000000	25.732133
443.000000	25.408451
442.000000	25.058566
441.000000	24.687556
440.000000	24.310554
439.000000	23.919129
438.000000	23.531057
437.000000	23.140039
436.000000	22.722411
435.000000	22.281323
434.000000	21.868570
433.000000	21.413263
432.000000	20.980502
431.000000	20.502140
430.000000	20.063590
429.000000	19.593048
428.000000	19.117124
427.000000	18.662121
426.000000	18.220423
425.000000	17.764912
424.000000	17.291831
423.000000	16.854907
422.000000	16.378271
421.000000	15.936776
420.000000	15.495688
419.000000	15.058255
418.000000	14.646722
417.000000	14.207867
416.000000	13.818170
415.000000	13.419230
414.000000	13.018157
413.000000	12.645116
412.000000	12.255926
411.000000	11.901674
410.000000	11.554836
409.000000	11.212060
408.000000	10.898433
407.000000	10.604713
406.000000	10.304797
405.000000	10.023873
404.000000	9.761333
403.000000	9.514331
402.000000	9.276877
401.000000	9.031906
400.000000	8.804405
399.000000	8.605240
398.000000	8.410949
397.000000	8.229558
396.000000	8.052432
395.000000	7.895415
394.000000	7.746016
393.000000	7.609515
392.000000	7.467936
391.000000	7.348295
390.000000	7.244091
389.000000	7.133895
388.000000	7.027152
387.000000	6.945089
386.000000	6.864854
385.000000	6.784822
384.000000	6.721142
383.000000	6.648118
382.000000	6.563821
381.000000	6.515985
380.000000	6.449867
379.000000	6.417367
378.000000	6.370242
377.000000	6.327585
376.000000	6.310827
375.000000	6.287569
374.000000	6.200225
373.000000	6.161834
372.000000	6.150053
371.000000	6.148733
370.000000	6.106178
369.000000	6.082107
368.000000	6.057021
367.000000	6.010810
366.000000	5.993138
365.000000	5.965310
364.000000	5.930473
363.000000	5.893809
362.000000	5.897872
361.000000	5.877254
360.000000	5.868418
359.000000	5.881317
358.000000	5.802910
357.000000	5.758730
356.000000	5.757410
355.000000	5.718714
354.000000	5.716277
353.000000	5.696777
352.000000	5.628729
351.000000	5.613800
350.000000	5.580284
349.000000	5.554284
348.000000	5.583635
347.000000	5.519752
346.000000	5.506651
345.000000	5.518330
344.000000	5.524221
343.000000	5.531534
342.000000	5.494260
341.000000	5.468768
340.000000	5.463283
339.000000	5.487760
338.000000	5.499541
337.000000	5.465721
336.000000	5.424994
335.000000	5.419814
334.000000	5.378884
333.000000	5.363040
332.000000	5.384876
331.000000	5.425603
330.000000	5.372587
329.000000	5.342931
328.000000	5.397673
327.000000	5.359892
326.000000	5.306267
325.000000	6.552040
324.000000	6.466930
323.000000	5.266758
322.000000	5.447033
321.000000	5.477400
320.000000	5.470393
319.000000	5.423572
318.000000	5.264219
317.000000	5.304438
316.000000	5.352071
315.000000	5.353493
314.000000	5.325970
313.000000	5.316321
312.000000	5.349025
311.000000	5.341103
310.000000	5.337040
309.000000	5.342017
308.000000	5.392494
307.000000	5.409048
306.000000	5.377361
305.000000	5.366798
304.000000	5.366900
303.000000	5.388330
302.000000	5.420322
301.000000	5.414634
300.000000	5.415345
299.000000	5.410267
298.000000	5.406408
297.000000	5.439213
296.000000	5.438299
295.000000	5.452619
294.000000	5.491822
293.000000	5.473135
292.000000	5.483596
291.000000	5.467853
290.000000	5.475775
289.000000	5.507666
288.000000	5.515080
287.000000	5.525135
286.000000	5.540268
285.000000	5.560174
284.000000	5.542502
283.000000	5.543721
282.000000	5.570026
281.000000	5.582721
280.000000	5.584651
279.000000	5.623245
278.000000	5.626292
277.000000	5.641831
276.000000	5.667019
275.000000	5.659909
274.000000	5.660316
273.000000	5.693019
272.000000	5.703378
271.000000	5.717191
270.000000	5.703074
269.000000	5.717496
268.000000	5.778637
267.000000	5.754566
266.000000	5.767668
265.000000	5.822309
264.000000	5.862325
263.000000	5.852778
262.000000	5.846582
261.000000	5.868926
260.000000	5.936161
259.000000	5.977700
258.000000	5.968966
257.000000	6.007154
256.000000	5.986232
255.000000	5.976989
254.000000	6.041787
253.000000	6.009490
252.000000	6.045037
251.000000	6.039552
250.000000	6.090943
