PE UV       SUBTECH     SPECTRUM    ASCII       PEDS        4.00        
   -1
CICIMAUCR0112-3.Sample.ASC
24/04/22
10:19:40.00
24/04/22
10:19:40.00
Vinicio Soto Monge
C. resplendens
250,000000
1
Lambda 1050
1050L1511233
PerkinElmer UV WinLab 6.3.2.0749 / 2.02.05 Lambda 900 UV/VIS/NIR, Aug  7 2015 09:38:08

0
0
3350/servo 860,8/2
0
0
UV/VIS
1
1
1
DoubleDePol,CommonBeamDepol,RBeamAtt,SBeamAtt,60mm sphere, WB InGaAs Detector
0
0
0
0
Program
Program
3350/servo 860,8/2
3350/0,2 860,8/0,2
3350/0,2 860,8/0,2
0
15.00
 
 
 
0
 
860,8
319,2
860,8
Front
100
on
S:100 R:100
0
0
0
0
 
0
 
 
 
0
 
 
0
0
0
0
0
 
 
 
 
0
0


0
0
#HDR
-1
-1
#GR
nm
%R
1.0
0.0
2500,000000
-1,000000
2251
8
88,787000
5,681000
#DATA
2500.000000	15.154268
2499.000000	15.155252
2498.000000	15.121003
2497.000000	15.027112
2496.000000	15.015696
2495.000000	14.981938
2494.000000	15.005854
2493.000000	14.948083
2492.000000	14.884997
2491.000000	14.950051
2490.000000	14.865117
2489.000000	14.872596
2488.000000	14.878305
2487.000000	14.884997
2486.000000	14.859310
2485.000000	14.782839
2484.000000	14.754495
2483.000000	14.817876
2482.000000	14.816793
2481.000000	14.829785
2480.000000	14.815317
2479.000000	14.860786
2478.000000	14.909897
2477.000000	14.895724
2476.000000	14.891000
2475.000000	14.900449
2474.000000	14.941095
2473.000000	14.992272
2472.000000	14.982037
2471.000000	15.045221
2470.000000	15.077699
2469.000000	15.109291
2468.000000	15.144229
2467.000000	15.186746
2466.000000	15.240088
2465.000000	15.296482
2464.000000	15.371870
2463.000000	15.433578
2462.000000	15.459855
2461.000000	15.598230
2460.000000	15.652065
2459.000000	15.736409
2458.000000	15.870060
2457.000000	15.973793
2456.000000	16.070144
2455.000000	16.195036
2454.000000	16.313924
2453.000000	16.437734
2452.000000	16.559575
2451.000000	16.703757
2450.000000	16.842428
2449.000000	16.978736
2448.000000	17.105203
2447.000000	17.254208
2446.000000	17.384021
2445.000000	17.555956
2444.000000	17.687836
2443.000000	17.829066
2442.000000	18.006611
2441.000000	18.117528
2440.000000	18.253542
2439.000000	18.408451
2438.000000	18.542693
2437.000000	18.660007
2436.000000	18.795233
2435.000000	18.940793
2434.000000	19.073263
2433.000000	19.188707
2432.000000	19.311434
2431.000000	19.422941
2430.000000	19.537893
2429.000000	19.654321
2428.000000	19.761006
2427.000000	19.866215
2426.000000	19.971620
2425.000000	20.067774
2424.000000	20.118952
2423.000000	20.167078
2422.000000	20.221503
2421.000000	20.276125
2420.000000	20.327991
2419.000000	20.410859
2418.000000	20.488215
2417.000000	20.556911
2416.000000	20.630330
2415.000000	20.685247
2414.000000	20.745184
2413.000000	20.767820
2412.000000	20.806597
2411.000000	20.860529
2410.000000	20.908459
2409.000000	20.952747
2408.000000	20.977155
2407.000000	20.996543
2406.000000	21.041126
2405.000000	21.092795
2404.000000	21.123010
2403.000000	21.140134
2402.000000	21.155684
2401.000000	21.188556
2400.000000	21.239930
2399.000000	21.261287
2398.000000	21.263845
2397.000000	21.291698
2396.000000	21.309905
2395.000000	21.324569
2394.000000	21.347205
2393.000000	21.347501
2392.000000	21.352618
2391.000000	21.374073
2390.000000	21.375648
2389.000000	21.366397
2388.000000	21.359704
2387.000000	21.360295
2386.000000	21.346910
2385.000000	21.327817
2384.000000	21.306952
2383.000000	21.277919
2382.000000	21.250461
2381.000000	21.224774
2380.000000	21.194953
2379.000000	21.148500
2378.000000	21.100177
2377.000000	21.067108
2376.000000	21.013077
2375.000000	20.956880
2374.000000	20.923615
2373.000000	20.891433
2372.000000	20.836319
2371.000000	20.767820
2370.000000	20.709065
2369.000000	20.666056
2368.000000	20.620390
2367.000000	20.565276
2366.000000	20.507210
2365.000000	20.447667
2364.000000	20.379463
2363.000000	20.311752
2362.000000	20.252406
2361.000000	20.195127
2360.000000	20.135978
2359.000000	20.067381
2358.000000	20.007641
2357.000000	19.948098
2356.000000	19.905484
2355.000000	19.870152
2354.000000	19.846925
2353.000000	19.827832
2352.000000	19.801259
2351.000000	19.784233
2350.000000	19.775769
2349.000000	19.772423
2348.000000	19.781280
2347.000000	19.784036
2346.000000	19.786398
2345.000000	19.793189
2344.000000	19.800078
2343.000000	19.821730
2342.000000	19.831080
2341.000000	19.810314
2340.000000	19.808444
2339.000000	19.802145
2338.000000	19.785808
2337.000000	19.774391
2336.000000	19.756282
2335.000000	19.732170
2334.000000	19.693196
2333.000000	19.668690
2332.000000	19.647235
2331.000000	19.608852
2330.000000	19.556986
2329.000000	19.529429
2328.000000	19.494885
2327.000000	19.440853
2326.000000	19.375898
2325.000000	19.308974
2324.000000	19.247364
2323.000000	19.161445
2322.000000	19.080841
2321.000000	18.990100
2320.000000	18.897981
2319.000000	18.788048
2318.000000	18.665420
2317.000000	18.525765
2316.000000	18.412880
2315.000000	18.291334
2314.000000	18.153647
2313.000000	18.054738
2312.000000	17.949037
2311.000000	17.840187
2310.000000	17.756729
2309.000000	17.682620
2308.000000	17.627014
2307.000000	17.603984
2306.000000	17.572786
2305.000000	17.579577
2304.000000	17.620912
2303.000000	17.644729
2302.000000	17.692757
2301.000000	17.733010
2300.000000	17.802395
2299.000000	17.873157
2298.000000	17.957993
2297.000000	18.028952
2296.000000	18.118709
2295.000000	18.193999
2294.000000	18.260037
2293.000000	18.326567
2292.000000	18.378827
2291.000000	18.411305
2290.000000	18.451558
2289.000000	18.480198
2288.000000	18.502342
2287.000000	18.497618
2286.000000	18.523009
2285.000000	18.504704
2284.000000	18.504408
2283.000000	18.495551
2282.000000	18.502145
2281.000000	18.487874
2280.000000	18.443094
2279.000000	18.424099
2278.000000	18.408648
2277.000000	18.393688
2276.000000	18.362392
2275.000000	18.363671
2274.000000	18.369379
2273.000000	18.371643
2272.000000	18.396936
2271.000000	18.442012
2270.000000	18.483445
2269.000000	18.569364
2268.000000	18.668569
2267.000000	18.810980
2266.000000	18.950831
2265.000000	19.134577
2264.000000	19.335251
2263.000000	19.554231
2262.000000	19.797913
2261.000000	20.072499
2260.000000	20.362437
2259.000000	20.657986
2258.000000	20.951271
2257.000000	21.261385
2256.000000	21.596104
2255.000000	21.928461
2254.000000	22.242216
2253.000000	22.540914
2252.000000	22.859099
2251.000000	23.160946
2250.000000	23.455904
2249.000000	23.689942
2248.000000	23.927522
2247.000000	24.164414
2246.000000	24.389200
2245.000000	24.597550
2244.000000	24.778147
2243.000000	24.940438
2242.000000	25.083340
2241.000000	25.240710
2240.000000	25.329286
2239.000000	25.437054
2238.000000	25.530846
2237.000000	25.604659
2236.000000	25.650817
2235.000000	25.719414
2234.000000	25.716363
2233.000000	25.762423
2232.000000	25.771477
2231.000000	25.749432
2230.000000	25.750711
2229.000000	25.730240
2228.000000	25.675126
2227.000000	25.621784
2226.000000	25.559387
2225.000000	25.501025
2224.000000	25.413138
2223.000000	25.349462
2222.000000	25.261181
2221.000000	25.149182
2220.000000	25.076451
2219.000000	24.952248
2218.000000	24.848122
2217.000000	24.760825
2216.000000	24.649318
2215.000000	24.572847
2214.000000	24.467343
2213.000000	24.375028
2212.000000	24.308792
2211.000000	24.218642
2210.000000	24.147683
2209.000000	24.073377
2208.000000	24.013539
2207.000000	23.962460
2206.000000	23.903016
2205.000000	23.836289
2204.000000	23.811094
2203.000000	23.742300
2202.000000	23.707952
2201.000000	23.676163
2200.000000	23.646441
2199.000000	23.613569
2198.000000	23.566624
2197.000000	23.534442
2196.000000	23.524698
2195.000000	23.497338
2194.000000	23.462301
2193.000000	23.457184
2192.000000	23.440551
2191.000000	23.428150
2190.000000	23.403841
2189.000000	23.374316
2188.000000	23.344298
2187.000000	23.336031
2186.000000	23.309360
2185.000000	23.293121
2184.000000	23.261923
2183.000000	23.250113
2182.000000	23.213600
2181.000000	23.197459
2180.000000	23.169902
2179.000000	23.161241
2178.000000	23.161438
2177.000000	23.156124
2176.000000	23.121579
2175.000000	23.119808
2174.000000	23.143723
2173.000000	23.145790
2172.000000	23.159076
2171.000000	23.182008
2170.000000	23.219603
2169.000000	23.235055
2168.000000	23.265466
2167.000000	23.312214
2166.000000	23.352369
2165.000000	23.396558
2164.000000	23.468206
2163.000000	23.515742
2162.000000	23.585914
2161.000000	23.683151
2160.000000	23.758145
2159.000000	23.850559
2158.000000	23.939135
2157.000000	24.074165
2156.000000	24.184294
2155.000000	24.284385
2154.000000	24.394416
2153.000000	24.519406
2152.000000	24.654829
2151.000000	24.773029
2150.000000	24.894280
2149.000000	24.998996
2148.000000	25.132057
2147.000000	25.256359
2146.000000	25.367472
2145.000000	25.486951
2144.000000	25.596097
2143.000000	25.725418
2142.000000	25.838500
2141.000000	25.935638
2140.000000	26.038386
2139.000000	26.150386
2138.000000	26.258448
2137.000000	26.351748
2136.000000	26.445442
2135.000000	26.512661
2134.000000	26.606158
2133.000000	26.686369
2132.000000	26.767957
2131.000000	26.839802
2130.000000	26.889404
2129.000000	26.940680
2128.000000	27.005734
2127.000000	27.046086
2126.000000	27.079843
2125.000000	27.108876
2124.000000	27.139582
2123.000000	27.167336
2122.000000	27.189480
2121.000000	27.202865
2120.000000	27.197649
2119.000000	27.200405
2118.000000	27.195090
2117.000000	27.191645
2116.000000	27.184264
2115.000000	27.186429
2114.000000	27.175013
2113.000000	27.142338
2112.000000	27.131611
2111.000000	27.113502
2110.000000	27.085649
2109.000000	27.072560
2108.000000	27.041952
2107.000000	27.011836
2106.000000	26.995007
2105.000000	26.959675
2104.000000	26.928181
2103.000000	26.905250
2102.000000	26.876315
2101.000000	26.848758
2100.000000	26.815690
2099.000000	26.794530
2098.000000	26.782031
2097.000000	26.768351
2096.000000	26.759690
2095.000000	26.760379
2094.000000	26.759690
2093.000000	26.755163
2092.000000	26.754277
2091.000000	26.752210
2090.000000	26.753096
2089.000000	26.754375
2088.000000	26.746797
2087.000000	26.741089
2086.000000	26.731050
2085.000000	26.714811
2084.000000	26.680857
2083.000000	26.636865
2082.000000	26.596120
2081.000000	26.552324
2080.000000	26.487270
2079.000000	26.416113
2078.000000	26.344072
2077.000000	26.264845
2076.000000	26.173022
2075.000000	26.089268
2074.000000	25.996755
2073.000000	25.882788
2072.000000	25.768820
2071.000000	25.642255
2070.000000	25.528287
2069.000000	25.399360
2068.000000	25.266693
2067.000000	25.154201
2066.000000	25.022518
2065.000000	24.903728
2064.000000	24.795370
2063.000000	24.677957
2062.000000	24.567139
2061.000000	24.466064
2060.000000	24.384476
2059.000000	24.314599
2058.000000	24.266276
2057.000000	24.242656
2056.000000	24.241868
2055.000000	24.253186
2054.000000	24.293833
2053.000000	24.360659
2052.000000	24.452581
2051.000000	24.574324
2050.000000	24.724903
2049.000000	24.892410
2048.000000	25.069660
2047.000000	25.274369
2046.000000	25.493349
2045.000000	25.719513
2044.000000	25.955223
2043.000000	26.195658
2042.000000	26.413751
2041.000000	26.687058
2040.000000	26.916273
2039.000000	27.143618
2038.000000	27.345374
2037.000000	27.556874
2036.000000	27.758236
2035.000000	27.961666
2034.000000	28.165588
2033.000000	28.314494
2032.000000	28.480328
2031.000000	28.649508
2030.000000	28.798709
2029.000000	28.947025
2028.000000	29.087959
2027.000000	29.203403
2026.000000	29.321209
2025.000000	29.430354
2024.000000	29.547767
2023.000000	29.663211
2022.000000	29.757692
2021.000000	29.839378
2020.000000	29.926675
2019.000000	30.009149
2018.000000	30.074990
2017.000000	30.143391
2016.000000	30.183250
2015.000000	30.241907
2014.000000	30.285703
2013.000000	30.342884
2012.000000	30.383432
2011.000000	30.399179
2010.000000	30.407741
2009.000000	30.426539
2008.000000	30.411284
2007.000000	30.416500
2006.000000	30.401147
2005.000000	30.374476
2004.000000	30.367783
2003.000000	30.322117
2002.000000	30.272515
2001.000000	30.242793
2000.000000	30.187974
1999.000000	30.152740
1998.000000	30.074695
1997.000000	29.993796
1996.000000	29.912503
1995.000000	29.826682
1994.000000	29.729544
1993.000000	29.621285
1992.000000	29.551211
1991.000000	29.454762
1990.000000	29.342172
1989.000000	29.228106
1988.000000	29.109414
1987.000000	28.997119
1986.000000	28.874392
1985.000000	28.765641
1984.000000	28.643111
1983.000000	28.509558
1982.000000	28.413994
1981.000000	28.288708
1980.000000	28.149841
1979.000000	28.028688
1978.000000	27.924366
1977.000000	27.784317
1976.000000	27.687080
1975.000000	27.560712
1974.000000	27.467117
1973.000000	27.346063
1972.000000	27.233178
1971.000000	27.130036
1970.000000	27.009966
1969.000000	26.891373
1968.000000	26.786558
1967.000000	26.710579
1966.000000	26.574960
1965.000000	26.486089
1964.000000	26.387376
1963.000000	26.269274
1962.000000	26.180403
1961.000000	26.050787
1960.000000	25.970183
1959.000000	25.839878
1958.000000	25.732405
1957.000000	25.634873
1956.000000	25.519725
1955.000000	25.412154
1954.000000	25.309209
1953.000000	25.202524
1952.000000	25.099973
1951.000000	25.013267
1950.000000	24.940536
1949.000000	24.839559
1948.000000	24.791039
1947.000000	24.692523
1946.000000	24.630225
1945.000000	24.585838
1944.000000	24.520686
1943.000000	24.473937
1942.000000	24.451006
1941.000000	24.441656
1940.000000	24.442050
1939.000000	24.451597
1938.000000	24.478662
1937.000000	24.509663
1936.000000	24.531906
1935.000000	24.558970
1934.000000	24.609262
1933.000000	24.691342
1932.000000	24.773816
1931.000000	24.887292
1930.000000	25.010019
1929.000000	25.165421
1928.000000	25.321019
1927.000000	25.470024
1926.000000	25.668040
1925.000000	25.843027
1924.000000	25.995378
1923.000000	26.228923
1922.000000	26.502131
1921.000000	26.826811
1920.000000	27.110352
1919.000000	27.377064
1918.000000	27.637576
1917.000000	27.879979
1916.000000	28.151711
1915.000000	28.513691
1914.000000	28.963165
1913.000000	29.430453
1912.000000	29.837213
1911.000000	30.198013
1910.000000	30.519740
1909.000000	30.830150
1908.000000	31.262794
1907.000000	31.762658
1906.000000	32.374423
1905.000000	32.997703
1904.000000	33.523253
1903.000000	34.008453
1902.000000	34.495030
1901.000000	35.070971
1900.000000	35.721316
1899.000000	36.341938
1898.000000	36.969253
1897.000000	37.470396
1896.000000	37.915835
1895.000000	38.421997
1894.000000	38.991147
1893.000000	39.627320
1892.000000	40.326283
1891.000000	40.980465
1890.000000	41.535640
1889.000000	42.087370
1888.000000	42.654945
1887.000000	43.186893
1886.000000	43.763916
1885.000000	44.378043
1884.000000	44.993056
1883.000000	45.532976
1882.000000	46.030084
1881.000000	46.501111
1880.000000	46.897439
1879.000000	47.340221
1878.000000	47.754264
1877.000000	48.171457
1876.000000	48.545543
1875.000000	48.910476
1874.000000	49.270784
1873.000000	49.622135
1872.000000	49.944256
1871.000000	50.211559
1870.000000	50.436739
1869.000000	50.629539
1868.000000	50.715655
1867.000000	50.765848
1866.000000	50.802164
1865.000000	50.835724
1864.000000	50.878536
1863.000000	50.964553
1862.000000	51.072616
1861.000000	51.177628
1860.000000	51.282147
1859.000000	51.358815
1858.000000	51.396509
1857.000000	51.394639
1856.000000	51.410090
1855.000000	51.444438
1854.000000	51.436958
1853.000000	51.403103
1852.000000	51.378006
1851.000000	51.319152
1850.000000	51.321416
1849.000000	51.411468
1848.000000	51.441289
1847.000000	51.398182
1846.000000	51.261873
1845.000000	51.112278
1844.000000	51.010711
1843.000000	51.055098
1842.000000	51.101354
1841.000000	51.057066
1840.000000	51.004019
1839.000000	50.923513
1838.000000	50.871548
1837.000000	50.812793
1836.000000	50.742916
1835.000000	50.614481
1834.000000	50.465870
1833.000000	50.359284
1832.000000	50.285274
1831.000000	50.238919
1830.000000	50.179672
1829.000000	50.113240
1828.000000	50.033620
1827.000000	49.979096
1826.000000	49.923195
1825.000000	49.835997
1824.000000	49.766120
1823.000000	49.792201
1822.000000	49.856271
1821.000000	49.901641
1820.000000	49.883828
1819.000000	49.813164
1818.000000	49.751161
1817.000000	49.731379
1816.000000	49.723112
1815.000000	49.700476
1814.000000	49.679906
1813.000000	49.640441
1812.000000	49.619084
1811.000000	49.571155
1810.000000	49.494487
1809.000000	49.421953
1808.000000	49.378846
1807.000000	49.352962
1806.000000	49.305820
1805.000000	49.231613
1804.000000	49.168134
1803.000000	49.142250
1802.000000	49.113610
1801.000000	49.056922
1800.000000	48.975432
1799.000000	48.924353
1798.000000	48.868255
1797.000000	48.828888
1796.000000	48.788832
1795.000000	48.738639
1794.000000	48.679194
1793.000000	48.631659
1792.000000	48.602232
1791.000000	48.549283
1790.000000	48.507455
1789.000000	48.461298
1788.000000	48.431280
1787.000000	48.406774
1786.000000	48.367013
1785.000000	48.312588
1784.000000	48.262100
1783.000000	48.199703
1782.000000	48.143900
1781.000000	48.074713
1780.000000	47.999226
1779.000000	47.915965
1778.000000	47.825125
1777.000000	47.726806
1776.000000	47.619334
1775.000000	47.500150
1774.000000	47.375553
1773.000000	47.241409
1772.000000	47.128721
1771.000000	47.003731
1770.000000	46.880905
1769.000000	46.757489
1768.000000	46.642045
1767.000000	46.552485
1766.000000	46.458693
1765.000000	46.389407
1764.000000	46.358701
1763.000000	46.327108
1762.000000	46.318645
1761.000000	46.325337
1760.000000	46.357224
1759.000000	46.389407
1758.000000	46.411649
1757.000000	46.425723
1756.000000	46.426707
1755.000000	46.431038
1754.000000	46.428282
1753.000000	46.391769
1752.000000	46.357126
1751.000000	46.307622
1750.000000	46.239221
1749.000000	46.156846
1748.000000	46.054196
1747.000000	45.919561
1746.000000	45.763765
1745.000000	45.568800
1744.000000	45.382692
1743.000000	45.186643
1742.000000	44.975931
1741.000000	44.754097
1740.000000	44.519470
1739.000000	44.302655
1738.000000	44.107985
1737.000000	43.966460
1736.000000	43.822475
1735.000000	43.721301
1734.000000	43.655165
1733.000000	43.611763
1732.000000	43.601330
1731.000000	43.590012
1730.000000	43.583812
1729.000000	43.602118
1728.000000	43.605267
1727.000000	43.603003
1726.000000	43.613829
1725.000000	43.618160
1724.000000	43.627706
1723.000000	43.689316
1722.000000	43.778876
1721.000000	43.913905
1720.000000	44.092336
1719.000000	44.293601
1718.000000	44.510021
1717.000000	44.740909
1716.000000	44.982623
1715.000000	45.206819
1714.000000	45.426881
1713.000000	45.617713
1712.000000	45.748215
1711.000000	45.876060
1710.000000	45.994161
1709.000000	46.052228
1708.000000	46.108227
1707.000000	46.132832
1706.000000	46.149760
1705.000000	46.138737
1704.000000	46.109310
1703.000000	46.030182
1702.000000	45.930485
1701.000000	45.818485
1700.000000	45.728728
1699.000000	45.613678
1698.000000	45.502761
1697.000000	45.447352
1696.000000	45.415563
1695.000000	45.400801
1694.000000	45.394010
1693.000000	45.406312
1692.000000	45.432786
1691.000000	45.470382
1690.000000	45.494199
1689.000000	45.543309
1688.000000	45.625193
1687.000000	45.717214
1686.000000	45.898893
1685.000000	46.139623
1684.000000	46.473849
1683.000000	46.868997
1682.000000	47.330871
1681.000000	47.811150
1680.000000	48.331485
1679.000000	48.853689
1678.000000	49.306608
1677.000000	49.743976
1676.000000	50.134596
1675.000000	50.492246
1674.000000	50.841433
1673.000000	51.152630
1672.000000	51.441879
1671.000000	51.732999
1670.000000	51.969595
1669.000000	52.241130
1668.000000	52.458436
1667.000000	52.672790
1666.000000	52.835081
1665.000000	52.992451
1664.000000	53.158679
1663.000000	53.294790
1662.000000	53.414959
1661.000000	53.541229
1660.000000	53.625474
1659.000000	53.696729
1658.000000	53.769853
1657.000000	53.831758
1656.000000	53.875357
1655.000000	53.893072
1654.000000	53.891005
1653.000000	53.891989
1652.000000	53.900945
1651.000000	53.882148
1650.000000	53.851441
1649.000000	53.830281
1648.000000	53.805579
1647.000000	53.756960
1646.000000	53.715231
1645.000000	53.678718
1644.000000	53.649685
1643.000000	53.602248
1642.000000	53.552350
1641.000000	53.511113
1640.000000	53.468203
1639.000000	53.427359
1638.000000	53.395767
1637.000000	53.344984
1636.000000	53.282488
1635.000000	53.206018
1634.000000	53.127283
1633.000000	53.054257
1632.000000	52.985070
1631.000000	52.904564
1630.000000	52.819826
1629.000000	52.728692
1628.000000	52.641592
1627.000000	52.555772
1626.000000	52.477529
1625.000000	52.391611
1624.000000	52.306282
1623.000000	52.211900
1622.000000	52.138775
1621.000000	52.078249
1620.000000	52.004632
1619.000000	51.938200
1618.000000	51.870390
1617.000000	51.801104
1616.000000	51.716071
1615.000000	51.636254
1614.000000	51.550336
1613.000000	51.472979
1612.000000	51.402020
1611.000000	51.312066
1610.000000	51.218963
1609.000000	51.141115
1608.000000	51.041713
1607.000000	50.939161
1606.000000	50.819978
1605.000000	50.702565
1604.000000	50.611332
1603.000000	50.520492
1602.000000	50.401800
1601.000000	50.291868
1600.000000	50.193942
1599.000000	50.095426
1598.000000	49.988643
1597.000000	49.893079
1596.000000	49.801747
1595.000000	49.719273
1594.000000	49.636996
1593.000000	49.553538
1592.000000	49.477855
1591.000000	49.403155
1590.000000	49.339971
1589.000000	49.271177
1588.000000	49.203367
1587.000000	49.137231
1586.000000	49.075326
1585.000000	49.014504
1584.000000	48.964114
1583.000000	48.909787
1582.000000	48.856642
1581.000000	48.818948
1580.000000	48.784797
1579.000000	48.756649
1578.000000	48.737556
1577.000000	48.725451
1576.000000	48.721120
1575.000000	48.716003
1574.000000	48.717184
1573.000000	48.736474
1572.000000	48.759700
1571.000000	48.786568
1570.000000	48.820719
1569.000000	48.857331
1568.000000	48.904276
1567.000000	48.945316
1566.000000	48.980451
1565.000000	49.004662
1564.000000	49.025723
1563.000000	49.055544
1562.000000	49.072865
1561.000000	49.080837
1560.000000	49.082314
1559.000000	49.079066
1558.000000	49.063122
1557.000000	49.022180
1556.000000	48.986947
1555.000000	48.941970
1554.000000	48.880065
1553.000000	48.816782
1552.000000	48.756551
1551.000000	48.671518
1550.000000	48.587961
1549.000000	48.508538
1548.000000	48.424785
1547.000000	48.357467
1546.000000	48.283949
1545.000000	48.218009
1544.000000	48.182874
1543.000000	48.141637
1542.000000	48.098825
1541.000000	48.083767
1540.000000	48.070087
1539.000000	48.041251
1538.000000	48.018319
1537.000000	47.994502
1536.000000	47.978558
1535.000000	47.949820
1534.000000	47.919016
1533.000000	47.874531
1532.000000	47.835459
1531.000000	47.788218
1530.000000	47.740584
1529.000000	47.697969
1528.000000	47.637935
1527.000000	47.578687
1526.000000	47.527608
1525.000000	47.480761
1524.000000	47.411574
1523.000000	47.352326
1522.000000	47.304594
1521.000000	47.239244
1520.000000	47.157656
1519.000000	47.094373
1518.000000	47.026170
1517.000000	46.958065
1516.000000	46.896160
1515.000000	46.827760
1514.000000	46.757391
1513.000000	46.677968
1512.000000	46.597167
1511.000000	46.534081
1510.000000	46.450032
1509.000000	46.382813
1508.000000	46.302799
1507.000000	46.230954
1506.000000	46.155468
1505.000000	46.084213
1504.000000	46.008530
1503.000000	45.938260
1502.000000	45.876847
1501.000000	45.828819
1500.000000	45.790633
1499.000000	45.750479
1498.000000	45.726859
1497.000000	45.711604
1496.000000	45.693397
1495.000000	45.668300
1494.000000	45.668694
1493.000000	45.683259
1492.000000	45.689558
1491.000000	45.702648
1490.000000	45.721347
1489.000000	45.742802
1488.000000	45.758155
1487.000000	45.785909
1486.000000	45.788763
1485.000000	45.823308
1484.000000	45.841515
1483.000000	45.879012
1482.000000	45.923399
1481.000000	45.967490
1480.000000	45.992980
1479.000000	46.047405
1478.000000	46.115904
1477.000000	46.170919
1476.000000	46.252016
1475.000000	46.332915
1474.000000	46.426510
1473.000000	46.524731
1472.000000	46.653265
1471.000000	46.755029
1470.000000	46.836420
1469.000000	46.905411
1468.000000	47.015541
1467.000000	47.123603
1466.000000	47.223694
1465.000000	47.320833
1464.000000	47.434997
1463.000000	47.542469
1462.000000	47.674152
1461.000000	47.793435
1460.000000	47.909469
1459.000000	48.041447
1458.000000	48.173229
1457.000000	48.305502
1456.000000	48.469466
1455.000000	48.580580
1454.000000	48.714428
1453.000000	48.883707
1452.000000	49.047769
1451.000000	49.216949
1450.000000	49.327374
1449.000000	49.415064
1448.000000	49.577749
1447.000000	49.755688
1446.000000	49.960692
1445.000000	50.097690
1444.000000	50.209886
1443.000000	50.374736
1442.000000	50.560745
1441.000000	50.687409
1440.000000	50.871450
1439.000000	51.054605
1438.000000	51.247406
1437.000000	51.378498
1436.000000	51.550828
1435.000000	51.773350
1434.000000	51.971367
1433.000000	52.211211
1432.000000	52.410212
1431.000000	52.607638
1430.000000	52.847186
1429.000000	53.123544
1428.000000	53.377757
1427.000000	53.630297
1426.000000	53.925058
1425.000000	54.265288
1424.000000	54.587114
1423.000000	54.870852
1422.000000	55.180179
1421.000000	55.553478
1420.000000	55.971065
1419.000000	56.299485
1418.000000	56.614028
1417.000000	56.887334
1416.000000	57.286024
1415.000000	57.757937
1414.000000	58.138224
1413.000000	58.449913
1412.000000	58.789159
1411.000000	59.268256
1410.000000	59.777863
1409.000000	60.198698
1408.000000	60.653585
1407.000000	61.056310
1406.000000	61.508048
1405.000000	61.936362
1404.000000	62.350602
1403.000000	62.686108
1402.000000	63.137452
1401.000000	63.635052
1400.000000	63.963177
1399.000000	64.146726
1398.000000	64.367772
1397.000000	64.750814
1396.000000	65.172338
1395.000000	65.362776
1394.000000	65.510796
1393.000000	65.788925
1392.000000	66.058589
1391.000000	66.253653
1390.000000	66.507276
1389.000000	66.877228
1388.000000	67.227202
1387.000000	67.523341
1386.000000	67.865441
1385.000000	68.307042
1384.000000	68.562829
1383.000000	68.896958
1382.000000	69.106391
1381.000000	69.234629
1380.000000	69.289054
1379.000000	69.377335
1378.000000	69.439633
1377.000000	69.550845
1376.000000	69.681642
1375.000000	69.798956
1374.000000	69.975026
1373.000000	70.212311
1372.000000	70.457470
1371.000000	70.645841
1370.000000	70.827914
1369.000000	71.064215
1368.000000	71.229163
1367.000000	71.339883
1366.000000	71.493907
1365.000000	71.646651
1364.000000	71.739656
1363.000000	71.919957
1362.000000	72.026544
1361.000000	72.036878
1360.000000	71.979008
1359.000000	72.109904
1358.000000	72.212357
1357.000000	72.324454
1356.000000	72.543139
1355.000000	72.777668
1354.000000	72.975783
1353.000000	73.199782
1352.000000	73.541882
1351.000000	73.841466
1350.000000	74.142132
1349.000000	74.441224
1348.000000	74.724076
1347.000000	74.943056
1346.000000	75.153768
1345.000000	75.402667
1344.000000	75.624697
1343.000000	75.838362
1342.000000	76.034804
1341.000000	76.213924
1340.000000	76.390879
1339.000000	76.529944
1338.000000	76.695974
1337.000000	76.856592
1336.000000	76.993294
1335.000000	77.111199
1334.000000	77.236189
1333.000000	77.355669
1332.000000	77.474852
1331.000000	77.584391
1330.000000	77.668834
1329.000000	77.749241
1328.000000	77.825810
1327.000000	77.900509
1326.000000	77.981310
1325.000000	78.054238
1324.000000	78.113584
1323.000000	78.158757
1322.000000	78.213773
1321.000000	78.274792
1320.000000	78.322131
1319.000000	78.364352
1318.000000	78.414545
1317.000000	78.462376
1316.000000	78.504499
1315.000000	78.548492
1314.000000	78.595142
1313.000000	78.625848
1312.000000	78.652519
1311.000000	78.683324
1310.000000	78.711275
1309.000000	78.747493
1308.000000	78.767767
1307.000000	78.770522
1306.000000	78.784793
1305.000000	78.795028
1304.000000	78.793552
1303.000000	78.790206
1302.000000	78.793946
1301.000000	78.791387
1300.000000	78.782824
1299.000000	78.782923
1298.000000	78.787844
1297.000000	78.779085
1296.000000	78.748083
1295.000000	78.728695
1294.000000	78.712751
1293.000000	78.687655
1292.000000	78.656456
1291.000000	78.623388
1290.000000	78.582348
1289.000000	78.542784
1288.000000	78.508534
1287.000000	78.472710
1286.000000	78.419663
1285.000000	78.366321
1284.000000	78.313273
1283.000000	78.255896
1282.000000	78.205801
1281.000000	78.152557
1280.000000	78.108466
1279.000000	78.074709
1278.000000	78.025598
1277.000000	77.970386
1276.000000	77.951785
1275.000000	77.925212
1274.000000	77.898541
1273.000000	77.878168
1272.000000	77.864784
1271.000000	77.848053
1270.000000	77.830633
1269.000000	77.819019
1268.000000	77.796088
1267.000000	77.782900
1266.000000	77.759969
1265.000000	77.735660
1264.000000	77.709382
1263.000000	77.692848
1262.000000	77.676609
1261.000000	77.660862
1260.000000	77.635372
1259.000000	77.623168
1258.000000	77.606240
1257.000000	77.573369
1256.000000	77.549552
1255.000000	77.513334
1254.000000	77.478592
1253.000000	77.433419
1252.000000	77.386277
1251.000000	77.323289
1250.000000	77.263057
1249.000000	77.206369
1248.000000	77.130882
1247.000000	77.041716
1246.000000	76.964064
1245.000000	76.873520
1244.000000	76.797935
1243.000000	76.699714
1242.000000	76.621275
1241.000000	76.526499
1240.000000	76.426507
1239.000000	76.358303
1238.000000	76.274550
1237.000000	76.185974
1236.000000	76.089229
1235.000000	76.012758
1234.000000	75.924182
1233.000000	75.837181
1232.000000	75.748802
1231.000000	75.663178
1230.000000	75.594581
1229.000000	75.500297
1228.000000	75.412804
1227.000000	75.331904
1226.000000	75.266063
1225.000000	75.175814
1224.000000	75.069424
1223.000000	75.007126
1222.000000	74.925340
1221.000000	74.861467
1220.000000	74.790311
1219.000000	74.718270
1218.000000	74.647212
1217.000000	74.560604
1216.000000	74.493188
1215.000000	74.436795
1214.000000	74.366820
1213.000000	74.286806
1212.000000	74.207678
1211.000000	74.133274
1210.000000	74.074125
1209.000000	73.969999
1208.000000	73.907307
1207.000000	73.824341
1206.000000	73.744426
1205.000000	73.671203
1204.000000	73.624947
1203.000000	73.558318
1202.000000	73.482438
1201.000000	73.399078
1200.000000	73.319458
1199.000000	73.237476
1198.000000	73.114158
1197.000000	72.995959
1196.000000	72.852761
1195.000000	72.669999
1194.000000	72.488910
1193.000000	72.298374
1192.000000	72.078508
1191.000000	71.877047
1190.000000	71.680113
1189.000000	71.537801
1188.000000	71.418421
1187.000000	71.387714
1186.000000	71.399524
1185.000000	71.446666
1184.000000	71.558371
1183.000000	71.715052
1182.000000	71.905588
1181.000000	72.074965
1180.000000	72.289221
1179.000000	72.456826
1178.000000	72.621381
1177.000000	72.777274
1176.000000	72.898230
1175.000000	73.034834
1174.000000	73.188661
1173.000000	73.304991
1172.000000	73.470234
1171.000000	73.629868
1170.000000	73.800622
1169.000000	73.988600
1168.000000	74.176578
1167.000000	74.369182
1166.000000	74.569560
1165.000000	74.766199
1164.000000	74.979765
1163.000000	75.170893
1162.000000	75.373437
1161.000000	75.552951
1160.000000	75.725477
1159.000000	75.915522
1158.000000	76.064723
1157.000000	76.217172
1156.000000	76.345312
1155.000000	76.439891
1154.000000	76.538604
1153.000000	76.601493
1152.000000	76.643124
1151.000000	76.675897
1150.000000	76.701683
1149.000000	76.725106
1148.000000	76.794687
1147.000000	76.846357
1146.000000	76.897140
1145.000000	76.962686
1144.000000	77.041125
1143.000000	77.139838
1142.000000	77.262270
1141.000000	77.401630
1140.000000	77.503197
1139.000000	77.638128
1138.000000	77.780833
1137.000000	77.985050
1136.000000	78.163383
1135.000000	78.287586
1134.000000	78.402145
1133.000000	78.446925
1132.000000	78.578903
1131.000000	78.656062
1130.000000	78.773868
1129.000000	78.828786
1128.000000	78.871007
1127.000000	78.924841
1126.000000	78.955154
1125.000000	78.987927
1124.000000	79.011547
1123.000000	79.025424
1122.000000	79.012039
1121.000000	78.989010
1120.000000	78.981333
1119.000000	78.976117
1118.000000	78.938915
1117.000000	78.908406
1116.000000	78.862346
1115.000000	78.837250
1114.000000	78.816877
1113.000000	78.800638
1112.000000	78.751232
1111.000000	78.730663
1110.000000	78.698874
1109.000000	78.655472
1108.000000	78.628998
1107.000000	78.614530
1106.000000	78.585694
1105.000000	78.553610
1104.000000	78.510207
1103.000000	78.466805
1102.000000	78.443480
1101.000000	78.427635
1100.000000	78.388071
1099.000000	78.335319
1098.000000	78.301660
1097.000000	78.272233
1096.000000	78.231783
1095.000000	78.188381
1094.000000	78.146947
1093.000000	78.114469
1092.000000	78.075102
1091.000000	78.013296
1090.000000	77.955918
1089.000000	77.912615
1088.000000	77.868425
1087.000000	77.824728
1086.000000	77.768137
1085.000000	77.724342
1084.000000	77.677396
1083.000000	77.630549
1082.000000	77.570810
1081.000000	77.515499
1080.000000	77.453299
1079.000000	77.411078
1078.000000	77.358818
1077.000000	77.297799
1076.000000	77.242488
1075.000000	77.183536
1074.000000	77.131473
1073.000000	77.088464
1072.000000	77.031579
1071.000000	76.976367
1070.000000	76.916824
1069.000000	76.866139
1068.000000	76.810336
1067.000000	76.754828
1066.000000	76.701387
1065.000000	76.641254
1064.000000	76.586927
1063.000000	76.537719
1062.000000	76.499631
1061.000000	76.450717
1060.000000	76.399245
1059.000000	76.349249
1058.000000	76.288328
1057.000000	76.226718
1056.000000	76.189517
1055.000000	76.143949
1054.000000	76.095528
1053.000000	76.050944
1052.000000	76.008526
1051.000000	75.967092
1050.000000	75.934615
1049.000000	75.895936
1048.000000	75.857357
1047.000000	75.834819
1046.000000	75.806573
1045.000000	75.768584
1044.000000	75.739747
1043.000000	75.712978
1042.000000	75.691227
1041.000000	75.660324
1040.000000	75.626961
1039.000000	75.610230
1038.000000	75.578441
1037.000000	75.541436
1036.000000	75.523032
1035.000000	75.506300
1034.000000	75.462406
1033.000000	75.430322
1032.000000	75.423433
1031.000000	75.395187
1030.000000	75.346568
1029.000000	75.323637
1028.000000	75.300411
1027.000000	75.269409
1026.000000	75.241852
1025.000000	75.220692
1024.000000	75.195202
1023.000000	75.169909
1022.000000	75.152292
1021.000000	75.129262
1020.000000	75.101213
1019.000000	75.094029
1018.000000	75.094225
1017.000000	75.085860
1016.000000	75.075821
1015.000000	75.069424
1014.000000	75.059287
1013.000000	75.059189
1012.000000	75.068735
1011.000000	75.074640
1010.000000	75.080545
1009.000000	75.085761
1008.000000	75.096686
1007.000000	75.107118
1006.000000	75.127491
1005.000000	75.143729
1004.000000	75.146288
1003.000000	75.157114
1002.000000	75.174042
1001.000000	75.194316
1000.000000	75.205536
999.000000	75.219314
998.000000	75.227188
997.000000	75.238407
996.000000	75.271377
995.000000	75.304446
994.000000	75.332495
993.000000	75.360445
992.000000	75.360642
991.000000	75.403257
990.000000	75.454828
989.000000	75.475693
988.000000	75.504824
987.000000	75.553738
986.000000	75.590251
985.000000	75.637098
984.000000	75.692704
983.000000	75.727248
982.000000	75.751065
981.000000	75.781477
980.000000	75.814151
979.000000	75.884126
978.000000	75.938453
977.000000	75.979690
976.000000	76.022600
975.000000	76.069348
974.000000	76.102220
973.000000	76.153397
972.000000	76.217369
971.000000	76.261165
970.000000	76.304173
969.000000	76.373066
968.000000	76.433101
967.000000	76.475026
966.000000	76.536242
965.000000	76.593620
964.000000	76.662414
963.000000	76.728157
962.000000	76.796853
961.000000	76.842420
960.000000	76.886019
959.000000	76.950483
958.000000	77.016226
957.000000	77.055396
956.000000	77.115825
955.000000	77.167986
954.000000	77.207255
953.000000	77.255578
952.000000	77.317482
951.000000	77.339823
950.000000	77.392969
949.000000	77.456055
948.000000	77.492863
947.000000	77.564708
946.000000	77.607323
945.000000	77.646493
944.000000	77.709382
943.000000	77.731920
942.000000	77.777389
941.000000	77.831322
940.000000	77.893128
939.000000	77.912123
938.000000	77.954737
937.000000	78.005718
936.000000	78.081696
935.000000	78.114666
934.000000	78.159742
933.000000	78.211608
932.000000	78.264458
931.000000	78.277252
930.000000	78.335516
929.000000	78.388760
928.000000	78.422714
927.000000	78.477828
926.000000	78.540618
925.000000	78.609314
924.000000	78.645138
923.000000	78.712062
922.000000	78.779970
921.000000	78.860279
920.000000	78.930353
919.000000	78.987927
918.000000	79.076109
917.000000	79.116067
916.000000	79.172952
915.000000	79.251884
914.000000	79.327173
913.000000	79.393211
912.000000	79.482279
911.000000	79.535523
910.000000	79.622328
909.000000	79.699291
908.000000	79.765723
907.000000	79.855381
906.000000	79.903311
905.000000	80.019542
904.000000	80.059795
903.000000	80.171696
902.000000	80.244525
901.000000	80.341663
900.000000	80.417347
899.000000	80.523638
898.000000	80.596467
897.000000	80.685830
896.000000	80.780803
895.000000	80.862096
894.000000	80.956479
893.000000	81.060999
892.000000	81.154791
891.000000	81.288442
890.000000	81.382923
889.000000	81.502894
888.000000	81.577003
887.000000	81.671090
886.000000	81.802281
885.000000	81.924516
884.000000	82.041535
883.000000	82.153633
882.000000	82.283150
881.000000	82.428415
880.000000	82.550650
879.000000	82.677510
878.000000	82.810276
877.000000	82.972173
876.000000	83.115174
875.000000	83.261620
874.000000	83.426765
873.000000	83.563565
872.000000	83.733238
871.000000	83.895824
870.000000	84.088624
869.000000	84.280834
868.000000	84.464482
867.000000	84.652853
866.000000	84.870553
865.000000	85.047213
864.000000	85.264520
863.000000	85.450234
862.000000	85.663210
861.000000	85.846562
860.000000	86.006786
859.000000	86.153822
858.000000	85.933367
857.000000	85.442800
856.000000	86.063200
855.000000	86.294100
854.000000	86.289900
853.000000	86.731600
852.000000	86.491500
851.000000	87.193200
850.000000	86.894400
849.000000	87.012400
848.000000	87.558800
847.000000	87.779400
846.000000	87.752600
845.000000	87.876700
844.000000	87.979900
843.000000	88.364500
842.000000	88.235100
841.000000	88.385300
840.000000	88.568300
839.000000	88.374400
838.000000	88.353400
837.000000	88.606200
836.000000	88.553800
835.000000	88.787000
834.000000	88.755100
833.000000	88.554000
832.000000	88.446600
831.000000	88.285800
830.000000	88.323200
829.000000	88.261300
828.000000	88.213500
827.000000	88.326700
826.000000	88.222000
825.000000	88.128000
824.000000	88.093500
823.000000	87.847100
822.000000	87.863600
821.000000	87.883100
820.000000	87.795900
819.000000	87.736500
818.000000	87.944300
817.000000	88.020100
816.000000	88.054700
815.000000	87.928400
814.000000	87.779200
813.000000	87.866500
812.000000	87.966500
811.000000	88.137700
810.000000	88.158500
809.000000	88.088200
808.000000	88.090700
807.000000	88.266700
806.000000	88.315000
805.000000	88.254900
804.000000	88.204100
803.000000	88.331800
802.000000	88.198700
801.000000	88.030300
800.000000	88.093800
799.000000	87.907000
798.000000	87.871300
797.000000	87.722600
796.000000	87.511300
795.000000	87.461300
794.000000	87.302000
793.000000	87.174300
792.000000	87.076800
791.000000	86.937100
790.000000	86.797400
789.000000	86.758000
788.000000	86.582400
787.000000	86.379100
786.000000	86.341500
785.000000	86.226100
784.000000	86.163000
783.000000	86.042400
782.000000	85.872900
781.000000	85.841500
780.000000	85.923900
779.000000	85.881900
778.000000	85.650200
777.000000	85.536900
776.000000	85.502800
775.000000	85.332300
774.000000	85.272300
773.000000	85.268000
772.000000	85.211500
771.000000	85.063800
770.000000	84.878200
769.000000	84.791300
768.000000	84.774000
767.000000	84.644000
766.000000	84.532500
765.000000	84.460200
764.000000	84.380100
763.000000	84.201800
762.000000	84.047100
761.000000	83.873600
760.000000	83.525500
759.000000	83.284300
758.000000	83.075500
757.000000	82.756200
756.000000	82.444600
755.000000	82.056500
754.000000	81.698800
753.000000	81.343600
752.000000	80.940200
751.000000	80.500500
750.000000	80.029400
749.000000	79.571600
748.000000	79.131300
747.000000	78.699400
746.000000	78.303600
745.000000	77.916400
744.000000	77.548700
743.000000	77.216600
742.000000	76.812400
741.000000	76.422700
740.000000	76.099800
739.000000	75.716100
738.000000	75.334900
737.000000	74.972300
736.000000	74.601700
735.000000	74.222000
734.000000	73.872400
733.000000	73.441300
732.000000	73.005200
731.000000	72.581400
730.000000	72.211500
729.000000	71.823100
728.000000	71.421900
727.000000	71.102200
726.000000	70.833500
725.000000	70.601500
724.000000	70.328900
723.000000	70.114300
722.000000	69.975200
721.000000	69.848100
720.000000	69.712900
719.000000	69.613400
718.000000	69.558800
717.000000	69.499100
716.000000	69.420300
715.000000	69.383900
714.000000	69.334900
713.000000	69.232400
712.000000	69.122400
711.000000	68.958300
710.000000	68.798000
709.000000	68.671900
708.000000	68.485400
707.000000	68.414100
706.000000	68.330900
705.000000	68.213500
704.000000	68.175500
703.000000	68.078700
702.000000	68.138500
701.000000	68.194600
700.000000	68.246800
699.000000	68.309700
698.000000	68.401100
697.000000	68.505800
696.000000	68.603500
695.000000	68.735700
694.000000	68.784500
693.000000	68.790300
692.000000	68.758700
691.000000	68.674600
690.000000	68.472000
689.000000	68.244800
688.000000	68.004800
687.000000	67.754700
686.000000	67.406400
685.000000	67.102300
684.000000	66.803700
683.000000	66.547200
682.000000	66.355400
681.000000	66.199200
680.000000	66.036400
679.000000	65.955000
678.000000	65.814400
677.000000	65.723500
676.000000	65.614100
675.000000	65.516200
674.000000	65.304500
673.000000	65.008500
672.000000	64.581900
671.000000	64.068000
670.000000	63.453300
669.000000	62.748600
668.000000	61.925200
667.000000	61.079600
666.000000	60.241700
665.000000	59.340800
664.000000	58.474500
663.000000	57.665500
662.000000	56.948500
661.000000	56.326200
660.000000	55.746700
659.000000	55.228000
658.000000	54.832700
657.000000	54.443300
656.000000	54.089600
655.000000	53.729900
654.000000	53.355800
653.000000	52.965900
652.000000	52.563800
651.000000	52.117000
650.000000	51.615500
649.000000	51.120800
648.000000	50.678700
647.000000	50.288800
646.000000	49.989800
645.000000	49.799800
644.000000	49.769100
643.000000	49.962000
642.000000	50.310100
641.000000	50.867800
640.000000	51.594800
639.000000	52.460700
638.000000	53.436100
637.000000	54.544800
636.000000	55.620200
635.000000	56.717100
634.000000	57.794100
633.000000	58.793700
632.000000	59.835200
631.000000	60.656700
630.000000	61.408500
629.000000	62.164200
628.000000	62.849300
627.000000	63.524000
626.000000	64.214400
625.000000	64.975000
624.000000	65.771900
623.000000	66.653300
622.000000	67.668500
621.000000	68.746000
620.000000	69.899000
619.000000	70.986600
618.000000	72.113300
617.000000	73.182500
616.000000	74.265700
615.000000	75.255900
614.000000	76.152400
613.000000	76.990600
612.000000	77.703400
611.000000	78.427200
610.000000	78.968800
609.000000	79.540300
608.000000	80.033000
607.000000	80.525300
606.000000	81.003000
605.000000	81.448000
604.000000	81.925200
603.000000	82.415600
602.000000	82.865500
601.000000	83.322300
600.000000	83.787500
599.000000	84.217900
598.000000	84.689100
597.000000	85.080600
596.000000	85.444500
595.000000	85.778500
594.000000	86.061700
593.000000	86.329200
592.000000	86.514600
591.000000	86.748100
590.000000	86.942900
589.000000	87.057200
588.000000	87.144300
587.000000	87.264200
586.000000	87.288200
585.000000	87.333100
584.000000	87.358700
583.000000	87.359200
582.000000	87.372000
581.000000	87.300400
580.000000	87.258000
579.000000	87.245200
578.000000	87.123800
577.000000	87.098400
576.000000	87.030400
575.000000	86.917700
574.000000	86.834700
573.000000	86.730300
572.000000	86.592400
571.000000	86.496400
570.000000	86.388700
569.000000	86.246600
568.000000	86.069400
567.000000	85.889400
566.000000	85.657600
565.000000	85.471700
564.000000	85.193400
563.000000	84.915700
562.000000	84.647100
561.000000	84.337100
560.000000	83.999000
559.000000	83.571500
558.000000	83.184200
557.000000	82.763900
556.000000	82.321400
555.000000	81.874400
554.000000	81.355400
553.000000	80.786400
552.000000	80.234000
551.000000	79.629500
550.000000	79.021700
549.000000	78.403400
548.000000	77.741400
547.000000	77.036000
546.000000	76.337100
545.000000	75.602400
544.000000	74.818500
543.000000	74.068800
542.000000	73.244800
541.000000	72.375800
540.000000	71.453000
539.000000	70.560600
538.000000	69.601100
537.000000	68.651300
536.000000	67.640700
535.000000	66.614000
534.000000	65.468000
533.000000	64.335600
532.000000	63.194300
531.000000	62.014200
530.000000	60.811400
529.000000	59.585600
528.000000	58.327300
527.000000	57.075600
526.000000	55.841400
525.000000	54.514300
524.000000	53.144100
523.000000	51.754300
522.000000	50.400300
521.000000	49.017900
520.000000	47.620900
519.000000	46.234000
518.000000	44.855600
517.000000	43.497900
516.000000	42.116700
515.000000	40.765500
514.000000	39.438500
513.000000	38.124700
512.000000	36.870200
511.000000	35.673400
510.000000	34.561900
509.000000	33.551200
508.000000	32.649800
507.000000	31.877200
506.000000	31.231100
505.000000	30.710800
504.000000	30.303000
503.000000	30.027600
502.000000	29.890800
501.000000	29.827200
500.000000	29.820200
499.000000	29.879600
498.000000	29.984000
497.000000	30.081800
496.000000	30.187400
495.000000	30.324000
494.000000	30.458000
493.000000	30.561600
492.000000	30.660300
491.000000	30.741700
490.000000	30.791500
489.000000	30.831900
488.000000	30.850900
487.000000	30.852900
486.000000	30.837600
485.000000	30.799100
484.000000	30.742500
483.000000	30.657200
482.000000	30.536100
481.000000	30.405500
480.000000	30.260300
479.000000	30.102300
478.000000	29.944700
477.000000	29.775100
476.000000	29.603400
475.000000	29.416700
474.000000	29.241700
473.000000	29.068100
472.000000	28.869300
471.000000	28.675800
470.000000	28.478800
469.000000	28.265600
468.000000	28.072300
467.000000	27.878500
466.000000	27.678700
465.000000	27.471500
464.000000	27.259200
463.000000	27.043900
462.000000	26.834600
461.000000	26.621600
460.000000	26.405800
459.000000	26.179700
458.000000	25.928600
457.000000	25.678900
456.000000	25.416100
455.000000	25.139600
454.000000	24.842900
453.000000	24.558500
452.000000	24.243600
451.000000	23.912400
450.000000	23.570300
449.000000	23.195600
448.000000	22.800300
447.000000	22.403300
446.000000	22.008800
445.000000	21.586300
444.000000	21.107300
443.000000	20.623800
442.000000	20.137300
441.000000	19.621200
440.000000	19.096600
439.000000	18.557200
438.000000	18.012800
437.000000	17.480200
436.000000	16.921400
435.000000	16.350900
434.000000	15.804700
433.000000	15.259500
432.000000	14.712900
431.000000	14.174800
430.000000	13.642400
429.000000	13.125900
428.000000	12.639800
427.000000	12.179500
426.000000	11.736700
425.000000	11.311900
424.000000	10.900700
423.000000	10.514000
422.000000	10.158800
421.000000	9.832600
420.000000	9.534300
419.000000	9.259100
418.000000	8.990900
417.000000	8.753100
416.000000	8.534800
415.000000	8.332500
414.000000	8.149900
413.000000	7.992700
412.000000	7.848600
411.000000	7.715600
410.000000	7.590000
409.000000	7.476800
408.000000	7.383500
407.000000	7.302000
406.000000	7.237800
405.000000	7.155400
404.000000	7.090700
403.000000	7.038900
402.000000	6.987100
401.000000	6.933400
400.000000	6.891200
399.000000	6.849500
398.000000	6.813200
397.000000	6.785000
396.000000	6.748000
395.000000	6.711900
394.000000	6.678900
393.000000	6.667200
392.000000	6.635100
391.000000	6.607200
390.000000	6.580800
389.000000	6.555100
388.000000	6.525700
387.000000	6.494100
386.000000	6.472900
385.000000	6.453800
384.000000	6.435500
383.000000	6.395100
382.000000	6.370400
381.000000	6.358600
380.000000	6.328800
379.000000	6.305900
378.000000	6.291500
377.000000	6.279600
376.000000	6.228300
375.000000	6.188800
374.000000	6.187600
373.000000	6.222900
372.000000	6.198800
371.000000	6.176200
370.000000	6.153900
369.000000	6.094700
368.000000	6.133900
367.000000	6.101600
366.000000	6.089300
365.000000	6.102400
364.000000	6.070100
363.000000	6.016400
362.000000	5.988600
361.000000	5.990500
360.000000	5.987500
359.000000	5.982100
358.000000	5.955500
357.000000	5.901100
356.000000	5.870200
355.000000	5.894300
354.000000	5.852100
353.000000	5.862300
352.000000	5.808600
351.000000	5.813300
350.000000	5.780300
349.000000	5.763200
348.000000	5.774900
347.000000	5.755900
346.000000	5.815500
345.000000	5.786200
344.000000	5.728200
343.000000	5.711700
342.000000	5.724800
341.000000	5.717100
340.000000	5.745400
339.000000	5.777300
338.000000	5.768800
337.000000	5.768300
336.000000	5.819300
335.000000	5.806900
334.000000	5.761700
333.000000	5.702600
332.000000	5.768600
331.000000	5.718000
330.000000	5.715600
329.000000	5.781800
328.000000	5.765300
327.000000	5.744200
326.000000	5.689900
325.000000	5.715700
324.000000	5.791000
323.000000	5.692300
322.000000	5.711800
321.000000	5.709600
320.000000	5.740500
319.000000	5.809100
318.000000	5.681000
317.000000	5.759500
316.000000	5.728000
315.000000	5.736000
314.000000	5.729400
313.000000	5.771200
312.000000	5.753600
311.000000	5.757400
310.000000	5.753200
309.000000	5.825100
308.000000	5.769900
307.000000	5.743300
306.000000	5.728400
305.000000	5.775100
304.000000	5.729600
303.000000	5.785500
302.000000	5.701300
301.000000	5.785200
300.000000	5.733000
299.000000	5.767100
298.000000	5.749400
297.000000	5.785300
296.000000	5.721200
295.000000	5.750100
294.000000	5.799400
293.000000	5.769000
292.000000	5.778800
291.000000	5.719000
290.000000	5.744600
289.000000	5.755100
288.000000	5.731400
287.000000	5.731500
286.000000	5.732100
285.000000	5.772000
284.000000	5.761700
283.000000	5.777700
282.000000	5.816600
281.000000	5.784100
280.000000	5.797100
279.000000	5.816600
278.000000	5.852000
277.000000	5.862400
276.000000	5.846300
275.000000	5.868800
274.000000	5.917600
273.000000	5.903300
272.000000	5.909100
271.000000	5.951100
270.000000	5.979000
269.000000	5.948400
268.000000	6.013200
267.000000	6.065200
266.000000	6.052000
265.000000	6.134500
264.000000	6.122000
263.000000	6.141200
262.000000	6.187500
261.000000	6.209900
260.000000	6.162200
259.000000	6.240600
258.000000	6.281300
257.000000	6.285700
256.000000	6.329800
255.000000	6.326300
254.000000	6.308300
253.000000	6.319400
252.000000	6.351100
251.000000	6.383200
250.000000	6.372700
