PE UV       SUBTECH     SPECTRUM    ASCII       PEDS        4.00        
   -1
CICIMAUCR0108-3.Sample.ASC
24/04/22
10:06:33.00
24/04/22
10:06:33.00
Vinicio Soto Monge
C. resplendens
250,000000
1
Lambda 1050
1050L1511233
PerkinElmer UV WinLab 6.3.2.0749 / 2.02.05 Lambda 900 UV/VIS/NIR, Aug  7 2015 09:38:08

0
0
3350/servo 860,8/2
0
0
UV/VIS
1
1
1
DoubleDePol,CommonBeamDepol,RBeamAtt,SBeamAtt,60mm sphere, WB InGaAs Detector
0
0
0
0
Program
Program
3350/servo 860,8/2
3350/0,2 860,8/0,2
3350/0,2 860,8/0,2
0
15.00
 
 
 
0
 
860,8
319,2
860,8
Front
100
on
S:100 R:100
0
0
0
0
 
0
 
 
 
0
 
 
0
0
0
0
0
 
 
 
 
0
0


0
0
#HDR
-1
-1
#GR
nm
%R
1.0
0.0
2500,000000
-1,000000
2251
8
82,967800
5,292400
#DATA
2500.000000	17.094400
2499.000000	16.940800
2498.000000	17.007300
2497.000000	16.984900
2496.000000	16.899000
2495.000000	16.874300
2494.000000	16.838500
2493.000000	16.860000
2492.000000	16.873100
2491.000000	16.807100
2490.000000	16.826300
2489.000000	16.843300
2488.000000	16.903500
2487.000000	16.761500
2486.000000	16.825700
2485.000000	16.878500
2484.000000	16.838500
2483.000000	16.915900
2482.000000	16.927000
2481.000000	16.838100
2480.000000	16.899700
2479.000000	16.911500
2478.000000	16.969000
2477.000000	16.940700
2476.000000	16.987100
2475.000000	17.067700
2474.000000	17.030800
2473.000000	17.110100
2472.000000	17.133900
2471.000000	17.173700
2470.000000	17.199500
2469.000000	17.245700
2468.000000	17.298100
2467.000000	17.347400
2466.000000	17.410600
2465.000000	17.466700
2464.000000	17.541800
2463.000000	17.584300
2462.000000	17.670900
2461.000000	17.703800
2460.000000	17.795800
2459.000000	17.885600
2458.000000	17.977900
2457.000000	18.050400
2456.000000	18.137800
2455.000000	18.228300
2454.000000	18.316100
2453.000000	18.420200
2452.000000	18.545500
2451.000000	18.638800
2450.000000	18.749700
2449.000000	18.848300
2448.000000	18.963700
2447.000000	19.083000
2446.000000	19.215700
2445.000000	19.327600
2444.000000	19.438000
2443.000000	19.561300
2442.000000	19.678900
2441.000000	19.787300
2440.000000	19.913000
2439.000000	20.013400
2438.000000	20.128000
2437.000000	20.248500
2436.000000	20.373100
2435.000000	20.479300
2434.000000	20.595300
2433.000000	20.709100
2432.000000	20.800900
2431.000000	20.909500
2430.000000	21.000000
2429.000000	21.105800
2428.000000	21.207800
2427.000000	21.297700
2426.000000	21.387900
2425.000000	21.470200
2424.000000	21.542400
2423.000000	21.628200
2422.000000	21.688100
2421.000000	21.737900
2420.000000	21.809300
2419.000000	21.891300
2418.000000	21.955800
2417.000000	22.010400
2416.000000	22.074300
2415.000000	22.132300
2414.000000	22.181600
2413.000000	22.240500
2412.000000	22.283700
2411.000000	22.335300
2410.000000	22.360400
2409.000000	22.397600
2408.000000	22.426400
2407.000000	22.456200
2406.000000	22.490500
2405.000000	22.522700
2404.000000	22.552100
2403.000000	22.576200
2402.000000	22.593500
2401.000000	22.606900
2400.000000	22.631700
2399.000000	22.670600
2398.000000	22.685300
2397.000000	22.692600
2396.000000	22.708100
2395.000000	22.722300
2394.000000	22.729400
2393.000000	22.736300
2392.000000	22.753500
2391.000000	22.766800
2390.000000	22.756600
2389.000000	22.766200
2388.000000	22.776700
2387.000000	22.770100
2386.000000	22.761100
2385.000000	22.767100
2384.000000	22.769600
2383.000000	22.742700
2382.000000	22.736000
2381.000000	22.724100
2380.000000	22.698000
2379.000000	22.672900
2378.000000	22.653300
2377.000000	22.629400
2376.000000	22.610100
2375.000000	22.593300
2374.000000	22.564700
2373.000000	22.538800
2372.000000	22.521400
2371.000000	22.499400
2370.000000	22.467300
2369.000000	22.457000
2368.000000	22.453200
2367.000000	22.434000
2366.000000	22.406600
2365.000000	22.391600
2364.000000	22.378000
2363.000000	22.354300
2362.000000	22.344900
2361.000000	22.329500
2360.000000	22.296800
2359.000000	22.269600
2358.000000	22.257200
2357.000000	22.236100
2356.000000	22.204300
2355.000000	22.185300
2354.000000	22.166000
2353.000000	22.152700
2352.000000	22.116000
2351.000000	22.095100
2350.000000	22.085500
2349.000000	22.066500
2348.000000	22.034900
2347.000000	22.023200
2346.000000	22.022400
2345.000000	22.020200
2344.000000	22.004200
2343.000000	21.981300
2342.000000	21.983700
2341.000000	21.963900
2340.000000	21.949000
2339.000000	21.928000
2338.000000	21.927900
2337.000000	21.930500
2336.000000	21.926900
2335.000000	21.905500
2334.000000	21.902100
2333.000000	21.908400
2332.000000	21.900400
2331.000000	21.905400
2330.000000	21.922000
2329.000000	21.926100
2328.000000	21.928800
2327.000000	21.942500
2326.000000	21.936200
2325.000000	21.944200
2324.000000	21.933800
2323.000000	21.915100
2322.000000	21.914400
2321.000000	21.894600
2320.000000	21.876800
2319.000000	21.846300
2318.000000	21.796800
2317.000000	21.750800
2316.000000	21.694100
2315.000000	21.648900
2314.000000	21.602600
2313.000000	21.545800
2312.000000	21.482400
2311.000000	21.432500
2310.000000	21.380800
2309.000000	21.317100
2308.000000	21.260800
2307.000000	21.224500
2306.000000	21.184700
2305.000000	21.143500
2304.000000	21.112100
2303.000000	21.105200
2302.000000	21.102300
2301.000000	21.084400
2300.000000	21.095700
2299.000000	21.083400
2298.000000	21.089100
2297.000000	21.097900
2296.000000	21.116100
2295.000000	21.119000
2294.000000	21.148700
2293.000000	21.181900
2292.000000	21.200300
2291.000000	21.223000
2290.000000	21.243500
2289.000000	21.279200
2288.000000	21.323600
2287.000000	21.336200
2286.000000	21.360500
2285.000000	21.401400
2284.000000	21.431300
2283.000000	21.449200
2282.000000	21.487300
2281.000000	21.513100
2280.000000	21.527500
2279.000000	21.559400
2278.000000	21.574400
2277.000000	21.588700
2276.000000	21.620300
2275.000000	21.633500
2274.000000	21.640400
2273.000000	21.666000
2272.000000	21.688900
2271.000000	21.709700
2270.000000	21.739600
2269.000000	21.805500
2268.000000	21.850300
2267.000000	21.922100
2266.000000	21.998200
2265.000000	22.105200
2264.000000	22.175900
2263.000000	22.288200
2262.000000	22.429500
2261.000000	22.555600
2260.000000	22.715100
2259.000000	22.882600
2258.000000	23.060000
2257.000000	23.238500
2256.000000	23.395700
2255.000000	23.599000
2254.000000	23.807200
2253.000000	23.990500
2252.000000	24.172000
2251.000000	24.373400
2250.000000	24.545400
2249.000000	24.690800
2248.000000	24.854800
2247.000000	25.015700
2246.000000	25.148300
2245.000000	25.282100
2244.000000	25.391300
2243.000000	25.483700
2242.000000	25.573400
2241.000000	25.675500
2240.000000	25.745900
2239.000000	25.799700
2238.000000	25.848400
2237.000000	25.879400
2236.000000	25.915300
2235.000000	25.927600
2234.000000	25.921300
2233.000000	25.909500
2232.000000	25.887600
2231.000000	25.882900
2230.000000	25.849800
2229.000000	25.824000
2228.000000	25.764500
2227.000000	25.692200
2226.000000	25.626500
2225.000000	25.595900
2224.000000	25.518800
2223.000000	25.431300
2222.000000	25.353500
2221.000000	25.252100
2220.000000	25.159500
2219.000000	25.077100
2218.000000	24.980200
2217.000000	24.902300
2216.000000	24.814400
2215.000000	24.714500
2214.000000	24.641200
2213.000000	24.559200
2212.000000	24.460400
2211.000000	24.401500
2210.000000	24.325800
2209.000000	24.258200
2208.000000	24.187800
2207.000000	24.152800
2206.000000	24.095700
2205.000000	24.033000
2204.000000	23.970800
2203.000000	23.935500
2202.000000	23.870500
2201.000000	23.824000
2200.000000	23.795900
2199.000000	23.774900
2198.000000	23.711000
2197.000000	23.679500
2196.000000	23.629800
2195.000000	23.603200
2194.000000	23.590900
2193.000000	23.543000
2192.000000	23.539300
2191.000000	23.528200
2190.000000	23.486800
2189.000000	23.454600
2188.000000	23.429000
2187.000000	23.415900
2186.000000	23.403100
2185.000000	23.366100
2184.000000	23.336900
2183.000000	23.323400
2182.000000	23.291800
2181.000000	23.276400
2180.000000	23.255500
2179.000000	23.253400
2178.000000	23.238900
2177.000000	23.223100
2176.000000	23.210400
2175.000000	23.210600
2174.000000	23.211100
2173.000000	23.213600
2172.000000	23.242700
2171.000000	23.256500
2170.000000	23.279500
2169.000000	23.311100
2168.000000	23.338500
2167.000000	23.383500
2166.000000	23.399300
2165.000000	23.454900
2164.000000	23.497200
2163.000000	23.561600
2162.000000	23.630300
2161.000000	23.681700
2160.000000	23.755400
2159.000000	23.835400
2158.000000	23.917900
2157.000000	24.021000
2156.000000	24.126200
2155.000000	24.231300
2154.000000	24.333400
2153.000000	24.437500
2152.000000	24.556400
2151.000000	24.667600
2150.000000	24.784100
2149.000000	24.907200
2148.000000	25.023600
2147.000000	25.148800
2146.000000	25.259900
2145.000000	25.375800
2144.000000	25.477600
2143.000000	25.606400
2142.000000	25.742800
2141.000000	25.838400
2140.000000	25.931600
2139.000000	26.040000
2138.000000	26.145000
2137.000000	26.238500
2136.000000	26.328700
2135.000000	26.430100
2134.000000	26.517900
2133.000000	26.593000
2132.000000	26.672000
2131.000000	26.740800
2130.000000	26.806000
2129.000000	26.881500
2128.000000	26.956000
2127.000000	27.000700
2126.000000	27.050200
2125.000000	27.117400
2124.000000	27.167200
2123.000000	27.201500
2122.000000	27.240200
2121.000000	27.279600
2120.000000	27.308000
2119.000000	27.322900
2118.000000	27.344300
2117.000000	27.366700
2116.000000	27.372300
2115.000000	27.387800
2114.000000	27.399700
2113.000000	27.410800
2112.000000	27.415700
2111.000000	27.411600
2110.000000	27.410100
2109.000000	27.411800
2108.000000	27.413700
2107.000000	27.399800
2106.000000	27.383200
2105.000000	27.384700
2104.000000	27.376800
2103.000000	27.364100
2102.000000	27.361400
2101.000000	27.356600
2100.000000	27.348000
2099.000000	27.337100
2098.000000	27.330400
2097.000000	27.335100
2096.000000	27.335400
2095.000000	27.330400
2094.000000	27.332100
2093.000000	27.347300
2092.000000	27.369100
2091.000000	27.382000
2090.000000	27.392500
2089.000000	27.389400
2088.000000	27.382000
2087.000000	27.378300
2086.000000	27.358600
2085.000000	27.343600
2084.000000	27.319500
2083.000000	27.290400
2082.000000	27.244000
2081.000000	27.202700
2080.000000	27.149100
2079.000000	27.088800
2078.000000	27.027700
2077.000000	26.935300
2076.000000	26.841000
2075.000000	26.744400
2074.000000	26.653700
2073.000000	26.544700
2072.000000	26.413700
2071.000000	26.304300
2070.000000	26.170500
2069.000000	26.044000
2068.000000	25.917800
2067.000000	25.777100
2066.000000	25.654800
2065.000000	25.513100
2064.000000	25.392400
2063.000000	25.270700
2062.000000	25.151800
2061.000000	25.046200
2060.000000	24.937100
2059.000000	24.842600
2058.000000	24.763700
2057.000000	24.702400
2056.000000	24.675200
2055.000000	24.650600
2054.000000	24.654900
2053.000000	24.686300
2052.000000	24.722500
2051.000000	24.797400
2050.000000	24.898800
2049.000000	24.994500
2048.000000	25.119700
2047.000000	25.263800
2046.000000	25.421400
2045.000000	25.587300
2044.000000	25.759200
2043.000000	25.922200
2042.000000	26.085500
2041.000000	26.276500
2040.000000	26.442500
2039.000000	26.595200
2038.000000	26.766600
2037.000000	26.914100
2036.000000	27.057700
2035.000000	27.208900
2034.000000	27.339100
2033.000000	27.461400
2032.000000	27.590500
2031.000000	27.706300
2030.000000	27.800200
2029.000000	27.895400
2028.000000	28.008600
2027.000000	28.109200
2026.000000	28.203400
2025.000000	28.279200
2024.000000	28.350100
2023.000000	28.432800
2022.000000	28.487100
2021.000000	28.555500
2020.000000	28.615200
2019.000000	28.664700
2018.000000	28.720300
2017.000000	28.743900
2016.000000	28.786200
2015.000000	28.820700
2014.000000	28.838700
2013.000000	28.877100
2012.000000	28.872400
2011.000000	28.876900
2010.000000	28.880900
2009.000000	28.882500
2008.000000	28.865400
2007.000000	28.838200
2006.000000	28.822700
2005.000000	28.790700
2004.000000	28.754200
2003.000000	28.709100
2002.000000	28.652700
2001.000000	28.590400
2000.000000	28.525800
1999.000000	28.462800
1998.000000	28.382400
1997.000000	28.313500
1996.000000	28.245400
1995.000000	28.140000
1994.000000	28.047700
1993.000000	27.980500
1992.000000	27.887400
1991.000000	27.784200
1990.000000	27.665800
1989.000000	27.569800
1988.000000	27.481800
1987.000000	27.359200
1986.000000	27.274600
1985.000000	27.156800
1984.000000	27.047400
1983.000000	26.944800
1982.000000	26.826200
1981.000000	26.732200
1980.000000	26.608300
1979.000000	26.507400
1978.000000	26.393400
1977.000000	26.294300
1976.000000	26.192700
1975.000000	26.104400
1974.000000	25.990800
1973.000000	25.902100
1972.000000	25.792800
1971.000000	25.697000
1970.000000	25.610200
1969.000000	25.516100
1968.000000	25.405500
1967.000000	25.325600
1966.000000	25.246300
1965.000000	25.149800
1964.000000	25.061400
1963.000000	24.951500
1962.000000	24.853000
1961.000000	24.721900
1960.000000	24.651100
1959.000000	24.550300
1958.000000	24.445600
1957.000000	24.342900
1956.000000	24.234800
1955.000000	24.152600
1954.000000	24.040700
1953.000000	23.927600
1952.000000	23.841000
1951.000000	23.747500
1950.000000	23.674800
1949.000000	23.576300
1948.000000	23.510800
1947.000000	23.408100
1946.000000	23.347700
1945.000000	23.291000
1944.000000	23.231800
1943.000000	23.198800
1942.000000	23.149800
1941.000000	23.117800
1940.000000	23.102700
1939.000000	23.071400
1938.000000	23.058000
1937.000000	23.047900
1936.000000	23.029900
1935.000000	23.062000
1934.000000	23.084700
1933.000000	23.148500
1932.000000	23.220500
1931.000000	23.291200
1930.000000	23.353700
1929.000000	23.440800
1928.000000	23.539500
1927.000000	23.637400
1926.000000	23.755700
1925.000000	23.893000
1924.000000	24.040100
1923.000000	24.209800
1922.000000	24.405200
1921.000000	24.612000
1920.000000	24.807900
1919.000000	24.981000
1918.000000	25.217100
1917.000000	25.465400
1916.000000	25.724800
1915.000000	26.006500
1914.000000	26.325400
1913.000000	26.654100
1912.000000	26.979500
1911.000000	27.301800
1910.000000	27.625600
1909.000000	27.984700
1908.000000	28.389400
1907.000000	28.839400
1906.000000	29.331300
1905.000000	29.823600
1904.000000	30.290800
1903.000000	30.791900
1902.000000	31.283100
1901.000000	31.846400
1900.000000	32.406000
1899.000000	32.987700
1898.000000	33.575200
1897.000000	34.099200
1896.000000	34.618600
1895.000000	35.169000
1894.000000	35.740000
1893.000000	36.339100
1892.000000	36.973700
1891.000000	37.561400
1890.000000	38.071300
1889.000000	38.602100
1888.000000	39.155700
1887.000000	39.666900
1886.000000	40.149200
1885.000000	40.621600
1884.000000	41.088800
1883.000000	41.491900
1882.000000	41.864500
1881.000000	42.240600
1880.000000	42.574200
1879.000000	42.923700
1878.000000	43.240600
1877.000000	43.549800
1876.000000	43.839000
1875.000000	44.114700
1874.000000	44.389300
1873.000000	44.627500
1872.000000	44.837400
1871.000000	45.008700
1870.000000	45.122400
1869.000000	45.262900
1868.000000	45.353100
1867.000000	45.410000
1866.000000	45.465700
1865.000000	45.550000
1864.000000	45.652900
1863.000000	45.774000
1862.000000	45.880500
1861.000000	45.974900
1860.000000	46.045500
1859.000000	46.090700
1858.000000	46.137600
1857.000000	46.185500
1856.000000	46.228800
1855.000000	46.270200
1854.000000	46.269900
1853.000000	46.259500
1852.000000	46.291000
1851.000000	46.354600
1850.000000	46.424700
1849.000000	46.457400
1848.000000	46.415200
1847.000000	46.300500
1846.000000	46.235800
1845.000000	46.255200
1844.000000	46.285000
1843.000000	46.358000
1842.000000	46.363700
1841.000000	46.290200
1840.000000	46.251500
1839.000000	46.218400
1838.000000	46.185400
1837.000000	46.138200
1836.000000	46.052700
1835.000000	45.960600
1834.000000	45.912400
1833.000000	45.896500
1832.000000	45.890600
1831.000000	45.872100
1830.000000	45.822900
1829.000000	45.776900
1828.000000	45.729400
1827.000000	45.682900
1826.000000	45.647500
1825.000000	45.629100
1824.000000	45.653400
1823.000000	45.750700
1822.000000	45.786600
1821.000000	45.739400
1820.000000	45.687300
1819.000000	45.648600
1818.000000	45.642100
1817.000000	45.647700
1816.000000	45.641300
1815.000000	45.617000
1814.000000	45.606000
1813.000000	45.587500
1812.000000	45.580000
1811.000000	45.535900
1810.000000	45.485400
1809.000000	45.481700
1808.000000	45.475900
1807.000000	45.455900
1806.000000	45.400700
1805.000000	45.356600
1804.000000	45.360500
1803.000000	45.368400
1802.000000	45.345600
1801.000000	45.303900
1800.000000	45.244300
1799.000000	45.230600
1798.000000	45.227300
1797.000000	45.197500
1796.000000	45.172800
1795.000000	45.162100
1794.000000	45.148600
1793.000000	45.121100
1792.000000	45.099200
1791.000000	45.087700
1790.000000	45.082400
1789.000000	45.070600
1788.000000	45.069700
1787.000000	45.075300
1786.000000	45.090500
1785.000000	45.067000
1784.000000	45.044500
1783.000000	45.020300
1782.000000	45.016700
1781.000000	45.002000
1780.000000	44.963500
1779.000000	44.926800
1778.000000	44.888400
1777.000000	44.834800
1776.000000	44.780100
1775.000000	44.717600
1774.000000	44.671600
1773.000000	44.627700
1772.000000	44.563700
1771.000000	44.515100
1770.000000	44.458700
1769.000000	44.403300
1768.000000	44.340600
1767.000000	44.294600
1766.000000	44.251900
1765.000000	44.216000
1764.000000	44.197900
1763.000000	44.174400
1762.000000	44.158000
1761.000000	44.132300
1760.000000	44.130400
1759.000000	44.127900
1758.000000	44.124200
1757.000000	44.104700
1756.000000	44.096700
1755.000000	44.081200
1754.000000	44.075800
1753.000000	44.066800
1752.000000	44.047200
1751.000000	43.998900
1750.000000	43.969500
1749.000000	43.908500
1748.000000	43.857100
1747.000000	43.789700
1746.000000	43.705100
1745.000000	43.637600
1744.000000	43.553900
1743.000000	43.472200
1742.000000	43.368100
1741.000000	43.261200
1740.000000	43.160000
1739.000000	43.083800
1738.000000	43.010400
1737.000000	42.947800
1736.000000	42.895700
1735.000000	42.845600
1734.000000	42.796800
1733.000000	42.749200
1732.000000	42.730300
1731.000000	42.697100
1730.000000	42.649100
1729.000000	42.633700
1728.000000	42.615900
1727.000000	42.585700
1726.000000	42.572300
1725.000000	42.557600
1724.000000	42.597800
1723.000000	42.671100
1722.000000	42.771100
1721.000000	42.908300
1720.000000	43.094600
1719.000000	43.281200
1718.000000	43.497100
1717.000000	43.715500
1716.000000	43.924100
1715.000000	44.145500
1714.000000	44.333600
1713.000000	44.497900
1712.000000	44.648800
1711.000000	44.779500
1710.000000	44.883300
1709.000000	44.973400
1708.000000	45.073600
1707.000000	45.143600
1706.000000	45.173300
1705.000000	45.215600
1704.000000	45.236600
1703.000000	45.229500
1702.000000	45.252800
1701.000000	45.236800
1700.000000	45.220300
1699.000000	45.205700
1698.000000	45.195100
1697.000000	45.162300
1696.000000	45.140000
1695.000000	45.092900
1694.000000	45.013600
1693.000000	44.976900
1692.000000	44.909900
1691.000000	44.841900
1690.000000	44.811800
1689.000000	44.803200
1688.000000	44.847500
1687.000000	44.936400
1686.000000	45.075400
1685.000000	45.261900
1684.000000	45.485000
1683.000000	45.713200
1682.000000	45.963900
1681.000000	46.216300
1680.000000	46.433600
1679.000000	46.661700
1678.000000	46.882800
1677.000000	47.065300
1676.000000	47.275200
1675.000000	47.456500
1674.000000	47.610100
1673.000000	47.804000
1672.000000	47.979600
1671.000000	48.157600
1670.000000	48.349600
1669.000000	48.522900
1668.000000	48.691000
1667.000000	48.854000
1666.000000	49.016100
1665.000000	49.162400
1664.000000	49.308800
1663.000000	49.453800
1662.000000	49.558300
1661.000000	49.661800
1660.000000	49.774400
1659.000000	49.869400
1658.000000	49.949300
1657.000000	50.038500
1656.000000	50.086100
1655.000000	50.120700
1654.000000	50.171000
1653.000000	50.215200
1652.000000	50.244500
1651.000000	50.245600
1650.000000	50.258300
1649.000000	50.277500
1648.000000	50.266000
1647.000000	50.268100
1646.000000	50.252200
1645.000000	50.249300
1644.000000	50.245700
1643.000000	50.231800
1642.000000	50.220200
1641.000000	50.230900
1640.000000	50.218900
1639.000000	50.182600
1638.000000	50.179300
1637.000000	50.184200
1636.000000	50.145400
1635.000000	50.118200
1634.000000	50.101600
1633.000000	50.068200
1632.000000	50.037000
1631.000000	49.996800
1630.000000	49.945600
1629.000000	49.911600
1628.000000	49.868400
1627.000000	49.836300
1626.000000	49.788500
1625.000000	49.736900
1624.000000	49.707900
1623.000000	49.676600
1622.000000	49.629200
1621.000000	49.615600
1620.000000	49.589900
1619.000000	49.555600
1618.000000	49.522700
1617.000000	49.483600
1616.000000	49.452900
1615.000000	49.429500
1614.000000	49.392100
1613.000000	49.351600
1612.000000	49.295800
1611.000000	49.254300
1610.000000	49.206400
1609.000000	49.142700
1608.000000	49.086000
1607.000000	49.020700
1606.000000	48.950700
1605.000000	48.879000
1604.000000	48.796500
1603.000000	48.725600
1602.000000	48.666500
1601.000000	48.603000
1600.000000	48.530600
1599.000000	48.455700
1598.000000	48.387200
1597.000000	48.330700
1596.000000	48.264600
1595.000000	48.204000
1594.000000	48.153300
1593.000000	48.099200
1592.000000	48.052200
1591.000000	48.009800
1590.000000	47.970900
1589.000000	47.923800
1588.000000	47.870500
1587.000000	47.812700
1586.000000	47.765500
1585.000000	47.737700
1584.000000	47.698000
1583.000000	47.652100
1582.000000	47.613300
1581.000000	47.578400
1580.000000	47.547400
1579.000000	47.523500
1578.000000	47.510600
1577.000000	47.497100
1576.000000	47.492500
1575.000000	47.490700
1574.000000	47.488000
1573.000000	47.481800
1572.000000	47.494400
1571.000000	47.515900
1570.000000	47.524400
1569.000000	47.538400
1568.000000	47.568900
1567.000000	47.591700
1566.000000	47.601700
1565.000000	47.612600
1564.000000	47.625100
1563.000000	47.644500
1562.000000	47.651700
1561.000000	47.636100
1560.000000	47.601900
1559.000000	47.572800
1558.000000	47.551600
1557.000000	47.509000
1556.000000	47.454900
1555.000000	47.404300
1554.000000	47.339200
1553.000000	47.255500
1552.000000	47.168900
1551.000000	47.095100
1550.000000	47.017700
1549.000000	46.934800
1548.000000	46.854600
1547.000000	46.768600
1546.000000	46.700100
1545.000000	46.643400
1544.000000	46.581000
1543.000000	46.531100
1542.000000	46.493100
1541.000000	46.458300
1540.000000	46.420600
1539.000000	46.374900
1538.000000	46.355300
1537.000000	46.328800
1536.000000	46.277400
1535.000000	46.238600
1534.000000	46.191800
1533.000000	46.133000
1532.000000	46.077900
1531.000000	46.030600
1530.000000	45.980000
1529.000000	45.930400
1528.000000	45.868500
1527.000000	45.808400
1526.000000	45.758600
1525.000000	45.703400
1524.000000	45.651100
1523.000000	45.575600
1522.000000	45.497700
1521.000000	45.452000
1520.000000	45.401700
1519.000000	45.336800
1518.000000	45.278700
1517.000000	45.210100
1516.000000	45.146100
1515.000000	45.073200
1514.000000	45.004700
1513.000000	44.950500
1512.000000	44.864900
1511.000000	44.809700
1510.000000	44.746000
1509.000000	44.681900
1508.000000	44.607600
1507.000000	44.527300
1506.000000	44.459500
1505.000000	44.405200
1504.000000	44.360300
1503.000000	44.308900
1502.000000	44.249200
1501.000000	44.228900
1500.000000	44.190500
1499.000000	44.158400
1498.000000	44.136200
1497.000000	44.127100
1496.000000	44.126100
1495.000000	44.127900
1494.000000	44.134800
1493.000000	44.140900
1492.000000	44.172200
1491.000000	44.199800
1490.000000	44.233800
1489.000000	44.253900
1488.000000	44.287500
1487.000000	44.316200
1486.000000	44.343900
1485.000000	44.387100
1484.000000	44.419300
1483.000000	44.460300
1482.000000	44.512100
1481.000000	44.560700
1480.000000	44.588900
1479.000000	44.638500
1478.000000	44.675100
1477.000000	44.724500
1476.000000	44.769600
1475.000000	44.855600
1474.000000	44.916000
1473.000000	45.019000
1472.000000	45.087000
1471.000000	45.142700
1470.000000	45.211000
1469.000000	45.271500
1468.000000	45.373700
1467.000000	45.466100
1466.000000	45.520100
1465.000000	45.579000
1464.000000	45.666800
1463.000000	45.753000
1462.000000	45.844400
1461.000000	45.952300
1460.000000	46.033800
1459.000000	46.132400
1458.000000	46.217200
1457.000000	46.329000
1456.000000	46.436100
1455.000000	46.507100
1454.000000	46.594100
1453.000000	46.726300
1452.000000	46.842600
1451.000000	46.922200
1450.000000	47.001800
1449.000000	47.050200
1448.000000	47.194200
1447.000000	47.305000
1446.000000	47.408500
1445.000000	47.458500
1444.000000	47.523700
1443.000000	47.652200
1442.000000	47.756400
1441.000000	47.852100
1440.000000	47.978900
1439.000000	48.088500
1438.000000	48.206400
1437.000000	48.286100
1436.000000	48.403900
1435.000000	48.555700
1434.000000	48.675300
1433.000000	48.851700
1432.000000	48.979300
1431.000000	49.062000
1430.000000	49.266300
1429.000000	49.442200
1428.000000	49.593300
1427.000000	49.767000
1426.000000	50.004600
1425.000000	50.211100
1424.000000	50.415900
1423.000000	50.632100
1422.000000	50.824400
1421.000000	51.138800
1420.000000	51.410800
1419.000000	51.622100
1418.000000	51.776000
1417.000000	52.064100
1416.000000	52.429800
1415.000000	52.767700
1414.000000	53.023400
1413.000000	53.300900
1412.000000	53.591200
1411.000000	54.003100
1410.000000	54.418300
1409.000000	54.718800
1408.000000	55.063100
1407.000000	55.388600
1406.000000	55.752600
1405.000000	56.061400
1404.000000	56.408800
1403.000000	56.729300
1402.000000	57.160500
1401.000000	57.535600
1400.000000	57.752500
1399.000000	57.927900
1398.000000	58.206600
1397.000000	58.588900
1396.000000	58.929400
1395.000000	59.105300
1394.000000	59.296500
1393.000000	59.566000
1392.000000	59.787700
1391.000000	59.997900
1390.000000	60.249900
1389.000000	60.564000
1388.000000	60.832000
1387.000000	61.045300
1386.000000	61.307100
1385.000000	61.629100
1384.000000	61.801300
1383.000000	62.009800
1382.000000	62.127800
1381.000000	62.203200
1380.000000	62.247200
1379.000000	62.349700
1378.000000	62.431200
1377.000000	62.533200
1376.000000	62.611700
1375.000000	62.699100
1374.000000	62.845300
1373.000000	63.024100
1372.000000	63.120800
1371.000000	63.186400
1370.000000	63.288400
1369.000000	63.456600
1368.000000	63.517600
1367.000000	63.587500
1366.000000	63.702900
1365.000000	63.775200
1364.000000	63.833700
1363.000000	63.949800
1362.000000	64.036500
1361.000000	64.017500
1360.000000	63.968600
1359.000000	64.052100
1358.000000	64.114100
1357.000000	64.201200
1356.000000	64.304700
1355.000000	64.401200
1354.000000	64.472200
1353.000000	64.541500
1352.000000	64.721400
1351.000000	64.872200
1350.000000	65.009700
1349.000000	65.177700
1348.000000	65.331000
1347.000000	65.441400
1346.000000	65.551800
1345.000000	65.708400
1344.000000	65.839600
1343.000000	65.951700
1342.000000	66.063300
1341.000000	66.182400
1340.000000	66.287200
1339.000000	66.378400
1338.000000	66.478500
1337.000000	66.566100
1336.000000	66.653600
1335.000000	66.713100
1334.000000	66.792900
1333.000000	66.862000
1332.000000	66.925100
1331.000000	66.991800
1330.000000	67.051700
1329.000000	67.098600
1328.000000	67.131600
1327.000000	67.173300
1326.000000	67.227900
1325.000000	67.277900
1324.000000	67.312700
1323.000000	67.343500
1322.000000	67.375400
1321.000000	67.411800
1320.000000	67.447700
1319.000000	67.485800
1318.000000	67.517300
1317.000000	67.539400
1316.000000	67.569700
1315.000000	67.596900
1314.000000	67.619900
1313.000000	67.653200
1312.000000	67.672100
1311.000000	67.675900
1310.000000	67.696000
1309.000000	67.717500
1308.000000	67.726500
1307.000000	67.746000
1306.000000	67.755700
1305.000000	67.754400
1304.000000	67.741500
1303.000000	67.750300
1302.000000	67.774200
1301.000000	67.765800
1300.000000	67.763200
1299.000000	67.764800
1298.000000	67.756100
1297.000000	67.753200
1296.000000	67.730500
1295.000000	67.713300
1294.000000	67.714000
1293.000000	67.696300
1292.000000	67.680700
1291.000000	67.663400
1290.000000	67.641800
1289.000000	67.626100
1288.000000	67.610200
1287.000000	67.575800
1286.000000	67.537500
1285.000000	67.511700
1284.000000	67.486100
1283.000000	67.447200
1282.000000	67.409400
1281.000000	67.386300
1280.000000	67.367500
1279.000000	67.345000
1278.000000	67.322600
1277.000000	67.312600
1276.000000	67.296900
1275.000000	67.268500
1274.000000	67.266400
1273.000000	67.268300
1272.000000	67.258000
1271.000000	67.249000
1270.000000	67.251800
1269.000000	67.244700
1268.000000	67.228200
1267.000000	67.223900
1266.000000	67.223500
1265.000000	67.214000
1264.000000	67.210300
1263.000000	67.200400
1262.000000	67.193500
1261.000000	67.183200
1260.000000	67.161600
1259.000000	67.145800
1258.000000	67.139900
1257.000000	67.126800
1256.000000	67.108200
1255.000000	67.096100
1254.000000	67.055200
1253.000000	67.030900
1252.000000	66.997700
1251.000000	66.955600
1250.000000	66.914600
1249.000000	66.878100
1248.000000	66.837900
1247.000000	66.780400
1246.000000	66.723800
1245.000000	66.682900
1244.000000	66.630300
1243.000000	66.562100
1242.000000	66.519700
1241.000000	66.484800
1240.000000	66.421300
1239.000000	66.396200
1238.000000	66.352800
1237.000000	66.307700
1236.000000	66.277500
1235.000000	66.238700
1234.000000	66.200500
1233.000000	66.164600
1232.000000	66.127400
1231.000000	66.094000
1230.000000	66.051200
1229.000000	66.016700
1228.000000	65.984900
1227.000000	65.964500
1226.000000	65.917800
1225.000000	65.890900
1224.000000	65.866400
1223.000000	65.816900
1222.000000	65.765000
1221.000000	65.750200
1220.000000	65.708600
1219.000000	65.680400
1218.000000	65.649800
1217.000000	65.599500
1216.000000	65.563400
1215.000000	65.528200
1214.000000	65.478000
1213.000000	65.437700
1212.000000	65.382900
1211.000000	65.310400
1210.000000	65.272000
1209.000000	65.206200
1208.000000	65.135400
1207.000000	65.086900
1206.000000	65.007500
1205.000000	64.933300
1204.000000	64.894300
1203.000000	64.837600
1202.000000	64.754000
1201.000000	64.671300
1200.000000	64.610800
1199.000000	64.547000
1198.000000	64.470100
1197.000000	64.377900
1196.000000	64.317100
1195.000000	64.233000
1194.000000	64.143300
1193.000000	64.064700
1192.000000	63.948800
1191.000000	63.882600
1190.000000	63.804900
1189.000000	63.750200
1188.000000	63.706000
1187.000000	63.705600
1186.000000	63.689700
1185.000000	63.692100
1184.000000	63.707200
1183.000000	63.716600
1182.000000	63.769900
1181.000000	63.797500
1180.000000	63.852500
1179.000000	63.910000
1178.000000	63.955100
1177.000000	63.991600
1176.000000	64.031600
1175.000000	64.068300
1174.000000	64.131600
1173.000000	64.202800
1172.000000	64.241900
1171.000000	64.296500
1170.000000	64.385500
1169.000000	64.454700
1168.000000	64.542100
1167.000000	64.619400
1166.000000	64.709700
1165.000000	64.793200
1164.000000	64.889000
1163.000000	64.990600
1162.000000	65.083600
1161.000000	65.153200
1160.000000	65.236700
1159.000000	65.315000
1158.000000	65.399900
1157.000000	65.453100
1156.000000	65.505600
1155.000000	65.541500
1154.000000	65.590500
1153.000000	65.633000
1152.000000	65.635600
1151.000000	65.658000
1150.000000	65.678700
1149.000000	65.703600
1148.000000	65.730700
1147.000000	65.734600
1146.000000	65.763800
1145.000000	65.764700
1144.000000	65.767300
1143.000000	65.793200
1142.000000	65.836500
1141.000000	65.877800
1140.000000	65.896400
1139.000000	65.973400
1138.000000	66.031600
1137.000000	66.077400
1136.000000	66.180200
1135.000000	66.248700
1134.000000	66.247900
1133.000000	66.263000
1132.000000	66.290100
1131.000000	66.340400
1130.000000	66.402500
1129.000000	66.402600
1128.000000	66.414800
1127.000000	66.425800
1126.000000	66.459200
1125.000000	66.446300
1124.000000	66.454900
1123.000000	66.435000
1122.000000	66.393600
1121.000000	66.385400
1120.000000	66.360000
1119.000000	66.369100
1118.000000	66.326900
1117.000000	66.286400
1116.000000	66.247700
1115.000000	66.229300
1114.000000	66.198200
1113.000000	66.157300
1112.000000	66.130600
1111.000000	66.089500
1110.000000	66.062200
1109.000000	66.042600
1108.000000	66.014200
1107.000000	65.965500
1106.000000	65.937900
1105.000000	65.904200
1104.000000	65.863400
1103.000000	65.837900
1102.000000	65.809800
1101.000000	65.771000
1100.000000	65.735000
1099.000000	65.683900
1098.000000	65.653200
1097.000000	65.615800
1096.000000	65.566100
1095.000000	65.526000
1094.000000	65.491500
1093.000000	65.457100
1092.000000	65.392900
1091.000000	65.339000
1090.000000	65.290800
1089.000000	65.263200
1088.000000	65.225900
1087.000000	65.161600
1086.000000	65.098000
1085.000000	65.040000
1084.000000	64.986100
1083.000000	64.935000
1082.000000	64.869700
1081.000000	64.808500
1080.000000	64.755900
1079.000000	64.695100
1078.000000	64.619200
1077.000000	64.541500
1076.000000	64.486700
1075.000000	64.426000
1074.000000	64.356300
1073.000000	64.286200
1072.000000	64.220400
1071.000000	64.161000
1070.000000	64.091800
1069.000000	64.036200
1068.000000	63.960800
1067.000000	63.883800
1066.000000	63.820600
1065.000000	63.747700
1064.000000	63.687600
1063.000000	63.614600
1062.000000	63.547800
1061.000000	63.489200
1060.000000	63.423200
1059.000000	63.365400
1058.000000	63.295200
1057.000000	63.241200
1056.000000	63.181500
1055.000000	63.128500
1054.000000	63.076200
1053.000000	63.013300
1052.000000	62.972900
1051.000000	62.927200
1050.000000	62.878400
1049.000000	62.839800
1048.000000	62.808200
1047.000000	62.771200
1046.000000	62.716600
1045.000000	62.683400
1044.000000	62.655600
1043.000000	62.614000
1042.000000	62.577200
1041.000000	62.541100
1040.000000	62.516400
1039.000000	62.488500
1038.000000	62.452700
1037.000000	62.426000
1036.000000	62.408800
1035.000000	62.373500
1034.000000	62.327600
1033.000000	62.303300
1032.000000	62.271600
1031.000000	62.237200
1030.000000	62.208400
1029.000000	62.166800
1028.000000	62.123300
1027.000000	62.083400
1026.000000	62.053300
1025.000000	62.015600
1024.000000	61.966900
1023.000000	61.931000
1022.000000	61.898100
1021.000000	61.856200
1020.000000	61.814400
1019.000000	61.774300
1018.000000	61.725400
1017.000000	61.685100
1016.000000	61.648600
1015.000000	61.606500
1014.000000	61.560100
1013.000000	61.521200
1012.000000	61.472900
1011.000000	61.425000
1010.000000	61.401000
1009.000000	61.359600
1008.000000	61.303000
1007.000000	61.269600
1006.000000	61.234200
1005.000000	61.195200
1004.000000	61.155700
1003.000000	61.124600
1002.000000	61.102800
1001.000000	61.064600
1000.000000	61.039200
999.000000	61.018600
998.000000	60.998000
997.000000	60.983800
996.000000	60.970000
995.000000	60.960900
994.000000	60.947000
993.000000	60.945700
992.000000	60.947400
991.000000	60.942600
990.000000	60.964500
989.000000	61.000400
988.000000	61.025000
987.000000	61.033300
986.000000	61.051500
985.000000	61.092000
984.000000	61.131900
983.000000	61.166000
982.000000	61.221300
981.000000	61.255700
980.000000	61.308300
979.000000	61.358300
978.000000	61.416500
977.000000	61.488000
976.000000	61.548300
975.000000	61.608600
974.000000	61.673700
973.000000	61.743300
972.000000	61.821800
971.000000	61.888500
970.000000	61.962500
969.000000	62.037000
968.000000	62.109400
967.000000	62.191600
966.000000	62.262700
965.000000	62.341200
964.000000	62.419300
963.000000	62.503700
962.000000	62.575800
961.000000	62.646600
960.000000	62.726400
959.000000	62.809600
958.000000	62.884600
957.000000	62.960600
956.000000	63.028800
955.000000	63.105700
954.000000	63.172900
953.000000	63.241700
952.000000	63.314400
951.000000	63.404800
950.000000	63.488700
949.000000	63.567400
948.000000	63.627300
947.000000	63.715100
946.000000	63.785700
945.000000	63.862900
944.000000	63.946400
943.000000	64.022700
942.000000	64.107000
941.000000	64.198500
940.000000	64.262500
939.000000	64.364800
938.000000	64.447400
937.000000	64.529400
936.000000	64.627000
935.000000	64.715600
934.000000	64.826500
933.000000	64.937900
932.000000	65.041600
931.000000	65.136700
930.000000	65.229400
929.000000	65.354700
928.000000	65.466200
927.000000	65.590800
926.000000	65.733400
925.000000	65.868900
924.000000	66.008000
923.000000	66.172200
922.000000	66.338200
921.000000	66.505100
920.000000	66.664600
919.000000	66.836000
918.000000	67.027800
917.000000	67.213200
916.000000	67.403700
915.000000	67.566900
914.000000	67.747700
913.000000	67.962200
912.000000	68.156600
911.000000	68.343900
910.000000	68.534900
909.000000	68.734400
908.000000	68.926500
907.000000	69.113400
906.000000	69.319400
905.000000	69.528000
904.000000	69.724900
903.000000	69.902700
902.000000	70.090100
901.000000	70.302400
900.000000	70.476700
899.000000	70.655500
898.000000	70.833300
897.000000	71.001900
896.000000	71.190500
895.000000	71.347200
894.000000	71.503000
893.000000	71.669400
892.000000	71.840800
891.000000	71.982500
890.000000	72.120600
889.000000	72.278800
888.000000	72.422100
887.000000	72.567000
886.000000	72.721400
885.000000	72.878100
884.000000	73.018900
883.000000	73.146800
882.000000	73.291400
881.000000	73.438100
880.000000	73.564400
879.000000	73.714200
878.000000	73.853000
877.000000	73.987900
876.000000	74.139100
875.000000	74.260200
874.000000	74.383400
873.000000	74.504300
872.000000	74.612300
871.000000	74.766800
870.000000	74.893300
869.000000	74.999500
868.000000	75.114200
867.000000	75.208200
866.000000	75.339900
865.000000	75.390200
864.000000	75.424900
863.000000	75.507400
862.000000	75.481400
861.000000	75.451300
860.000000	75.408900
859.000000	75.432400
858.000000	75.654900
857.000000	75.462800
856.000000	75.456482
855.000000	75.887520
854.000000	75.699348
853.000000	76.180835
852.000000	76.043803
851.000000	76.115972
850.000000	76.538915
849.000000	76.535361
848.000000	76.753545
847.000000	77.081415
846.000000	77.130679
845.000000	76.794418
844.000000	77.129396
843.000000	77.230788
842.000000	77.184979
841.000000	77.169775
840.000000	77.398523
839.000000	77.553523
838.000000	77.723826
837.000000	77.742090
836.000000	77.919304
835.000000	78.092469
834.000000	78.157727
833.000000	78.060186
832.000000	78.410664
831.000000	78.484412
830.000000	78.314801
829.000000	78.353008
828.000000	78.678606
827.000000	78.857202
826.000000	78.701215
825.000000	78.598145
824.000000	78.915450
823.000000	78.835186
822.000000	78.853746
821.000000	78.896297
820.000000	78.932629
819.000000	78.826399
818.000000	78.872603
817.000000	79.039253
816.000000	78.752552
815.000000	78.728068
814.000000	78.838049
813.000000	78.845947
812.000000	78.705559
811.000000	78.568922
810.000000	78.536638
809.000000	78.327240
808.000000	78.182507
807.000000	78.030864
806.000000	77.858587
805.000000	77.733698
804.000000	77.662418
803.000000	77.468718
802.000000	77.342743
801.000000	77.126039
800.000000	77.016256
799.000000	76.940039
798.000000	76.777832
797.000000	76.680291
796.000000	76.577714
795.000000	76.355186
794.000000	76.349854
793.000000	76.283214
792.000000	76.233259
791.000000	76.116762
790.000000	76.065326
789.000000	76.045383
788.000000	75.965415
787.000000	75.890877
786.000000	75.865306
785.000000	75.921877
784.000000	75.826902
783.000000	75.718599
782.000000	75.671803
781.000000	75.726892
780.000000	75.740813
779.000000	75.697176
778.000000	75.702112
777.000000	75.768259
776.000000	75.789978
775.000000	75.716724
774.000000	75.683453
773.000000	75.796692
772.000000	75.756510
771.000000	75.750488
770.000000	75.714947
769.000000	75.671310
768.000000	75.625698
767.000000	75.638236
766.000000	75.638927
765.000000	75.563402
764.000000	75.391224
763.000000	75.286080
762.000000	75.266631
761.000000	75.197227
760.000000	75.109459
759.000000	75.019026
758.000000	74.889695
757.000000	74.821278
756.000000	74.719590
755.000000	74.550867
754.000000	74.407714
753.000000	74.331695
752.000000	74.217567
751.000000	74.086558
750.000000	73.997013
749.000000	73.853564
748.000000	73.619089
747.000000	73.416898
746.000000	73.229417
745.000000	73.063656
744.000000	72.888319
743.000000	72.658188
742.000000	72.478309
741.000000	72.188943
740.000000	71.928306
739.000000	71.716637
738.000000	71.391038
737.000000	71.144519
736.000000	70.924360
735.000000	70.667376
734.000000	70.362707
733.000000	70.038589
732.000000	69.730761
731.000000	69.379888
730.000000	69.013910
729.000000	68.734022
728.000000	68.438238
727.000000	68.067127
726.000000	67.733235
725.000000	67.424716
724.000000	67.078187
723.000000	66.713493
722.000000	66.429951
721.000000	66.130910
720.000000	65.774706
719.000000	65.524731
718.000000	65.275744
717.000000	65.027941
716.000000	64.793171
715.000000	64.591868
714.000000	64.429661
713.000000	64.307438
712.000000	64.188473
711.000000	64.040680
710.000000	63.968018
709.000000	63.923393
708.000000	63.854779
707.000000	63.779648
706.000000	63.739269
705.000000	63.716661
704.000000	63.701951
703.000000	63.721301
702.000000	63.769874
701.000000	63.795148
700.000000	63.813215
699.000000	63.885680
698.000000	63.934253
697.000000	63.992107
696.000000	64.049368
695.000000	64.103174
694.000000	64.224212
693.000000	64.253139
692.000000	64.315534
691.000000	64.401623
690.000000	64.450788
689.000000	64.470336
688.000000	64.494129
687.000000	64.586142
686.000000	64.553266
685.000000	64.531448
684.000000	64.481492
683.000000	64.421269
682.000000	64.323925
681.000000	64.252744
680.000000	64.095572
679.000000	63.978285
678.000000	63.833454
677.000000	63.664928
676.000000	63.473696
675.000000	63.271406
674.000000	63.022616
673.000000	62.732164
672.000000	62.440132
671.000000	62.145632
670.000000	61.721603
669.000000	61.295205
668.000000	60.863081
667.000000	60.358788
666.000000	59.793186
665.000000	59.288498
664.000000	58.676889
663.000000	58.060542
662.000000	57.395918
661.000000	56.731392
660.000000	56.064892
659.000000	55.403921
658.000000	54.731892
657.000000	54.091949
656.000000	53.477873
655.000000	52.853627
654.000000	52.328404
653.000000	51.816410
652.000000	51.405611
651.000000	51.018703
650.000000	50.704063
649.000000	50.450732
648.000000	50.270557
647.000000	50.148827
646.000000	50.088703
645.000000	50.161366
644.000000	50.262955
643.000000	50.429901
642.000000	50.720452
641.000000	51.066882
640.000000	51.487751
639.000000	51.976347
638.000000	52.543232
637.000000	53.177844
636.000000	53.854710
635.000000	54.595452
634.000000	55.386742
633.000000	56.209131
632.000000	57.075255
631.000000	57.953819
630.000000	58.827644
629.000000	59.733160
628.000000	60.616660
627.000000	61.508750
626.000000	62.367371
625.000000	63.200422
624.000000	64.098237
623.000000	64.932572
622.000000	65.795636
621.000000	66.614470
620.000000	67.433996
619.000000	68.234073
618.000000	69.047576
617.000000	69.767388
616.000000	70.509118
615.000000	71.272172
614.000000	71.949038
613.000000	72.595793
612.000000	73.335647
611.000000	73.989905
610.000000	74.594701
609.000000	75.186367
608.000000	75.738048
607.000000	76.258533
606.000000	76.719287
605.000000	77.168294
604.000000	77.594890
603.000000	78.009243
602.000000	78.402765
601.000000	78.735966
600.000000	79.096020
599.000000	79.408785
598.000000	79.684033
597.000000	79.901329
596.000000	80.187339
595.000000	80.388740
594.000000	80.604062
593.000000	80.836463
592.000000	80.982479
591.000000	81.178549
590.000000	81.272635
589.000000	81.414702
588.000000	81.532581
587.000000	81.589151
586.000000	81.672081
585.000000	81.773671
584.000000	81.822046
583.000000	81.852651
582.000000	81.910900
581.000000	81.884244
580.000000	81.888193
579.000000	81.895005
578.000000	81.871409
577.000000	81.852454
576.000000	81.792725
575.000000	81.721839
574.000000	81.647597
573.000000	81.521919
572.000000	81.471667
571.000000	81.384393
570.000000	81.187731
569.000000	81.065311
568.000000	80.891651
567.000000	80.765578
566.000000	80.568817
565.000000	80.371858
564.000000	80.157326
563.000000	79.946645
562.000000	79.706938
561.000000	79.458543
560.000000	79.187638
559.000000	78.980116
558.000000	78.689960
557.000000	78.421622
556.000000	78.075390
555.000000	77.711880
554.000000	77.337609
553.000000	76.929475
552.000000	76.475039
551.000000	76.023466
550.000000	75.518778
549.000000	74.996813
548.000000	74.430816
547.000000	73.802621
546.000000	73.137997
545.000000	72.484726
544.000000	71.757904
543.000000	70.983892
542.000000	70.152420
541.000000	69.276423
540.000000	68.355111
539.000000	67.410499
538.000000	66.409120
537.000000	65.379012
536.000000	64.315830
535.000000	63.193807
534.000000	62.012253
533.000000	60.818852
532.000000	59.642628
531.000000	58.394533
530.000000	57.153249
529.000000	55.937634
528.000000	54.723796
527.000000	53.531086
526.000000	52.359108
525.000000	51.182490
524.000000	50.059381
523.000000	48.932423
522.000000	47.853050
521.000000	46.841699
520.000000	45.865989
519.000000	44.919896
518.000000	44.010333
517.000000	43.155957
516.000000	42.359138
515.000000	41.612374
514.000000	40.892463
513.000000	40.175415
512.000000	39.500424
511.000000	38.862752
510.000000	38.255685
509.000000	37.657405
508.000000	37.059717
507.000000	36.453341
506.000000	35.887936
505.000000	35.345337
504.000000	34.793557
503.000000	34.248293
502.000000	33.722082
501.000000	33.216802
500.000000	32.716261
499.000000	32.236748
498.000000	31.799292
497.000000	31.386617
496.000000	30.982334
495.000000	30.601744
494.000000	30.271308
493.000000	29.959728
492.000000	29.638572
491.000000	29.346935
490.000000	29.110091
489.000000	28.879269
488.000000	28.676881
487.000000	28.497002
486.000000	28.323935
485.000000	28.189865
484.000000	28.064384
483.000000	27.949072
482.000000	27.840967
481.000000	27.772451
480.000000	27.709760
479.000000	27.652893
478.000000	27.610737
477.000000	27.551995
476.000000	27.514677
475.000000	27.499276
474.000000	27.455836
473.000000	27.432241
472.000000	27.415655
471.000000	27.402524
470.000000	27.365995
469.000000	27.343190
468.000000	27.319693
467.000000	27.268948
466.000000	27.229852
465.000000	27.177231
464.000000	27.122240
463.000000	27.064387
462.000000	26.977409
461.000000	26.889740
460.000000	26.791903
459.000000	26.692288
458.000000	26.601756
457.000000	26.489209
456.000000	26.352868
455.000000	26.227387
454.000000	26.083938
453.000000	25.914820
452.000000	25.732966
451.000000	25.543017
450.000000	25.353364
449.000000	25.151075
448.000000	24.936345
447.000000	24.693874
446.000000	24.451501
445.000000	24.179807
444.000000	23.886590
443.000000	23.599890
442.000000	23.281991
441.000000	22.958663
440.000000	22.630991
439.000000	22.300752
438.000000	21.936848
437.000000	21.579558
436.000000	21.202128
435.000000	20.801004
434.000000	20.395832
433.000000	19.968742
432.000000	19.546096
431.000000	19.124338
430.000000	18.672370
429.000000	18.228793
428.000000	17.786006
427.000000	17.321105
426.000000	16.878812
425.000000	16.436124
424.000000	15.979614
423.000000	15.522117
422.000000	15.073111
421.000000	14.643948
420.000000	14.214786
419.000000	13.789079
418.000000	13.382722
417.000000	12.969751
416.000000	12.591926
415.000000	12.222196
414.000000	11.847531
413.000000	11.489550
412.000000	11.175699
411.000000	10.856518
410.000000	10.545925
409.000000	10.258929
408.000000	9.989505
407.000000	9.719193
406.000000	9.463887
405.000000	9.241556
404.000000	9.028505
403.000000	8.830361
402.000000	8.636167
401.000000	8.444244
400.000000	8.268017
399.000000	8.117657
398.000000	7.960880
397.000000	7.815457
396.000000	7.700540
395.000000	7.590164
394.000000	7.465571
393.000000	7.358157
392.000000	7.235836
391.000000	7.142342
390.000000	7.051613
389.000000	6.971151
388.000000	6.889406
387.000000	6.824543
386.000000	6.755336
385.000000	6.692447
384.000000	6.624918
383.000000	6.562523
382.000000	6.502399
381.000000	6.463106
380.000000	6.417297
379.000000	6.351052
378.000000	6.303960
377.000000	6.271676
376.000000	6.182921
375.000000	5.992676
374.000000	5.956049
373.000000	5.922482
372.000000	6.003437
371.000000	6.037004
370.000000	5.952297
369.000000	5.960788
368.000000	5.935613
367.000000	5.934823
366.000000	5.853670
365.000000	5.906291
364.000000	5.851794
363.000000	5.855249
362.000000	5.831851
361.000000	5.730460
360.000000	5.784068
359.000000	5.738950
358.000000	5.663326
357.000000	5.683269
356.000000	5.688995
355.000000	5.696498
354.000000	5.675370
353.000000	5.587899
352.000000	5.611495
351.000000	5.521259
350.000000	5.526788
349.000000	5.498256
348.000000	5.572893
347.000000	5.614555
346.000000	5.561638
345.000000	5.501810
344.000000	5.603399
343.000000	5.502995
342.000000	5.527479
341.000000	5.591848
340.000000	5.433393
339.000000	5.444845
338.000000	5.468243
337.000000	5.636077
336.000000	5.507635
335.000000	5.552654
334.000000	5.610211
333.000000	5.557689
332.000000	5.622947
331.000000	5.554826
330.000000	5.489272
329.000000	5.563119
328.000000	5.534883
327.000000	5.507931
326.000000	5.669644
325.000000	5.526689
324.000000	5.569733
323.000000	5.671026
322.000000	5.651577
321.000000	5.784265
320.000000	5.510004
319.000000	5.766692
318.000000	6.084492
317.000000	5.927418
316.000000	5.351253
315.000000	5.301593
314.000000	5.334667
313.000000	5.366160
312.000000	5.337036
311.000000	5.368233
310.000000	5.281453
309.000000	5.299323
308.000000	5.224982
307.000000	5.316797
306.000000	5.258450
305.000000	5.337530
304.000000	5.361915
303.000000	5.308603
302.000000	5.266151
301.000000	5.324300
300.000000	5.323412
299.000000	5.299323
298.000000	5.287574
297.000000	5.327361
296.000000	5.280367
295.000000	5.350167
294.000000	5.292807
293.000000	5.335061
292.000000	5.230905
291.000000	5.312848
290.000000	5.302186
289.000000	5.376724
288.000000	5.303667
287.000000	5.344835
286.000000	5.301495
285.000000	5.270692
284.000000	5.316995
283.000000	5.337036
282.000000	5.302383
281.000000	5.382746
280.000000	5.304259
279.000000	5.331112
278.000000	5.392915
277.000000	5.340294
276.000000	5.347402
275.000000	5.401504
274.000000	5.416807
273.000000	5.393112
272.000000	5.404861
271.000000	5.444647
270.000000	5.432504
269.000000	5.398147
268.000000	5.448300
267.000000	5.468934
266.000000	5.530539
265.000000	5.498947
264.000000	5.542979
263.000000	5.564698
262.000000	5.625218
261.000000	5.613370
260.000000	5.644469
259.000000	5.617319
258.000000	5.646345
257.000000	5.646049
256.000000	5.687020
255.000000	5.706272
254.000000	5.718316
253.000000	5.704593
252.000000	5.710418
251.000000	5.745466
250.000000	5.740628
