PE UV       SUBTECH     SPECTRUM    ASCII       PEDS        4.00        
   -1
CICIMAUCR0001-4.Sample.ASC
24/04/23
10:01:06.00
24/04/23
10:01:06.00
Vinicio Soto Monge
C. kalinini
250,000000
1
Lambda 1050
1050L1511233
PerkinElmer UV WinLab 6.3.2.0749 / 2.02.05 Lambda 900 UV/VIS/NIR, Aug  7 2015 09:38:08

0
0
3350/servo 860,8/2
0
0
UV/VIS
1
1
1
DoubleDePol,CommonBeamDepol,RBeamAtt,SBeamAtt,60mm sphere, WB InGaAs Detector
0
0
0
0
Program
Program
3350/servo 860,8/2
3350/0,2 860,8/0,2
3350/0,2 860,8/0,2
0
15.00
 
 
 
0
 
860,8
319,2
860,8
Front
100
on
S:100 R:100
0
0
0
0
 
0
 
 
 
0
 
 
0
0
0
0
0
 
 
 
 
0
0


0
0
#HDR
-1
-1
#GR
nm
%R
1.0
0.0
2500,000000
-1,000000
2251
8
99,252700
5,560900
#DATA
2500.000000	13.801100
2499.000000	13.796100
2498.000000	13.790200
2497.000000	13.766800
2496.000000	13.746300
2495.000000	13.782300
2494.000000	13.717500
2493.000000	13.705200
2492.000000	13.694400
2491.000000	13.727700
2490.000000	13.711900
2489.000000	13.662300
2488.000000	13.681800
2487.000000	13.620900
2486.000000	13.701900
2485.000000	13.725300
2484.000000	13.694100
2483.000000	13.693400
2482.000000	13.729500
2481.000000	13.660800
2480.000000	13.689200
2479.000000	13.722000
2478.000000	13.769500
2477.000000	13.783300
2476.000000	13.807000
2475.000000	13.848800
2474.000000	13.882400
2473.000000	13.926300
2472.000000	13.951700
2471.000000	13.974200
2470.000000	14.024300
2469.000000	14.050100
2468.000000	14.113800
2467.000000	14.178300
2466.000000	14.200600
2465.000000	14.283100
2464.000000	14.330200
2463.000000	14.377000
2462.000000	14.429500
2461.000000	14.478000
2460.000000	14.557400
2459.000000	14.617800
2458.000000	14.688000
2457.000000	14.764700
2456.000000	14.851300
2455.000000	14.943000
2454.000000	15.031000
2453.000000	15.105500
2452.000000	15.179300
2451.000000	15.285100
2450.000000	15.386300
2449.000000	15.483400
2448.000000	15.598200
2447.000000	15.687900
2446.000000	15.798600
2445.000000	15.891900
2444.000000	15.987900
2443.000000	16.109200
2442.000000	16.207400
2441.000000	16.320400
2440.000000	16.430800
2439.000000	16.537100
2438.000000	16.631800
2437.000000	16.734500
2436.000000	16.832000
2435.000000	16.947600
2434.000000	17.051800
2433.000000	17.151400
2432.000000	17.248300
2431.000000	17.341700
2430.000000	17.434400
2429.000000	17.525000
2428.000000	17.626900
2427.000000	17.707700
2426.000000	17.788600
2425.000000	17.840200
2424.000000	17.920300
2423.000000	18.023300
2422.000000	18.102000
2421.000000	18.172300
2420.000000	18.239600
2419.000000	18.309700
2418.000000	18.373200
2417.000000	18.459300
2416.000000	18.530000
2415.000000	18.599100
2414.000000	18.655500
2413.000000	18.706100
2412.000000	18.767700
2411.000000	18.835300
2410.000000	18.892900
2409.000000	18.934900
2408.000000	18.976200
2407.000000	19.022200
2406.000000	19.058800
2405.000000	19.097100
2404.000000	19.147600
2403.000000	19.201600
2402.000000	19.234400
2401.000000	19.266200
2400.000000	19.297400
2399.000000	19.340600
2398.000000	19.368000
2397.000000	19.403700
2396.000000	19.429400
2395.000000	19.452900
2394.000000	19.494400
2393.000000	19.516900
2392.000000	19.532300
2391.000000	19.548600
2390.000000	19.554900
2389.000000	19.566600
2388.000000	19.581600
2387.000000	19.599800
2386.000000	19.614900
2385.000000	19.610800
2384.000000	19.615700
2383.000000	19.622400
2382.000000	19.612300
2381.000000	19.619300
2380.000000	19.622300
2379.000000	19.633400
2378.000000	19.641200
2377.000000	19.622400
2376.000000	19.598600
2375.000000	19.583500
2374.000000	19.587400
2373.000000	19.580200
2372.000000	19.570300
2371.000000	19.571100
2370.000000	19.580500
2369.000000	19.561600
2368.000000	19.554400
2367.000000	19.570400
2366.000000	19.580500
2365.000000	19.582500
2364.000000	19.591100
2363.000000	19.595700
2362.000000	19.590300
2361.000000	19.592800
2360.000000	19.604000
2359.000000	19.609800
2358.000000	19.598900
2357.000000	19.604900
2356.000000	19.593700
2355.000000	19.580200
2354.000000	19.567300
2353.000000	19.556300
2352.000000	19.556100
2351.000000	19.551400
2350.000000	19.539200
2349.000000	19.535800
2348.000000	19.516100
2347.000000	19.489400
2346.000000	19.476500
2345.000000	19.478900
2344.000000	19.476100
2343.000000	19.469000
2342.000000	19.474700
2341.000000	19.466700
2340.000000	19.460200
2339.000000	19.466900
2338.000000	19.468700
2337.000000	19.465700
2336.000000	19.476600
2335.000000	19.496700
2334.000000	19.521800
2333.000000	19.518000
2332.000000	19.532500
2331.000000	19.575600
2330.000000	19.600100
2329.000000	19.620400
2328.000000	19.646100
2327.000000	19.681300
2326.000000	19.713500
2325.000000	19.744500
2324.000000	19.764900
2323.000000	19.805700
2322.000000	19.828200
2321.000000	19.843600
2320.000000	19.851300
2319.000000	19.844900
2318.000000	19.841400
2317.000000	19.837300
2316.000000	19.830600
2315.000000	19.810900
2314.000000	19.769600
2313.000000	19.742600
2312.000000	19.715600
2311.000000	19.706700
2310.000000	19.684000
2309.000000	19.643400
2308.000000	19.613000
2307.000000	19.569900
2306.000000	19.548300
2305.000000	19.519500
2304.000000	19.499500
2303.000000	19.502400
2302.000000	19.481700
2301.000000	19.474600
2300.000000	19.453200
2299.000000	19.428600
2298.000000	19.447100
2297.000000	19.459400
2296.000000	19.475900
2295.000000	19.487900
2294.000000	19.497500
2293.000000	19.516000
2292.000000	19.537300
2291.000000	19.576000
2290.000000	19.624200
2289.000000	19.632700
2288.000000	19.670700
2287.000000	19.722700
2286.000000	19.747700
2285.000000	19.786400
2284.000000	19.837800
2283.000000	19.870400
2282.000000	19.911000
2281.000000	19.947300
2280.000000	19.985400
2279.000000	20.035000
2278.000000	20.079000
2277.000000	20.099400
2276.000000	20.113400
2275.000000	20.161100
2274.000000	20.181800
2273.000000	20.220400
2272.000000	20.241600
2271.000000	20.256400
2270.000000	20.321700
2269.000000	20.348500
2268.000000	20.404600
2267.000000	20.431800
2266.000000	20.525300
2265.000000	20.571100
2264.000000	20.656700
2263.000000	20.761100
2262.000000	20.874100
2261.000000	20.986800
2260.000000	21.110300
2259.000000	21.243400
2258.000000	21.379200
2257.000000	21.535400
2256.000000	21.692300
2255.000000	21.852800
2254.000000	22.016700
2253.000000	22.182300
2252.000000	22.349600
2251.000000	22.502200
2250.000000	22.654000
2249.000000	22.824500
2248.000000	22.965100
2247.000000	23.117500
2246.000000	23.233700
2245.000000	23.350000
2244.000000	23.456200
2243.000000	23.594200
2242.000000	23.677200
2241.000000	23.762800
2240.000000	23.835500
2239.000000	23.888500
2238.000000	23.960500
2237.000000	23.970300
2236.000000	24.017900
2235.000000	24.017400
2234.000000	24.043700
2233.000000	24.030100
2232.000000	24.022500
2231.000000	24.037500
2230.000000	23.998800
2229.000000	23.959600
2228.000000	23.915900
2227.000000	23.866600
2226.000000	23.822500
2225.000000	23.767300
2224.000000	23.703900
2223.000000	23.636700
2222.000000	23.559400
2221.000000	23.482700
2220.000000	23.391300
2219.000000	23.329900
2218.000000	23.240100
2217.000000	23.148300
2216.000000	23.059000
2215.000000	22.990400
2214.000000	22.916000
2213.000000	22.823400
2212.000000	22.758600
2211.000000	22.701400
2210.000000	22.612700
2209.000000	22.573800
2208.000000	22.510300
2207.000000	22.459800
2206.000000	22.418900
2205.000000	22.372000
2204.000000	22.318600
2203.000000	22.278300
2202.000000	22.234600
2201.000000	22.206800
2200.000000	22.205600
2199.000000	22.169300
2198.000000	22.138100
2197.000000	22.095000
2196.000000	22.078700
2195.000000	22.044900
2194.000000	22.038400
2193.000000	22.030100
2192.000000	22.015400
2191.000000	21.984100
2190.000000	21.972100
2189.000000	21.964600
2188.000000	21.965300
2187.000000	21.956500
2186.000000	21.929300
2185.000000	21.903600
2184.000000	21.889600
2183.000000	21.879800
2182.000000	21.881300
2181.000000	21.876900
2180.000000	21.856800
2179.000000	21.824300
2178.000000	21.834200
2177.000000	21.827800
2176.000000	21.818500
2175.000000	21.834100
2174.000000	21.855700
2173.000000	21.844600
2172.000000	21.853200
2171.000000	21.868900
2170.000000	21.873100
2169.000000	21.915700
2168.000000	21.958000
2167.000000	21.980300
2166.000000	22.012000
2165.000000	22.054900
2164.000000	22.103300
2163.000000	22.161400
2162.000000	22.222500
2161.000000	22.287200
2160.000000	22.342600
2159.000000	22.419900
2158.000000	22.501700
2157.000000	22.590800
2156.000000	22.681800
2155.000000	22.780600
2154.000000	22.885000
2153.000000	22.989300
2152.000000	23.098000
2151.000000	23.194400
2150.000000	23.319800
2149.000000	23.430500
2148.000000	23.532000
2147.000000	23.661500
2146.000000	23.769300
2145.000000	23.875000
2144.000000	23.978200
2143.000000	24.092300
2142.000000	24.194600
2141.000000	24.306000
2140.000000	24.414900
2139.000000	24.515400
2138.000000	24.618600
2137.000000	24.705700
2136.000000	24.791700
2135.000000	24.897300
2134.000000	24.986900
2133.000000	25.071000
2132.000000	25.170400
2131.000000	25.263600
2130.000000	25.324700
2129.000000	25.390800
2128.000000	25.446600
2127.000000	25.507300
2126.000000	25.577600
2125.000000	25.637300
2124.000000	25.693500
2123.000000	25.765800
2122.000000	25.812800
2121.000000	25.850600
2120.000000	25.863000
2119.000000	25.899900
2118.000000	25.951500
2117.000000	25.971600
2116.000000	25.998500
2115.000000	26.024700
2114.000000	26.052000
2113.000000	26.067500
2112.000000	26.080900
2111.000000	26.098200
2110.000000	26.109800
2109.000000	26.110400
2108.000000	26.118000
2107.000000	26.124100
2106.000000	26.131200
2105.000000	26.129900
2104.000000	26.136300
2103.000000	26.137700
2102.000000	26.132200
2101.000000	26.135500
2100.000000	26.134900
2099.000000	26.140400
2098.000000	26.158200
2097.000000	26.167100
2096.000000	26.175400
2095.000000	26.183000
2094.000000	26.198000
2093.000000	26.216500
2092.000000	26.225600
2091.000000	26.250200
2090.000000	26.267700
2089.000000	26.277100
2088.000000	26.288100
2087.000000	26.282400
2086.000000	26.281500
2085.000000	26.262400
2084.000000	26.258100
2083.000000	26.251500
2082.000000	26.209700
2081.000000	26.177000
2080.000000	26.135100
2079.000000	26.074800
2078.000000	26.020300
2077.000000	25.954000
2076.000000	25.875500
2075.000000	25.806200
2074.000000	25.732800
2073.000000	25.632500
2072.000000	25.522400
2071.000000	25.433200
2070.000000	25.323100
2069.000000	25.211000
2068.000000	25.097900
2067.000000	24.971200
2066.000000	24.856000
2065.000000	24.745400
2064.000000	24.629000
2063.000000	24.515200
2062.000000	24.419100
2061.000000	24.326100
2060.000000	24.235500
2059.000000	24.147800
2058.000000	24.072100
2057.000000	24.039600
2056.000000	24.011500
2055.000000	23.984600
2054.000000	24.002800
2053.000000	24.021500
2052.000000	24.062300
2051.000000	24.132600
2050.000000	24.225400
2049.000000	24.339700
2048.000000	24.451900
2047.000000	24.566000
2046.000000	24.696900
2045.000000	24.881700
2044.000000	25.038100
2043.000000	25.183300
2042.000000	25.350200
2041.000000	25.491700
2040.000000	25.626500
2039.000000	25.788100
2038.000000	25.933900
2037.000000	26.064400
2036.000000	26.213800
2035.000000	26.325900
2034.000000	26.448400
2033.000000	26.563100
2032.000000	26.649000
2031.000000	26.759600
2030.000000	26.852900
2029.000000	26.944200
2028.000000	27.022900
2027.000000	27.105500
2026.000000	27.186800
2025.000000	27.251900
2024.000000	27.319600
2023.000000	27.364500
2022.000000	27.413600
2021.000000	27.477100
2020.000000	27.532000
2019.000000	27.556300
2018.000000	27.584800
2017.000000	27.608200
2016.000000	27.633500
2015.000000	27.653000
2014.000000	27.651500
2013.000000	27.659600
2012.000000	27.669400
2011.000000	27.640300
2010.000000	27.636100
2009.000000	27.623600
2008.000000	27.591600
2007.000000	27.551200
2006.000000	27.504700
2005.000000	27.472200
2004.000000	27.409500
2003.000000	27.357900
2002.000000	27.307000
2001.000000	27.233200
2000.000000	27.163000
1999.000000	27.080100
1998.000000	27.006700
1997.000000	26.941800
1996.000000	26.845300
1995.000000	26.744100
1994.000000	26.667100
1993.000000	26.573100
1992.000000	26.459600
1991.000000	26.351400
1990.000000	26.260900
1989.000000	26.161000
1988.000000	26.050900
1987.000000	25.930100
1986.000000	25.830700
1985.000000	25.705000
1984.000000	25.607700
1983.000000	25.478400
1982.000000	25.372500
1981.000000	25.286300
1980.000000	25.164800
1979.000000	25.044600
1978.000000	24.927600
1977.000000	24.825700
1976.000000	24.728600
1975.000000	24.635700
1974.000000	24.531700
1973.000000	24.431300
1972.000000	24.328800
1971.000000	24.226300
1970.000000	24.124400
1969.000000	24.033100
1968.000000	23.909600
1967.000000	23.844900
1966.000000	23.719400
1965.000000	23.638500
1964.000000	23.530800
1963.000000	23.445000
1962.000000	23.319900
1961.000000	23.231600
1960.000000	23.119700
1959.000000	23.015600
1958.000000	22.921100
1957.000000	22.821500
1956.000000	22.730600
1955.000000	22.636500
1954.000000	22.538100
1953.000000	22.432900
1952.000000	22.317300
1951.000000	22.236400
1950.000000	22.129700
1949.000000	22.060400
1948.000000	21.986900
1947.000000	21.919700
1946.000000	21.840300
1945.000000	21.787000
1944.000000	21.702500
1943.000000	21.661800
1942.000000	21.615300
1941.000000	21.590200
1940.000000	21.553300
1939.000000	21.526100
1938.000000	21.503600
1937.000000	21.488500
1936.000000	21.500700
1935.000000	21.523000
1934.000000	21.557900
1933.000000	21.593500
1932.000000	21.661300
1931.000000	21.709100
1930.000000	21.773400
1929.000000	21.856500
1928.000000	21.962200
1927.000000	22.053200
1926.000000	22.177100
1925.000000	22.312100
1924.000000	22.455700
1923.000000	22.605000
1922.000000	22.796100
1921.000000	23.013600
1920.000000	23.226900
1919.000000	23.416400
1918.000000	23.653200
1917.000000	23.898600
1916.000000	24.150900
1915.000000	24.448300
1914.000000	24.796000
1913.000000	25.130600
1912.000000	25.488300
1911.000000	25.816600
1910.000000	26.167200
1909.000000	26.512200
1908.000000	26.938600
1907.000000	27.419200
1906.000000	27.962400
1905.000000	28.502900
1904.000000	29.043100
1903.000000	29.560800
1902.000000	30.066400
1901.000000	30.659300
1900.000000	31.301100
1899.000000	31.962600
1898.000000	32.619900
1897.000000	33.201000
1896.000000	33.747300
1895.000000	34.350200
1894.000000	34.987400
1893.000000	35.623100
1892.000000	36.346800
1891.000000	37.002800
1890.000000	37.582900
1889.000000	38.180600
1888.000000	38.766600
1887.000000	39.312400
1886.000000	39.848600
1885.000000	40.387600
1884.000000	40.930800
1883.000000	41.381500
1882.000000	41.810600
1881.000000	42.221800
1880.000000	42.594100
1879.000000	42.972300
1878.000000	43.340800
1877.000000	43.694300
1876.000000	44.027400
1875.000000	44.356900
1874.000000	44.652200
1873.000000	44.948800
1872.000000	45.210100
1871.000000	45.441100
1870.000000	45.622500
1869.000000	45.794600
1868.000000	45.927600
1867.000000	46.024100
1866.000000	46.101200
1865.000000	46.196200
1864.000000	46.297700
1863.000000	46.403400
1862.000000	46.529600
1861.000000	46.656500
1860.000000	46.763200
1859.000000	46.836900
1858.000000	46.914800
1857.000000	46.974200
1856.000000	47.018200
1855.000000	47.079300
1854.000000	47.103900
1853.000000	47.104400
1852.000000	47.131300
1851.000000	47.159100
1850.000000	47.225500
1849.000000	47.313100
1848.000000	47.318100
1847.000000	47.267200
1846.000000	47.195500
1845.000000	47.140200
1844.000000	47.114800
1843.000000	47.156900
1842.000000	47.217900
1841.000000	47.209500
1840.000000	47.155200
1839.000000	47.106900
1838.000000	47.082900
1837.000000	47.051200
1836.000000	46.994000
1835.000000	46.919900
1834.000000	46.842700
1833.000000	46.782900
1832.000000	46.763600
1831.000000	46.757800
1830.000000	46.732800
1829.000000	46.693500
1828.000000	46.634600
1827.000000	46.609200
1826.000000	46.597200
1825.000000	46.554200
1824.000000	46.532100
1823.000000	46.610500
1822.000000	46.672900
1821.000000	46.660100
1820.000000	46.631700
1819.000000	46.592100
1818.000000	46.554800
1817.000000	46.544800
1816.000000	46.553900
1815.000000	46.542600
1814.000000	46.517700
1813.000000	46.504500
1812.000000	46.484500
1811.000000	46.453800
1810.000000	46.415700
1809.000000	46.376500
1808.000000	46.355700
1807.000000	46.347900
1806.000000	46.309700
1805.000000	46.254200
1804.000000	46.229200
1803.000000	46.227000
1802.000000	46.216200
1801.000000	46.195000
1800.000000	46.140500
1799.000000	46.104200
1798.000000	46.094000
1797.000000	46.069900
1796.000000	46.054800
1795.000000	46.011900
1794.000000	45.980000
1793.000000	45.981000
1792.000000	45.957600
1791.000000	45.933200
1790.000000	45.921500
1789.000000	45.904900
1788.000000	45.910300
1787.000000	45.917300
1786.000000	45.922000
1785.000000	45.917600
1784.000000	45.899800
1783.000000	45.871800
1782.000000	45.867800
1781.000000	45.845900
1780.000000	45.805000
1779.000000	45.780100
1778.000000	45.745800
1777.000000	45.705400
1776.000000	45.665500
1775.000000	45.607700
1774.000000	45.543400
1773.000000	45.498900
1772.000000	45.456400
1771.000000	45.404700
1770.000000	45.346200
1769.000000	45.292400
1768.000000	45.253500
1767.000000	45.212700
1766.000000	45.158100
1765.000000	45.115300
1764.000000	45.090400
1763.000000	45.066900
1762.000000	45.050800
1761.000000	45.020400
1760.000000	44.992600
1759.000000	44.981700
1758.000000	44.972300
1757.000000	44.959400
1756.000000	44.936100
1755.000000	44.928000
1754.000000	44.914800
1753.000000	44.895800
1752.000000	44.875400
1751.000000	44.833700
1750.000000	44.810900
1749.000000	44.755700
1748.000000	44.712500
1747.000000	44.650400
1746.000000	44.572600
1745.000000	44.504300
1744.000000	44.425700
1743.000000	44.336700
1742.000000	44.251200
1741.000000	44.188400
1740.000000	44.098600
1739.000000	44.034100
1738.000000	43.959700
1737.000000	43.899800
1736.000000	43.851000
1735.000000	43.792800
1734.000000	43.763700
1733.000000	43.702600
1732.000000	43.648500
1731.000000	43.619000
1730.000000	43.583300
1729.000000	43.521100
1728.000000	43.485000
1727.000000	43.470500
1726.000000	43.453200
1725.000000	43.439200
1724.000000	43.442800
1723.000000	43.515200
1722.000000	43.615700
1721.000000	43.762800
1720.000000	43.946300
1719.000000	44.165200
1718.000000	44.390800
1717.000000	44.608600
1716.000000	44.837500
1715.000000	45.054600
1714.000000	45.255000
1713.000000	45.435500
1712.000000	45.604200
1711.000000	45.747000
1710.000000	45.895300
1709.000000	45.998800
1708.000000	46.104900
1707.000000	46.197200
1706.000000	46.265300
1705.000000	46.332400
1704.000000	46.359100
1703.000000	46.393000
1702.000000	46.406800
1701.000000	46.435300
1700.000000	46.439300
1699.000000	46.429400
1698.000000	46.445500
1697.000000	46.434100
1696.000000	46.406300
1695.000000	46.360400
1694.000000	46.280800
1693.000000	46.213900
1692.000000	46.149700
1691.000000	46.085600
1690.000000	46.044700
1689.000000	46.058100
1688.000000	46.109900
1687.000000	46.204300
1686.000000	46.361000
1685.000000	46.544300
1684.000000	46.746800
1683.000000	46.968700
1682.000000	47.212000
1681.000000	47.460200
1680.000000	47.706300
1679.000000	47.910500
1678.000000	48.110100
1677.000000	48.324700
1676.000000	48.500800
1675.000000	48.699900
1674.000000	48.885400
1673.000000	49.084400
1672.000000	49.268100
1671.000000	49.441900
1670.000000	49.657200
1669.000000	49.850600
1668.000000	50.035500
1667.000000	50.215000
1666.000000	50.368600
1665.000000	50.546900
1664.000000	50.684500
1663.000000	50.821200
1662.000000	50.972400
1661.000000	51.099300
1660.000000	51.200400
1659.000000	51.300700
1658.000000	51.392000
1657.000000	51.466800
1656.000000	51.528800
1655.000000	51.572400
1654.000000	51.640300
1653.000000	51.676300
1652.000000	51.684300
1651.000000	51.700700
1650.000000	51.720300
1649.000000	51.699400
1648.000000	51.686100
1647.000000	51.684700
1646.000000	51.657700
1645.000000	51.662400
1644.000000	51.635100
1643.000000	51.625300
1642.000000	51.616400
1641.000000	51.613400
1640.000000	51.596700
1639.000000	51.576100
1638.000000	51.559900
1637.000000	51.534600
1636.000000	51.511000
1635.000000	51.479500
1634.000000	51.453500
1633.000000	51.415800
1632.000000	51.368100
1631.000000	51.328200
1630.000000	51.285000
1629.000000	51.240700
1628.000000	51.198900
1627.000000	51.138900
1626.000000	51.091400
1625.000000	51.052900
1624.000000	51.013500
1623.000000	50.972700
1622.000000	50.913700
1621.000000	50.889400
1620.000000	50.858400
1619.000000	50.812000
1618.000000	50.772400
1617.000000	50.735200
1616.000000	50.700300
1615.000000	50.656000
1614.000000	50.626400
1613.000000	50.577700
1612.000000	50.519200
1611.000000	50.464200
1610.000000	50.416600
1609.000000	50.353900
1608.000000	50.289600
1607.000000	50.211300
1606.000000	50.154900
1605.000000	50.082100
1604.000000	50.001900
1603.000000	49.916700
1602.000000	49.845800
1601.000000	49.773700
1600.000000	49.688200
1599.000000	49.619700
1598.000000	49.552100
1597.000000	49.491700
1596.000000	49.421800
1595.000000	49.356300
1594.000000	49.305600
1593.000000	49.249700
1592.000000	49.199800
1591.000000	49.158800
1590.000000	49.109100
1589.000000	49.059700
1588.000000	49.014600
1587.000000	48.969000
1586.000000	48.920800
1585.000000	48.873100
1584.000000	48.847600
1583.000000	48.799500
1582.000000	48.758700
1581.000000	48.735300
1580.000000	48.714100
1579.000000	48.686400
1578.000000	48.661500
1577.000000	48.655900
1576.000000	48.649900
1575.000000	48.647000
1574.000000	48.644800
1573.000000	48.647900
1572.000000	48.657600
1571.000000	48.676000
1570.000000	48.682000
1569.000000	48.698700
1568.000000	48.728900
1567.000000	48.752100
1566.000000	48.770400
1565.000000	48.789200
1564.000000	48.801000
1563.000000	48.811600
1562.000000	48.818200
1561.000000	48.806000
1560.000000	48.785300
1559.000000	48.760500
1558.000000	48.719400
1557.000000	48.677800
1556.000000	48.630500
1555.000000	48.569400
1554.000000	48.499100
1553.000000	48.419200
1552.000000	48.351500
1551.000000	48.275400
1550.000000	48.181000
1549.000000	48.092200
1548.000000	48.010400
1547.000000	47.932400
1546.000000	47.871700
1545.000000	47.810700
1544.000000	47.750000
1543.000000	47.694100
1542.000000	47.640500
1541.000000	47.608200
1540.000000	47.562300
1539.000000	47.513300
1538.000000	47.488600
1537.000000	47.456300
1536.000000	47.405000
1535.000000	47.357100
1534.000000	47.313800
1533.000000	47.262500
1532.000000	47.204600
1531.000000	47.150900
1530.000000	47.104300
1529.000000	47.051600
1528.000000	46.990500
1527.000000	46.928900
1526.000000	46.865500
1525.000000	46.799700
1524.000000	46.745000
1523.000000	46.687000
1522.000000	46.627400
1521.000000	46.566000
1520.000000	46.504800
1519.000000	46.441300
1518.000000	46.373400
1517.000000	46.305100
1516.000000	46.240900
1515.000000	46.162900
1514.000000	46.095600
1513.000000	46.034000
1512.000000	45.948300
1511.000000	45.876800
1510.000000	45.817000
1509.000000	45.743800
1508.000000	45.678000
1507.000000	45.603800
1506.000000	45.528800
1505.000000	45.483600
1504.000000	45.427500
1503.000000	45.363800
1502.000000	45.315200
1501.000000	45.279500
1500.000000	45.242700
1499.000000	45.200800
1498.000000	45.175900
1497.000000	45.162000
1496.000000	45.142600
1495.000000	45.138000
1494.000000	45.132700
1493.000000	45.155200
1492.000000	45.194400
1491.000000	45.196900
1490.000000	45.212000
1489.000000	45.244800
1488.000000	45.272600
1487.000000	45.298700
1486.000000	45.329400
1485.000000	45.331900
1484.000000	45.373800
1483.000000	45.400200
1482.000000	45.444400
1481.000000	45.467000
1480.000000	45.495300
1479.000000	45.546600
1478.000000	45.587100
1477.000000	45.606600
1476.000000	45.647400
1475.000000	45.717300
1474.000000	45.792800
1473.000000	45.880900
1472.000000	45.941000
1471.000000	46.025100
1470.000000	46.059500
1469.000000	46.117700
1468.000000	46.222200
1467.000000	46.318900
1466.000000	46.392400
1465.000000	46.456600
1464.000000	46.566700
1463.000000	46.633700
1462.000000	46.746200
1461.000000	46.853900
1460.000000	46.943800
1459.000000	47.045800
1458.000000	47.153300
1457.000000	47.260100
1456.000000	47.350900
1455.000000	47.448800
1454.000000	47.553900
1453.000000	47.673700
1452.000000	47.787400
1451.000000	47.903400
1450.000000	47.965400
1449.000000	48.011400
1448.000000	48.140000
1447.000000	48.279100
1446.000000	48.428100
1445.000000	48.497900
1444.000000	48.580900
1443.000000	48.690800
1442.000000	48.810800
1441.000000	48.920200
1440.000000	49.070900
1439.000000	49.181200
1438.000000	49.332200
1437.000000	49.439600
1436.000000	49.576900
1435.000000	49.757900
1434.000000	49.935700
1433.000000	50.127100
1432.000000	50.281300
1431.000000	50.412000
1430.000000	50.624600
1429.000000	50.856200
1428.000000	51.062900
1427.000000	51.248400
1426.000000	51.508400
1425.000000	51.782300
1424.000000	52.053000
1423.000000	52.298900
1422.000000	52.532800
1421.000000	52.906100
1420.000000	53.261300
1419.000000	53.559400
1418.000000	53.855000
1417.000000	54.148900
1416.000000	54.505600
1415.000000	54.980400
1414.000000	55.341000
1413.000000	55.648300
1412.000000	56.035000
1411.000000	56.482300
1410.000000	57.000000
1409.000000	57.424200
1408.000000	57.862100
1407.000000	58.289100
1406.000000	58.697200
1405.000000	59.145500
1404.000000	59.594900
1403.000000	59.957400
1402.000000	60.459400
1401.000000	61.019300
1400.000000	61.383100
1399.000000	61.613900
1398.000000	61.929400
1397.000000	62.401600
1396.000000	62.910600
1395.000000	63.223900
1394.000000	63.465400
1393.000000	63.799700
1392.000000	64.150900
1391.000000	64.431700
1390.000000	64.725100
1389.000000	65.115600
1388.000000	65.477800
1387.000000	65.751000
1386.000000	66.026400
1385.000000	66.357200
1384.000000	66.648500
1383.000000	66.941100
1382.000000	67.152000
1381.000000	67.289700
1380.000000	67.376400
1379.000000	67.493200
1378.000000	67.590400
1377.000000	67.729000
1376.000000	67.837100
1375.000000	67.916600
1374.000000	68.068300
1373.000000	68.229600
1372.000000	68.402300
1371.000000	68.536000
1370.000000	68.645400
1369.000000	68.824300
1368.000000	68.951400
1367.000000	69.019400
1366.000000	69.147400
1365.000000	69.285500
1364.000000	69.337700
1363.000000	69.477400
1362.000000	69.641300
1361.000000	69.691700
1360.000000	69.688400
1359.000000	69.743800
1358.000000	69.821800
1357.000000	69.919000
1356.000000	70.060900
1355.000000	70.208300
1354.000000	70.293800
1353.000000	70.391300
1352.000000	70.613700
1351.000000	70.803200
1350.000000	70.988100
1349.000000	71.195800
1348.000000	71.377600
1347.000000	71.525600
1346.000000	71.710700
1345.000000	71.922200
1344.000000	72.092300
1343.000000	72.234000
1342.000000	72.408800
1341.000000	72.568500
1340.000000	72.706300
1339.000000	72.838100
1338.000000	72.969000
1337.000000	73.102800
1336.000000	73.238300
1335.000000	73.340800
1334.000000	73.455800
1333.000000	73.545600
1332.000000	73.635800
1331.000000	73.739300
1330.000000	73.812700
1329.000000	73.896200
1328.000000	73.974600
1327.000000	74.031000
1326.000000	74.100500
1325.000000	74.177100
1324.000000	74.237300
1323.000000	74.286000
1322.000000	74.346900
1321.000000	74.407800
1320.000000	74.447500
1319.000000	74.486200
1318.000000	74.539800
1317.000000	74.586600
1316.000000	74.624300
1315.000000	74.669800
1314.000000	74.704900
1313.000000	74.726000
1312.000000	74.770000
1311.000000	74.810900
1310.000000	74.824100
1309.000000	74.845200
1308.000000	74.871600
1307.000000	74.885600
1306.000000	74.895500
1305.000000	74.920800
1304.000000	74.941300
1303.000000	74.937600
1302.000000	74.934700
1301.000000	74.941000
1300.000000	74.940600
1299.000000	74.931900
1298.000000	74.923500
1297.000000	74.926000
1296.000000	74.920200
1295.000000	74.903300
1294.000000	74.906800
1293.000000	74.886400
1292.000000	74.855200
1291.000000	74.832100
1290.000000	74.801900
1289.000000	74.772900
1288.000000	74.759500
1287.000000	74.730800
1286.000000	74.688800
1285.000000	74.662400
1284.000000	74.642800
1283.000000	74.602900
1282.000000	74.567000
1281.000000	74.540900
1280.000000	74.517000
1279.000000	74.490900
1278.000000	74.463800
1277.000000	74.447000
1276.000000	74.432100
1275.000000	74.419300
1274.000000	74.413300
1273.000000	74.415100
1272.000000	74.414200
1271.000000	74.426900
1270.000000	74.439500
1269.000000	74.438700
1268.000000	74.440900
1267.000000	74.439700
1266.000000	74.436800
1265.000000	74.438700
1264.000000	74.435900
1263.000000	74.416900
1262.000000	74.410500
1261.000000	74.411200
1260.000000	74.400600
1259.000000	74.387300
1258.000000	74.382300
1257.000000	74.385200
1256.000000	74.370400
1255.000000	74.334600
1254.000000	74.310800
1253.000000	74.299600
1252.000000	74.237500
1251.000000	74.199200
1250.000000	74.162500
1249.000000	74.132100
1248.000000	74.048000
1247.000000	73.990500
1246.000000	73.940100
1245.000000	73.894800
1244.000000	73.833600
1243.000000	73.766500
1242.000000	73.712000
1241.000000	73.664700
1240.000000	73.609000
1239.000000	73.550600
1238.000000	73.503500
1237.000000	73.466800
1236.000000	73.421800
1235.000000	73.382900
1234.000000	73.343300
1233.000000	73.295000
1232.000000	73.252600
1231.000000	73.217900
1230.000000	73.165000
1229.000000	73.128900
1228.000000	73.081700
1227.000000	73.041000
1226.000000	73.010100
1225.000000	72.948600
1224.000000	72.904600
1223.000000	72.856100
1222.000000	72.805800
1221.000000	72.767900
1220.000000	72.721300
1219.000000	72.679800
1218.000000	72.633600
1217.000000	72.572200
1216.000000	72.521500
1215.000000	72.452000
1214.000000	72.398100
1213.000000	72.347300
1212.000000	72.284400
1211.000000	72.223500
1210.000000	72.143600
1209.000000	72.069300
1208.000000	72.003200
1207.000000	71.915800
1206.000000	71.832600
1205.000000	71.766500
1204.000000	71.699400
1203.000000	71.614600
1202.000000	71.540300
1201.000000	71.466900
1200.000000	71.368400
1199.000000	71.304800
1198.000000	71.215300
1197.000000	71.123800
1196.000000	71.048400
1195.000000	70.959200
1194.000000	70.857400
1193.000000	70.778700
1192.000000	70.698300
1191.000000	70.613000
1190.000000	70.554000
1189.000000	70.488000
1188.000000	70.437800
1187.000000	70.431900
1186.000000	70.399900
1185.000000	70.407500
1184.000000	70.434000
1183.000000	70.466800
1182.000000	70.513600
1181.000000	70.541300
1180.000000	70.610100
1179.000000	70.675600
1178.000000	70.721300
1177.000000	70.777700
1176.000000	70.836600
1175.000000	70.910400
1174.000000	70.961600
1173.000000	71.030800
1172.000000	71.125600
1171.000000	71.196700
1170.000000	71.303700
1169.000000	71.405900
1168.000000	71.522200
1167.000000	71.635800
1166.000000	71.760800
1165.000000	71.884700
1164.000000	72.027900
1163.000000	72.133700
1162.000000	72.252000
1161.000000	72.390200
1160.000000	72.514100
1159.000000	72.617300
1158.000000	72.727100
1157.000000	72.829700
1156.000000	72.928200
1155.000000	73.019000
1154.000000	73.088600
1153.000000	73.167400
1152.000000	73.225800
1151.000000	73.272800
1150.000000	73.332200
1149.000000	73.384900
1148.000000	73.442700
1147.000000	73.479800
1146.000000	73.552700
1145.000000	73.591300
1144.000000	73.616700
1143.000000	73.685500
1142.000000	73.738000
1141.000000	73.821700
1140.000000	73.892000
1139.000000	73.961700
1138.000000	74.054100
1137.000000	74.172800
1136.000000	74.271800
1135.000000	74.382200
1134.000000	74.451600
1133.000000	74.448500
1132.000000	74.516100
1131.000000	74.573400
1130.000000	74.652300
1129.000000	74.686200
1128.000000	74.716300
1127.000000	74.748800
1126.000000	74.782400
1125.000000	74.786200
1124.000000	74.798800
1123.000000	74.794900
1122.000000	74.784400
1121.000000	74.767400
1120.000000	74.730700
1119.000000	74.707000
1118.000000	74.673100
1117.000000	74.646700
1116.000000	74.621700
1115.000000	74.612000
1114.000000	74.572700
1113.000000	74.539600
1112.000000	74.522400
1111.000000	74.496100
1110.000000	74.451300
1109.000000	74.424000
1108.000000	74.399900
1107.000000	74.365600
1106.000000	74.343400
1105.000000	74.314900
1104.000000	74.276200
1103.000000	74.262200
1102.000000	74.235300
1101.000000	74.178400
1100.000000	74.161200
1099.000000	74.138700
1098.000000	74.089800
1097.000000	74.048800
1096.000000	74.007400
1095.000000	73.980200
1094.000000	73.948700
1093.000000	73.894800
1092.000000	73.845500
1091.000000	73.820900
1090.000000	73.761000
1089.000000	73.724700
1088.000000	73.674800
1087.000000	73.632600
1086.000000	73.592900
1085.000000	73.558000
1084.000000	73.517700
1083.000000	73.467400
1082.000000	73.421300
1081.000000	73.384500
1080.000000	73.332300
1079.000000	73.282700
1078.000000	73.236200
1077.000000	73.193900
1076.000000	73.158500
1075.000000	73.103300
1074.000000	73.059100
1073.000000	73.011400
1072.000000	72.963500
1071.000000	72.927400
1070.000000	72.891400
1069.000000	72.844200
1068.000000	72.798800
1067.000000	72.754900
1066.000000	72.698400
1065.000000	72.664000
1064.000000	72.621900
1063.000000	72.557300
1062.000000	72.517000
1061.000000	72.471900
1060.000000	72.430600
1059.000000	72.389600
1058.000000	72.341300
1057.000000	72.310700
1056.000000	72.274600
1055.000000	72.228800
1054.000000	72.182100
1053.000000	72.140700
1052.000000	72.107400
1051.000000	72.077000
1050.000000	72.036800
1049.000000	71.995500
1048.000000	71.965500
1047.000000	71.929400
1046.000000	71.888900
1045.000000	71.858600
1044.000000	71.822200
1043.000000	71.777400
1042.000000	71.740700
1041.000000	71.710200
1040.000000	71.673300
1039.000000	71.624900
1038.000000	71.589000
1037.000000	71.563800
1036.000000	71.519100
1035.000000	71.474500
1034.000000	71.430200
1033.000000	71.395700
1032.000000	71.366800
1031.000000	71.335800
1030.000000	71.298800
1029.000000	71.261400
1028.000000	71.218400
1027.000000	71.183600
1026.000000	71.151900
1025.000000	71.116600
1024.000000	71.076500
1023.000000	71.040400
1022.000000	71.012400
1021.000000	70.973800
1020.000000	70.953300
1019.000000	70.917200
1018.000000	70.895200
1017.000000	70.897400
1016.000000	70.872000
1015.000000	70.856800
1014.000000	70.855100
1013.000000	70.835300
1012.000000	70.816700
1011.000000	70.801600
1010.000000	70.773400
1009.000000	70.777600
1008.000000	70.780700
1007.000000	70.747500
1006.000000	70.732600
1005.000000	70.725300
1004.000000	70.720400
1003.000000	70.711600
1002.000000	70.702500
1001.000000	70.683100
1000.000000	70.676900
999.000000	70.676100
998.000000	70.671300
997.000000	70.659300
996.000000	70.631300
995.000000	70.621400
994.000000	70.615400
993.000000	70.600800
992.000000	70.584100
991.000000	70.560400
990.000000	70.534100
989.000000	70.535000
988.000000	70.526200
987.000000	70.487800
986.000000	70.466600
985.000000	70.439200
984.000000	70.447100
983.000000	70.431500
982.000000	70.400000
981.000000	70.371000
980.000000	70.380700
979.000000	70.362700
978.000000	70.326400
977.000000	70.323300
976.000000	70.320100
975.000000	70.296800
974.000000	70.264700
973.000000	70.271500
972.000000	70.283800
971.000000	70.251800
970.000000	70.221600
969.000000	70.240200
968.000000	70.249200
967.000000	70.243000
966.000000	70.236600
965.000000	70.229800
964.000000	70.244300
963.000000	70.242900
962.000000	70.237700
961.000000	70.241200
960.000000	70.249400
959.000000	70.275700
958.000000	70.258600
957.000000	70.273000
956.000000	70.264400
955.000000	70.265100
954.000000	70.258700
953.000000	70.275300
952.000000	70.277500
951.000000	70.258900
950.000000	70.270200
949.000000	70.253200
948.000000	70.253800
947.000000	70.234400
946.000000	70.246200
945.000000	70.229500
944.000000	70.238700
943.000000	70.250000
942.000000	70.207900
941.000000	70.173800
940.000000	70.187500
939.000000	70.146800
938.000000	70.145500
937.000000	70.142500
936.000000	70.126500
935.000000	70.109400
934.000000	70.102300
933.000000	70.109700
932.000000	70.111000
931.000000	70.081600
930.000000	70.041200
929.000000	70.031200
928.000000	69.996300
927.000000	69.975700
926.000000	69.966500
925.000000	69.958400
924.000000	69.945200
923.000000	69.931600
922.000000	69.943600
921.000000	69.939200
920.000000	69.904300
919.000000	69.904500
918.000000	69.876300
917.000000	69.882300
916.000000	69.877900
915.000000	69.946600
914.000000	69.894700
913.000000	69.901600
912.000000	69.891500
911.000000	69.900100
910.000000	69.930000
909.000000	69.948600
908.000000	69.944500
907.000000	69.965000
906.000000	69.972500
905.000000	70.025700
904.000000	70.015300
903.000000	70.019500
902.000000	69.982400
901.000000	70.002600
900.000000	70.009700
899.000000	70.116000
898.000000	70.079400
897.000000	70.099100
896.000000	70.124300
895.000000	70.050000
894.000000	70.075700
893.000000	70.061900
892.000000	70.075300
891.000000	70.088500
890.000000	70.091400
889.000000	70.102600
888.000000	70.077100
887.000000	70.042100
886.000000	70.056300
885.000000	70.059000
884.000000	70.041500
883.000000	69.997700
882.000000	69.967700
881.000000	69.979800
880.000000	69.983900
879.000000	69.963500
878.000000	69.866400
877.000000	69.842700
876.000000	69.755000
875.000000	69.605000
874.000000	69.431200
873.000000	69.224200
872.000000	69.118300
871.000000	68.917200
870.000000	68.755800
869.000000	68.556000
868.000000	68.393500
867.000000	68.171700
866.000000	68.016600
865.000000	67.756200
864.000000	67.541900
863.000000	67.213100
862.000000	66.843500
861.000000	66.573600
860.000000	66.331600
859.000000	65.961100
858.000000	67.156400
857.000000	66.422460
856.000000	66.547994
855.000000	66.869537
854.000000	67.276883
853.000000	67.128445
852.000000	67.534469
851.000000	67.513327
850.000000	67.689074
849.000000	67.654365
848.000000	67.796725
847.000000	68.328372
846.000000	68.387659
845.000000	68.316832
844.000000	68.632913
843.000000	68.845924
842.000000	68.813681
841.000000	69.025195
840.000000	69.170638
839.000000	69.288243
838.000000	69.517640
837.000000	69.890277
836.000000	70.086462
835.000000	69.988061
834.000000	70.277714
833.000000	70.505349
832.000000	70.917188
831.000000	71.182967
830.000000	71.358714
829.000000	71.601766
828.000000	71.847812
827.000000	72.267756
826.000000	72.513626
825.000000	72.603481
824.000000	73.062363
823.000000	73.339859
822.000000	73.707122
821.000000	73.973254
820.000000	74.227405
819.000000	74.640125
818.000000	74.885995
817.000000	75.145608
816.000000	75.474550
815.000000	75.862868
814.000000	76.263431
813.000000	76.519873
812.000000	76.815164
811.000000	77.323465
810.000000	77.656989
809.000000	78.101951
808.000000	78.344033
807.000000	78.694735
806.000000	79.067813
805.000000	79.356761
804.000000	79.614171
803.000000	79.833790
802.000000	80.233560
801.000000	80.595273
800.000000	80.802382
799.000000	81.151322
798.000000	81.441063
797.000000	81.731773
796.000000	81.997905
795.000000	82.203075
794.000000	82.508233
793.000000	82.772955
792.000000	83.092295
791.000000	83.238179
790.000000	83.494180
789.000000	83.741548
788.000000	83.912009
787.000000	84.108371
786.000000	84.268525
785.000000	84.431940
784.000000	84.654201
783.000000	84.758240
782.000000	84.999969
781.000000	85.269008
780.000000	85.407404
779.000000	85.542011
778.000000	85.765946
777.000000	85.987766
776.000000	86.025294
775.000000	86.143869
774.000000	86.318030
773.000000	86.428853
772.000000	86.570419
771.000000	86.629266
770.000000	86.706172
769.000000	86.878131
768.000000	86.916629
767.000000	86.974330
766.000000	87.034498
765.000000	87.163644
764.000000	87.188310
763.000000	87.181615
762.000000	87.286535
761.000000	87.299397
760.000000	87.300189
759.000000	87.324944
758.000000	87.376655
757.000000	87.435590
756.000000	87.340536
755.000000	87.236057
754.000000	87.221345
753.000000	87.200291
752.000000	87.113254
751.000000	86.969309
750.000000	86.893900
749.000000	86.872758
748.000000	86.778057
747.000000	86.557734
746.000000	86.389651
745.000000	86.353444
744.000000	86.209499
743.000000	86.097884
742.000000	85.998778
741.000000	85.842764
740.000000	85.748767
739.000000	85.617772
738.000000	85.494969
737.000000	85.406875
736.000000	85.293410
735.000000	85.150346
734.000000	84.962353
733.000000	84.746963
732.000000	84.587161
731.000000	84.462684
730.000000	84.245533
729.000000	84.050317
728.000000	83.806032
727.000000	83.548446
726.000000	83.337108
725.000000	83.062696
724.000000	82.807312
723.000000	82.554218
722.000000	82.291081
721.000000	82.020545
720.000000	81.694509
719.000000	81.384507
718.000000	81.054683
717.000000	80.768730
716.000000	80.554662
715.000000	80.233031
714.000000	79.919417
713.000000	79.704468
712.000000	79.431289
711.000000	79.125338
710.000000	78.842381
709.000000	78.540659
708.000000	78.214712
707.000000	77.852557
706.000000	77.474811
705.000000	77.152299
704.000000	76.770059
703.000000	76.377865
702.000000	75.989459
701.000000	75.511902
700.000000	75.121294
699.000000	74.685581
698.000000	74.228814
697.000000	73.755926
696.000000	73.272731
695.000000	72.850849
694.000000	72.377168
693.000000	71.913794
692.000000	71.495436
691.000000	71.065626
690.000000	70.625597
689.000000	70.216224
688.000000	69.840152
687.000000	69.508918
686.000000	69.169581
685.000000	68.835705
684.000000	68.466503
683.000000	68.137208
682.000000	67.788709
681.000000	67.362774
680.000000	66.969787
679.000000	66.630097
678.000000	66.201520
677.000000	65.751361
676.000000	65.298558
675.000000	64.854388
674.000000	64.416033
673.000000	63.923236
672.000000	63.469904
671.000000	62.929360
670.000000	62.460172
669.000000	61.967727
668.000000	61.596235
667.000000	61.138411
666.000000	60.727276
665.000000	60.340280
664.000000	59.975923
663.000000	59.700278
662.000000	59.433970
661.000000	59.151717
660.000000	58.899152
659.000000	58.587475
658.000000	58.354819
657.000000	58.095911
656.000000	57.847222
655.000000	57.592983
654.000000	57.324385
653.000000	57.031472
652.000000	56.734772
651.000000	56.431553
650.000000	56.128245
649.000000	55.829255
648.000000	55.497053
647.000000	55.196300
646.000000	54.901714
645.000000	54.604485
644.000000	54.368217
643.000000	54.111600
642.000000	53.885462
641.000000	53.693418
640.000000	53.514147
639.000000	53.279376
638.000000	53.188904
637.000000	53.080901
636.000000	52.985143
635.000000	52.870709
634.000000	52.796005
633.000000	52.676814
632.000000	52.589425
631.000000	52.454553
630.000000	52.362583
629.000000	52.218197
628.000000	52.083149
627.000000	51.928809
626.000000	51.779754
625.000000	51.624796
624.000000	51.414604
623.000000	51.284225
622.000000	51.158075
621.000000	51.063374
620.000000	50.991049
619.000000	50.930616
618.000000	50.904364
617.000000	50.908769
616.000000	50.948323
615.000000	51.041703
614.000000	51.099581
613.000000	51.194634
612.000000	51.298497
611.000000	51.418833
610.000000	51.557405
609.000000	51.664967
608.000000	51.823889
607.000000	51.941846
606.000000	52.103499
605.000000	52.285148
604.000000	52.449708
603.000000	52.702890
602.000000	52.940391
601.000000	53.233127
600.000000	53.509918
599.000000	53.815868
598.000000	54.181987
597.000000	54.557795
596.000000	54.964084
595.000000	55.379535
594.000000	55.779922
593.000000	56.239420
592.000000	56.684294
591.000000	57.134278
590.000000	57.609457
589.000000	58.055212
588.000000	58.489603
587.000000	58.940115
586.000000	59.359178
585.000000	59.770400
584.000000	60.152023
583.000000	60.527039
582.000000	60.837658
581.000000	61.206948
580.000000	61.515365
579.000000	61.813915
578.000000	62.121186
577.000000	62.381944
576.000000	62.610196
575.000000	62.817128
574.000000	63.048992
573.000000	63.233284
572.000000	63.444093
571.000000	63.574560
570.000000	63.725817
569.000000	63.818932
568.000000	63.901829
567.000000	64.036612
566.000000	64.072026
565.000000	64.125940
564.000000	64.125059
563.000000	64.120214
562.000000	64.160296
561.000000	64.128406
560.000000	64.069912
559.000000	64.018025
558.000000	63.895046
557.000000	63.821487
556.000000	63.741938
555.000000	63.633319
554.000000	63.477657
553.000000	63.273983
552.000000	63.125898
551.000000	62.929448
550.000000	62.738989
549.000000	62.496114
548.000000	62.285746
547.000000	62.043311
546.000000	61.772423
545.000000	61.495984
544.000000	61.169244
543.000000	60.859065
542.000000	60.507130
541.000000	60.153168
540.000000	59.735779
539.000000	59.310726
538.000000	58.869023
537.000000	58.402654
536.000000	57.888802
535.000000	57.359887
534.000000	56.788597
533.000000	56.186476
532.000000	55.546649
531.000000	54.899247
530.000000	54.192646
529.000000	53.500844
528.000000	52.764996
527.000000	52.040335
526.000000	51.278940
525.000000	50.472704
524.000000	49.680299
523.000000	48.897849
522.000000	48.122975
521.000000	47.327223
520.000000	46.558692
519.000000	45.787253
518.000000	45.024624
517.000000	44.301109
516.000000	43.613888
515.000000	42.929310
514.000000	42.257330
513.000000	41.587992
512.000000	40.952923
511.000000	40.339966
510.000000	39.753525
509.000000	39.191133
508.000000	38.620813
507.000000	38.064852
506.000000	37.552146
505.000000	37.045606
504.000000	36.537304
503.000000	36.046445
502.000000	35.563690
501.000000	35.076531
500.000000	34.625754
499.000000	34.189072
498.000000	33.763138
497.000000	33.354911
496.000000	32.982891
495.000000	32.614570
494.000000	32.222904
493.000000	31.876695
492.000000	31.543524
491.000000	31.216784
490.000000	30.910041
489.000000	30.633250
488.000000	30.356635
487.000000	30.078787
486.000000	29.821112
485.000000	29.563085
484.000000	29.300213
483.000000	29.069054
482.000000	28.827853
481.000000	28.575992
480.000000	28.323075
479.000000	28.092709
478.000000	27.852653
477.000000	27.617002
476.000000	27.392451
475.000000	27.162173
474.000000	26.929870
473.000000	26.716506
472.000000	26.515300
471.000000	26.298148
470.000000	26.076239
469.000000	25.875297
468.000000	25.674267
467.000000	25.474206
466.000000	25.276963
465.000000	25.061398
464.000000	24.847329
463.000000	24.642335
462.000000	24.435667
461.000000	24.193144
460.000000	23.946217
459.000000	23.718582
458.000000	23.481257
457.000000	23.220059
456.000000	22.957186
455.000000	22.678898
454.000000	22.385545
453.000000	22.092192
452.000000	21.784304
451.000000	21.457564
450.000000	21.126419
449.000000	20.786200
448.000000	20.451003
447.000000	20.110608
446.000000	19.743961
445.000000	19.359255
444.000000	18.972875
443.000000	18.586671
442.000000	18.186637
441.000000	17.778497
440.000000	17.360316
439.000000	16.959400
438.000000	16.562625
437.000000	16.159507
436.000000	15.740973
435.000000	15.324201
434.000000	14.915445
433.000000	14.512768
432.000000	14.106743
431.000000	13.704154
430.000000	13.319095
429.000000	12.935622
428.000000	12.576640
427.000000	12.217128
426.000000	11.853653
425.000000	11.513699
424.000000	11.183170
423.000000	10.867089
422.000000	10.569420
421.000000	10.272984
420.000000	9.984741
419.000000	9.723102
418.000000	9.471682
417.000000	9.231009
416.000000	9.005489
415.000000	8.781290
414.000000	8.571802
413.000000	8.392884
412.000000	8.206124
411.000000	8.030553
410.000000	7.871720
409.000000	7.730770
408.000000	7.593255
407.000000	7.464021
406.000000	7.353816
405.000000	7.254798
404.000000	7.148381
403.000000	7.050685
402.000000	6.970167
401.000000	6.891323
400.000000	6.821905
399.000000	6.754072
398.000000	6.691790
397.000000	6.646686
396.000000	6.592156
395.000000	6.537714
394.000000	6.500979
393.000000	6.457284
392.000000	6.414647
391.000000	6.364697
390.000000	6.314396
389.000000	6.274842
388.000000	6.236256
387.000000	6.208419
386.000000	6.185779
385.000000	6.149660
384.000000	6.124906
383.000000	6.093985
382.000000	6.053109
381.000000	6.024214
380.000000	5.999812
379.000000	5.981224
378.000000	5.937794
377.000000	5.914097
376.000000	5.860800
375.000000	5.840715
374.000000	5.745397
373.000000	5.673689
372.000000	5.707781
371.000000	5.700469
370.000000	5.630435
369.000000	5.664351
368.000000	5.652458
367.000000	5.607354
366.000000	5.573702
365.000000	5.529655
364.000000	5.516705
363.000000	5.544895
362.000000	5.482437
361.000000	5.452044
360.000000	5.436892
359.000000	5.431518
358.000000	5.360339
357.000000	5.353996
356.000000	5.316027
355.000000	5.302373
354.000000	5.291009
353.000000	5.297175
352.000000	5.229783
351.000000	5.213134
350.000000	5.181420
349.000000	5.173668
348.000000	5.139751
347.000000	5.099757
346.000000	5.065400
345.000000	5.123366
344.000000	5.147239
343.000000	5.090947
342.000000	5.061524
341.000000	5.051657
340.000000	5.093326
339.000000	5.105571
338.000000	5.113940
337.000000	5.054388
336.000000	5.074298
335.000000	5.094383
334.000000	4.969113
333.000000	5.099404
332.000000	5.072624
331.000000	5.073417
330.000000	5.087864
329.000000	5.053155
328.000000	5.107333
327.000000	5.102135
326.000000	5.037474
325.000000	5.150235
324.000000	5.102488
323.000000	5.029370
322.000000	5.117552
321.000000	4.953345
320.000000	5.146623
319.000000	5.037210
318.000000	4.898815
317.000000	4.923921
316.000000	4.975104
315.000000	4.910972
314.000000	4.944359
313.000000	4.947530
312.000000	4.926740
311.000000	4.967528
310.000000	4.960040
309.000000	4.920221
308.000000	4.984354
307.000000	4.961097
306.000000	4.950261
305.000000	4.944183
304.000000	4.952111
303.000000	4.941012
302.000000	4.960656
301.000000	4.976866
300.000000	4.987261
299.000000	4.976425
298.000000	5.003646
297.000000	5.001356
296.000000	4.987261
295.000000	4.973606
294.000000	4.979861
293.000000	4.987613
292.000000	4.999946
291.000000	5.012808
290.000000	4.988494
289.000000	4.961097
288.000000	4.961273
287.000000	4.956780
286.000000	4.950790
285.000000	5.030251
284.000000	4.977747
283.000000	4.991754
282.000000	4.985235
281.000000	4.979332
280.000000	5.006553
279.000000	4.982063
278.000000	5.011310
277.000000	4.992723
276.000000	5.021177
275.000000	5.036417
274.000000	5.060995
273.000000	5.076940
272.000000	5.099845
271.000000	5.084869
270.000000	5.063814
269.000000	5.092181
268.000000	5.141866
267.000000	5.137901
266.000000	5.181772
265.000000	5.166884
264.000000	5.191551
263.000000	5.249252
262.000000	5.270042
261.000000	5.295678
260.000000	5.291449
259.000000	5.338139
258.000000	5.326422
257.000000	5.320168
256.000000	5.336289
255.000000	5.388529
254.000000	5.366241
253.000000	5.409847
252.000000	5.434954
251.000000	5.456890
250.000000	5.429757
