PE UV       SUBTECH     SPECTRUM    ASCII       PEDS        4.00        
   -1
CICIMAUCR0158-5.Sample.ASC
24/04/25
13:52:02.00
24/04/25
13:52:02.00
Vinicio Soto Monge
C. cupreomarginata
250,000000
1
Lambda 1050
1050L1511233
PerkinElmer UV WinLab 6.3.2.0749 / 2.02.05 Lambda 900 UV/VIS/NIR, Aug  7 2015 09:38:08

0
0
3350/servo 860,8/2
0
0
UV/VIS
1
1
1
DoubleDePol,CommonBeamDepol,RBeamAtt,SBeamAtt,60mm sphere, WB InGaAs Detector
0
0
0
0
Program
Program
3350/servo 860,8/2
3350/0,2 860,8/0,2
3350/0,2 860,8/0,2
0
15.00
 
 
 
0
 
860,8
319,2
860,8
Front
100
on
S:100 R:100
0
0
0
0
 
0
 
 
 
0
 
 
0
0
0
0
0
 
 
 
 
0
0


0
0
#HDR
-1
-1
#GR
nm
%R
1.0
0.0
2500,000000
-1,000000
2251
8
68,614000
5,280700
#DATA
2500.000000	18.414251
2499.000000	18.293408
2498.000000	18.179456
2497.000000	18.387872
2496.000000	18.237798
2495.000000	18.262870
2494.000000	18.226510
2493.000000	18.289011
2492.000000	18.111727
2491.000000	18.206667
2490.000000	18.235422
2489.000000	18.109588
2488.000000	18.174347
2487.000000	18.150226
2486.000000	18.139650
2485.000000	18.147374
2484.000000	18.121589
2483.000000	18.112915
2482.000000	18.182546
2481.000000	18.154385
2480.000000	18.208330
2479.000000	18.179694
2478.000000	18.216885
2477.000000	18.294833
2476.000000	18.230431
2475.000000	18.259662
2474.000000	18.291982
2473.000000	18.291625
2472.000000	18.304102
2471.000000	18.396665
2470.000000	18.395001
2469.000000	18.469266
2468.000000	18.520835
2467.000000	18.505626
2466.000000	18.565156
2465.000000	18.623736
2464.000000	18.618270
2463.000000	18.692534
2462.000000	18.705961
2461.000000	18.773690
2460.000000	18.836785
2459.000000	18.868155
2458.000000	18.951450
2457.000000	19.047102
2456.000000	19.055539
2455.000000	19.126476
2454.000000	19.210365
2453.000000	19.301503
2452.000000	19.419019
2451.000000	19.507661
2450.000000	19.596303
2449.000000	19.680905
2448.000000	19.774062
2447.000000	19.877795
2446.000000	19.980933
2445.000000	20.065297
2444.000000	20.182695
2443.000000	20.251731
2442.000000	20.365801
2441.000000	20.467157
2440.000000	20.566850
2439.000000	20.663453
2438.000000	20.790831
2437.000000	20.890048
2436.000000	20.970610
2435.000000	21.056995
2434.000000	21.144686
2433.000000	21.229526
2432.000000	21.339556
2431.000000	21.423208
2430.000000	21.501393
2429.000000	21.593362
2428.000000	21.676182
2427.000000	21.758407
2426.000000	21.829345
2425.000000	21.901589
2424.000000	21.979300
2423.000000	22.058555
2422.000000	22.130442
2421.000000	22.193775
2420.000000	22.254731
2419.000000	22.319728
2418.000000	22.373792
2417.000000	22.428688
2416.000000	22.478000
2415.000000	22.541689
2414.000000	22.607398
2413.000000	22.655878
2412.000000	22.718141
2411.000000	22.766027
2410.000000	22.846589
2409.000000	22.920972
2408.000000	22.972066
2407.000000	23.013773
2406.000000	23.053698
2405.000000	23.081621
2404.000000	23.116436
2403.000000	23.135329
2402.000000	23.165273
2401.000000	23.220407
2400.000000	23.248211
2399.000000	23.276966
2398.000000	23.297523
2397.000000	23.324496
2396.000000	23.385571
2395.000000	23.416584
2394.000000	23.412425
2393.000000	23.440348
2392.000000	23.461736
2391.000000	23.479203
2390.000000	23.495839
2389.000000	23.506295
2388.000000	23.512117
2387.000000	23.511167
2386.000000	23.532555
2385.000000	23.551091
2384.000000	23.558934
2383.000000	23.566063
2382.000000	23.559528
2381.000000	23.563449
2380.000000	23.577826
2379.000000	23.558458
2378.000000	23.549190
2377.000000	23.547527
2376.000000	23.541110
2375.000000	23.531367
2374.000000	23.535050
2373.000000	23.546457
2372.000000	23.535763
2371.000000	23.516633
2370.000000	23.515088
2369.000000	23.508909
2368.000000	23.495601
2367.000000	23.494769
2366.000000	23.499760
2365.000000	23.499403
2364.000000	23.496076
2363.000000	23.488590
2362.000000	23.501067
2361.000000	23.519247
2360.000000	23.509266
2359.000000	23.488709
2358.000000	23.486689
2357.000000	23.490254
2356.000000	23.483362
2355.000000	23.480748
2354.000000	23.468390
2353.000000	23.446883
2352.000000	23.439873
2351.000000	23.431793
2350.000000	23.427515
2349.000000	23.421218
2348.000000	23.411355
2347.000000	23.419079
2346.000000	23.408860
2345.000000	23.415395
2344.000000	23.419792
2343.000000	23.407078
2342.000000	23.408622
2341.000000	23.411118
2340.000000	23.432268
2339.000000	23.441418
2338.000000	23.428822
2337.000000	23.427634
2336.000000	23.448072
2335.000000	23.486095
2334.000000	23.508315
2333.000000	23.510216
2332.000000	23.539447
2331.000000	23.568321
2330.000000	23.594937
2329.000000	23.616087
2328.000000	23.647813
2327.000000	23.704967
2326.000000	23.736693
2325.000000	23.755823
2324.000000	23.763785
2323.000000	23.774241
2322.000000	23.812146
2321.000000	23.827830
2320.000000	23.846961
2319.000000	23.840069
2318.000000	23.819156
2317.000000	23.818206
2316.000000	23.805254
2315.000000	23.806561
2314.000000	23.766517
2313.000000	23.745248
2312.000000	23.704729
2311.000000	23.663260
2310.000000	23.649001
2309.000000	23.609790
2308.000000	23.577232
2307.000000	23.543368
2306.000000	23.528396
2305.000000	23.506889
2304.000000	23.495601
2303.000000	23.485857
2302.000000	23.454132
2301.000000	23.435476
2300.000000	23.438328
2299.000000	23.436189
2298.000000	23.439041
2297.000000	23.449973
2296.000000	23.460786
2295.000000	23.457696
2294.000000	23.510216
2293.000000	23.520910
2292.000000	23.545269
2291.000000	23.560954
2290.000000	23.601591
2289.000000	23.632129
2288.000000	23.666468
2287.000000	23.722434
2286.000000	23.763309
2285.000000	23.798362
2284.000000	23.835316
2283.000000	23.905659
2282.000000	23.938454
2281.000000	23.983845
2280.000000	24.028760
2279.000000	24.094707
2278.000000	24.120967
2277.000000	24.163149
2276.000000	24.192498
2275.000000	24.230997
2274.000000	24.290765
2273.000000	24.304905
2272.000000	24.315005
2271.000000	24.377862
2270.000000	24.420044
2269.000000	24.467336
2268.000000	24.515459
2267.000000	24.586991
2266.000000	24.652462
2265.000000	24.716389
2264.000000	24.794812
2263.000000	24.896169
2262.000000	25.036380
2261.000000	25.124903
2260.000000	25.249430
2259.000000	25.367183
2258.000000	25.534605
2257.000000	25.670420
2256.000000	25.847823
2255.000000	26.000035
2254.000000	26.150821
2253.000000	26.339750
2252.000000	26.468792
2251.000000	26.626708
2250.000000	26.769414
2249.000000	26.962383
2248.000000	27.074433
2247.000000	27.177809
2246.000000	27.346419
2245.000000	27.480927
2244.000000	27.568143
2243.000000	27.666529
2242.000000	27.755646
2241.000000	27.820048
2240.000000	27.942436
2239.000000	27.987351
2238.000000	28.033573
2237.000000	28.052347
2236.000000	28.075399
2235.000000	28.138019
2234.000000	28.150257
2233.000000	28.130889
2232.000000	28.155248
2231.000000	28.109263
2230.000000	28.120076
2229.000000	28.092747
2228.000000	28.072310
2227.000000	27.996976
2226.000000	27.954437
2225.000000	27.911780
2224.000000	27.846664
2223.000000	27.771449
2222.000000	27.684946
2221.000000	27.634565
2220.000000	27.540933
2219.000000	27.491383
2218.000000	27.411891
2217.000000	27.321704
2216.000000	27.252668
2215.000000	27.164501
2214.000000	27.101644
2213.000000	27.019893
2212.000000	26.978662
2211.000000	26.882534
2210.000000	26.838094
2209.000000	26.769177
2208.000000	26.736144
2207.000000	26.643937
2206.000000	26.596527
2205.000000	26.551612
2204.000000	26.509667
2203.000000	26.489943
2202.000000	26.466772
2201.000000	26.397855
2200.000000	26.368862
2199.000000	26.308262
2198.000000	26.298756
2197.000000	26.275229
2196.000000	26.258832
2195.000000	26.220333
2194.000000	26.210471
2193.000000	26.200014
2192.000000	26.197044
2191.000000	26.151059
2190.000000	26.127651
2189.000000	26.110184
2188.000000	26.092836
2187.000000	26.078339
2186.000000	26.026889
2185.000000	26.005026
2184.000000	25.993381
2183.000000	25.983162
2182.000000	25.969616
2181.000000	25.940505
2180.000000	25.961774
2179.000000	25.946802
2178.000000	25.890124
2177.000000	25.883470
2176.000000	25.886678
2175.000000	25.906165
2174.000000	25.892975
2173.000000	25.876221
2172.000000	25.905571
2171.000000	25.928503
2170.000000	25.934088
2169.000000	25.955714
2168.000000	25.968547
2167.000000	26.026057
2166.000000	26.059447
2165.000000	26.079409
2164.000000	26.127413
2163.000000	26.202509
2162.000000	26.257406
2161.000000	26.324897
2160.000000	26.374090
2159.000000	26.459524
2158.000000	26.532719
2157.000000	26.625520
2156.000000	26.728064
2155.000000	26.805418
2154.000000	26.907368
2153.000000	27.025478
2152.000000	27.141568
2151.000000	27.258728
2150.000000	27.361866
2149.000000	27.474986
2148.000000	27.583234
2147.000000	27.701106
2146.000000	27.826465
2145.000000	27.925563
2144.000000	28.026681
2143.000000	28.134216
2142.000000	28.241751
2141.000000	28.343464
2140.000000	28.438879
2139.000000	28.534056
2138.000000	28.635769
2137.000000	28.736293
2136.000000	28.826123
2135.000000	28.920231
2134.000000	29.018617
2133.000000	29.101199
2132.000000	29.189722
2131.000000	29.261491
2130.000000	29.316031
2129.000000	29.400276
2128.000000	29.470382
2127.000000	29.535140
2126.000000	29.601444
2125.000000	29.662044
2124.000000	29.709810
2123.000000	29.756151
2122.000000	29.807839
2121.000000	29.840397
2120.000000	29.865825
2119.000000	29.922147
2118.000000	29.963973
2117.000000	29.973598
2116.000000	29.997362
2115.000000	30.015899
2114.000000	30.031464
2113.000000	30.071508
2112.000000	30.087787
2111.000000	30.087311
2110.000000	30.094678
2109.000000	30.099194
2108.000000	30.122008
2107.000000	30.129375
2106.000000	30.131276
2105.000000	30.123434
2104.000000	30.116185
2103.000000	30.132702
2102.000000	30.133415
2101.000000	30.136385
2100.000000	30.136266
2099.000000	30.146842
2098.000000	30.152070
2097.000000	30.139237
2096.000000	30.141257
2095.000000	30.169062
2094.000000	30.201857
2093.000000	30.211125
2092.000000	30.201025
2091.000000	30.189380
2090.000000	30.181419
2089.000000	30.206729
2088.000000	30.233820
2087.000000	30.219918
2086.000000	30.212551
2085.000000	30.206253
2084.000000	30.174171
2083.000000	30.155753
2082.000000	30.130919
2081.000000	30.081251
2080.000000	30.035742
2079.000000	29.993679
2078.000000	29.924880
2077.000000	29.852636
2076.000000	29.782768
2075.000000	29.704582
2074.000000	29.620931
2073.000000	29.521119
2072.000000	29.413941
2071.000000	29.314486
2070.000000	29.215744
2069.000000	29.103219
2068.000000	28.987723
2067.000000	28.858681
2066.000000	28.734986
2065.000000	28.628402
2064.000000	28.513975
2063.000000	28.416896
2062.000000	28.318392
2061.000000	28.210976
2060.000000	28.109501
2059.000000	28.039039
2058.000000	27.955269
2057.000000	27.893837
2056.000000	27.861636
2055.000000	27.851061
2054.000000	27.833713
2053.000000	27.860329
2052.000000	27.897758
2051.000000	27.942792
2050.000000	28.009214
2049.000000	28.115442
2048.000000	28.228087
2047.000000	28.322551
2046.000000	28.424976
2045.000000	28.542730
2044.000000	28.688526
2043.000000	28.860225
2042.000000	28.974296
2041.000000	29.090504
2040.000000	29.207189
2039.000000	29.358451
2038.000000	29.461351
2037.000000	29.570193
2036.000000	29.706008
2035.000000	29.836476
2034.000000	29.910621
2033.000000	29.995461
2032.000000	30.064854
2031.000000	30.175122
2030.000000	30.254258
2029.000000	30.338028
2028.000000	30.391261
2027.000000	30.454593
2026.000000	30.535037
2025.000000	30.579001
2024.000000	30.634254
2023.000000	30.665623
2022.000000	30.715054
2021.000000	30.759375
2020.000000	30.794071
2019.000000	30.814746
2018.000000	30.833045
2017.000000	30.846234
2016.000000	30.881644
2015.000000	30.898754
2014.000000	30.900536
2013.000000	30.889842
2012.000000	30.857641
2011.000000	30.842076
2010.000000	30.842313
2009.000000	30.782426
2008.000000	30.786229
2007.000000	30.743571
2006.000000	30.687843
2005.000000	30.645067
2004.000000	30.595874
2003.000000	30.536819
2002.000000	30.455901
2001.000000	30.393162
2000.000000	30.332562
1999.000000	30.259486
1998.000000	30.171795
1997.000000	30.093134
1996.000000	30.030157
1995.000000	29.908007
1994.000000	29.813305
1993.000000	29.715989
1992.000000	29.628535
1991.000000	29.530744
1990.000000	29.424991
1989.000000	29.325537
1988.000000	29.227864
1987.000000	29.093950
1986.000000	28.983801
1985.000000	28.879356
1984.000000	28.777168
1983.000000	28.660484
1982.000000	28.559959
1981.000000	28.455633
1980.000000	28.337166
1979.000000	28.206342
1978.000000	28.115918
1977.000000	27.984143
1976.000000	27.901204
1975.000000	27.801393
1974.000000	27.698017
1973.000000	27.571589
1972.000000	27.498513
1971.000000	27.383967
1970.000000	27.293424
1969.000000	27.232706
1968.000000	27.094039
1967.000000	26.990188
1966.000000	26.907130
1965.000000	26.815161
1964.000000	26.717013
1963.000000	26.618153
1962.000000	26.533313
1961.000000	26.412945
1960.000000	26.335116
1959.000000	26.229720
1958.000000	26.134899
1957.000000	26.054218
1956.000000	25.937415
1955.000000	25.862794
1954.000000	25.759181
1953.000000	25.638337
1952.000000	25.533654
1951.000000	25.451904
1950.000000	25.375857
1949.000000	25.280561
1948.000000	25.240993
1947.000000	25.129062
1946.000000	25.068462
1945.000000	24.988494
1944.000000	24.933360
1943.000000	24.900446
1942.000000	24.872998
1941.000000	24.811685
1940.000000	24.784356
1939.000000	24.760116
1938.000000	24.728984
1937.000000	24.730886
1936.000000	24.718172
1935.000000	24.735163
1934.000000	24.743837
1933.000000	24.766889
1932.000000	24.826538
1931.000000	24.884880
1930.000000	24.945242
1929.000000	25.016180
1928.000000	25.105891
1927.000000	25.214971
1926.000000	25.296721
1925.000000	25.427783
1924.000000	25.593779
1923.000000	25.740644
1922.000000	25.887747
1921.000000	26.091529
1920.000000	26.278437
1919.000000	26.472238
1918.000000	26.711310
1917.000000	26.927924
1916.000000	27.143469
1915.000000	27.409871
1914.000000	27.724871
1913.000000	28.068864
1912.000000	28.376378
1911.000000	28.694705
1910.000000	29.006853
1909.000000	29.315199
1908.000000	29.679986
1907.000000	30.098718
1906.000000	30.546919
1905.000000	31.035638
1904.000000	31.496434
1903.000000	31.959369
1902.000000	32.454861
1901.000000	32.967583
1900.000000	33.531398
1899.000000	34.084639
1898.000000	34.652494
1897.000000	35.236985
1896.000000	35.715129
1895.000000	36.216562
1894.000000	36.768139
1893.000000	37.335400
1892.000000	37.945438
1891.000000	38.525414
1890.000000	39.066177
1889.000000	39.577236
1888.000000	40.093522
1887.000000	40.565487
1886.000000	41.033175
1885.000000	41.512745
1884.000000	41.984235
1883.000000	42.376470
1882.000000	42.763358
1881.000000	43.149652
1880.000000	43.481406
1879.000000	43.809595
1878.000000	44.136596
1877.000000	44.420464
1876.000000	44.675221
1875.000000	44.953148
1874.000000	45.228937
1873.000000	45.483218
1872.000000	45.728350
1871.000000	45.933201
1870.000000	46.132467
1869.000000	46.345992
1868.000000	46.492739
1867.000000	46.594451
1866.000000	46.658616
1865.000000	46.760685
1864.000000	46.851703
1863.000000	46.927631
1862.000000	47.019006
1861.000000	47.123927
1860.000000	47.237760
1859.000000	47.310717
1858.000000	47.397220
1857.000000	47.468752
1856.000000	47.490140
1855.000000	47.537907
1854.000000	47.596368
1853.000000	47.590664
1852.000000	47.621796
1851.000000	47.681445
1850.000000	47.710200
1849.000000	47.724934
1848.000000	47.762007
1847.000000	47.765215
1846.000000	47.735391
1845.000000	47.721013
1844.000000	47.678474
1843.000000	47.703427
1842.000000	47.758205
1841.000000	47.759393
1840.000000	47.729925
1839.000000	47.682633
1838.000000	47.659344
1837.000000	47.656730
1836.000000	47.639857
1835.000000	47.604329
1834.000000	47.546106
1833.000000	47.507607
1832.000000	47.474812
1831.000000	47.460791
1830.000000	47.458176
1829.000000	47.433342
1828.000000	47.373931
1827.000000	47.352899
1826.000000	47.351592
1825.000000	47.322480
1824.000000	47.314638
1823.000000	47.343037
1822.000000	47.363118
1821.000000	47.383556
1820.000000	47.386288
1819.000000	47.338878
1818.000000	47.301092
1817.000000	47.301330
1816.000000	47.315113
1815.000000	47.289091
1814.000000	47.283269
1813.000000	47.271862
1812.000000	47.255464
1811.000000	47.230393
1810.000000	47.165040
1809.000000	47.155415
1808.000000	47.167298
1807.000000	47.158742
1806.000000	47.143533
1805.000000	47.097786
1804.000000	47.067130
1803.000000	47.061901
1802.000000	47.066298
1801.000000	47.042177
1800.000000	47.006768
1799.000000	46.975517
1798.000000	46.973141
1797.000000	46.975755
1796.000000	46.959951
1795.000000	46.942960
1794.000000	46.925017
1793.000000	46.913848
1792.000000	46.900659
1791.000000	46.878914
1790.000000	46.872497
1789.000000	46.871428
1788.000000	46.881409
1787.000000	46.889608
1786.000000	46.875943
1785.000000	46.884023
1784.000000	46.869289
1783.000000	46.867032
1782.000000	46.859902
1781.000000	46.836138
1780.000000	46.810353
1779.000000	46.800966
1778.000000	46.773755
1777.000000	46.755694
1776.000000	46.726226
1775.000000	46.691055
1774.000000	46.655527
1773.000000	46.632831
1772.000000	46.601700
1771.000000	46.550368
1770.000000	46.524227
1769.000000	46.503314
1768.000000	46.452696
1767.000000	46.422633
1766.000000	46.403146
1765.000000	46.370826
1764.000000	46.367856
1763.000000	46.334229
1762.000000	46.302028
1761.000000	46.294780
1760.000000	46.289551
1759.000000	46.285274
1758.000000	46.261984
1757.000000	46.262460
1756.000000	46.250934
1755.000000	46.253905
1754.000000	46.252479
1753.000000	46.249389
1752.000000	46.246419
1751.000000	46.212673
1750.000000	46.185106
1749.000000	46.143518
1748.000000	46.115713
1747.000000	46.085413
1746.000000	46.024814
1745.000000	45.983344
1744.000000	45.944846
1743.000000	45.897911
1742.000000	45.851332
1741.000000	45.792990
1740.000000	45.726092
1739.000000	45.684504
1738.000000	45.629608
1737.000000	45.596932
1736.000000	45.561879
1735.000000	45.527064
1734.000000	45.483693
1733.000000	45.452205
1732.000000	45.432481
1731.000000	45.400398
1730.000000	45.388872
1729.000000	45.367841
1728.000000	45.343601
1727.000000	45.319599
1726.000000	45.343601
1725.000000	45.333620
1724.000000	45.376277
1723.000000	45.418935
1722.000000	45.492843
1721.000000	45.621647
1720.000000	45.761858
1719.000000	45.905634
1718.000000	46.057371
1717.000000	46.245349
1716.000000	46.405879
1715.000000	46.602888
1714.000000	46.735970
1713.000000	46.851585
1712.000000	46.991083
1711.000000	47.114184
1710.000000	47.203657
1709.000000	47.293369
1708.000000	47.363593
1707.000000	47.439521
1706.000000	47.494180
1705.000000	47.521628
1704.000000	47.548007
1703.000000	47.562503
1702.000000	47.573554
1701.000000	47.569870
1700.000000	47.592447
1699.000000	47.591258
1698.000000	47.604923
1697.000000	47.575574
1696.000000	47.561077
1695.000000	47.522460
1694.000000	47.493467
1693.000000	47.452473
1692.000000	47.411479
1691.000000	47.382130
1690.000000	47.367633
1689.000000	47.358127
1688.000000	47.392348
1687.000000	47.491685
1686.000000	47.594585
1685.000000	47.710675
1684.000000	47.918022
1683.000000	48.071304
1682.000000	48.269738
1681.000000	48.445359
1680.000000	48.633456
1679.000000	48.769983
1678.000000	48.958555
1677.000000	49.102094
1676.000000	49.259653
1675.000000	49.412103
1674.000000	49.578337
1673.000000	49.685990
1672.000000	49.813725
1671.000000	49.957739
1670.000000	50.115298
1669.000000	50.236141
1668.000000	50.405464
1667.000000	50.560172
1666.000000	50.676618
1665.000000	50.781777
1664.000000	50.882658
1663.000000	50.985796
1662.000000	51.114006
1661.000000	51.183518
1660.000000	51.271209
1659.000000	51.335374
1658.000000	51.391458
1657.000000	51.487348
1656.000000	51.514678
1655.000000	51.535828
1654.000000	51.575634
1653.000000	51.591556
1652.000000	51.621975
1651.000000	51.633263
1650.000000	51.632431
1649.000000	51.623401
1648.000000	51.650255
1647.000000	51.642531
1646.000000	51.616034
1645.000000	51.616984
1644.000000	51.599280
1643.000000	51.579793
1642.000000	51.580981
1641.000000	51.564821
1640.000000	51.556860
1639.000000	51.560425
1638.000000	51.542839
1637.000000	51.538561
1636.000000	51.520500
1635.000000	51.489962
1634.000000	51.458831
1633.000000	51.452533
1632.000000	51.428293
1631.000000	51.379932
1630.000000	51.333472
1629.000000	51.307331
1628.000000	51.266456
1627.000000	51.223323
1626.000000	51.205738
1625.000000	51.167358
1624.000000	51.122086
1623.000000	51.088578
1622.000000	51.066715
1621.000000	51.041643
1620.000000	50.994708
1619.000000	50.980449
1618.000000	50.967379
1617.000000	50.943139
1616.000000	50.913670
1615.000000	50.880519
1614.000000	50.842733
1613.000000	50.802333
1612.000000	50.763716
1611.000000	50.728782
1610.000000	50.678876
1609.000000	50.637407
1608.000000	50.587739
1607.000000	50.533793
1606.000000	50.482699
1605.000000	50.425426
1604.000000	50.358767
1603.000000	50.310762
1602.000000	50.262164
1601.000000	50.187305
1600.000000	50.116249
1599.000000	50.049589
1598.000000	50.008952
1597.000000	49.956788
1596.000000	49.894881
1595.000000	49.849016
1594.000000	49.799585
1593.000000	49.738985
1592.000000	49.682188
1591.000000	49.643571
1590.000000	49.603646
1589.000000	49.570970
1588.000000	49.534491
1587.000000	49.482328
1586.000000	49.451909
1585.000000	49.418163
1584.000000	49.364217
1583.000000	49.325362
1582.000000	49.289121
1581.000000	49.263931
1580.000000	49.237314
1579.000000	49.196439
1578.000000	49.169823
1577.000000	49.153544
1576.000000	49.143920
1575.000000	49.142969
1574.000000	49.134889
1573.000000	49.123244
1572.000000	49.127284
1571.000000	49.128473
1570.000000	49.129898
1569.000000	49.127165
1568.000000	49.133463
1567.000000	49.156752
1566.000000	49.167328
1565.000000	49.156634
1564.000000	49.162931
1563.000000	49.182893
1562.000000	49.169942
1561.000000	49.153069
1560.000000	49.133225
1559.000000	49.113738
1558.000000	49.085459
1557.000000	49.046366
1556.000000	48.987311
1555.000000	48.937524
1554.000000	48.898193
1553.000000	48.835098
1552.000000	48.769983
1551.000000	48.695125
1550.000000	48.626564
1549.000000	48.549685
1548.000000	48.476966
1547.000000	48.409593
1546.000000	48.348518
1545.000000	48.292552
1544.000000	48.239914
1543.000000	48.191315
1542.000000	48.148301
1541.000000	48.102792
1540.000000	48.068214
1539.000000	48.032567
1538.000000	47.994544
1537.000000	47.958540
1536.000000	47.910536
1535.000000	47.874533
1534.000000	47.837935
1533.000000	47.783871
1532.000000	47.740144
1531.000000	47.674672
1530.000000	47.630232
1529.000000	47.576405
1528.000000	47.523529
1527.000000	47.469227
1526.000000	47.405419
1525.000000	47.366801
1524.000000	47.301449
1523.000000	47.240017
1522.000000	47.205440
1521.000000	47.146622
1520.000000	47.066179
1519.000000	47.007837
1518.000000	46.947475
1517.000000	46.883548
1516.000000	46.824136
1515.000000	46.755813
1514.000000	46.693312
1513.000000	46.645427
1512.000000	46.580668
1511.000000	46.519355
1510.000000	46.445923
1509.000000	46.393640
1508.000000	46.334229
1507.000000	46.279689
1506.000000	46.217545
1505.000000	46.154331
1504.000000	46.096464
1503.000000	46.040023
1502.000000	45.986671
1501.000000	45.939499
1500.000000	45.912645
1499.000000	45.878067
1498.000000	45.847767
1497.000000	45.815923
1496.000000	45.816517
1495.000000	45.810457
1494.000000	45.802377
1493.000000	45.802496
1492.000000	45.804516
1491.000000	45.824716
1490.000000	45.847886
1489.000000	45.845985
1488.000000	45.859293
1487.000000	45.867135
1486.000000	45.902426
1485.000000	45.940330
1484.000000	45.953044
1483.000000	45.970274
1482.000000	45.994989
1481.000000	46.027428
1480.000000	46.052262
1479.000000	46.064738
1478.000000	46.093850
1477.000000	46.123080
1476.000000	46.117139
1475.000000	46.180115
1474.000000	46.235843
1473.000000	46.292403
1472.000000	46.327931
1471.000000	46.368331
1470.000000	46.402433
1469.000000	46.450557
1468.000000	46.520425
1467.000000	46.598373
1466.000000	46.649704
1465.000000	46.698659
1464.000000	46.784806
1463.000000	46.823067
1462.000000	46.896500
1461.000000	46.950921
1460.000000	47.031839
1459.000000	47.103965
1458.000000	47.221600
1457.000000	47.286834
1456.000000	47.363950
1455.000000	47.424668
1454.000000	47.498457
1453.000000	47.593635
1452.000000	47.684534
1451.000000	47.762007
1450.000000	47.824508
1449.000000	47.875008
1448.000000	47.961273
1447.000000	48.073442
1446.000000	48.175749
1445.000000	48.239438
1444.000000	48.299444
1443.000000	48.390106
1442.000000	48.462350
1441.000000	48.520811
1440.000000	48.649615
1439.000000	48.746694
1438.000000	48.837950
1437.000000	48.933246
1436.000000	49.052188
1435.000000	49.151168
1434.000000	49.279140
1433.000000	49.426006
1432.000000	49.538769
1431.000000	49.657473
1430.000000	49.809685
1429.000000	49.972473
1428.000000	50.115773
1427.000000	50.260856
1426.000000	50.476877
1425.000000	50.647863
1424.000000	50.855804
1423.000000	51.034632
1422.000000	51.235443
1421.000000	51.469287
1420.000000	51.751611
1419.000000	51.961809
1418.000000	52.187335
1417.000000	52.392305
1416.000000	52.677599
1415.000000	53.048921
1414.000000	53.331601
1413.000000	53.590755
1412.000000	53.827925
1411.000000	54.164076
1410.000000	54.585304
1409.000000	54.944031
1408.000000	55.260694
1407.000000	55.595062
1406.000000	55.929906
1405.000000	56.279840
1404.000000	56.568936
1403.000000	56.929802
1402.000000	57.281875
1401.000000	57.700251
1400.000000	58.034262
1399.000000	58.284266
1398.000000	58.476878
1397.000000	58.826931
1396.000000	59.259210
1395.000000	59.555079
1394.000000	59.714777
1393.000000	59.986645
1392.000000	60.277642
1391.000000	60.572918
1390.000000	60.778244
1389.000000	61.088966
1388.000000	61.399451
1387.000000	61.608698
1386.000000	61.846107
1385.000000	62.138768
1384.000000	62.310111
1383.000000	62.547401
1382.000000	62.713040
1381.000000	62.880462
1380.000000	62.949260
1379.000000	63.074619
1378.000000	63.145913
1377.000000	63.293253
1376.000000	63.378331
1375.000000	63.467091
1374.000000	63.587222
1373.000000	63.737533
1372.000000	63.826412
1371.000000	63.931808
1370.000000	64.013678
1369.000000	64.135709
1368.000000	64.223638
1367.000000	64.295645
1366.000000	64.394624
1365.000000	64.510952
1364.000000	64.575235
1363.000000	64.657105
1362.000000	64.772363
1361.000000	64.836052
1360.000000	64.850905
1359.000000	64.892850
1358.000000	64.949291
1357.000000	65.013930
1356.000000	65.136556
1355.000000	65.245635
1354.000000	65.281282
1353.000000	65.338555
1352.000000	65.489698
1351.000000	65.634662
1350.000000	65.789370
1349.000000	65.907836
1348.000000	66.016916
1347.000000	66.127303
1346.000000	66.255037
1345.000000	66.391446
1344.000000	66.524409
1343.000000	66.640024
1342.000000	66.744232
1341.000000	66.854381
1340.000000	66.966312
1339.000000	67.062916
1338.000000	67.154290
1337.000000	67.249468
1336.000000	67.346784
1335.000000	67.442199
1334.000000	67.497927
1333.000000	67.574568
1332.000000	67.671290
1331.000000	67.744604
1330.000000	67.809837
1329.000000	67.862832
1328.000000	67.920224
1327.000000	67.965971
1326.000000	68.022174
1325.000000	68.078734
1324.000000	68.134819
1323.000000	68.186982
1322.000000	68.239264
1321.000000	68.277644
1320.000000	68.322321
1319.000000	68.369256
1318.000000	68.413815
1317.000000	68.441976
1316.000000	68.480237
1315.000000	68.535609
1314.000000	68.578504
1313.000000	68.608447
1312.000000	68.634588
1311.000000	68.658234
1310.000000	68.662987
1309.000000	68.696020
1308.000000	68.729172
1307.000000	68.756739
1306.000000	68.789058
1305.000000	68.811991
1304.000000	68.828389
1303.000000	68.821259
1302.000000	68.828626
1301.000000	68.849064
1300.000000	68.859996
1299.000000	68.857144
1298.000000	68.857025
1297.000000	68.876275
1296.000000	68.886612
1295.000000	68.878651
1294.000000	68.875324
1293.000000	68.874373
1292.000000	68.866175
1291.000000	68.851559
1290.000000	68.856193
1289.000000	68.863323
1288.000000	68.836706
1287.000000	68.831478
1286.000000	68.836944
1285.000000	68.814605
1284.000000	68.805456
1283.000000	68.799158
1282.000000	68.785494
1281.000000	68.782048
1280.000000	68.776701
1279.000000	68.778602
1278.000000	68.780503
1277.000000	68.770641
1276.000000	68.758877
1275.000000	68.770878
1274.000000	68.785850
1273.000000	68.800347
1272.000000	68.818883
1271.000000	68.815675
1270.000000	68.816150
1269.000000	68.835637
1268.000000	68.848826
1267.000000	68.867600
1266.000000	68.896712
1265.000000	68.917863
1264.000000	68.916318
1263.000000	68.926774
1262.000000	68.939845
1261.000000	68.951608
1260.000000	68.957431
1259.000000	68.961352
1258.000000	68.961708
1257.000000	68.959688
1256.000000	68.971095
1255.000000	68.962421
1254.000000	68.936399
1253.000000	68.939013
1252.000000	68.951846
1251.000000	68.932953
1250.000000	68.909664
1249.000000	68.881740
1248.000000	68.872472
1247.000000	68.849302
1246.000000	68.822567
1245.000000	68.812942
1244.000000	68.760184
1243.000000	68.741886
1242.000000	68.723825
1241.000000	68.706714
1240.000000	68.686989
1239.000000	68.678553
1238.000000	68.678672
1237.000000	68.645639
1236.000000	68.632212
1235.000000	68.637321
1234.000000	68.608685
1233.000000	68.592406
1232.000000	68.586822
1231.000000	68.574226
1230.000000	68.559136
1229.000000	68.551175
1228.000000	68.528123
1227.000000	68.504596
1226.000000	68.494377
1225.000000	68.469424
1224.000000	68.458968
1223.000000	68.451126
1222.000000	68.428193
1221.000000	68.409775
1220.000000	68.384822
1219.000000	68.359513
1218.000000	68.330995
1217.000000	68.316974
1216.000000	68.276931
1215.000000	68.230946
1214.000000	68.198983
1213.000000	68.172129
1212.000000	68.150978
1211.000000	68.117946
1210.000000	68.068634
1209.000000	68.018966
1208.000000	67.984983
1207.000000	67.950524
1206.000000	67.892063
1205.000000	67.865447
1204.000000	67.820175
1203.000000	67.765516
1202.000000	67.703728
1201.000000	67.670696
1200.000000	67.620552
1199.000000	67.577776
1198.000000	67.524662
1197.000000	67.476420
1196.000000	67.422831
1195.000000	67.361637
1194.000000	67.318147
1193.000000	67.277629
1192.000000	67.213227
1191.000000	67.167836
1190.000000	67.115673
1189.000000	67.074917
1188.000000	67.044141
1187.000000	67.063153
1186.000000	67.065530
1185.000000	67.084541
1184.000000	67.088938
1183.000000	67.133972
1182.000000	67.167361
1181.000000	67.197780
1180.000000	67.250537
1179.000000	67.293313
1178.000000	67.342269
1177.000000	67.403106
1176.000000	67.458953
1175.000000	67.491392
1174.000000	67.563755
1173.000000	67.600946
1172.000000	67.656199
1171.000000	67.725829
1170.000000	67.797955
1169.000000	67.900975
1168.000000	67.991518
1167.000000	68.073268
1166.000000	68.161435
1165.000000	68.251027
1164.000000	68.343828
1163.000000	68.469424
1162.000000	68.566978
1161.000000	68.645401
1160.000000	68.744143
1159.000000	68.852748
1158.000000	68.938181
1157.000000	69.017912
1156.000000	69.073521
1155.000000	69.144696
1154.000000	69.218485
1153.000000	69.330060
1152.000000	69.358696
1151.000000	69.410384
1150.000000	69.458389
1149.000000	69.515067
1148.000000	69.571508
1147.000000	69.622484
1146.000000	69.687123
1145.000000	69.718255
1144.000000	69.774815
1143.000000	69.817235
1142.000000	69.876646
1141.000000	69.927146
1140.000000	70.024581
1139.000000	70.104311
1138.000000	70.168951
1137.000000	70.283496
1136.000000	70.359662
1135.000000	70.439511
1134.000000	70.507953
1133.000000	70.535401
1132.000000	70.604319
1131.000000	70.659928
1130.000000	70.742985
1129.000000	70.770909
1128.000000	70.806437
1127.000000	70.834835
1126.000000	70.880107
1125.000000	70.909694
1124.000000	70.940707
1123.000000	70.954490
1122.000000	70.949381
1121.000000	70.933102
1120.000000	70.942370
1119.000000	70.953896
1118.000000	70.936904
1117.000000	70.931676
1116.000000	70.914803
1115.000000	70.922764
1114.000000	70.893296
1113.000000	70.886048
1112.000000	70.863353
1111.000000	70.880226
1110.000000	70.862521
1109.000000	70.855035
1108.000000	70.846955
1107.000000	70.823666
1106.000000	70.823785
1105.000000	70.792416
1104.000000	70.792297
1103.000000	70.776850
1102.000000	70.749402
1101.000000	70.741678
1100.000000	70.733360
1099.000000	70.714586
1098.000000	70.688683
1097.000000	70.666820
1096.000000	70.653749
1095.000000	70.628202
1094.000000	70.616795
1093.000000	70.596239
1092.000000	70.571167
1091.000000	70.531599
1090.000000	70.512112
1089.000000	70.483594
1088.000000	70.455790
1087.000000	70.421212
1086.000000	70.398279
1085.000000	70.372020
1084.000000	70.333640
1083.000000	70.289913
1082.000000	70.259851
1081.000000	70.232878
1080.000000	70.202459
1079.000000	70.188200
1078.000000	70.142810
1077.000000	70.101697
1076.000000	70.066644
1075.000000	70.041097
1074.000000	70.012342
1073.000000	69.979309
1072.000000	69.927265
1071.000000	69.893519
1070.000000	69.865001
1069.000000	69.812482
1068.000000	69.776954
1067.000000	69.750337
1066.000000	69.711363
1065.000000	69.681420
1064.000000	69.629851
1063.000000	69.602997
1062.000000	69.583153
1061.000000	69.548100
1060.000000	69.516493
1059.000000	69.472766
1058.000000	69.441991
1057.000000	69.411929
1056.000000	69.360241
1055.000000	69.309979
1054.000000	69.286452
1053.000000	69.272550
1052.000000	69.233338
1051.000000	69.199236
1050.000000	69.180580
1049.000000	69.158242
1048.000000	69.119387
1047.000000	69.077323
1046.000000	69.050469
1045.000000	69.024090
1044.000000	68.986305
1043.000000	68.954104
1042.000000	68.931527
1041.000000	68.904554
1040.000000	68.869739
1039.000000	68.836112
1038.000000	68.815437
1037.000000	68.793336
1036.000000	68.751035
1035.000000	68.718953
1034.000000	68.687940
1033.000000	68.664057
1032.000000	68.634945
1031.000000	68.589198
1030.000000	68.547016
1029.000000	68.513745
1028.000000	68.493427
1027.000000	68.466454
1026.000000	68.425341
1025.000000	68.386723
1024.000000	68.361889
1023.000000	68.334679
1022.000000	68.311984
1021.000000	68.288219
1020.000000	68.227501
1019.000000	68.195299
1018.000000	68.190190
1017.000000	68.142304
1016.000000	68.099647
1015.000000	68.078021
1014.000000	68.051048
1013.000000	68.022650
1012.000000	67.995796
1011.000000	67.953495
1010.000000	67.920224
1009.000000	67.895984
1008.000000	67.883270
1007.000000	67.869368
1006.000000	67.832651
1005.000000	67.799024
1004.000000	67.744604
1003.000000	67.723809
1002.000000	67.709551
1001.000000	67.662616
1000.000000	67.639207
999.000000	67.605105
998.000000	67.573617
997.000000	67.542961
996.000000	67.501135
995.000000	67.466082
994.000000	67.442199
993.000000	67.407978
992.000000	67.378866
991.000000	67.349873
990.000000	67.306503
989.000000	67.281906
988.000000	67.256478
987.000000	67.220356
986.000000	67.208355
985.000000	67.181976
984.000000	67.166529
983.000000	67.140032
982.000000	67.090364
981.000000	67.095235
980.000000	67.084660
979.000000	67.048538
978.000000	67.018832
977.000000	67.018119
976.000000	67.015505
975.000000	66.993166
974.000000	66.992097
973.000000	66.988889
972.000000	66.983185
971.000000	67.012416
970.000000	66.999939
969.000000	67.001603
968.000000	66.993166
967.000000	66.995899
966.000000	67.020377
965.000000	67.021565
964.000000	67.057806
963.000000	67.079907
962.000000	67.079907
961.000000	67.095711
960.000000	67.094998
959.000000	67.144903
958.000000	67.156192
957.000000	67.174372
956.000000	67.253745
955.000000	67.256716
954.000000	67.273826
953.000000	67.322425
952.000000	67.356052
951.000000	67.362944
950.000000	67.424494
949.000000	67.452061
948.000000	67.495788
947.000000	67.536782
946.000000	67.549615
945.000000	67.565062
944.000000	67.624473
943.000000	67.629939
942.000000	67.630652
941.000000	67.688757
940.000000	67.707412
939.000000	67.721789
938.000000	67.735217
937.000000	67.760407
936.000000	67.785360
935.000000	67.841088
934.000000	67.843464
933.000000	67.841207
932.000000	67.862951
931.000000	67.918323
930.000000	67.917372
929.000000	67.944107
928.000000	68.027165
927.000000	68.033462
926.000000	68.053425
925.000000	68.077665
924.000000	68.106301
923.000000	68.119015
922.000000	68.224768
921.000000	68.240452
920.000000	68.287625
919.000000	68.309132
918.000000	68.361652
917.000000	68.388981
916.000000	68.420113
915.000000	68.463840
914.000000	68.521469
913.000000	68.600724
912.000000	68.661918
911.000000	68.724181
910.000000	68.786088
909.000000	68.855481
908.000000	68.931052
907.000000	69.021714
906.000000	69.092533
905.000000	69.188779
904.000000	69.257459
903.000000	69.316395
902.000000	69.391610
901.000000	69.469915
900.000000	69.515543
899.000000	69.572221
898.000000	69.534317
897.000000	69.566399
896.000000	69.616424
895.000000	69.641733
894.000000	69.687955
893.000000	69.681776
892.000000	69.568775
891.000000	69.573410
890.000000	69.578044
889.000000	69.503185
888.000000	69.363806
887.000000	69.339922
886.000000	69.264588
885.000000	69.157648
884.000000	68.946261
883.000000	68.789890
882.000000	68.516122
881.000000	68.327550
880.000000	68.048672
879.000000	67.913570
878.000000	67.686024
877.000000	67.359498
876.000000	67.102602
875.000000	66.749341
874.000000	66.468800
873.000000	66.076565
872.000000	65.572874
871.000000	65.246348
870.000000	64.694653
869.000000	64.141531
868.000000	63.569398
867.000000	63.147220
866.000000	62.877254
865.000000	62.894008
864.000000	62.957816
863.000000	63.090185
862.000000	63.174549
861.000000	63.280064
860.000000	63.336030
859.000000	63.419800
858.000000	65.662467
857.000000	65.685900
856.000000	65.472200
855.000000	65.829300
854.000000	66.006200
853.000000	66.494200
852.000000	66.122100
851.000000	66.402200
850.000000	66.419100
849.000000	66.784500
848.000000	66.965200
847.000000	66.916600
846.000000	67.308700
845.000000	67.035700
844.000000	67.394900
843.000000	67.777200
842.000000	67.687800
841.000000	67.879900
840.000000	68.106800
839.000000	67.833000
838.000000	68.121500
837.000000	68.167900
836.000000	68.214600
835.000000	68.121500
834.000000	68.369300
833.000000	68.548700
832.000000	68.474500
831.000000	68.578300
830.000000	68.614000
829.000000	68.417900
828.000000	68.532600
827.000000	68.543600
826.000000	68.545700
825.000000	68.544600
824.000000	68.507300
823.000000	68.360800
822.000000	68.375200
821.000000	68.458500
820.000000	68.300000
819.000000	68.176700
818.000000	68.328000
817.000000	68.148900
816.000000	68.236500
815.000000	68.207700
814.000000	67.967400
813.000000	68.077300
812.000000	68.100000
811.000000	68.000800
810.000000	67.839200
809.000000	67.788300
808.000000	67.780700
807.000000	67.706700
806.000000	67.682100
805.000000	67.588000
804.000000	67.549400
803.000000	67.498700
802.000000	67.412900
801.000000	67.397600
800.000000	67.339900
799.000000	67.245100
798.000000	67.146400
797.000000	67.104000
796.000000	67.083600
795.000000	67.041700
794.000000	66.959600
793.000000	66.984400
792.000000	66.896900
791.000000	66.723400
790.000000	66.714800
789.000000	66.611000
788.000000	66.554800
787.000000	66.484800
786.000000	66.302400
785.000000	66.236800
784.000000	66.089400
783.000000	66.063700
782.000000	65.934300
781.000000	65.745300
780.000000	65.619600
779.000000	65.526000
778.000000	65.380500
777.000000	65.266200
776.000000	65.082900
775.000000	64.953700
774.000000	64.799400
773.000000	64.684800
772.000000	64.510000
771.000000	64.315600
770.000000	64.210800
769.000000	64.026900
768.000000	63.870700
767.000000	63.751300
766.000000	63.604700
765.000000	63.485300
764.000000	63.319100
763.000000	63.112100
762.000000	63.025200
761.000000	62.968000
760.000000	62.806900
759.000000	62.697700
758.000000	62.578500
757.000000	62.474800
756.000000	62.353400
755.000000	62.268600
754.000000	62.212700
753.000000	62.090900
752.000000	61.988000
751.000000	61.870800
750.000000	61.774000
749.000000	61.788600
748.000000	61.753100
747.000000	61.622800
746.000000	61.529800
745.000000	61.450300
744.000000	61.409100
743.000000	61.377200
742.000000	61.297800
741.000000	61.263700
740.000000	61.272300
739.000000	61.237900
738.000000	61.185800
737.000000	61.112100
736.000000	61.057700
735.000000	61.003500
734.000000	60.963900
733.000000	60.954200
732.000000	60.905600
731.000000	60.795500
730.000000	60.742600
729.000000	60.751100
728.000000	60.665700
727.000000	60.610200
726.000000	60.557400
725.000000	60.467700
724.000000	60.397400
723.000000	60.284700
722.000000	60.217800
721.000000	60.122500
720.000000	60.013700
719.000000	59.878400
718.000000	59.732700
717.000000	59.578900
716.000000	59.460100
715.000000	59.307700
714.000000	59.121800
713.000000	58.966300
712.000000	58.798500
711.000000	58.654500
710.000000	58.544800
709.000000	58.308900
708.000000	58.155000
707.000000	58.000400
706.000000	57.859300
705.000000	57.730900
704.000000	57.576100
703.000000	57.418300
702.000000	57.232600
701.000000	57.044600
700.000000	56.872300
699.000000	56.713100
698.000000	56.622800
697.000000	56.555400
696.000000	56.416100
695.000000	56.328200
694.000000	56.224500
693.000000	56.127600
692.000000	56.093800
691.000000	56.016200
690.000000	55.963100
689.000000	55.950400
688.000000	55.903600
687.000000	55.885400
686.000000	55.840700
685.000000	55.847700
684.000000	55.795300
683.000000	55.770200
682.000000	55.815900
681.000000	55.818100
680.000000	55.823400
679.000000	55.857700
678.000000	55.830900
677.000000	55.825800
676.000000	55.877700
675.000000	55.834500
674.000000	55.779600
673.000000	55.759100
672.000000	55.729500
671.000000	55.746800
670.000000	55.705600
669.000000	55.617200
668.000000	55.631000
667.000000	55.570500
666.000000	55.423300
665.000000	55.324000
664.000000	55.210100
663.000000	55.072400
662.000000	54.826400
661.000000	54.614100
660.000000	54.371000
659.000000	54.126700
658.000000	53.874600
657.000000	53.557700
656.000000	53.230100
655.000000	52.932400
654.000000	52.553300
653.000000	52.222300
652.000000	51.846800
651.000000	51.470400
650.000000	51.064600
649.000000	50.677200
648.000000	50.321300
647.000000	49.966600
646.000000	49.524100
645.000000	49.160600
644.000000	48.821100
643.000000	48.478300
642.000000	48.195400
641.000000	47.943100
640.000000	47.784600
639.000000	47.648500
638.000000	47.588200
637.000000	47.542800
636.000000	47.558600
635.000000	47.712100
634.000000	47.883400
633.000000	48.173700
632.000000	48.489500
631.000000	48.915200
630.000000	49.375000
629.000000	49.867300
628.000000	50.378400
627.000000	50.937400
626.000000	51.551900
625.000000	52.104100
624.000000	52.702900
623.000000	53.225900
622.000000	53.791500
621.000000	54.342600
620.000000	54.837900
619.000000	55.347000
618.000000	55.781200
617.000000	56.248800
616.000000	56.742100
615.000000	57.119300
614.000000	57.579900
613.000000	57.999400
612.000000	58.490000
611.000000	58.931900
610.000000	59.314900
609.000000	59.741900
608.000000	60.177000
607.000000	60.592800
606.000000	60.957500
605.000000	61.362900
604.000000	61.745300
603.000000	62.119400
602.000000	62.478000
601.000000	62.791500
600.000000	63.053800
599.000000	63.304500
598.000000	63.508600
597.000000	63.720900
596.000000	63.877800
595.000000	64.036200
594.000000	64.205300
593.000000	64.346400
592.000000	64.497500
591.000000	64.652100
590.000000	64.760900
589.000000	64.817100
588.000000	64.928700
587.000000	64.986500
586.000000	64.999700
585.000000	65.056800
584.000000	65.129500
583.000000	65.176700
582.000000	65.228000
581.000000	65.269800
580.000000	65.365400
579.000000	65.450400
578.000000	65.523900
577.000000	65.630300
576.000000	65.746600
575.000000	65.872200
574.000000	66.005700
573.000000	66.063700
572.000000	66.208900
571.000000	66.284500
570.000000	66.369300
569.000000	66.416800
568.000000	66.424000
567.000000	66.405700
566.000000	66.354500
565.000000	66.225300
564.000000	66.112800
563.000000	65.932400
562.000000	65.752800
561.000000	65.557000
560.000000	65.412300
559.000000	65.137300
558.000000	64.928500
557.000000	64.745900
556.000000	64.524400
555.000000	64.314700
554.000000	64.041300
553.000000	63.758500
552.000000	63.458300
551.000000	63.140600
550.000000	62.737000
549.000000	62.296800
548.000000	61.831500
547.000000	61.289800
546.000000	60.645400
545.000000	59.983500
544.000000	59.287100
543.000000	58.517300
542.000000	57.699000
541.000000	56.846200
540.000000	55.942900
539.000000	55.049300
538.000000	54.133500
537.000000	53.201200
536.000000	52.268400
535.000000	51.348500
534.000000	50.439200
533.000000	49.523400
532.000000	48.627000
531.000000	47.756500
530.000000	46.932500
529.000000	46.129900
528.000000	45.325800
527.000000	44.578900
526.000000	43.870700
525.000000	43.162100
524.000000	42.479800
523.000000	41.811800
522.000000	41.163400
521.000000	40.536100
520.000000	39.935500
519.000000	39.351500
518.000000	38.809400
517.000000	38.273700
516.000000	37.743000
515.000000	37.231500
514.000000	36.728700
513.000000	36.249600
512.000000	35.773000
511.000000	35.338900
510.000000	34.897600
509.000000	34.482600
508.000000	34.090100
507.000000	33.718900
506.000000	33.343600
505.000000	32.966500
504.000000	32.629600
503.000000	32.279700
502.000000	31.948500
501.000000	31.633700
500.000000	31.318400
499.000000	30.990700
498.000000	30.643800
497.000000	30.356700
496.000000	30.005000
495.000000	29.646300
494.000000	29.298700
493.000000	28.961400
492.000000	28.600100
491.000000	28.272100
490.000000	27.907900
489.000000	27.552700
488.000000	27.199000
487.000000	26.848600
486.000000	26.497300
485.000000	26.172100
484.000000	25.843300
483.000000	25.494400
482.000000	25.173000
481.000000	24.887000
480.000000	24.592500
479.000000	24.303600
478.000000	24.009800
477.000000	23.737000
476.000000	23.476000
475.000000	23.221100
474.000000	22.991600
473.000000	22.762700
472.000000	22.542700
471.000000	22.306900
470.000000	22.092600
469.000000	21.895800
468.000000	21.696700
467.000000	21.493400
466.000000	21.280800
465.000000	21.082000
464.000000	20.884800
463.000000	20.668300
462.000000	20.445100
461.000000	20.201200
460.000000	19.939500
459.000000	19.687700
458.000000	19.407600
457.000000	19.110300
456.000000	18.811700
455.000000	18.500200
454.000000	18.165300
453.000000	17.836600
452.000000	17.500100
451.000000	17.166100
450.000000	16.843900
449.000000	16.525800
448.000000	16.214800
447.000000	15.926100
446.000000	15.663200
445.000000	15.404900
444.000000	15.180800
443.000000	15.004400
442.000000	14.836300
441.000000	14.684400
440.000000	14.555500
439.000000	14.464300
438.000000	14.400100
437.000000	14.348000
436.000000	14.326900
435.000000	14.314200
434.000000	14.330200
433.000000	14.364400
432.000000	14.384100
431.000000	14.398800
430.000000	14.440500
429.000000	14.500900
428.000000	14.538700
427.000000	14.576100
426.000000	14.607200
425.000000	14.632700
424.000000	14.676100
423.000000	14.699000
422.000000	14.700500
421.000000	14.702700
420.000000	14.671200
419.000000	14.618400
418.000000	14.593800
417.000000	14.564100
416.000000	14.515000
415.000000	14.462400
414.000000	14.369700
413.000000	14.269000
412.000000	14.168500
411.000000	14.048900
410.000000	13.934400
409.000000	13.833500
408.000000	13.706400
407.000000	13.532100
406.000000	13.347400
405.000000	13.189600
404.000000	13.028300
403.000000	12.835000
402.000000	12.639100
401.000000	12.434400
400.000000	12.222800
399.000000	12.013600
398.000000	11.793500
397.000000	11.552200
396.000000	11.309000
395.000000	11.061500
394.000000	10.818400
393.000000	10.555700
392.000000	10.301100
391.000000	10.071500
390.000000	9.794300
389.000000	9.530200
388.000000	9.292000
387.000000	9.033100
386.000000	8.791800
385.000000	8.574300
384.000000	8.320100
383.000000	8.090200
382.000000	7.905700
381.000000	7.710200
380.000000	7.503600
379.000000	7.311000
378.000000	7.159400
377.000000	6.984100
376.000000	6.907200
375.000000	6.586300
374.000000	6.229700
373.000000	6.220700
372.000000	6.194300
371.000000	5.981900
370.000000	5.989600
369.000000	6.137300
368.000000	6.029100
367.000000	5.895800
366.000000	5.830200
365.000000	5.817300
364.000000	5.843900
363.000000	5.808900
362.000000	5.825800
361.000000	5.787200
360.000000	5.710300
359.000000	5.630000
358.000000	5.624900
357.000000	5.561800
356.000000	5.686500
355.000000	5.685900
354.000000	5.540700
353.000000	5.448700
352.000000	5.547800
351.000000	5.544100
350.000000	5.374600
349.000000	5.552800
348.000000	5.582400
347.000000	5.416700
346.000000	5.280700
345.000000	5.497000
344.000000	5.369100
343.000000	5.492100
342.000000	5.600700
341.000000	5.419900
340.000000	5.320900
339.000000	5.424300
338.000000	5.353300
337.000000	5.396100
336.000000	5.352000
335.000000	5.551100
334.000000	5.506600
333.000000	5.665100
332.000000	5.548100
331.000000	5.307300
330.000000	5.376800
329.000000	5.712200
328.000000	5.544900
327.000000	5.610000
326.000000	5.553200
325.000000	5.812300
324.000000	5.977600
323.000000	6.178600
322.000000	6.118200
321.000000	5.982400
320.000000	6.159200
319.000000	5.504700
318.000000	5.787100
317.000000	6.432400
316.000000	5.567500
315.000000	5.467200
314.000000	5.471300
313.000000	5.467200
312.000000	5.461500
311.000000	5.472800
310.000000	5.489700
309.000000	5.498200
308.000000	5.550500
307.000000	5.438000
306.000000	5.474300
305.000000	5.499200
304.000000	5.445100
303.000000	5.432000
302.000000	5.405800
301.000000	5.406200
300.000000	5.394600
299.000000	5.426700
298.000000	5.486000
297.000000	5.404500
296.000000	5.474500
295.000000	5.439200
294.000000	5.507400
293.000000	5.445400
292.000000	5.431300
291.000000	5.528100
290.000000	5.530300
289.000000	5.508300
288.000000	5.417400
287.000000	5.570600
286.000000	5.486400
285.000000	5.432500
284.000000	5.511300
283.000000	5.578200
282.000000	5.553200
281.000000	5.525000
280.000000	5.581300
279.000000	5.608900
278.000000	5.621600
277.000000	5.660500
276.000000	5.602500
275.000000	5.650600
274.000000	5.694300
273.000000	5.609300
272.000000	5.697300
271.000000	5.690000
270.000000	5.740400
269.000000	5.773200
268.000000	5.769500
267.000000	5.734200
266.000000	5.793100
265.000000	5.831100
264.000000	5.839700
263.000000	5.871900
262.000000	5.947400
261.000000	5.928900
260.000000	5.967900
259.000000	5.951300
258.000000	5.957200
257.000000	6.073100
256.000000	6.040600
255.000000	6.048500
254.000000	6.078200
253.000000	6.092800
252.000000	6.122200
251.000000	6.088200
250.000000	6.154700
