PE UV       SUBTECH     SPECTRUM    ASCII       PEDS        4.00        
   -1
CICIMAUCR0009-1.Sample.ASC
24/04/17
11:03:30.00
24/04/17
11:03:30.00
Vinicio Soto Monge
C. kalinini
250,000000
1
Lambda 1050
1050L1511233
PerkinElmer UV WinLab 6.3.2.0749 / 2.02.05 Lambda 900 UV/VIS/NIR, Aug  7 2015 09:38:08

0
0
3350/servo 860,8/2
0
0
UV/VIS
1
1
1
DoubleDePol,CommonBeamDepol,RBeamAtt,SBeamAtt,60mm sphere, WB InGaAs Detector
0
0
0
0
Program
Program
3350/servo 860,8/2
3350/0,2 860,8/0,2
3350/0,2 860,8/0,2
0
15.00
 
 
 
0
 
860,8
319,2
860,8
Front
100
on
S:100 R:100
0
0
0
0
 
0
 
 
 
0
 
 
0
0
0
0
0
 
 
 
 
0
0


0
0
#HDR
-1
-1
#GR
nm
%R
1.0
0.0
2500,000000
-1,000000
2251
8
92,705800
4,951600
#DATA
2500.000000	6.562400
2499.000000	6.490700
2498.000000	6.457000
2497.000000	6.452900
2496.000000	6.332700
2495.000000	6.389400
2494.000000	6.415800
2493.000000	6.294400
2492.000000	6.335100
2491.000000	6.259900
2490.000000	6.319900
2489.000000	6.302500
2488.000000	6.204400
2487.000000	6.246600
2486.000000	6.222500
2485.000000	6.184600
2484.000000	6.176700
2483.000000	6.177600
2482.000000	6.164400
2481.000000	6.200300
2480.000000	6.145500
2479.000000	6.153800
2478.000000	6.176200
2477.000000	6.122000
2476.000000	6.110800
2475.000000	6.143200
2474.000000	6.141100
2473.000000	6.130200
2472.000000	6.080100
2471.000000	6.150700
2470.000000	6.124800
2469.000000	6.175600
2468.000000	6.125000
2467.000000	6.119300
2466.000000	6.138700
2465.000000	6.144900
2464.000000	6.146400
2463.000000	6.171600
2462.000000	6.163100
2461.000000	6.153300
2460.000000	6.209000
2459.000000	6.220900
2458.000000	6.253600
2457.000000	6.255400
2456.000000	6.284600
2455.000000	6.309100
2454.000000	6.326300
2453.000000	6.378500
2452.000000	6.415100
2451.000000	6.435600
2450.000000	6.478800
2449.000000	6.521600
2448.000000	6.567200
2447.000000	6.608100
2446.000000	6.629100
2445.000000	6.668700
2444.000000	6.707100
2443.000000	6.732000
2442.000000	6.762900
2441.000000	6.799300
2440.000000	6.854500
2439.000000	6.871200
2438.000000	6.896700
2437.000000	6.932000
2436.000000	6.978300
2435.000000	7.006000
2434.000000	7.032100
2433.000000	7.054000
2432.000000	7.097600
2431.000000	7.112800
2430.000000	7.144400
2429.000000	7.162300
2428.000000	7.180400
2427.000000	7.202500
2426.000000	7.206500
2425.000000	7.226500
2424.000000	7.232200
2423.000000	7.243500
2422.000000	7.227800
2421.000000	7.210900
2420.000000	7.210400
2419.000000	7.207200
2418.000000	7.222600
2417.000000	7.226500
2416.000000	7.230000
2415.000000	7.246900
2414.000000	7.247300
2413.000000	7.239600
2412.000000	7.242400
2411.000000	7.252900
2410.000000	7.268900
2409.000000	7.268100
2408.000000	7.277700
2407.000000	7.276000
2406.000000	7.286100
2405.000000	7.289000
2404.000000	7.286800
2403.000000	7.309700
2402.000000	7.328700
2401.000000	7.334500
2400.000000	7.321400
2399.000000	7.336300
2398.000000	7.366500
2397.000000	7.371300
2396.000000	7.378500
2395.000000	7.399100
2394.000000	7.403400
2393.000000	7.413300
2392.000000	7.420300
2391.000000	7.437100
2390.000000	7.445900
2389.000000	7.441600
2388.000000	7.455300
2387.000000	7.456200
2386.000000	7.448200
2385.000000	7.442100
2384.000000	7.435900
2383.000000	7.431200
2382.000000	7.427400
2381.000000	7.430200
2380.000000	7.425100
2379.000000	7.401200
2378.000000	7.404200
2377.000000	7.386500
2376.000000	7.366500
2375.000000	7.359300
2374.000000	7.343000
2373.000000	7.324100
2372.000000	7.301400
2371.000000	7.277900
2370.000000	7.252600
2369.000000	7.229800
2368.000000	7.205200
2367.000000	7.173700
2366.000000	7.142300
2365.000000	7.107300
2364.000000	7.058900
2363.000000	7.020500
2362.000000	6.978000
2361.000000	6.931800
2360.000000	6.894100
2359.000000	6.864700
2358.000000	6.813800
2357.000000	6.774900
2356.000000	6.761900
2355.000000	6.744100
2354.000000	6.721400
2353.000000	6.704900
2352.000000	6.703700
2351.000000	6.704900
2350.000000	6.712500
2349.000000	6.719600
2348.000000	6.738800
2347.000000	6.772500
2346.000000	6.793200
2345.000000	6.819900
2344.000000	6.847000
2343.000000	6.865900
2342.000000	6.885200
2341.000000	6.913700
2340.000000	6.917500
2339.000000	6.916400
2338.000000	6.919500
2337.000000	6.920200
2336.000000	6.916900
2335.000000	6.901700
2334.000000	6.885800
2333.000000	6.871700
2332.000000	6.844900
2331.000000	6.820500
2330.000000	6.777100
2329.000000	6.751000
2328.000000	6.705600
2327.000000	6.662800
2326.000000	6.616200
2325.000000	6.562900
2324.000000	6.522900
2323.000000	6.485700
2322.000000	6.434800
2321.000000	6.379400
2320.000000	6.330200
2319.000000	6.253000
2318.000000	6.191600
2317.000000	6.137600
2316.000000	6.075100
2315.000000	6.020000
2314.000000	5.976200
2313.000000	5.928500
2312.000000	5.863900
2311.000000	5.825900
2310.000000	5.785800
2309.000000	5.772800
2308.000000	5.767400
2307.000000	5.741500
2306.000000	5.731900
2305.000000	5.741600
2304.000000	5.768500
2303.000000	5.781500
2302.000000	5.817500
2301.000000	5.831600
2300.000000	5.871300
2299.000000	5.929600
2298.000000	5.952600
2297.000000	6.009000
2296.000000	6.047500
2295.000000	6.090700
2294.000000	6.116700
2293.000000	6.139100
2292.000000	6.157300
2291.000000	6.172000
2290.000000	6.200300
2289.000000	6.198200
2288.000000	6.200400
2287.000000	6.174500
2286.000000	6.178100
2285.000000	6.163100
2284.000000	6.144500
2283.000000	6.135500
2282.000000	6.092700
2281.000000	6.065200
2280.000000	6.048700
2279.000000	6.037400
2278.000000	6.014500
2277.000000	6.004900
2276.000000	5.975700
2275.000000	5.954000
2274.000000	5.956900
2273.000000	5.955900
2272.000000	5.957600
2271.000000	5.980800
2270.000000	5.964500
2269.000000	5.996000
2268.000000	6.007200
2267.000000	6.063900
2266.000000	6.105000
2265.000000	6.197600
2264.000000	6.234900
2263.000000	6.322300
2262.000000	6.397800
2261.000000	6.504600
2260.000000	6.636000
2259.000000	6.731300
2258.000000	6.862300
2257.000000	7.009600
2256.000000	7.157500
2255.000000	7.290700
2254.000000	7.410600
2253.000000	7.558100
2252.000000	7.693800
2251.000000	7.831800
2250.000000	7.950900
2249.000000	8.074000
2248.000000	8.191700
2247.000000	8.322200
2246.000000	8.404500
2245.000000	8.519100
2244.000000	8.612200
2243.000000	8.667600
2242.000000	8.786000
2241.000000	8.872500
2240.000000	8.935200
2239.000000	9.010000
2238.000000	9.077500
2237.000000	9.153300
2236.000000	9.219400
2235.000000	9.254700
2234.000000	9.329000
2233.000000	9.378800
2232.000000	9.407600
2231.000000	9.427300
2230.000000	9.472800
2229.000000	9.534500
2228.000000	9.532800
2227.000000	9.549800
2226.000000	9.589600
2225.000000	9.598800
2224.000000	9.594000
2223.000000	9.614000
2222.000000	9.631400
2221.000000	9.629900
2220.000000	9.600600
2219.000000	9.634600
2218.000000	9.616200
2217.000000	9.641300
2216.000000	9.621700
2215.000000	9.610000
2214.000000	9.601800
2213.000000	9.608500
2212.000000	9.615400
2211.000000	9.593600
2210.000000	9.592800
2209.000000	9.585800
2208.000000	9.580900
2207.000000	9.583900
2206.000000	9.586700
2205.000000	9.569500
2204.000000	9.567200
2203.000000	9.577600
2202.000000	9.583600
2201.000000	9.555000
2200.000000	9.559800
2199.000000	9.557200
2198.000000	9.575900
2197.000000	9.585700
2196.000000	9.590300
2195.000000	9.574000
2194.000000	9.579400
2193.000000	9.571200
2192.000000	9.571100
2191.000000	9.573600
2190.000000	9.571200
2189.000000	9.561400
2188.000000	9.556300
2187.000000	9.549000
2186.000000	9.544000
2185.000000	9.542700
2184.000000	9.548200
2183.000000	9.512800
2182.000000	9.529400
2181.000000	9.516900
2180.000000	9.512700
2179.000000	9.511400
2178.000000	9.508200
2177.000000	9.521700
2176.000000	9.533300
2175.000000	9.520100
2174.000000	9.524000
2173.000000	9.527900
2172.000000	9.527800
2171.000000	9.557100
2170.000000	9.577500
2169.000000	9.570400
2168.000000	9.587200
2167.000000	9.599400
2166.000000	9.616000
2165.000000	9.626200
2164.000000	9.653900
2163.000000	9.673600
2162.000000	9.683900
2161.000000	9.692700
2160.000000	9.726400
2159.000000	9.742700
2158.000000	9.760500
2157.000000	9.769800
2156.000000	9.791400
2155.000000	9.812000
2154.000000	9.838500
2153.000000	9.851600
2152.000000	9.875300
2151.000000	9.907400
2150.000000	9.929200
2149.000000	9.947400
2148.000000	9.969400
2147.000000	9.985800
2146.000000	10.013900
2145.000000	10.031300
2144.000000	10.043200
2143.000000	10.053100
2142.000000	10.068000
2141.000000	10.079600
2140.000000	10.087900
2139.000000	10.086900
2138.000000	10.099200
2137.000000	10.104800
2136.000000	10.112500
2135.000000	10.115800
2134.000000	10.134900
2133.000000	10.117300
2132.000000	10.121200
2131.000000	10.127500
2130.000000	10.121400
2129.000000	10.113500
2128.000000	10.106600
2127.000000	10.107900
2126.000000	10.099600
2125.000000	10.086900
2124.000000	10.081100
2123.000000	10.056600
2122.000000	10.047000
2121.000000	10.039500
2120.000000	10.015700
2119.000000	9.986700
2118.000000	9.972300
2117.000000	9.964900
2116.000000	9.931600
2115.000000	9.917000
2114.000000	9.898900
2113.000000	9.878000
2112.000000	9.850900
2111.000000	9.823700
2110.000000	9.816700
2109.000000	9.803500
2108.000000	9.771300
2107.000000	9.748200
2106.000000	9.721000
2105.000000	9.707700
2104.000000	9.691100
2103.000000	9.661500
2102.000000	9.640300
2101.000000	9.619700
2100.000000	9.603300
2099.000000	9.587200
2098.000000	9.578500
2097.000000	9.549900
2096.000000	9.517000
2095.000000	9.508300
2094.000000	9.504300
2093.000000	9.485300
2092.000000	9.473000
2091.000000	9.453200
2090.000000	9.437300
2089.000000	9.440400
2088.000000	9.432800
2087.000000	9.418600
2086.000000	9.415600
2085.000000	9.405000
2084.000000	9.384100
2083.000000	9.372600
2082.000000	9.365400
2081.000000	9.370600
2080.000000	9.379200
2079.000000	9.375200
2078.000000	9.344300
2077.000000	9.325000
2076.000000	9.326700
2075.000000	9.310200
2074.000000	9.310100
2073.000000	9.302600
2072.000000	9.289700
2071.000000	9.277900
2070.000000	9.279800
2069.000000	9.281200
2068.000000	9.267000
2067.000000	9.250500
2066.000000	9.241400
2065.000000	9.236400
2064.000000	9.240500
2063.000000	9.248500
2062.000000	9.243200
2061.000000	9.251300
2060.000000	9.257700
2059.000000	9.259600
2058.000000	9.259700
2057.000000	9.283200
2056.000000	9.326400
2055.000000	9.339500
2054.000000	9.357700
2053.000000	9.403600
2052.000000	9.453000
2051.000000	9.505500
2050.000000	9.563100
2049.000000	9.633800
2048.000000	9.718400
2047.000000	9.798000
2046.000000	9.881300
2045.000000	9.969600
2044.000000	10.057300
2043.000000	10.160400
2042.000000	10.252500
2041.000000	10.364000
2040.000000	10.463400
2039.000000	10.568600
2038.000000	10.676500
2037.000000	10.774100
2036.000000	10.876900
2035.000000	10.968200
2034.000000	11.059800
2033.000000	11.139000
2032.000000	11.217800
2031.000000	11.314200
2030.000000	11.403500
2029.000000	11.469700
2028.000000	11.552500
2027.000000	11.624400
2026.000000	11.707700
2025.000000	11.783100
2024.000000	11.812600
2023.000000	11.884800
2022.000000	11.956000
2021.000000	12.029100
2020.000000	12.100100
2019.000000	12.153400
2018.000000	12.232700
2017.000000	12.272200
2016.000000	12.349900
2015.000000	12.418500
2014.000000	12.434400
2013.000000	12.481700
2012.000000	12.519800
2011.000000	12.560600
2010.000000	12.613800
2009.000000	12.637200
2008.000000	12.658000
2007.000000	12.708600
2006.000000	12.707200
2005.000000	12.732300
2004.000000	12.737300
2003.000000	12.781800
2002.000000	12.758500
2001.000000	12.765900
2000.000000	12.764100
1999.000000	12.750600
1998.000000	12.754000
1997.000000	12.747700
1996.000000	12.739500
1995.000000	12.740900
1994.000000	12.695800
1993.000000	12.683900
1992.000000	12.648800
1991.000000	12.644700
1990.000000	12.619400
1989.000000	12.577400
1988.000000	12.530400
1987.000000	12.512200
1986.000000	12.471300
1985.000000	12.421400
1984.000000	12.379200
1983.000000	12.351200
1982.000000	12.300600
1981.000000	12.250700
1980.000000	12.201400
1979.000000	12.154000
1978.000000	12.109900
1977.000000	12.064400
1976.000000	12.008100
1975.000000	11.979500
1974.000000	11.936200
1973.000000	11.895100
1972.000000	11.825100
1971.000000	11.810500
1970.000000	11.768400
1969.000000	11.711500
1968.000000	11.677900
1967.000000	11.645700
1966.000000	11.614700
1965.000000	11.574000
1964.000000	11.522300
1963.000000	11.491000
1962.000000	11.456600
1961.000000	11.385800
1960.000000	11.373700
1959.000000	11.337100
1958.000000	11.271300
1957.000000	11.261400
1956.000000	11.212300
1955.000000	11.158700
1954.000000	11.126300
1953.000000	11.114800
1952.000000	11.057100
1951.000000	11.033000
1950.000000	11.007500
1949.000000	10.965900
1948.000000	10.952500
1947.000000	10.922100
1946.000000	10.894000
1945.000000	10.862900
1944.000000	10.847100
1943.000000	10.826700
1942.000000	10.828500
1941.000000	10.831800
1940.000000	10.849500
1939.000000	10.861500
1938.000000	10.871700
1937.000000	10.893300
1936.000000	10.916500
1935.000000	10.933200
1934.000000	10.986500
1933.000000	11.031400
1932.000000	11.083300
1931.000000	11.120500
1930.000000	11.192200
1929.000000	11.252500
1928.000000	11.324900
1927.000000	11.394400
1926.000000	11.482100
1925.000000	11.553700
1924.000000	11.647200
1923.000000	11.773000
1922.000000	11.865000
1921.000000	11.993400
1920.000000	12.121100
1919.000000	12.231200
1918.000000	12.356200
1917.000000	12.496600
1916.000000	12.632600
1915.000000	12.771100
1914.000000	12.929300
1913.000000	13.094200
1912.000000	13.251700
1911.000000	13.400400
1910.000000	13.560000
1909.000000	13.711000
1908.000000	13.882000
1907.000000	14.071400
1906.000000	14.283000
1905.000000	14.476700
1904.000000	14.642000
1903.000000	14.817900
1902.000000	14.999300
1901.000000	15.192400
1900.000000	15.389000
1899.000000	15.571800
1898.000000	15.758200
1897.000000	15.949200
1896.000000	16.111600
1895.000000	16.301000
1894.000000	16.508200
1893.000000	16.685400
1892.000000	16.876300
1891.000000	17.062200
1890.000000	17.253900
1889.000000	17.422600
1888.000000	17.639400
1887.000000	17.857700
1886.000000	18.109000
1885.000000	18.409600
1884.000000	18.752500
1883.000000	19.108300
1882.000000	19.466600
1881.000000	19.872100
1880.000000	20.290100
1879.000000	20.676300
1878.000000	21.038700
1877.000000	21.405300
1876.000000	21.716600
1875.000000	22.007300
1874.000000	22.281300
1873.000000	22.518000
1872.000000	22.733100
1871.000000	22.912500
1870.000000	23.032400
1869.000000	23.155700
1868.000000	23.274500
1867.000000	23.356700
1866.000000	23.393800
1865.000000	23.431100
1864.000000	23.473500
1863.000000	23.499200
1862.000000	23.518700
1861.000000	23.514000
1860.000000	23.496300
1859.000000	23.451100
1858.000000	23.401700
1857.000000	23.359000
1856.000000	23.301300
1855.000000	23.213400
1854.000000	23.128400
1853.000000	23.028100
1852.000000	22.922500
1851.000000	22.844200
1850.000000	22.794600
1849.000000	22.723800
1848.000000	22.597300
1847.000000	22.458700
1846.000000	22.327000
1845.000000	22.252400
1844.000000	22.225700
1843.000000	22.214400
1842.000000	22.178600
1841.000000	22.117500
1840.000000	22.051100
1839.000000	21.973200
1838.000000	21.900500
1837.000000	21.826500
1836.000000	21.742700
1835.000000	21.640700
1834.000000	21.542100
1833.000000	21.464200
1832.000000	21.389800
1831.000000	21.299100
1830.000000	21.197300
1829.000000	21.092200
1828.000000	20.979800
1827.000000	20.901800
1826.000000	20.825100
1825.000000	20.752000
1824.000000	20.693800
1823.000000	20.680600
1822.000000	20.685000
1821.000000	20.643600
1820.000000	20.593900
1819.000000	20.546600
1818.000000	20.532000
1817.000000	20.534000
1816.000000	20.540400
1815.000000	20.537500
1814.000000	20.525000
1813.000000	20.524500
1812.000000	20.499600
1811.000000	20.455900
1810.000000	20.409700
1809.000000	20.380000
1808.000000	20.368500
1807.000000	20.331600
1806.000000	20.256900
1805.000000	20.189000
1804.000000	20.141200
1803.000000	20.111300
1802.000000	20.066000
1801.000000	20.003800
1800.000000	19.934100
1799.000000	19.861000
1798.000000	19.825400
1797.000000	19.782100
1796.000000	19.740200
1795.000000	19.689600
1794.000000	19.634400
1793.000000	19.569300
1792.000000	19.503700
1791.000000	19.448100
1790.000000	19.386500
1789.000000	19.311000
1788.000000	19.236600
1787.000000	19.159400
1786.000000	19.081200
1785.000000	18.986600
1784.000000	18.886900
1783.000000	18.796900
1782.000000	18.703000
1781.000000	18.622400
1780.000000	18.513700
1779.000000	18.432800
1778.000000	18.323400
1777.000000	18.225400
1776.000000	18.110200
1775.000000	17.961300
1774.000000	17.812300
1773.000000	17.652000
1772.000000	17.506600
1771.000000	17.348500
1770.000000	17.211700
1769.000000	17.081300
1768.000000	16.930000
1767.000000	16.829500
1766.000000	16.707400
1765.000000	16.642900
1764.000000	16.586100
1763.000000	16.586500
1762.000000	16.603700
1761.000000	16.651500
1760.000000	16.702700
1759.000000	16.776500
1758.000000	16.827400
1757.000000	16.907400
1756.000000	16.963000
1755.000000	16.995900
1754.000000	17.015400
1753.000000	17.013300
1752.000000	16.968900
1751.000000	16.931800
1750.000000	16.884400
1749.000000	16.827400
1748.000000	16.738000
1747.000000	16.628800
1746.000000	16.506500
1745.000000	16.346600
1744.000000	16.165900
1743.000000	15.962900
1742.000000	15.734300
1741.000000	15.502400
1740.000000	15.260800
1739.000000	15.002200
1738.000000	14.790200
1737.000000	14.583300
1736.000000	14.443400
1735.000000	14.349300
1734.000000	14.286400
1733.000000	14.305100
1732.000000	14.350300
1731.000000	14.421000
1730.000000	14.543500
1729.000000	14.654600
1728.000000	14.786000
1727.000000	14.872000
1726.000000	14.993700
1725.000000	15.050000
1724.000000	15.117200
1723.000000	15.149300
1722.000000	15.170600
1721.000000	15.157800
1720.000000	15.142000
1719.000000	15.163500
1718.000000	15.180200
1717.000000	15.172600
1716.000000	15.225400
1715.000000	15.288100
1714.000000	15.326500
1713.000000	15.393000
1712.000000	15.424400
1711.000000	15.450200
1710.000000	15.471500
1709.000000	15.470800
1708.000000	15.467000
1707.000000	15.434700
1706.000000	15.418600
1705.000000	15.403400
1704.000000	15.327200
1703.000000	15.266400
1702.000000	15.175600
1701.000000	15.070100
1700.000000	14.911300
1699.000000	14.763600
1698.000000	14.641400
1697.000000	14.508700
1696.000000	14.480900
1695.000000	14.480700
1694.000000	14.526000
1693.000000	14.630600
1692.000000	14.781900
1691.000000	14.958900
1690.000000	15.146700
1689.000000	15.249600
1688.000000	15.296800
1687.000000	15.320600
1686.000000	15.289600
1685.000000	15.303200
1684.000000	15.344200
1683.000000	15.514100
1682.000000	15.828400
1681.000000	16.271200
1680.000000	16.813700
1679.000000	17.387200
1678.000000	17.972500
1677.000000	18.519500
1676.000000	19.030800
1675.000000	19.432400
1674.000000	19.793900
1673.000000	20.105100
1672.000000	20.383000
1671.000000	20.638200
1670.000000	20.835400
1669.000000	20.991700
1668.000000	21.163700
1667.000000	21.300100
1666.000000	21.402400
1665.000000	21.513100
1664.000000	21.592900
1663.000000	21.650300
1662.000000	21.717200
1661.000000	21.771800
1660.000000	21.804000
1659.000000	21.837400
1658.000000	21.867100
1657.000000	21.873200
1656.000000	21.881400
1655.000000	21.858600
1654.000000	21.857400
1653.000000	21.819800
1652.000000	21.808100
1651.000000	21.771300
1650.000000	21.729500
1649.000000	21.694200
1648.000000	21.639700
1647.000000	21.597300
1646.000000	21.538800
1645.000000	21.481500
1644.000000	21.403800
1643.000000	21.355800
1642.000000	21.285900
1641.000000	21.207500
1640.000000	21.135100
1639.000000	21.069500
1638.000000	20.980800
1637.000000	20.901300
1636.000000	20.807200
1635.000000	20.734100
1634.000000	20.646700
1633.000000	20.562600
1632.000000	20.459400
1631.000000	20.366400
1630.000000	20.280600
1629.000000	20.209000
1628.000000	20.115200
1627.000000	20.030200
1626.000000	19.938900
1625.000000	19.842100
1624.000000	19.761900
1623.000000	19.679700
1622.000000	19.582400
1621.000000	19.505000
1620.000000	19.420200
1619.000000	19.325100
1618.000000	19.240700
1617.000000	19.171800
1616.000000	19.086500
1615.000000	19.017800
1614.000000	18.948200
1613.000000	18.854800
1612.000000	18.784500
1611.000000	18.716600
1610.000000	18.658800
1609.000000	18.592800
1608.000000	18.534600
1607.000000	18.465700
1606.000000	18.408900
1605.000000	18.352500
1604.000000	18.294500
1603.000000	18.235000
1602.000000	18.163700
1601.000000	18.101500
1600.000000	18.043300
1599.000000	18.005300
1598.000000	17.962400
1597.000000	17.919500
1596.000000	17.857700
1595.000000	17.809800
1594.000000	17.762100
1593.000000	17.727200
1592.000000	17.696800
1591.000000	17.668100
1590.000000	17.643100
1589.000000	17.607300
1588.000000	17.587100
1587.000000	17.583900
1586.000000	17.564800
1585.000000	17.549800
1584.000000	17.547600
1583.000000	17.542500
1582.000000	17.544800
1581.000000	17.544500
1580.000000	17.537100
1579.000000	17.543200
1578.000000	17.551600
1577.000000	17.563600
1576.000000	17.571100
1575.000000	17.593000
1574.000000	17.631000
1573.000000	17.650000
1572.000000	17.671000
1571.000000	17.702100
1570.000000	17.730800
1569.000000	17.776900
1568.000000	17.827400
1567.000000	17.857600
1566.000000	17.898900
1565.000000	17.931500
1564.000000	17.959400
1563.000000	18.011500
1562.000000	18.069500
1561.000000	18.106300
1560.000000	18.127400
1559.000000	18.156000
1558.000000	18.188800
1557.000000	18.197700
1556.000000	18.207900
1555.000000	18.243000
1554.000000	18.269200
1553.000000	18.285400
1552.000000	18.290900
1551.000000	18.307800
1550.000000	18.328500
1549.000000	18.315400
1548.000000	18.328100
1547.000000	18.343100
1546.000000	18.351800
1545.000000	18.358600
1544.000000	18.360400
1543.000000	18.366700
1542.000000	18.378400
1541.000000	18.385300
1540.000000	18.391800
1539.000000	18.405900
1538.000000	18.417100
1537.000000	18.417700
1536.000000	18.423700
1535.000000	18.419700
1534.000000	18.425600
1533.000000	18.425700
1532.000000	18.429100
1531.000000	18.421700
1530.000000	18.432900
1529.000000	18.432300
1528.000000	18.417200
1527.000000	18.406600
1526.000000	18.394300
1525.000000	18.391300
1524.000000	18.378400
1523.000000	18.363700
1522.000000	18.366200
1521.000000	18.347600
1520.000000	18.318000
1519.000000	18.294200
1518.000000	18.279500
1517.000000	18.254600
1516.000000	18.224700
1515.000000	18.205200
1514.000000	18.186600
1513.000000	18.159300
1512.000000	18.161600
1511.000000	18.127000
1510.000000	18.113600
1509.000000	18.116000
1508.000000	18.102200
1507.000000	18.080800
1506.000000	18.062100
1505.000000	18.053400
1504.000000	18.050600
1503.000000	18.064900
1502.000000	18.046000
1501.000000	18.033200
1500.000000	18.037500
1499.000000	18.028100
1498.000000	18.033000
1497.000000	18.054700
1496.000000	18.085600
1495.000000	18.081900
1494.000000	18.107900
1493.000000	18.112500
1492.000000	18.147900
1491.000000	18.166100
1490.000000	18.194300
1489.000000	18.218400
1488.000000	18.258300
1487.000000	18.294100
1486.000000	18.316300
1485.000000	18.345000
1484.000000	18.388200
1483.000000	18.400700
1482.000000	18.486300
1481.000000	18.529600
1480.000000	18.570700
1479.000000	18.609300
1478.000000	18.670500
1477.000000	18.736700
1476.000000	18.773400
1475.000000	18.827500
1474.000000	18.893200
1473.000000	18.993800
1472.000000	19.045200
1471.000000	19.095500
1470.000000	19.137600
1469.000000	19.189000
1468.000000	19.248600
1467.000000	19.306700
1466.000000	19.364600
1465.000000	19.444600
1464.000000	19.497600
1463.000000	19.591500
1462.000000	19.675900
1461.000000	19.737300
1460.000000	19.850000
1459.000000	19.947700
1458.000000	20.039600
1457.000000	20.139200
1456.000000	20.255600
1455.000000	20.369200
1454.000000	20.502600
1453.000000	20.595900
1452.000000	20.733200
1451.000000	20.869300
1450.000000	20.979600
1449.000000	21.082800
1448.000000	21.221300
1447.000000	21.357100
1446.000000	21.525000
1445.000000	21.654100
1444.000000	21.764800
1443.000000	21.917300
1442.000000	22.073500
1441.000000	22.211900
1440.000000	22.359400
1439.000000	22.462500
1438.000000	22.613700
1437.000000	22.735500
1436.000000	22.865300
1435.000000	22.971800
1434.000000	23.117500
1433.000000	23.246800
1432.000000	23.376500
1431.000000	23.535200
1430.000000	23.636300
1429.000000	23.826700
1428.000000	23.992100
1427.000000	24.178000
1426.000000	24.376100
1425.000000	24.618900
1424.000000	24.845300
1423.000000	25.021700
1422.000000	25.247800
1421.000000	25.463300
1420.000000	25.714900
1419.000000	25.931100
1418.000000	26.112400
1417.000000	26.275000
1416.000000	26.504400
1415.000000	26.734900
1414.000000	26.916100
1413.000000	27.052300
1412.000000	27.219400
1411.000000	27.435600
1410.000000	27.727400
1409.000000	28.017100
1408.000000	28.310300
1407.000000	28.666700
1406.000000	29.037600
1405.000000	29.443800
1404.000000	29.791900
1403.000000	30.180000
1402.000000	30.612600
1401.000000	31.053900
1400.000000	31.389700
1399.000000	31.630800
1398.000000	31.806200
1397.000000	32.085400
1396.000000	32.306000
1395.000000	32.399200
1394.000000	32.469500
1393.000000	32.544700
1392.000000	32.678100
1391.000000	32.788800
1390.000000	32.938100
1389.000000	33.163900
1388.000000	33.419000
1387.000000	33.627800
1386.000000	33.956700
1385.000000	34.349000
1384.000000	34.775500
1383.000000	35.167400
1382.000000	35.492400
1381.000000	35.671800
1380.000000	35.721800
1379.000000	35.825100
1378.000000	35.859800
1377.000000	35.959900
1376.000000	36.057100
1375.000000	36.273800
1374.000000	36.617300
1373.000000	37.063000
1372.000000	37.511800
1371.000000	38.001600
1370.000000	38.446300
1369.000000	38.857100
1368.000000	39.255500
1367.000000	39.574300
1366.000000	39.853300
1365.000000	40.126600
1364.000000	40.371900
1363.000000	40.571800
1362.000000	40.775300
1361.000000	40.904300
1360.000000	40.947700
1359.000000	41.005600
1358.000000	41.139000
1357.000000	41.365900
1356.000000	41.762000
1355.000000	42.344200
1354.000000	43.091700
1353.000000	43.898300
1352.000000	44.746600
1351.000000	45.582200
1350.000000	46.348400
1349.000000	47.015300
1348.000000	47.643200
1347.000000	48.197700
1346.000000	48.703800
1345.000000	49.231500
1344.000000	49.731100
1343.000000	50.145300
1342.000000	50.578200
1341.000000	50.991000
1340.000000	51.380500
1339.000000	51.728000
1338.000000	52.080600
1337.000000	52.417300
1336.000000	52.738900
1335.000000	53.044300
1334.000000	53.321700
1333.000000	53.581400
1332.000000	53.841900
1331.000000	54.089800
1330.000000	54.312600
1329.000000	54.522100
1328.000000	54.723000
1327.000000	54.923600
1326.000000	55.101000
1325.000000	55.276500
1324.000000	55.446800
1323.000000	55.581400
1322.000000	55.722300
1321.000000	55.853800
1320.000000	55.983800
1319.000000	56.094500
1318.000000	56.198800
1317.000000	56.313300
1316.000000	56.415600
1315.000000	56.507200
1314.000000	56.603300
1313.000000	56.681000
1312.000000	56.758400
1311.000000	56.823400
1310.000000	56.879300
1309.000000	56.923300
1308.000000	56.969800
1307.000000	57.017100
1306.000000	57.042800
1305.000000	57.061600
1304.000000	57.075200
1303.000000	57.077900
1302.000000	57.066800
1301.000000	57.047600
1300.000000	57.023700
1299.000000	57.004200
1298.000000	56.986600
1297.000000	56.956200
1296.000000	56.925600
1295.000000	56.896900
1294.000000	56.862800
1293.000000	56.817800
1292.000000	56.768500
1291.000000	56.698200
1290.000000	56.629100
1289.000000	56.569500
1288.000000	56.485400
1287.000000	56.390400
1286.000000	56.276600
1285.000000	56.156700
1284.000000	56.046900
1283.000000	55.930600
1282.000000	55.813900
1281.000000	55.682300
1280.000000	55.554700
1279.000000	55.434400
1278.000000	55.304800
1277.000000	55.191600
1276.000000	55.087300
1275.000000	54.980500
1274.000000	54.880200
1273.000000	54.780200
1272.000000	54.676600
1271.000000	54.599300
1270.000000	54.520300
1269.000000	54.418200
1268.000000	54.304300
1267.000000	54.193800
1266.000000	54.093000
1265.000000	54.000800
1264.000000	53.902600
1263.000000	53.811900
1262.000000	53.726900
1261.000000	53.646200
1260.000000	53.548500
1259.000000	53.451500
1258.000000	53.362000
1257.000000	53.247300
1256.000000	53.148400
1255.000000	53.062700
1254.000000	52.934900
1253.000000	52.815900
1252.000000	52.721500
1251.000000	52.581900
1250.000000	52.452000
1249.000000	52.343600
1248.000000	52.190300
1247.000000	52.006800
1246.000000	51.847600
1245.000000	51.657600
1244.000000	51.447700
1243.000000	51.242800
1242.000000	51.020200
1241.000000	50.779200
1240.000000	50.537700
1239.000000	50.299300
1238.000000	50.027100
1237.000000	49.768800
1236.000000	49.496300
1235.000000	49.236000
1234.000000	48.969300
1233.000000	48.696400
1232.000000	48.418300
1231.000000	48.132400
1230.000000	47.855800
1229.000000	47.573400
1228.000000	47.295200
1227.000000	47.011200
1226.000000	46.741400
1225.000000	46.463400
1224.000000	46.188300
1223.000000	45.933600
1222.000000	45.680700
1221.000000	45.430400
1220.000000	45.195200
1219.000000	44.983400
1218.000000	44.779900
1217.000000	44.580100
1216.000000	44.409700
1215.000000	44.238100
1214.000000	44.086500
1213.000000	43.897300
1212.000000	43.772700
1211.000000	43.638400
1210.000000	43.513400
1209.000000	43.418200
1208.000000	43.323800
1207.000000	43.247400
1206.000000	43.192300
1205.000000	43.168700
1204.000000	43.162000
1203.000000	43.163600
1202.000000	43.148300
1201.000000	43.157300
1200.000000	43.103500
1199.000000	43.035300
1198.000000	42.884800
1197.000000	42.697000
1196.000000	42.417600
1195.000000	42.086000
1194.000000	41.646500
1193.000000	41.106700
1192.000000	40.496300
1191.000000	39.827300
1190.000000	39.218800
1189.000000	38.662700
1188.000000	38.236700
1187.000000	38.089200
1186.000000	38.046700
1185.000000	38.170200
1184.000000	38.455300
1183.000000	38.928500
1182.000000	39.582600
1181.000000	40.259500
1180.000000	40.969800
1179.000000	41.649000
1178.000000	42.238200
1177.000000	42.781800
1176.000000	43.239200
1175.000000	43.657100
1174.000000	44.069500
1173.000000	44.510100
1172.000000	44.966000
1171.000000	45.441800
1170.000000	45.948500
1169.000000	46.462000
1168.000000	46.937900
1167.000000	47.474900
1166.000000	47.982700
1165.000000	48.518300
1164.000000	49.051500
1163.000000	49.594300
1162.000000	50.165200
1161.000000	50.668100
1160.000000	51.167500
1159.000000	51.675300
1158.000000	52.125100
1157.000000	52.559500
1156.000000	52.899300
1155.000000	53.162400
1154.000000	53.355400
1153.000000	53.434300
1152.000000	53.442700
1151.000000	53.393000
1150.000000	53.305600
1149.000000	53.254000
1148.000000	53.214400
1147.000000	53.235000
1146.000000	53.356500
1145.000000	53.604000
1144.000000	53.975700
1143.000000	54.392700
1142.000000	54.871800
1141.000000	55.386600
1140.000000	55.865100
1139.000000	56.387300
1138.000000	56.934000
1137.000000	57.486300
1136.000000	58.050800
1135.000000	58.576400
1134.000000	59.087500
1133.000000	59.468600
1132.000000	59.860300
1131.000000	60.244200
1130.000000	60.561200
1129.000000	60.850700
1128.000000	61.031700
1127.000000	61.196800
1126.000000	61.339500
1125.000000	61.425800
1124.000000	61.514400
1123.000000	61.574900
1122.000000	61.649300
1121.000000	61.672100
1120.000000	61.722600
1119.000000	61.742400
1118.000000	61.745000
1117.000000	61.733000
1116.000000	61.699900
1115.000000	61.676200
1114.000000	61.634600
1113.000000	61.566500
1112.000000	61.538800
1111.000000	61.526000
1110.000000	61.496700
1109.000000	61.443400
1108.000000	61.407600
1107.000000	61.349000
1106.000000	61.308100
1105.000000	61.243700
1104.000000	61.211100
1103.000000	61.152800
1102.000000	61.110100
1101.000000	61.056900
1100.000000	60.993100
1099.000000	60.924200
1098.000000	60.861200
1097.000000	60.780400
1096.000000	60.721500
1095.000000	60.640400
1094.000000	60.544600
1093.000000	60.468400
1092.000000	60.367600
1091.000000	60.291300
1090.000000	60.195400
1089.000000	60.111500
1088.000000	60.015200
1087.000000	59.927200
1086.000000	59.823700
1085.000000	59.731100
1084.000000	59.630700
1083.000000	59.520000
1082.000000	59.416300
1081.000000	59.331600
1080.000000	59.244400
1079.000000	59.146500
1078.000000	59.050100
1077.000000	58.973100
1076.000000	58.882400
1075.000000	58.797700
1074.000000	58.716400
1073.000000	58.612200
1072.000000	58.505400
1071.000000	58.433600
1070.000000	58.347800
1069.000000	58.246600
1068.000000	58.148400
1067.000000	58.063600
1066.000000	57.960000
1065.000000	57.851200
1064.000000	57.762800
1063.000000	57.663900
1062.000000	57.557200
1061.000000	57.457400
1060.000000	57.358200
1059.000000	57.250800
1058.000000	57.177000
1057.000000	57.090700
1056.000000	56.982800
1055.000000	56.864800
1054.000000	56.750900
1053.000000	56.648400
1052.000000	56.541700
1051.000000	56.448400
1050.000000	56.356800
1049.000000	56.271100
1048.000000	56.180800
1047.000000	56.097800
1046.000000	56.013200
1045.000000	55.946900
1044.000000	55.865100
1043.000000	55.776900
1042.000000	55.706400
1041.000000	55.658200
1040.000000	55.589500
1039.000000	55.489500
1038.000000	55.409900
1037.000000	55.342000
1036.000000	55.258700
1035.000000	55.163300
1034.000000	55.078800
1033.000000	54.995200
1032.000000	54.897200
1031.000000	54.802000
1030.000000	54.723200
1029.000000	54.641600
1028.000000	54.535900
1027.000000	54.434200
1026.000000	54.325600
1025.000000	54.220200
1024.000000	54.109600
1023.000000	54.001200
1022.000000	53.898200
1021.000000	53.802200
1020.000000	53.708000
1019.000000	53.619300
1018.000000	53.542100
1017.000000	53.467800
1016.000000	53.395000
1015.000000	53.323400
1014.000000	53.271000
1013.000000	53.245000
1012.000000	53.219300
1011.000000	53.199800
1010.000000	53.187900
1009.000000	53.188600
1008.000000	53.195600
1007.000000	53.215900
1006.000000	53.204400
1005.000000	53.215500
1004.000000	53.214400
1003.000000	53.197600
1002.000000	53.204100
1001.000000	53.216900
1000.000000	53.232700
999.000000	53.239400
998.000000	53.243600
997.000000	53.267500
996.000000	53.294900
995.000000	53.306700
994.000000	53.315100
993.000000	53.336000
992.000000	53.350500
991.000000	53.370000
990.000000	53.400300
989.000000	53.413400
988.000000	53.451700
987.000000	53.485500
986.000000	53.537800
985.000000	53.579200
984.000000	53.617000
983.000000	53.660000
982.000000	53.721500
981.000000	53.785200
980.000000	53.850800
979.000000	53.902600
978.000000	53.940200
977.000000	54.007300
976.000000	54.082900
975.000000	54.130500
974.000000	54.181700
973.000000	54.273300
972.000000	54.346200
971.000000	54.398500
970.000000	54.491200
969.000000	54.560800
968.000000	54.635300
967.000000	54.711400
966.000000	54.778200
965.000000	54.860600
964.000000	54.948800
963.000000	55.053600
962.000000	55.149800
961.000000	55.250100
960.000000	55.367000
959.000000	55.485900
958.000000	55.605500
957.000000	55.710300
956.000000	55.816100
955.000000	55.926700
954.000000	56.058300
953.000000	56.145100
952.000000	56.228400
951.000000	56.350700
950.000000	56.418300
949.000000	56.519900
948.000000	56.624400
947.000000	56.707100
946.000000	56.800200
945.000000	56.897400
944.000000	57.000100
943.000000	57.091000
942.000000	57.230400
941.000000	57.345900
940.000000	57.456500
939.000000	57.560100
938.000000	57.685100
937.000000	57.843700
936.000000	57.968000
935.000000	58.088600
934.000000	58.245800
933.000000	58.376200
932.000000	58.553300
931.000000	58.688100
930.000000	58.818500
929.000000	58.969400
928.000000	59.108000
927.000000	59.232700
926.000000	59.377900
925.000000	59.539500
924.000000	59.686800
923.000000	59.816200
922.000000	59.958000
921.000000	60.105500
920.000000	60.251000
919.000000	60.447000
918.000000	60.564600
917.000000	60.693900
916.000000	60.825400
915.000000	60.940100
914.000000	61.117200
913.000000	61.242100
912.000000	61.365500
911.000000	61.495100
910.000000	61.621800
909.000000	61.779700
908.000000	61.900400
907.000000	62.076800
906.000000	62.235600
905.000000	62.384500
904.000000	62.564900
903.000000	62.770000
902.000000	62.950400
901.000000	63.115600
900.000000	63.300100
899.000000	63.507700
898.000000	63.672000
897.000000	63.868700
896.000000	64.055900
895.000000	64.236300
894.000000	64.421600
893.000000	64.554500
892.000000	64.753800
891.000000	64.904100
890.000000	65.078700
889.000000	65.247100
888.000000	65.415700
887.000000	65.603300
886.000000	65.777200
885.000000	65.920500
884.000000	66.075000
883.000000	66.269600
882.000000	66.417500
881.000000	66.541500
880.000000	66.747400
879.000000	66.928200
878.000000	67.103400
877.000000	67.245100
876.000000	67.460000
875.000000	67.603100
874.000000	67.796000
873.000000	68.010200
872.000000	68.221100
871.000000	68.364400
870.000000	68.585300
869.000000	68.768300
868.000000	68.948100
867.000000	69.154500
866.000000	69.377600
865.000000	69.524400
864.000000	69.732600
863.000000	69.917800
862.000000	70.096200
861.000000	70.215700
860.000000	70.322300
859.000000	70.416300
858.000000	71.125300
857.000000	70.501700
856.000000	70.799176
855.000000	71.288507
854.000000	71.545228
853.000000	71.581349
852.000000	72.430847
851.000000	72.634427
850.000000	72.956393
849.000000	73.377171
848.000000	73.879740
847.000000	74.295222
846.000000	74.659644
845.000000	75.188405
844.000000	75.399645
843.000000	75.873563
842.000000	76.069296
841.000000	76.439675
840.000000	76.821778
839.000000	77.161710
838.000000	77.768008
837.000000	77.974142
836.000000	78.383478
835.000000	78.909119
834.000000	79.373298
833.000000	79.427101
832.000000	79.795304
831.000000	80.334278
830.000000	80.650570
829.000000	80.953908
828.000000	81.237011
827.000000	81.831300
826.000000	81.998949
825.000000	82.352308
824.000000	82.710205
823.000000	83.117839
822.000000	83.359432
821.000000	83.602443
820.000000	83.982845
819.000000	84.305850
818.000000	84.480213
817.000000	84.844918
816.000000	85.001599
815.000000	85.265885
814.000000	85.508612
813.000000	85.704628
812.000000	85.816300
811.000000	86.262324
810.000000	86.367566
809.000000	86.490490
808.000000	86.544481
807.000000	86.730475
806.000000	86.877510
805.000000	86.905026
804.000000	86.941714
803.000000	87.065962
802.000000	87.254319
801.000000	87.391048
800.000000	87.386415
799.000000	87.415633
798.000000	87.504705
797.000000	87.659589
796.000000	87.493264
795.000000	87.614864
794.000000	87.573921
793.000000	87.501396
792.000000	87.613729
791.000000	87.533072
790.000000	87.488820
789.000000	87.524089
788.000000	87.446364
787.000000	87.433504
786.000000	87.484281
785.000000	87.404286
784.000000	87.322022
783.000000	87.260276
782.000000	87.230112
781.000000	87.143026
780.000000	87.054048
779.000000	87.091776
778.000000	86.979064
777.000000	86.891410
776.000000	86.920534
775.000000	86.896138
774.000000	86.837418
773.000000	86.845739
772.000000	86.815576
771.000000	86.750142
770.000000	86.693125
769.000000	86.681116
768.000000	86.599797
767.000000	86.491435
766.000000	86.408793
765.000000	86.438200
764.000000	86.406712
763.000000	86.219017
762.000000	86.105927
761.000000	86.040967
760.000000	85.936103
759.000000	85.815733
758.000000	85.646949
757.000000	85.527429
756.000000	85.471924
755.000000	85.305315
754.000000	85.065614
753.000000	84.889549
752.000000	84.784591
751.000000	84.585644
750.000000	84.371946
749.000000	84.102932
748.000000	83.893016
747.000000	83.694541
746.000000	83.471765
745.000000	83.238967
744.000000	82.913124
743.000000	82.630210
742.000000	82.371787
741.000000	82.074122
740.000000	81.782793
739.000000	81.431042
738.000000	81.049978
737.000000	80.726688
736.000000	80.385717
735.000000	79.976475
734.000000	79.509270
733.000000	79.084049
732.000000	78.707618
731.000000	78.233889
730.000000	77.751649
729.000000	77.275840
728.000000	76.706608
727.000000	76.252169
726.000000	75.832431
725.000000	75.246558
724.000000	74.717134
723.000000	74.243594
722.000000	73.783008
721.000000	73.262001
720.000000	72.836590
719.000000	72.365603
718.000000	71.863317
717.000000	71.408972
716.000000	71.006822
715.000000	70.614695
714.000000	70.232213
713.000000	69.882070
712.000000	69.564359
711.000000	69.251376
710.000000	68.889224
709.000000	68.621912
708.000000	68.371147
707.000000	68.061474
706.000000	67.802389
705.000000	67.615355
704.000000	67.360903
703.000000	67.109004
702.000000	66.890672
701.000000	66.684822
700.000000	66.497222
699.000000	66.337137
698.000000	66.141310
697.000000	65.983400
696.000000	65.875322
695.000000	65.711644
694.000000	65.534918
693.000000	65.388544
692.000000	65.276400
691.000000	65.142413
690.000000	64.973913
689.000000	64.827539
688.000000	64.632374
687.000000	64.468034
686.000000	64.309273
685.000000	64.059643
684.000000	63.805097
683.000000	63.555089
682.000000	63.275390
681.000000	62.949453
680.000000	62.699161
679.000000	62.371049
678.000000	62.008140
677.000000	61.725605
676.000000	61.391346
675.000000	61.054724
674.000000	60.758384
673.000000	60.428191
672.000000	60.170903
671.000000	59.875980
670.000000	59.578788
669.000000	59.326322
668.000000	59.066858
667.000000	58.813635
666.000000	58.617146
665.000000	58.393236
664.000000	58.177457
663.000000	57.977375
662.000000	57.771809
661.000000	57.656922
660.000000	57.493055
659.000000	57.323137
658.000000	57.250517
657.000000	57.117003
656.000000	57.044195
655.000000	56.969022
654.000000	56.890256
653.000000	56.817448
652.000000	56.818771
651.000000	56.748799
650.000000	56.689229
649.000000	56.662469
648.000000	56.612827
647.000000	56.596752
646.000000	56.533966
645.000000	56.506450
644.000000	56.485553
643.000000	56.429103
642.000000	56.381730
641.000000	56.346366
640.000000	56.317621
639.000000	56.289159
638.000000	56.272801
637.000000	56.232898
636.000000	56.247459
635.000000	56.278947
634.000000	56.339936
633.000000	56.349108
632.000000	56.423146
631.000000	56.542855
630.000000	56.656985
629.000000	56.826714
628.000000	56.962498
627.000000	57.169577
626.000000	57.428946
625.000000	57.639618
624.000000	57.924140
623.000000	58.260762
622.000000	58.578189
621.000000	58.965493
620.000000	59.377950
619.000000	59.835604
618.000000	60.281818
617.000000	60.730584
616.000000	61.205259
615.000000	61.703100
614.000000	62.226566
613.000000	62.729419
612.000000	63.234352
611.000000	63.737678
610.000000	64.196278
609.000000	64.683718
608.000000	65.167470
607.000000	65.606970
606.000000	66.036541
605.000000	66.457886
604.000000	66.912893
603.000000	67.336980
602.000000	67.730904
601.000000	68.096460
600.000000	68.468257
599.000000	68.867949
598.000000	69.183863
597.000000	69.500344
596.000000	69.730211
595.000000	70.027971
594.000000	70.291500
593.000000	70.539901
592.000000	70.754639
591.000000	70.929664
590.000000	71.193477
589.000000	71.431949
588.000000	71.608865
587.000000	71.725264
586.000000	71.926103
585.000000	72.005247
584.000000	72.100182
583.000000	72.205329
582.000000	72.279840
581.000000	72.292699
580.000000	72.350284
579.000000	72.386878
578.000000	72.418082
577.000000	72.434818
576.000000	72.454108
575.000000	72.437844
574.000000	72.395199
573.000000	72.345273
572.000000	72.213272
571.000000	72.108786
570.000000	72.012622
569.000000	71.897452
568.000000	71.758737
567.000000	71.616051
566.000000	71.469961
565.000000	71.292478
564.000000	71.104121
563.000000	70.870188
562.000000	70.634269
561.000000	70.390218
560.000000	70.136711
559.000000	69.900886
558.000000	69.606909
557.000000	69.329007
556.000000	69.039380
555.000000	68.700583
554.000000	68.333797
553.000000	67.956989
552.000000	67.506899
551.000000	67.098886
550.000000	66.681513
549.000000	66.236434
548.000000	65.760152
547.000000	65.264391
546.000000	64.750097
545.000000	64.232115
544.000000	63.670542
543.000000	63.089302
542.000000	62.499835
541.000000	61.904411
540.000000	61.271354
539.000000	60.640755
538.000000	60.009021
537.000000	59.345989
536.000000	58.643717
535.000000	57.924991
534.000000	57.188394
533.000000	56.426455
532.000000	55.649955
531.000000	54.881020
530.000000	54.105465
529.000000	53.344662
528.000000	52.567216
527.000000	51.791000
526.000000	51.024807
525.000000	50.272040
524.000000	49.514073
523.000000	48.779462
522.000000	48.028398
521.000000	47.323288
520.000000	46.617327
519.000000	45.912880
518.000000	45.210701
517.000000	44.557314
516.000000	43.916030
515.000000	43.276638
514.000000	42.650105
513.000000	42.030191
512.000000	41.427959
511.000000	40.851541
510.000000	40.301977
509.000000	39.753548
508.000000	39.232635
507.000000	38.720137
506.000000	38.241113
505.000000	37.761710
504.000000	37.270960
503.000000	36.805174
502.000000	36.333714
501.000000	35.903292
500.000000	35.476368
499.000000	35.057103
498.000000	34.675945
497.000000	34.296300
496.000000	33.936889
495.000000	33.575777
494.000000	33.241046
493.000000	32.950473
492.000000	32.658860
491.000000	32.349471
490.000000	32.073176
489.000000	31.832151
488.000000	31.590558
487.000000	31.358705
486.000000	31.153422
485.000000	30.952300
484.000000	30.741250
483.000000	30.545990
482.000000	30.368980
481.000000	30.185918
480.000000	29.972409
479.000000	29.753321
478.000000	29.527614
477.000000	29.314294
476.000000	29.092653
475.000000	28.857301
474.000000	28.597175
473.000000	28.331187
472.000000	28.073331
471.000000	27.826160
470.000000	27.561684
469.000000	27.293332
468.000000	27.015052
467.000000	26.755872
466.000000	26.512105
465.000000	26.259827
464.000000	26.018329
463.000000	25.787989
462.000000	25.582706
461.000000	25.390283
460.000000	25.205519
459.000000	25.047799
458.000000	24.906626
457.000000	24.775759
456.000000	24.671368
455.000000	24.587118
454.000000	24.521118
453.000000	24.447269
452.000000	24.388265
451.000000	24.359520
450.000000	24.342122
449.000000	24.325953
448.000000	24.286333
447.000000	24.271299
446.000000	24.265531
445.000000	24.241324
444.000000	24.214943
443.000000	24.194613
442.000000	24.186292
441.000000	24.135893
440.000000	24.062896
439.000000	24.000583
438.000000	23.935433
437.000000	23.860450
436.000000	23.764380
435.000000	23.656680
434.000000	23.529123
433.000000	23.396743
432.000000	23.253584
431.000000	23.099930
430.000000	22.932848
429.000000	22.759147
428.000000	22.551217
427.000000	22.345367
426.000000	22.132898
425.000000	21.901707
424.000000	21.650186
423.000000	21.388169
422.000000	21.112820
421.000000	20.819316
420.000000	20.527986
419.000000	20.207628
418.000000	19.874694
417.000000	19.543178
416.000000	19.182065
415.000000	18.798071
414.000000	18.420222
413.000000	18.038685
412.000000	17.652043
411.000000	17.227010
410.000000	16.807840
409.000000	16.392547
408.000000	15.959572
407.000000	15.550992
406.000000	15.124635
405.000000	14.693929
404.000000	14.264642
403.000000	13.845094
402.000000	13.415711
401.000000	12.996352
400.000000	12.579357
399.000000	12.176640
398.000000	11.790375
397.000000	11.411108
396.000000	11.028626
395.000000	10.674511
394.000000	10.328623
393.000000	9.987651
392.000000	9.658499
391.000000	9.373127
390.000000	9.066479
389.000000	8.786024
388.000000	8.536299
387.000000	8.301231
386.000000	8.068527
385.000000	7.860881
384.000000	7.664392
383.000000	7.485207
382.000000	7.313586
381.000000	7.140736
380.000000	6.984056
379.000000	6.849123
378.000000	6.728469
377.000000	6.623700
376.000000	6.441773
375.000000	6.269774
374.000000	6.157819
373.000000	6.075460
372.000000	6.115079
371.000000	6.094844
370.000000	6.026102
369.000000	5.973623
368.000000	5.916699
367.000000	5.790750
366.000000	5.765881
365.000000	5.738744
364.000000	5.746875
363.000000	5.675485
362.000000	5.617427
361.000000	5.627261
360.000000	5.513320
359.000000	5.494598
358.000000	5.506985
357.000000	5.394935
356.000000	5.406944
355.000000	5.364961
354.000000	5.312576
353.000000	5.390207
352.000000	5.299906
351.000000	5.199108
350.000000	5.109941
349.000000	5.145116
348.000000	5.134810
347.000000	5.174334
346.000000	5.115709
345.000000	5.166959
344.000000	5.172632
343.000000	5.100486
342.000000	5.018032
341.000000	5.084411
340.000000	5.102093
339.000000	5.019734
338.000000	5.019923
337.000000	5.172065
336.000000	5.086207
335.000000	4.996946
334.000000	5.008955
333.000000	4.983046
332.000000	5.044602
331.000000	5.061244
330.000000	5.066351
329.000000	4.868727
328.000000	5.076752
327.000000	5.163744
326.000000	5.166864
325.000000	5.020869
324.000000	5.124503
323.000000	4.682072
322.000000	4.930000
321.000000	4.980966
320.000000	5.133297
319.000000	4.837334
318.000000	5.001390
317.000000	5.145116
316.000000	4.912034
315.000000	4.880830
314.000000	4.914776
313.000000	4.894068
312.000000	4.894257
311.000000	4.884991
310.000000	4.867970
309.000000	4.903051
308.000000	4.856907
307.000000	4.856907
306.000000	4.902200
305.000000	4.869200
304.000000	4.865417
303.000000	4.838280
302.000000	4.884329
301.000000	4.905226
300.000000	4.884612
299.000000	4.874400
298.000000	4.926312
297.000000	4.931796
296.000000	4.893028
295.000000	4.950519
294.000000	4.935106
293.000000	4.921868
292.000000	4.896999
291.000000	4.925366
290.000000	4.908346
289.000000	4.929432
288.000000	4.926596
287.000000	4.939644
286.000000	5.010846
285.000000	4.887260
284.000000	4.964891
283.000000	4.945980
282.000000	4.940306
281.000000	4.981628
280.000000	4.907212
279.000000	4.974252
278.000000	4.985505
277.000000	5.033445
276.000000	4.998932
275.000000	5.011413
274.000000	5.027866
273.000000	5.000161
272.000000	5.036565
271.000000	5.057462
270.000000	5.044981
269.000000	5.076184
268.000000	5.090841
267.000000	5.141523
266.000000	5.124881
265.000000	5.157787
264.000000	5.178022
263.000000	5.187478
262.000000	5.231541
261.000000	5.221234
260.000000	5.259246
259.000000	5.285249
258.000000	5.264258
257.000000	5.260665
256.000000	5.300000
255.000000	5.293760
254.000000	5.322978
253.000000	5.306903
252.000000	5.343402
251.000000	5.332244
250.000000	5.366001
