PE UV       SUBTECH     SPECTRUM    ASCII       PEDS        4.00        
   -1
CICIMAUCR0100-3.Sample.ASC
24/04/18
17:00:45.00
24/04/18
17:00:45.00
Vinicio Soto Monge
C. cupreomarginata
250,000000
1
Lambda 1050
1050L1511233
PerkinElmer UV WinLab 6.3.2.0749 / 2.02.05 Lambda 900 UV/VIS/NIR, Aug  7 2015 09:38:08

0
0
3350/servo 860,8/2
0
0
UV/VIS
1
1
1
DoubleDePol,CommonBeamDepol,RBeamAtt,SBeamAtt,60mm sphere, WB InGaAs Detector
0
0
0
0
Program
Program
3350/servo 860,8/2
3350/0,2 860,8/0,2
3350/0,2 860,8/0,2
0
15.00
 
 
 
0
 
860,8
319,2
860,8
Front
100
on
S:100 R:100
0
0
0
0
 
0
 
 
 
0
 
 
0
0
0
0
0
 
 
 
 
0
0


0
0
#HDR
-1
-1
#GR
nm
%R
1.0
0.0
2500,000000
-1,000000
2251
8
64,613100
4,484200
#DATA
2500.000000	11.258730
2499.000000	11.215717
2498.000000	11.178366
2497.000000	11.278658
2496.000000	11.133174
2495.000000	11.148638
2494.000000	11.155280
2493.000000	11.011430
2492.000000	11.140906
2491.000000	11.106060
2490.000000	11.013608
2489.000000	11.039089
2488.000000	11.033863
2487.000000	10.951647
2486.000000	11.055750
2485.000000	11.064898
2484.000000	11.020686
2483.000000	10.990196
2482.000000	10.956983
2481.000000	10.956112
2480.000000	10.958943
2479.000000	11.028527
2478.000000	10.962428
2477.000000	10.965694
2476.000000	10.980177
2475.000000	11.001085
2474.000000	10.976366
2473.000000	11.004461
2472.000000	11.063373
2471.000000	11.068273
2470.000000	11.083736
2469.000000	11.089399
2468.000000	11.060324
2467.000000	11.100179
2466.000000	11.132086
2465.000000	11.177604
2464.000000	11.218330
2463.000000	11.247732
2462.000000	11.302832
2461.000000	11.288567
2460.000000	11.376445
2459.000000	11.472490
2458.000000	11.535867
2457.000000	11.598264
2456.000000	11.676777
2455.000000	11.786434
2454.000000	11.878014
2453.000000	11.980266
2452.000000	12.065531
2451.000000	12.136857
2450.000000	12.235080
2449.000000	12.336787
2448.000000	12.439911
2447.000000	12.560239
2446.000000	12.657047
2445.000000	12.765070
2444.000000	12.851533
2443.000000	12.957378
2442.000000	13.044821
2441.000000	13.170050
2440.000000	13.242900
2439.000000	13.339599
2438.000000	13.430199
2437.000000	13.531689
2436.000000	13.627734
2435.000000	13.714958
2434.000000	13.769515
2433.000000	13.865778
2432.000000	13.930461
2431.000000	13.988720
2430.000000	14.080845
2429.000000	14.142261
2428.000000	14.194313
2427.000000	14.268797
2426.000000	14.328907
2425.000000	14.361357
2424.000000	14.408400
2423.000000	14.479399
2422.000000	14.545716
2421.000000	14.631525
2420.000000	14.721690
2419.000000	14.807826
2418.000000	14.865975
2417.000000	14.920858
2416.000000	14.971385
2415.000000	15.013092
2414.000000	15.063075
2413.000000	15.101732
2412.000000	15.165762
2411.000000	15.203658
2410.000000	15.226852
2409.000000	15.285438
2408.000000	15.343043
2407.000000	15.373969
2406.000000	15.406637
2405.000000	15.445404
2404.000000	15.478726
2403.000000	15.519997
2402.000000	15.570197
2401.000000	15.600034
2400.000000	15.632267
2399.000000	15.678656
2398.000000	15.725154
2397.000000	15.753031
2396.000000	15.779928
2395.000000	15.826317
2394.000000	15.856590
2393.000000	15.883923
2392.000000	15.922145
2391.000000	15.956556
2390.000000	15.969623
2389.000000	15.974196
2388.000000	15.998916
2387.000000	16.028426
2386.000000	16.035831
2385.000000	16.010894
2384.000000	16.028535
2383.000000	16.034851
2382.000000	16.019388
2381.000000	16.007954
2380.000000	16.000113
2379.000000	15.972563
2378.000000	15.942617
2377.000000	15.931074
2376.000000	15.925303
2375.000000	15.913869
2374.000000	15.880874
2373.000000	15.833940
2372.000000	15.809874
2371.000000	15.784502
2370.000000	15.741815
2369.000000	15.699673
2368.000000	15.659382
2367.000000	15.609617
2366.000000	15.555279
2365.000000	15.499198
2364.000000	15.430485
2363.000000	15.357308
2362.000000	15.298832
2361.000000	15.239920
2360.000000	15.167940
2359.000000	15.098683
2358.000000	15.034218
2357.000000	14.993164
2356.000000	14.946448
2355.000000	14.909751
2354.000000	14.896792
2353.000000	14.875994
2352.000000	14.860204
2351.000000	14.877954
2350.000000	14.907464
2349.000000	14.928808
2348.000000	14.959407
2347.000000	15.005796
2346.000000	15.041405
2345.000000	15.089209
2344.000000	15.144092
2343.000000	15.176216
2342.000000	15.217270
2341.000000	15.262025
2340.000000	15.294911
2339.000000	15.325075
2338.000000	15.343261
2337.000000	15.358397
2336.000000	15.350339
2335.000000	15.337054
2334.000000	15.319086
2333.000000	15.295347
2332.000000	15.272479
2331.000000	15.259194
2330.000000	15.223585
2329.000000	15.171316
2328.000000	15.116869
2327.000000	15.070806
2326.000000	15.017557
2325.000000	14.928372
2324.000000	14.855848
2323.000000	14.771237
2322.000000	14.678132
2321.000000	14.551705
2320.000000	14.459254
2319.000000	14.355804
2318.000000	14.227526
2317.000000	14.106326
2316.000000	13.949953
2315.000000	13.823744
2314.000000	13.711692
2313.000000	13.572633
2312.000000	13.439128
2311.000000	13.329254
2310.000000	13.247474
2309.000000	13.172227
2308.000000	13.124858
2307.000000	13.072698
2306.000000	13.054839
2305.000000	13.069649
2304.000000	13.093170
2303.000000	13.115820
2302.000000	13.199778
2301.000000	13.294516
2300.000000	13.366604
2299.000000	13.478657
2298.000000	13.573722
2297.000000	13.672925
2296.000000	13.789769
2295.000000	13.887012
2294.000000	13.986869
2293.000000	14.049156
2292.000000	14.114275
2291.000000	14.166436
2290.000000	14.215003
2289.000000	14.240049
2288.000000	14.265639
2287.000000	14.284804
2286.000000	14.264441
2285.000000	14.255838
2284.000000	14.221101
2283.000000	14.196926
2282.000000	14.177108
2281.000000	14.131045
2280.000000	14.088358
2279.000000	14.052968
2278.000000	14.005490
2277.000000	13.938846
2276.000000	13.920987
2275.000000	13.901822
2274.000000	13.893764
2273.000000	13.865778
2272.000000	13.862729
2271.000000	13.895724
2270.000000	13.932312
2269.000000	13.980879
2268.000000	14.062768
2267.000000	14.169703
2266.000000	14.283280
2265.000000	14.434752
2264.000000	14.580671
2263.000000	14.798461
2262.000000	15.044780
2261.000000	15.270955
2260.000000	15.535895
2259.000000	15.782542
2258.000000	16.106503
2257.000000	16.419358
2256.000000	16.692466
2255.000000	17.003905
2254.000000	17.295633
2253.000000	17.605330
2252.000000	17.885625
2251.000000	18.127044
2250.000000	18.398628
2249.000000	18.635474
2248.000000	18.881031
2247.000000	19.085971
2246.000000	19.313779
2245.000000	19.473636
2244.000000	19.655272
2243.000000	19.818832
2242.000000	19.941556
2241.000000	20.079417
2240.000000	20.219891
2239.000000	20.313105
2238.000000	20.443234
2237.000000	20.532746
2236.000000	20.618119
2235.000000	20.696305
2234.000000	20.783966
2233.000000	20.824474
2232.000000	20.855945
2231.000000	20.908650
2230.000000	20.928687
2229.000000	20.941972
2228.000000	20.970502
2227.000000	20.970067
2226.000000	20.960920
2225.000000	20.956455
2224.000000	20.940121
2223.000000	20.912461
2222.000000	20.897107
2221.000000	20.842551
2220.000000	20.803458
2219.000000	20.760771
2218.000000	20.701532
2217.000000	20.656777
2216.000000	20.597538
2215.000000	20.533072
2214.000000	20.524579
2213.000000	20.467953
2212.000000	20.407952
2211.000000	20.370166
2210.000000	20.315283
2209.000000	20.269003
2208.000000	20.250600
2207.000000	20.216189
2206.000000	20.173066
2205.000000	20.143447
2204.000000	20.121233
2203.000000	20.084644
2202.000000	20.065152
2201.000000	20.022247
2200.000000	20.015387
2199.000000	19.972047
2198.000000	19.945259
2197.000000	19.924896
2196.000000	19.912590
2195.000000	19.885149
2194.000000	19.872517
2193.000000	19.871646
2192.000000	19.849867
2191.000000	19.844096
2190.000000	19.805874
2189.000000	19.794004
2188.000000	19.781263
2187.000000	19.762207
2186.000000	19.748268
2185.000000	19.730519
2184.000000	19.709829
2183.000000	19.676071
2182.000000	19.647867
2181.000000	19.640136
2180.000000	19.618357
2179.000000	19.588847
2178.000000	19.581659
2177.000000	19.553129
2176.000000	19.565325
2175.000000	19.577848
2174.000000	19.573383
2173.000000	19.539299
2172.000000	19.540933
2171.000000	19.566088
2170.000000	19.563256
2169.000000	19.590589
2168.000000	19.615308
2167.000000	19.656252
2166.000000	19.668557
2165.000000	19.703839
2164.000000	19.740972
2163.000000	19.777125
2162.000000	19.801736
2161.000000	19.863370
2160.000000	19.913353
2159.000000	19.946674
2158.000000	20.006458
2157.000000	20.078328
2156.000000	20.144427
2155.000000	20.215971
2154.000000	20.282397
2153.000000	20.328459
2152.000000	20.423415
2151.000000	20.521203
2150.000000	20.586648
2149.000000	20.674744
2148.000000	20.759791
2147.000000	20.851263
2146.000000	20.919540
2145.000000	20.993152
2144.000000	21.063607
2143.000000	21.141358
2142.000000	21.213555
2141.000000	21.279654
2140.000000	21.347605
2139.000000	21.409239
2138.000000	21.458677
2137.000000	21.512580
2136.000000	21.575303
2135.000000	21.631929
2134.000000	21.680060
2133.000000	21.717411
2132.000000	21.758246
2131.000000	21.801695
2130.000000	21.839808
2129.000000	21.859954
2128.000000	21.882169
2127.000000	21.898612
2126.000000	21.927033
2125.000000	21.951099
2124.000000	21.955346
2123.000000	21.980827
2122.000000	21.990083
2121.000000	21.987361
2120.000000	21.977125
2119.000000	21.991608
2118.000000	21.995092
2117.000000	21.992261
2116.000000	22.004348
2115.000000	21.995637
2114.000000	21.980936
2113.000000	21.970700
2112.000000	21.964166
2111.000000	21.940209
2110.000000	21.927360
2109.000000	21.929320
2108.000000	21.908739
2107.000000	21.891860
2106.000000	21.892078
2105.000000	21.867686
2104.000000	21.834364
2103.000000	21.816941
2102.000000	21.799626
2101.000000	21.780134
2100.000000	21.761731
2099.000000	21.750733
2098.000000	21.739843
2097.000000	21.725905
2096.000000	21.721113
2095.000000	21.715342
2094.000000	21.709570
2093.000000	21.711748
2092.000000	21.707284
2091.000000	21.712837
2090.000000	21.723836
2089.000000	21.738863
2088.000000	21.753237
2087.000000	21.741368
2086.000000	21.735161
2085.000000	21.732438
2084.000000	21.732112
2083.000000	21.719589
2082.000000	21.695850
2081.000000	21.665686
2080.000000	21.631057
2079.000000	21.605249
2078.000000	21.579224
2077.000000	21.535992
2076.000000	21.467606
2075.000000	21.412832
2074.000000	21.375046
2073.000000	21.315916
2072.000000	21.253084
2071.000000	21.191341
2070.000000	21.117074
2069.000000	21.045857
2068.000000	20.973660
2067.000000	20.898523
2066.000000	20.828830
2065.000000	20.766760
2064.000000	20.701750
2063.000000	20.630315
2062.000000	20.552891
2061.000000	20.507046
2060.000000	20.460440
2059.000000	20.421891
2058.000000	20.392816
2057.000000	20.377244
2056.000000	20.376373
2055.000000	20.394232
2054.000000	20.417426
2053.000000	20.458479
2052.000000	20.532092
2051.000000	20.595905
2050.000000	20.692712
2049.000000	20.813803
2048.000000	20.940121
2047.000000	21.083535
2046.000000	21.250144
2045.000000	21.402814
2044.000000	21.572690
2043.000000	21.730152
2042.000000	21.916361
2041.000000	22.080248
2040.000000	22.245550
2039.000000	22.419782
2038.000000	22.601091
2037.000000	22.752564
2036.000000	22.903383
2035.000000	23.046144
2034.000000	23.179975
2033.000000	23.298997
2032.000000	23.454390
2031.000000	23.568294
2030.000000	23.681000
2029.000000	23.776283
2028.000000	23.880604
2027.000000	23.999517
2026.000000	24.082930
2025.000000	24.176797
2024.000000	24.264349
2023.000000	24.353969
2022.000000	24.442609
2021.000000	24.514153
2020.000000	24.600289
2019.000000	24.671179
2018.000000	24.714846
2017.000000	24.772778
2016.000000	24.849657
2015.000000	24.873397
2014.000000	24.916519
2013.000000	24.964324
2012.000000	25.002981
2011.000000	25.015722
2010.000000	25.007337
2009.000000	25.048281
2008.000000	25.047192
2007.000000	25.055577
2006.000000	25.046321
2005.000000	25.033145
2004.000000	25.032056
2003.000000	25.012891
2002.000000	24.982291
2001.000000	24.953543
2000.000000	24.912816
1999.000000	24.877317
1998.000000	24.845846
1997.000000	24.797933
1996.000000	24.725735
1995.000000	24.682177
1994.000000	24.598220
1993.000000	24.531467
1992.000000	24.451539
1991.000000	24.387944
1990.000000	24.299630
1989.000000	24.225255
1988.000000	24.144020
1987.000000	24.057775
1986.000000	23.985687
1985.000000	23.898354
1984.000000	23.792290
1983.000000	23.715519
1982.000000	23.606734
1981.000000	23.513846
1980.000000	23.435878
1979.000000	23.326112
1978.000000	23.243461
1977.000000	23.150247
1976.000000	23.051915
1975.000000	22.926795
1974.000000	22.844253
1973.000000	22.768898
1972.000000	22.698334
1971.000000	22.588242
1970.000000	22.508313
1969.000000	22.423593
1968.000000	22.336913
1967.000000	22.242065
1966.000000	22.181302
1965.000000	22.054004
1964.000000	21.978649
1963.000000	21.926053
1962.000000	21.819772
1961.000000	21.737447
1960.000000	21.653599
1959.000000	21.552000
1958.000000	21.455519
1957.000000	21.385609
1956.000000	21.278783
1955.000000	21.199726
1954.000000	21.111412
1953.000000	21.024950
1952.000000	20.920193
1951.000000	20.849738
1950.000000	20.759029
1949.000000	20.680951
1948.000000	20.644798
1947.000000	20.601023
1946.000000	20.529152
1945.000000	20.466320
1944.000000	20.402399
1943.000000	20.375393
1942.000000	20.338369
1941.000000	20.310274
1940.000000	20.302978
1939.000000	20.302433
1938.000000	20.274230
1937.000000	20.266607
1936.000000	20.304611
1935.000000	20.314194
1934.000000	20.355138
1933.000000	20.393360
1932.000000	20.459242
1931.000000	20.528608
1930.000000	20.612239
1929.000000	20.678882
1928.000000	20.783639
1927.000000	20.901899
1926.000000	21.039215
1925.000000	21.155514
1924.000000	21.296642
1923.000000	21.441363
1922.000000	21.613525
1921.000000	21.829355
1920.000000	22.015020
1919.000000	22.215168
1918.000000	22.409654
1917.000000	22.644105
1916.000000	22.835433
1915.000000	23.065636
1914.000000	23.340486
1913.000000	23.644411
1912.000000	23.937882
1911.000000	24.212515
1910.000000	24.506748
1909.000000	24.771580
1908.000000	25.041530
1907.000000	25.367887
1906.000000	25.745861
1905.000000	26.148227
1904.000000	26.538070
1903.000000	26.895244
1902.000000	27.273218
1901.000000	27.650973
1900.000000	28.093739
1899.000000	28.570371
1898.000000	28.991685
1897.000000	29.448607
1896.000000	29.840519
1895.000000	30.236242
1894.000000	30.632401
1893.000000	31.092807
1892.000000	31.575102
1891.000000	32.052714
1890.000000	32.517477
1889.000000	32.953600
1888.000000	33.397346
1887.000000	33.814194
1886.000000	34.259029
1885.000000	34.719109
1884.000000	35.241041
1883.000000	35.742501
1882.000000	36.214778
1881.000000	36.669086
1880.000000	37.120890
1879.000000	37.518465
1878.000000	37.915604
1877.000000	38.297388
1876.000000	38.652712
1875.000000	38.978198
1874.000000	39.298893
1873.000000	39.597264
1872.000000	39.884202
1871.000000	40.115385
1870.000000	40.317711
1869.000000	40.495536
1868.000000	40.656047
1867.000000	40.750677
1866.000000	40.800550
1865.000000	40.861423
1864.000000	40.916197
1863.000000	40.950607
1862.000000	41.010064
1861.000000	41.082806
1860.000000	41.158705
1859.000000	41.202807
1858.000000	41.234714
1857.000000	41.258017
1856.000000	41.240594
1855.000000	41.232100
1854.000000	41.236565
1853.000000	41.200194
1852.000000	41.157181
1851.000000	41.133442
1850.000000	41.104693
1849.000000	41.100664
1848.000000	41.096091
1847.000000	41.077796
1846.000000	41.012024
1845.000000	40.923601
1844.000000	40.837030
1843.000000	40.792601
1842.000000	40.807302
1841.000000	40.815142
1840.000000	40.777900
1839.000000	40.718553
1838.000000	40.665412
1837.000000	40.612489
1836.000000	40.549766
1835.000000	40.469293
1834.000000	40.370852
1833.000000	40.279489
1832.000000	40.201630
1831.000000	40.141847
1830.000000	40.088379
1829.000000	40.033605
1828.000000	39.941698
1827.000000	39.859483
1826.000000	39.811569
1825.000000	39.742748
1824.000000	39.674362
1823.000000	39.640604
1822.000000	39.652147
1821.000000	39.678064
1820.000000	39.670006
1819.000000	39.607936
1818.000000	39.570149
1817.000000	39.551855
1816.000000	39.548479
1815.000000	39.541619
1814.000000	39.513089
1813.000000	39.503397
1812.000000	39.489023
1811.000000	39.457988
1810.000000	39.410619
1809.000000	39.372179
1808.000000	39.343322
1807.000000	39.312831
1806.000000	39.279945
1805.000000	39.231705
1804.000000	39.191849
1803.000000	39.162666
1802.000000	39.131631
1801.000000	39.089924
1800.000000	39.039615
1799.000000	38.991374
1798.000000	38.948361
1797.000000	38.916564
1796.000000	38.889776
1795.000000	38.860918
1794.000000	38.830537
1793.000000	38.786326
1792.000000	38.728611
1791.000000	38.684618
1790.000000	38.631586
1789.000000	38.595324
1788.000000	38.561349
1787.000000	38.514851
1786.000000	38.463235
1785.000000	38.406174
1784.000000	38.336373
1783.000000	38.270491
1782.000000	38.205481
1781.000000	38.129146
1780.000000	38.059345
1779.000000	37.969942
1778.000000	37.886420
1777.000000	37.801155
1776.000000	37.685074
1775.000000	37.557885
1774.000000	37.445179
1773.000000	37.313852
1772.000000	37.192870
1771.000000	37.052831
1770.000000	36.923682
1769.000000	36.808254
1768.000000	36.668542
1767.000000	36.552242
1766.000000	36.438447
1765.000000	36.344689
1764.000000	36.266612
1763.000000	36.214451
1762.000000	36.203235
1761.000000	36.202037
1760.000000	36.218698
1759.000000	36.246357
1758.000000	36.266394
1757.000000	36.296666
1756.000000	36.313545
1755.000000	36.313001
1754.000000	36.281966
1753.000000	36.274343
1752.000000	36.239823
1751.000000	36.189950
1750.000000	36.122871
1749.000000	36.063305
1748.000000	35.975318
1747.000000	35.867077
1746.000000	35.736294
1745.000000	35.622608
1744.000000	35.459157
1743.000000	35.272839
1742.000000	35.085540
1741.000000	34.872760
1740.000000	34.632320
1739.000000	34.400810
1738.000000	34.185525
1737.000000	33.996375
1736.000000	33.815066
1735.000000	33.707478
1734.000000	33.630925
1733.000000	33.601632
1732.000000	33.572013
1731.000000	33.625589
1730.000000	33.637349
1729.000000	33.688530
1728.000000	33.741126
1727.000000	33.813541
1726.000000	33.864504
1725.000000	33.894776
1724.000000	33.913071
1723.000000	33.951946
1722.000000	33.999098
1721.000000	34.026975
1720.000000	34.108537
1719.000000	34.205344
1718.000000	34.319139
1717.000000	34.438923
1716.000000	34.583644
1715.000000	34.693737
1714.000000	34.824301
1713.000000	34.958786
1712.000000	35.068443
1711.000000	35.170913
1710.000000	35.237775
1709.000000	35.288302
1708.000000	35.315090
1707.000000	35.356796
1706.000000	35.362350
1705.000000	35.346016
1704.000000	35.335235
1703.000000	35.266632
1702.000000	35.208264
1701.000000	35.120604
1700.000000	35.019985
1699.000000	34.875918
1698.000000	34.754827
1697.000000	34.665533
1696.000000	34.600305
1695.000000	34.564479
1694.000000	34.600196
1693.000000	34.680016
1692.000000	34.740997
1691.000000	34.842378
1690.000000	34.916209
1689.000000	34.974358
1688.000000	35.002235
1687.000000	35.019223
1686.000000	35.036428
1685.000000	35.120277
1684.000000	35.253673
1683.000000	35.493786
1682.000000	35.825152
1681.000000	36.263998
1680.000000	36.798235
1679.000000	37.304378
1678.000000	37.825221
1677.000000	38.295319
1676.000000	38.732205
1675.000000	39.146549
1674.000000	39.478678
1673.000000	39.795997
1672.000000	40.062680
1671.000000	40.304753
1670.000000	40.544975
1669.000000	40.767664
1668.000000	40.988612
1667.000000	41.235258
1666.000000	41.430506
1665.000000	41.626734
1664.000000	41.783325
1663.000000	41.946340
1662.000000	42.111534
1661.000000	42.255710
1660.000000	42.384641
1659.000000	42.490705
1658.000000	42.582721
1657.000000	42.688349
1656.000000	42.755646
1655.000000	42.804975
1654.000000	42.847988
1653.000000	42.897318
1652.000000	42.911147
1651.000000	42.928135
1650.000000	42.924759
1649.000000	42.919314
1648.000000	42.893942
1647.000000	42.875648
1646.000000	42.865956
1645.000000	42.841237
1644.000000	42.803124
1643.000000	42.767624
1642.000000	42.727877
1641.000000	42.687586
1640.000000	42.661996
1639.000000	42.616260
1638.000000	42.579890
1637.000000	42.531540
1636.000000	42.491467
1635.000000	42.437455
1634.000000	42.387908
1633.000000	42.339777
1632.000000	42.278578
1631.000000	42.215637
1630.000000	42.149864
1629.000000	42.080390
1628.000000	42.011133
1627.000000	41.935778
1626.000000	41.855740
1625.000000	41.790185
1624.000000	41.713415
1623.000000	41.643940
1622.000000	41.587968
1621.000000	41.519146
1620.000000	41.446405
1619.000000	41.378237
1618.000000	41.320196
1617.000000	41.252681
1616.000000	41.178960
1615.000000	41.103931
1614.000000	41.042623
1613.000000	40.986869
1612.000000	40.918266
1611.000000	40.842693
1610.000000	40.773109
1609.000000	40.710168
1608.000000	40.639277
1607.000000	40.573070
1606.000000	40.508386
1605.000000	40.423013
1604.000000	40.337966
1603.000000	40.258799
1602.000000	40.186493
1601.000000	40.103080
1600.000000	40.027616
1599.000000	39.972842
1598.000000	39.906090
1597.000000	39.819192
1596.000000	39.745143
1595.000000	39.666303
1594.000000	39.600422
1593.000000	39.545321
1592.000000	39.490330
1591.000000	39.444921
1590.000000	39.387860
1589.000000	39.332977
1588.000000	39.280925
1587.000000	39.245099
1586.000000	39.189345
1585.000000	39.134789
1584.000000	39.089053
1583.000000	39.052791
1582.000000	39.026438
1581.000000	38.999868
1580.000000	38.963497
1579.000000	38.940629
1578.000000	38.925275
1577.000000	38.902734
1576.000000	38.908288
1575.000000	38.908397
1574.000000	38.900229
1573.000000	38.912534
1572.000000	38.941392
1571.000000	38.955983
1570.000000	38.976238
1569.000000	39.004659
1568.000000	39.030250
1567.000000	39.061829
1566.000000	39.096022
1565.000000	39.118672
1564.000000	39.149489
1563.000000	39.179218
1562.000000	39.200888
1561.000000	39.213846
1560.000000	39.215588
1559.000000	39.211342
1558.000000	39.216024
1557.000000	39.217875
1556.000000	39.201868
1555.000000	39.177366
1554.000000	39.157656
1553.000000	39.124117
1552.000000	39.083826
1551.000000	39.043970
1550.000000	39.007055
1549.000000	38.965675
1548.000000	38.917326
1547.000000	38.868977
1546.000000	38.834348
1545.000000	38.809629
1544.000000	38.783603
1543.000000	38.757251
1542.000000	38.741679
1541.000000	38.731116
1540.000000	38.716742
1539.000000	38.704872
1538.000000	38.679609
1537.000000	38.672095
1536.000000	38.654890
1535.000000	38.646940
1534.000000	38.641060
1533.000000	38.606432
1532.000000	38.577357
1531.000000	38.548608
1530.000000	38.529987
1529.000000	38.497537
1528.000000	38.467046
1527.000000	38.443634
1526.000000	38.411837
1525.000000	38.363270
1524.000000	38.335828
1523.000000	38.292488
1522.000000	38.253939
1521.000000	38.218766
1520.000000	38.188929
1519.000000	38.146678
1518.000000	38.109545
1517.000000	38.065116
1516.000000	38.025696
1515.000000	37.984425
1514.000000	37.940541
1513.000000	37.913535
1512.000000	37.883480
1511.000000	37.828815
1510.000000	37.777416
1509.000000	37.738214
1508.000000	37.685183
1507.000000	37.646961
1506.000000	37.596542
1505.000000	37.567141
1504.000000	37.528374
1503.000000	37.491132
1502.000000	37.464889
1501.000000	37.422420
1500.000000	37.402710
1499.000000	37.395740
1498.000000	37.381802
1497.000000	37.367319
1496.000000	37.345758
1495.000000	37.342055
1494.000000	37.366666
1493.000000	37.384851
1492.000000	37.399116
1491.000000	37.414035
1490.000000	37.431240
1489.000000	37.455959
1488.000000	37.478065
1487.000000	37.505506
1486.000000	37.519880
1485.000000	37.562132
1484.000000	37.590553
1483.000000	37.624637
1482.000000	37.656108
1481.000000	37.702932
1480.000000	37.758033
1479.000000	37.789830
1478.000000	37.841664
1477.000000	37.882826
1476.000000	37.930631
1475.000000	37.979525
1474.000000	38.063700
1473.000000	38.119999
1472.000000	38.193830
1471.000000	38.271145
1470.000000	38.322216
1469.000000	38.397680
1468.000000	38.434705
1467.000000	38.513653
1466.000000	38.573001
1465.000000	38.616994
1464.000000	38.701170
1463.000000	38.783930
1462.000000	38.866472
1461.000000	38.959141
1460.000000	39.044406
1459.000000	39.122157
1458.000000	39.228002
1457.000000	39.346698
1456.000000	39.456137
1455.000000	39.576465
1454.000000	39.694616
1453.000000	39.816469
1452.000000	39.958903
1451.000000	40.064640
1450.000000	40.197927
1449.000000	40.276985
1448.000000	40.379781
1447.000000	40.527987
1446.000000	40.692636
1445.000000	40.805995
1444.000000	40.925017
1443.000000	41.056997
1442.000000	41.197145
1441.000000	41.342628
1440.000000	41.460452
1439.000000	41.646335
1438.000000	41.781800
1437.000000	41.886122
1436.000000	42.048810
1435.000000	42.159665
1434.000000	42.352735
1433.000000	42.510741
1432.000000	42.672995
1431.000000	42.830565
1430.000000	42.968099
1429.000000	43.174128
1428.000000	43.387561
1427.000000	43.534134
1426.000000	43.747023
1425.000000	44.016102
1424.000000	44.247829
1423.000000	44.479884
1422.000000	44.714008
1421.000000	44.938113
1420.000000	45.224179
1419.000000	45.516235
1418.000000	45.731411
1417.000000	45.927748
1416.000000	46.196826
1415.000000	46.471023
1414.000000	46.810448
1413.000000	47.029871
1412.000000	47.282942
1411.000000	47.551585
1410.000000	47.898415
1409.000000	48.314719
1408.000000	48.645650
1407.000000	49.017634
1406.000000	49.370344
1405.000000	49.761276
1404.000000	50.158742
1403.000000	50.480417
1402.000000	50.806447
1401.000000	51.240719
1400.000000	51.626424
1399.000000	51.884505
1398.000000	52.032492
1397.000000	52.262805
1396.000000	52.571630
1395.000000	52.859439
1394.000000	52.993924
1393.000000	53.116430
1392.000000	53.348702
1391.000000	53.534803
1390.000000	53.703917
1389.000000	53.920400
1388.000000	54.263744
1387.000000	54.527379
1386.000000	54.805278
1385.000000	55.122597
1384.000000	55.505579
1383.000000	55.812771
1382.000000	56.107331
1381.000000	56.314014
1380.000000	56.396882
1379.000000	56.518300
1378.000000	56.605307
1377.000000	56.678484
1376.000000	56.811989
1375.000000	56.959541
1374.000000	57.151523
1373.000000	57.386299
1372.000000	57.635233
1371.000000	57.916181
1370.000000	58.116329
1369.000000	58.336950
1368.000000	58.593615
1367.000000	58.779825
1366.000000	58.938375
1365.000000	59.131228
1364.000000	59.311231
1363.000000	59.461505
1362.000000	59.647824
1361.000000	59.762599
1360.000000	59.822165
1359.000000	59.820749
1358.000000	59.925832
1357.000000	60.065762
1356.000000	60.245765
1355.000000	60.538038
1354.000000	60.885630
1353.000000	61.186724
1352.000000	61.538671
1351.000000	61.904013
1350.000000	62.238211
1349.000000	62.527653
1348.000000	62.843665
1347.000000	63.124287
1346.000000	63.381714
1345.000000	63.653406
1344.000000	63.906151
1343.000000	64.147352
1342.000000	64.378645
1341.000000	64.610808
1340.000000	64.829142
1339.000000	65.012739
1338.000000	65.195790
1337.000000	65.374051
1336.000000	65.549480
1335.000000	65.705418
1334.000000	65.840338
1333.000000	65.987782
1332.000000	66.130434
1331.000000	66.245971
1330.000000	66.355954
1329.000000	66.478025
1328.000000	66.572655
1327.000000	66.650841
1326.000000	66.754727
1325.000000	66.841625
1324.000000	66.906526
1323.000000	66.966745
1322.000000	67.029904
1321.000000	67.103299
1320.000000	67.172229
1319.000000	67.239526
1318.000000	67.308347
1317.000000	67.365081
1316.000000	67.407006
1315.000000	67.455246
1314.000000	67.503487
1313.000000	67.544431
1312.000000	67.601165
1311.000000	67.647554
1310.000000	67.682074
1309.000000	67.706248
1308.000000	67.723236
1307.000000	67.741421
1306.000000	67.742728
1305.000000	67.755033
1304.000000	67.771041
1303.000000	67.776812
1302.000000	67.779861
1301.000000	67.778337
1300.000000	67.764834
1299.000000	67.759280
1298.000000	67.761567
1297.000000	67.760696
1296.000000	67.752529
1295.000000	67.730423
1294.000000	67.720731
1293.000000	67.717029
1292.000000	67.694379
1291.000000	67.652346
1290.000000	67.629369
1289.000000	67.598661
1288.000000	67.569368
1287.000000	67.533868
1286.000000	67.490201
1285.000000	67.444792
1284.000000	67.395790
1283.000000	67.353647
1282.000000	67.300942
1281.000000	67.253138
1280.000000	67.220796
1279.000000	67.181376
1278.000000	67.144461
1277.000000	67.106021
1276.000000	67.078144
1275.000000	67.052880
1274.000000	67.022717
1273.000000	67.009431
1272.000000	67.007254
1271.000000	66.989177
1270.000000	66.970883
1269.000000	66.958578
1268.000000	66.945837
1267.000000	66.934621
1266.000000	66.915238
1265.000000	66.895528
1264.000000	66.873531
1263.000000	66.857741
1262.000000	66.818212
1261.000000	66.791860
1260.000000	66.768665
1259.000000	66.746560
1258.000000	66.709753
1257.000000	66.693201
1256.000000	66.650515
1255.000000	66.617193
1254.000000	66.580495
1253.000000	66.534215
1252.000000	66.490330
1251.000000	66.456355
1250.000000	66.392216
1249.000000	66.321761
1248.000000	66.258385
1247.000000	66.196424
1246.000000	66.105714
1245.000000	66.014678
1244.000000	65.943026
1243.000000	65.847416
1242.000000	65.772388
1241.000000	65.689519
1240.000000	65.600661
1239.000000	65.509516
1238.000000	65.431221
1237.000000	65.358588
1236.000000	65.279095
1235.000000	65.187079
1234.000000	65.092341
1233.000000	64.996078
1232.000000	64.911358
1231.000000	64.820539
1230.000000	64.728741
1229.000000	64.640428
1228.000000	64.530335
1227.000000	64.440388
1226.000000	64.342818
1225.000000	64.241329
1224.000000	64.134067
1223.000000	64.041398
1222.000000	63.938057
1221.000000	63.818491
1220.000000	63.725603
1219.000000	63.632281
1218.000000	63.523604
1217.000000	63.439973
1216.000000	63.342076
1215.000000	63.257356
1214.000000	63.179170
1213.000000	63.077680
1212.000000	62.996989
1211.000000	62.907804
1210.000000	62.813937
1209.000000	62.736731
1208.000000	62.658000
1207.000000	62.579378
1206.000000	62.506419
1205.000000	62.439013
1204.000000	62.388159
1203.000000	62.353748
1202.000000	62.308339
1201.000000	62.225035
1200.000000	62.166014
1199.000000	62.087610
1198.000000	61.981873
1197.000000	61.885719
1196.000000	61.756570
1195.000000	61.554679
1194.000000	61.353224
1193.000000	61.107884
1192.000000	60.810602
1191.000000	60.500252
1190.000000	60.215274
1189.000000	59.973855
1188.000000	59.759115
1187.000000	59.659149
1186.000000	59.611889
1185.000000	59.641617
1184.000000	59.760748
1183.000000	59.936722
1182.000000	60.171717
1181.000000	60.434915
1180.000000	60.730455
1179.000000	61.002365
1178.000000	61.265128
1177.000000	61.505568
1176.000000	61.719546
1175.000000	61.908696
1174.000000	62.095668
1173.000000	62.305181
1172.000000	62.522208
1171.000000	62.732266
1170.000000	62.984575
1169.000000	63.207047
1168.000000	63.458376
1167.000000	63.691410
1166.000000	63.945680
1165.000000	64.210511
1164.000000	64.461514
1163.000000	64.700429
1162.000000	64.968309
1161.000000	65.201235
1160.000000	65.456811
1159.000000	65.679718
1158.000000	65.866908
1157.000000	66.077402
1156.000000	66.261434
1155.000000	66.402344
1154.000000	66.494577
1153.000000	66.599116
1152.000000	66.643001
1151.000000	66.682203
1150.000000	66.714000
1149.000000	66.731205
1148.000000	66.783911
1147.000000	66.820826
1146.000000	66.895963
1145.000000	66.993751
1144.000000	67.113317
1143.000000	67.240724
1142.000000	67.411688
1141.000000	67.578951
1140.000000	67.770170
1139.000000	67.947232
1138.000000	68.165131
1137.000000	68.363101
1136.000000	68.591127
1135.000000	68.816756
1134.000000	69.029319
1133.000000	69.186454
1132.000000	69.340431
1131.000000	69.496150
1130.000000	69.662324
1129.000000	69.803778
1128.000000	69.923126
1127.000000	70.012965
1126.000000	70.083202
1125.000000	70.157359
1124.000000	70.201461
1123.000000	70.231189
1122.000000	70.292606
1121.000000	70.297942
1120.000000	70.319830
1119.000000	70.335293
1118.000000	70.360230
1117.000000	70.349667
1116.000000	70.353914
1115.000000	70.327670
1114.000000	70.330937
1113.000000	70.305238
1112.000000	70.295437
1111.000000	70.294893
1110.000000	70.290319
1109.000000	70.269085
1108.000000	70.257651
1107.000000	70.243059
1106.000000	70.221280
1105.000000	70.220082
1104.000000	70.198521
1103.000000	70.177613
1102.000000	70.166506
1101.000000	70.161932
1100.000000	70.140154
1099.000000	70.102040
1098.000000	70.055869
1097.000000	70.031694
1096.000000	70.013618
1095.000000	69.989988
1094.000000	69.954161
1093.000000	69.902545
1092.000000	69.873362
1091.000000	69.826646
1090.000000	69.810312
1089.000000	69.749984
1088.000000	69.708931
1087.000000	69.665590
1086.000000	69.618439
1085.000000	69.574010
1084.000000	69.527512
1083.000000	69.480687
1082.000000	69.445732
1081.000000	69.391829
1080.000000	69.323443
1079.000000	69.288815
1078.000000	69.254186
1077.000000	69.192116
1076.000000	69.146707
1075.000000	69.093893
1074.000000	69.043366
1073.000000	69.001333
1072.000000	68.960280
1071.000000	68.913455
1070.000000	68.865650
1069.000000	68.819152
1068.000000	68.755231
1067.000000	68.687390
1066.000000	68.647207
1065.000000	68.587424
1064.000000	68.529710
1063.000000	68.481143
1062.000000	68.424409
1061.000000	68.368001
1060.000000	68.317583
1059.000000	68.276312
1058.000000	68.225676
1057.000000	68.172100
1056.000000	68.114930
1055.000000	68.060918
1054.000000	67.994384
1053.000000	67.947341
1052.000000	67.898339
1051.000000	67.836051
1050.000000	67.807085
1049.000000	67.764507
1048.000000	67.706357
1047.000000	67.658770
1046.000000	67.627191
1045.000000	67.590711
1044.000000	67.546282
1043.000000	67.502289
1042.000000	67.459493
1041.000000	67.420291
1040.000000	67.380871
1039.000000	67.336007
1038.000000	67.288855
1037.000000	67.257820
1036.000000	67.219380
1035.000000	67.152737
1034.000000	67.108526
1033.000000	67.057563
1032.000000	67.003007
1031.000000	66.959340
1030.000000	66.914693
1029.000000	66.851534
1028.000000	66.799918
1027.000000	66.742639
1026.000000	66.681658
1025.000000	66.640061
1024.000000	66.586811
1023.000000	66.525068
1022.000000	66.464958
1021.000000	66.419658
1020.000000	66.365319
1019.000000	66.299765
1018.000000	66.245971
1017.000000	66.191088
1016.000000	66.141323
1015.000000	66.104299
1014.000000	66.063354
1013.000000	66.036131
1012.000000	65.986475
1011.000000	65.949668
1010.000000	65.935185
1009.000000	65.905893
1008.000000	65.868542
1007.000000	65.825420
1006.000000	65.805927
1005.000000	65.787415
1004.000000	65.754311
1003.000000	65.715218
1002.000000	65.670898
1001.000000	65.645090
1000.000000	65.631369
999.000000	65.587594
998.000000	65.529335
997.000000	65.513001
996.000000	65.492637
995.000000	65.459207
994.000000	65.409006
993.000000	65.376991
992.000000	65.339205
991.000000	65.326355
990.000000	65.277135
989.000000	65.252416
988.000000	65.234230
987.000000	65.201017
986.000000	65.164973
985.000000	65.158004
984.000000	65.136225
983.000000	65.100617
982.000000	65.098330
981.000000	65.066097
980.000000	65.037458
979.000000	65.034409
978.000000	65.026241
977.000000	65.000869
976.000000	64.970270
975.000000	64.972230
974.000000	64.971467
973.000000	64.953064
972.000000	64.932265
971.000000	64.924425
970.000000	64.930959
969.000000	64.911793
968.000000	64.911466
967.000000	64.905042
966.000000	64.919198
965.000000	64.918871
964.000000	64.913862
963.000000	64.903517
962.000000	64.918980
961.000000	64.924207
960.000000	64.938690
959.000000	64.935968
958.000000	64.933028
957.000000	64.952738
956.000000	64.939235
955.000000	64.943808
954.000000	64.962211
953.000000	64.947620
952.000000	64.933354
951.000000	64.942175
950.000000	64.906240
949.000000	64.934443
948.000000	64.919742
947.000000	64.871067
946.000000	64.850377
945.000000	64.863226
944.000000	64.820975
943.000000	64.806165
942.000000	64.812263
941.000000	64.771646
940.000000	64.737017
939.000000	64.737888
938.000000	64.686381
937.000000	64.664058
936.000000	64.643368
935.000000	64.611462
934.000000	64.633132
933.000000	64.592187
932.000000	64.546669
931.000000	64.515525
930.000000	64.520861
929.000000	64.488520
928.000000	64.427212
927.000000	64.380932
926.000000	64.320168
925.000000	64.286411
924.000000	64.262781
923.000000	64.214214
922.000000	64.173705
921.000000	64.119693
920.000000	64.081907
919.000000	64.042596
918.000000	64.038240
917.000000	63.997840
916.000000	63.952975
915.000000	63.886114
914.000000	63.893628
913.000000	63.842992
912.000000	63.804879
911.000000	63.760885
910.000000	63.709596
909.000000	63.660049
908.000000	63.635874
907.000000	63.645130
906.000000	63.598523
905.000000	63.613006
904.000000	63.604839
903.000000	63.614640
902.000000	63.609195
901.000000	63.609086
900.000000	63.578269
899.000000	63.593950
898.000000	63.600919
897.000000	63.573913
896.000000	63.577071
895.000000	63.561717
894.000000	63.531662
893.000000	63.502805
892.000000	63.508358
891.000000	63.499538
890.000000	63.477324
889.000000	63.466107
888.000000	63.460445
887.000000	63.421352
886.000000	63.356559
885.000000	63.339027
884.000000	63.303636
883.000000	63.280224
882.000000	63.211403
881.000000	63.103706
880.000000	63.058732
879.000000	62.943413
878.000000	62.900944
877.000000	62.843774
876.000000	62.758183
875.000000	62.681303
874.000000	62.545621
873.000000	62.473641
872.000000	62.322713
871.000000	62.214254
870.000000	62.057555
869.000000	61.958787
868.000000	61.808513
867.000000	61.668365
866.000000	61.482809
865.000000	61.333187
864.000000	61.119645
863.000000	60.959352
862.000000	60.744720
861.000000	60.529653
860.000000	60.222135
859.000000	59.893491
858.000000	60.529000
857.000000	60.351100
856.000000	60.581500
855.000000	60.654400
854.000000	60.652700
853.000000	60.817400
852.000000	60.342600
851.000000	60.693100
850.000000	60.739400
849.000000	60.769500
848.000000	60.663200
847.000000	61.000400
846.000000	61.001700
845.000000	60.986200
844.000000	60.969700
843.000000	61.165200
842.000000	60.766200
841.000000	60.907400
840.000000	60.878800
839.000000	60.844000
838.000000	61.016600
837.000000	61.041300
836.000000	60.804100
835.000000	60.739000
834.000000	60.670100
833.000000	60.838500
832.000000	60.849300
831.000000	60.835700
830.000000	60.907000
829.000000	60.851900
828.000000	60.780600
827.000000	60.755500
826.000000	60.865000
825.000000	60.737300
824.000000	60.747700
823.000000	60.727500
822.000000	60.609300
821.000000	60.625400
820.000000	60.717000
819.000000	60.643100
818.000000	60.556200
817.000000	60.599700
816.000000	60.531500
815.000000	60.562000
814.000000	60.534900
813.000000	60.470300
812.000000	60.450100
811.000000	60.409600
810.000000	60.322000
809.000000	60.250700
808.000000	60.248200
807.000000	60.181900
806.000000	60.057900
805.000000	60.045600
804.000000	60.075400
803.000000	60.014800
802.000000	59.971800
801.000000	60.034700
800.000000	59.841200
799.000000	59.673800
798.000000	59.618500
797.000000	59.599900
796.000000	59.557800
795.000000	59.550600
794.000000	59.448700
793.000000	59.359700
792.000000	59.339200
791.000000	59.210500
790.000000	59.143200
789.000000	59.205700
788.000000	59.032300
787.000000	58.940200
786.000000	58.871900
785.000000	58.888700
784.000000	58.863900
783.000000	58.756600
782.000000	58.617900
781.000000	58.482200
780.000000	58.450300
779.000000	58.340700
778.000000	58.290700
777.000000	58.253800
776.000000	58.227400
775.000000	58.095600
774.000000	57.926200
773.000000	57.845300
772.000000	57.797600
771.000000	57.709600
770.000000	57.575800
769.000000	57.475100
768.000000	57.388700
767.000000	57.274800
766.000000	57.174100
765.000000	57.054500
764.000000	56.928000
763.000000	56.876600
762.000000	56.718800
761.000000	56.596500
760.000000	56.494300
759.000000	56.386900
758.000000	56.262600
757.000000	56.108500
756.000000	55.957700
755.000000	55.800100
754.000000	55.709100
753.000000	55.579100
752.000000	55.455500
751.000000	55.347300
750.000000	55.185600
749.000000	55.028200
748.000000	54.870300
747.000000	54.749000
746.000000	54.646400
745.000000	54.501200
744.000000	54.358400
743.000000	54.258000
742.000000	54.147100
741.000000	53.982700
740.000000	53.834500
739.000000	53.759400
738.000000	53.693000
737.000000	53.566800
736.000000	53.410500
735.000000	53.241600
734.000000	53.182300
733.000000	53.160100
732.000000	53.005800
731.000000	52.892800
730.000000	52.835400
729.000000	52.696000
728.000000	52.600800
727.000000	52.551300
726.000000	52.503700
725.000000	52.440900
724.000000	52.333000
723.000000	52.245400
722.000000	52.180400
721.000000	52.134400
720.000000	52.026600
719.000000	51.955800
718.000000	51.904300
717.000000	51.839100
716.000000	51.756300
715.000000	51.687800
714.000000	51.628200
713.000000	51.572900
712.000000	51.518600
711.000000	51.404600
710.000000	51.318700
709.000000	51.233400
708.000000	51.179200
707.000000	51.132600
706.000000	51.067100
705.000000	51.005000
704.000000	50.963100
703.000000	50.875100
702.000000	50.755800
701.000000	50.692300
700.000000	50.639600
699.000000	50.524800
698.000000	50.480900
697.000000	50.446700
696.000000	50.332000
695.000000	50.203000
694.000000	50.134900
693.000000	50.086300
692.000000	49.968600
691.000000	49.897200
690.000000	49.815300
689.000000	49.715600
688.000000	49.667000
687.000000	49.609800
686.000000	49.488000
685.000000	49.380000
684.000000	49.282600
683.000000	49.169100
682.000000	49.024900
681.000000	48.897800
680.000000	48.790400
679.000000	48.654300
678.000000	48.522600
677.000000	48.422900
676.000000	48.321300
675.000000	48.196400
674.000000	48.087700
673.000000	47.981300
672.000000	47.893800
671.000000	47.781100
670.000000	47.669800
669.000000	47.629800
668.000000	47.556400
667.000000	47.474300
666.000000	47.403100
665.000000	47.377400
664.000000	47.289500
663.000000	47.232700
662.000000	47.218700
661.000000	47.169200
660.000000	47.157900
659.000000	47.137000
658.000000	47.050700
657.000000	47.037300
656.000000	47.002000
655.000000	46.997900
654.000000	46.939300
653.000000	46.899600
652.000000	46.856600
651.000000	46.863100
650.000000	46.839600
649.000000	46.830300
648.000000	46.821900
647.000000	46.800000
646.000000	46.782700
645.000000	46.773700
644.000000	46.738200
643.000000	46.686300
642.000000	46.646500
641.000000	46.601900
640.000000	46.529700
639.000000	46.470100
638.000000	46.435700
637.000000	46.329500
636.000000	46.232600
635.000000	46.131900
634.000000	46.023900
633.000000	45.913400
632.000000	45.821600
631.000000	45.682900
630.000000	45.562800
629.000000	45.436900
628.000000	45.272800
627.000000	45.153300
626.000000	45.044800
625.000000	44.949700
624.000000	44.843500
623.000000	44.741800
622.000000	44.656200
621.000000	44.576600
620.000000	44.554600
619.000000	44.526000
618.000000	44.516300
617.000000	44.536900
616.000000	44.611600
615.000000	44.691500
614.000000	44.792200
613.000000	44.928000
612.000000	45.102600
611.000000	45.280600
610.000000	45.508400
609.000000	45.717300
608.000000	45.964500
607.000000	46.164000
606.000000	46.467800
605.000000	46.700700
604.000000	46.950300
603.000000	47.258000
602.000000	47.534100
601.000000	47.808600
600.000000	48.084500
599.000000	48.366700
598.000000	48.685600
597.000000	48.942100
596.000000	49.212800
595.000000	49.540100
594.000000	49.843100
593.000000	50.168400
592.000000	50.426600
591.000000	50.718800
590.000000	50.990000
589.000000	51.273000
588.000000	51.525900
587.000000	51.791800
586.000000	52.033200
585.000000	52.330000
584.000000	52.585100
583.000000	52.839200
582.000000	53.119500
581.000000	53.378600
580.000000	53.620900
579.000000	53.884400
578.000000	54.151200
577.000000	54.395200
576.000000	54.651700
575.000000	54.933100
574.000000	55.136800
573.000000	55.382300
572.000000	55.603300
571.000000	55.780800
570.000000	55.974800
569.000000	56.112400
568.000000	56.234500
567.000000	56.343300
566.000000	56.410800
565.000000	56.458700
564.000000	56.521100
563.000000	56.503900
562.000000	56.483300
561.000000	56.482000
560.000000	56.499000
559.000000	56.669400
558.000000	56.644800
557.000000	56.576600
556.000000	56.563500
555.000000	56.480900
554.000000	56.383400
553.000000	56.350600
552.000000	56.240400
551.000000	56.122700
550.000000	56.008700
549.000000	55.896800
548.000000	55.717400
547.000000	55.524900
546.000000	55.285300
545.000000	55.021800
544.000000	54.724100
543.000000	54.427100
542.000000	54.102500
541.000000	53.780700
540.000000	53.354100
539.000000	53.003800
538.000000	52.552400
537.000000	52.131900
536.000000	51.686600
535.000000	51.193700
534.000000	50.667800
533.000000	50.132100
532.000000	49.567100
531.000000	48.959000
530.000000	48.342400
529.000000	47.700400
528.000000	47.044700
527.000000	46.381700
526.000000	45.656400
525.000000	44.916300
524.000000	44.162000
523.000000	43.380400
522.000000	42.596400
521.000000	41.802800
520.000000	41.003000
519.000000	40.202200
518.000000	39.435600
517.000000	38.682100
516.000000	37.933900
515.000000	37.210400
514.000000	36.517500
513.000000	35.847200
512.000000	35.171000
511.000000	34.524500
510.000000	33.922300
509.000000	33.331300
508.000000	32.779300
507.000000	32.269600
506.000000	31.725700
505.000000	31.225000
504.000000	30.705800
503.000000	30.176900
502.000000	29.662300
501.000000	29.133100
500.000000	28.630600
499.000000	28.131900
498.000000	27.633000
497.000000	27.148900
496.000000	26.645600
495.000000	26.151800
494.000000	25.668000
493.000000	25.201700
492.000000	24.748100
491.000000	24.309100
490.000000	23.903900
489.000000	23.509800
488.000000	23.124400
487.000000	22.749100
486.000000	22.415100
485.000000	22.102200
484.000000	21.796000
483.000000	21.507700
482.000000	21.220300
481.000000	20.951500
480.000000	20.690000
479.000000	20.426600
478.000000	20.170700
477.000000	19.941800
476.000000	19.712300
475.000000	19.487500
474.000000	19.265000
473.000000	19.044700
472.000000	18.862600
471.000000	18.681100
470.000000	18.491600
469.000000	18.300800
468.000000	18.130900
467.000000	17.969400
466.000000	17.805800
465.000000	17.650700
464.000000	17.497700
463.000000	17.341100
462.000000	17.195900
461.000000	17.058900
460.000000	16.907100
459.000000	16.779500
458.000000	16.665400
457.000000	16.530500
456.000000	16.404300
455.000000	16.280300
454.000000	16.172900
453.000000	16.069400
452.000000	15.964800
451.000000	15.853800
450.000000	15.743100
449.000000	15.650300
448.000000	15.548700
447.000000	15.438300
446.000000	15.331500
445.000000	15.224800
444.000000	15.115800
443.000000	14.986800
442.000000	14.857800
441.000000	14.725100
440.000000	14.576200
439.000000	14.422200
438.000000	14.286900
437.000000	14.140200
436.000000	13.999800
435.000000	13.875500
434.000000	13.728500
433.000000	13.586100
432.000000	13.435100
431.000000	13.292300
430.000000	13.166200
429.000000	13.033900
428.000000	12.912500
427.000000	12.775900
426.000000	12.645000
425.000000	12.517600
424.000000	12.378500
423.000000	12.257100
422.000000	12.123400
421.000000	11.985900
420.000000	11.838500
419.000000	11.681100
418.000000	11.550300
417.000000	11.416500
416.000000	11.297000
415.000000	11.157500
414.000000	11.004300
413.000000	10.857300
412.000000	10.710300
411.000000	10.550900
410.000000	10.387600
409.000000	10.232400
408.000000	10.074900
407.000000	9.907500
406.000000	9.730400
405.000000	9.559800
404.000000	9.388400
403.000000	9.212000
402.000000	9.044300
401.000000	8.875600
400.000000	8.699900
399.000000	8.531300
398.000000	8.342100
397.000000	8.176700
396.000000	8.025800
395.000000	7.857800
394.000000	7.699100
393.000000	7.541200
392.000000	7.379800
391.000000	7.232900
390.000000	7.102100
389.000000	6.960600
388.000000	6.805000
387.000000	6.693700
386.000000	6.587400
385.000000	6.451900
384.000000	6.327000
383.000000	6.207900
382.000000	6.102100
381.000000	6.000800
380.000000	5.913900
379.000000	5.826900
378.000000	5.719900
377.000000	5.647100
376.000000	5.726800
375.000000	5.440400
374.000000	5.292800
373.000000	5.304000
372.000000	5.279600
371.000000	5.231500
370.000000	5.233400
369.000000	5.194700
368.000000	5.123700
367.000000	5.028400
366.000000	5.054600
365.000000	5.040300
364.000000	5.002300
363.000000	4.925700
362.000000	4.951300
361.000000	4.865000
360.000000	4.891900
359.000000	4.895900
358.000000	4.870400
357.000000	4.859500
356.000000	4.837300
355.000000	4.820000
354.000000	4.803700
353.000000	4.851600
352.000000	4.776400
351.000000	4.811000
350.000000	4.743600
349.000000	4.802900
348.000000	4.743400
347.000000	4.753900
346.000000	4.802600
345.000000	4.720500
344.000000	4.840200
343.000000	4.791900
342.000000	4.736100
341.000000	4.753200
340.000000	4.691500
339.000000	4.793200
338.000000	4.623400
337.000000	4.722600
336.000000	4.719600
335.000000	4.819700
334.000000	4.716500
333.000000	4.736200
332.000000	4.618800
331.000000	4.761500
330.000000	4.880300
329.000000	4.861500
328.000000	4.840000
327.000000	4.864800
326.000000	4.845100
325.000000	4.885500
324.000000	4.866400
323.000000	4.807700
322.000000	4.726500
321.000000	4.786400
320.000000	4.986800
319.000000	4.953800
318.000000	4.910500
317.000000	4.917200
316.000000	4.598700
315.000000	4.512400
314.000000	4.496800
313.000000	4.546600
312.000000	4.507200
311.000000	4.518000
310.000000	4.572800
309.000000	4.516100
308.000000	4.561400
307.000000	4.548100
306.000000	4.580100
305.000000	4.484200
304.000000	4.568300
303.000000	4.583300
302.000000	4.556800
301.000000	4.508400
300.000000	4.559700
299.000000	4.562100
298.000000	4.533100
297.000000	4.547400
296.000000	4.591900
295.000000	4.572300
294.000000	4.564200
293.000000	4.563800
292.000000	4.594600
291.000000	4.586300
290.000000	4.607800
289.000000	4.552300
288.000000	4.597800
287.000000	4.673200
286.000000	4.605100
285.000000	4.612700
284.000000	4.620700
283.000000	4.609900
282.000000	4.651500
281.000000	4.666900
280.000000	4.674400
279.000000	4.733100
278.000000	4.703000
277.000000	4.696600
276.000000	4.695400
275.000000	4.707500
274.000000	4.739300
273.000000	4.736200
272.000000	4.703600
271.000000	4.797400
270.000000	4.800600
269.000000	4.805100
268.000000	4.768700
267.000000	4.785300
266.000000	4.901200
265.000000	4.891400
264.000000	4.842400
263.000000	4.881200
262.000000	4.925600
261.000000	4.930200
260.000000	4.888500
259.000000	4.941800
258.000000	4.965200
257.000000	4.939900
256.000000	4.962000
255.000000	5.022200
254.000000	4.974300
253.000000	4.981100
252.000000	4.986900
251.000000	5.021300
250.000000	5.012200
