PE UV       SUBTECH     SPECTRUM    ASCII       PEDS        4.00        
   -1
CICIMAUCR0013-2.Sample.ASC
24/04/11
15:59:46.00
24/04/11
15:59:46.00
Vinicio Soto Monge
C. resplendens
250,000000
1
Lambda 1050
1050L1511233
PerkinElmer UV WinLab 6.3.2.0749 / 2.02.05 Lambda 900 UV/VIS/NIR, Aug  7 2015 09:38:08

0
0
3350/2 860,8/2
0
0
UV/VIS
1
1
1
DoubleDePol,CommonBeamDepol,RBeamAtt,SBeamAtt,60mm sphere, WB InGaAs Detector
0
0
0
0
Program
Program
3350/2 860,8/2
3350/0,2 860,8/0,2
3350/0,2 860,8/0,2
0
15.00
 
 
 
0
 
860,8
319,2
860,8
Front
100
on
S:100 R:100
0
0
0
0
 
0
 
 
 
0
 
 
0
0
0
0
0
 
 
 
 
0
0


0
0
#HDR
-1
-1
#GR
nm
%R
1.0
0.0
2400,000000
-1,000000
2151
8
74,743200
5,012800
#DATA
2400.000000	17.583258
2399.000000	18.255201
2398.000000	16.856922
2397.000000	16.728914
2396.000000	17.000188
2395.000000	17.477146
2394.000000	18.124121
2393.000000	17.163764
2392.000000	17.446135
2391.000000	16.793909
2390.000000	17.487351
2389.000000	17.349138
2388.000000	16.815408
2387.000000	18.026926
2386.000000	17.083710
2385.000000	17.962427
2384.000000	16.699884
2383.000000	17.747528
2382.000000	18.059424
2381.000000	18.127292
2380.000000	17.795581
2379.000000	17.105309
2378.000000	17.664006
2377.000000	17.229453
2376.000000	17.004448
2375.000000	17.235496
2374.000000	17.257591
2373.000000	16.829081
2372.000000	17.820251
2371.000000	17.253132
2370.000000	17.238766
2369.000000	17.469220
2368.000000	17.258780
2367.000000	17.015148
2366.000000	16.946488
2365.000000	16.584459
2364.000000	17.073901
2363.000000	17.227075
2362.000000	17.095203
2361.000000	16.373325
2360.000000	16.427620
2359.000000	15.794912
2358.000000	16.333595
2357.000000	16.117111
2356.000000	15.474892
2355.000000	15.716839
2354.000000	15.860798
2353.000000	15.037267
2352.000000	15.571591
2351.000000	16.311798
2350.000000	15.984249
2349.000000	15.185190
2348.000000	14.952655
2347.000000	16.179233
2346.000000	15.953336
2345.000000	15.791444
2344.000000	14.980100
2343.000000	16.257999
2342.000000	16.611210
2341.000000	16.777165
2340.000000	16.513223
2339.000000	16.545720
2338.000000	16.676205
2337.000000	16.497370
2336.000000	15.972656
2335.000000	16.459424
2334.000000	16.082434
2333.000000	16.410083
2332.000000	16.617650
2331.000000	16.127415
2330.000000	16.274347
2329.000000	15.829093
2328.000000	15.854953
2327.000000	15.614294
2326.000000	15.490645
2325.000000	15.646890
2324.000000	15.361746
2323.000000	14.851893
2322.000000	14.975938
2321.000000	15.181028
2320.000000	14.743701
2319.000000	14.693469
2318.000000	14.547627
2317.000000	14.194119
2316.000000	14.306671
2315.000000	13.955739
2314.000000	13.586378
2313.000000	13.295487
2312.000000	13.234753
2311.000000	13.243670
2310.000000	13.144295
2309.000000	13.163120
2308.000000	13.487896
2307.000000	13.121309
2306.000000	12.823285
2305.000000	12.915129
2304.000000	13.252389
2303.000000	13.604212
2302.000000	13.755999
2301.000000	13.551008
2300.000000	13.222170
2299.000000	14.052736
2298.000000	13.959900
2297.000000	13.692688
2296.000000	13.874495
2295.000000	14.043422
2294.000000	14.115253
2293.000000	14.057590
2292.000000	14.232858
2291.000000	14.298348
2290.000000	14.437948
2289.000000	14.411098
2288.000000	14.612225
2287.000000	14.829304
2286.000000	14.789970
2285.000000	14.451126
2284.000000	13.916009
2283.000000	13.816931
2282.000000	13.990812
2281.000000	14.353237
2280.000000	14.282397
2279.000000	13.912046
2278.000000	13.871919
2277.000000	13.770167
2276.000000	13.702299
2275.000000	13.634629
2274.000000	13.553980
2273.000000	13.731031
2272.000000	13.891636
2271.000000	13.951974
2270.000000	13.863696
2269.000000	13.635224
2268.000000	13.553980
2267.000000	13.736084
2266.000000	13.842394
2265.000000	14.003890
2264.000000	14.104949
2263.000000	14.267932
2262.000000	14.549410
2261.000000	14.686236
2260.000000	14.918473
2259.000000	15.382453
2258.000000	15.706039
2257.000000	15.869418
2256.000000	16.111068
2255.000000	16.492119
2254.000000	16.637565
2253.000000	16.827793
2252.000000	16.819272
2251.000000	17.205179
2250.000000	17.644983
2249.000000	17.633292
2248.000000	17.726425
2247.000000	18.395296
2246.000000	18.512802
2245.000000	18.327824
2244.000000	18.661715
2243.000000	18.933980
2242.000000	19.178998
2241.000000	19.292937
2240.000000	19.307303
2239.000000	19.372694
2238.000000	19.271041
2237.000000	19.303241
2236.000000	19.247064
2235.000000	19.590961
2234.000000	19.596807
2233.000000	19.623756
2232.000000	19.817254
2231.000000	19.922771
2230.000000	19.979047
2229.000000	19.922871
2228.000000	20.041169
2227.000000	19.972310
2226.000000	19.909198
2225.000000	19.969041
2224.000000	19.984199
2223.000000	19.998566
2222.000000	20.050680
2221.000000	20.250718
2220.000000	20.112604
2219.000000	19.998962
2218.000000	19.784360
2217.000000	19.753448
2216.000000	19.758997
2215.000000	19.673988
2214.000000	19.866099
2213.000000	19.696974
2212.000000	19.526660
2211.000000	19.529732
2210.000000	19.893048
2209.000000	19.813588
2208.000000	19.656253
2207.000000	19.707675
2206.000000	19.958241
2205.000000	19.731453
2204.000000	19.389042
2203.000000	19.769895
2202.000000	19.778317
2201.000000	19.715799
2200.000000	19.599086
2199.000000	19.574118
2198.000000	19.704405
2197.000000	19.518833
2196.000000	19.358625
2195.000000	19.561238
2194.000000	19.538054
2193.000000	19.250532
2192.000000	19.409650
2191.000000	19.402318
2190.000000	19.378242
2189.000000	19.708863
2188.000000	19.312950
2187.000000	19.367938
2186.000000	19.256674
2185.000000	19.479598
2184.000000	19.219520
2183.000000	19.280552
2182.000000	19.196832
2181.000000	19.614740
2180.000000	19.683698
2179.000000	19.639410
2178.000000	19.520121
2177.000000	19.352879
2176.000000	19.378540
2175.000000	19.542612
2174.000000	19.270050
2173.000000	19.235571
2172.000000	19.298881
2171.000000	19.502188
2170.000000	19.491785
2169.000000	19.622765
2168.000000	19.454334
2167.000000	19.538054
2166.000000	19.611074
2165.000000	19.227546
2164.000000	19.679239
2163.000000	19.870260
2162.000000	19.806950
2161.000000	19.683599
2160.000000	19.894931
2159.000000	19.380917
2158.000000	19.474645
2157.000000	19.676366
2156.000000	19.606120
2155.000000	19.804770
2154.000000	19.987172
2153.000000	19.853219
2152.000000	19.865009
2151.000000	20.176608
2150.000000	20.220895
2149.000000	19.705396
2148.000000	19.893048
2147.000000	19.785252
2146.000000	19.990045
2145.000000	20.036710
2144.000000	20.257851
2143.000000	20.168781
2142.000000	20.643361
2141.000000	20.372087
2140.000000	20.704096
2139.000000	20.482856
2138.000000	20.271920
2137.000000	20.426084
2136.000000	20.423112
2135.000000	20.003718
2134.000000	20.159269
2133.000000	20.488701
2132.000000	20.378825
2131.000000	20.610963
2130.000000	20.855486
2129.000000	19.906027
2128.000000	20.375753
2127.000000	20.561920
2126.000000	20.432227
2125.000000	20.711427
2124.000000	20.357424
2123.000000	20.054247
2122.000000	20.545968
2121.000000	20.593525
2120.000000	20.192559
2119.000000	20.251114
2118.000000	20.237937
2117.000000	20.262310
2116.000000	20.243782
2115.000000	20.309470
2114.000000	20.158576
2113.000000	19.810319
2112.000000	19.976570
2111.000000	20.227335
2110.000000	20.025416
2109.000000	20.310164
2108.000000	20.048402
2107.000000	20.053058
2106.000000	19.802393
2105.000000	19.812597
2104.000000	19.946847
2103.000000	19.338215
2102.000000	19.604535
2101.000000	19.915143
2100.000000	19.456712
2099.000000	19.462260
2098.000000	19.451560
2097.000000	19.331577
2096.000000	19.320678
2095.000000	19.465331
2094.000000	19.493568
2093.000000	19.371406
2092.000000	19.361102
2091.000000	19.211792
2090.000000	19.380323
2089.000000	19.413019
2088.000000	19.099538
2087.000000	19.253504
2086.000000	19.312059
2085.000000	19.594925
2084.000000	19.390330
2083.000000	19.324840
2082.000000	19.036227
2081.000000	19.378738
2080.000000	19.400337
2079.000000	19.132630
2078.000000	19.049306
2077.000000	19.023744
2076.000000	19.142141
2075.000000	19.060501
2074.000000	18.896726
2073.000000	18.832128
2072.000000	19.079425
2071.000000	19.184843
2070.000000	18.886819
2069.000000	18.686385
2068.000000	18.802702
2067.000000	18.929026
2066.000000	18.638630
2065.000000	18.808052
2064.000000	18.638333
2063.000000	18.742265
2062.000000	18.598107
2061.000000	18.564916
2060.000000	18.920604
2059.000000	18.808250
2058.000000	18.638828
2057.000000	18.565015
2056.000000	18.708975
2055.000000	18.721459
2054.000000	18.804485
2053.000000	18.803098
2052.000000	18.797847
2051.000000	18.940816
2050.000000	19.136295
2049.000000	19.048612
2048.000000	19.138178
2047.000000	19.297792
2046.000000	19.558068
2045.000000	19.497036
2044.000000	19.687958
2043.000000	19.836376
2042.000000	19.989252
2041.000000	20.144408
2040.000000	20.218616
2039.000000	20.431435
2038.000000	20.622555
2037.000000	20.696863
2036.000000	20.693990
2035.000000	20.849343
2034.000000	21.000832
2033.000000	20.985971
2032.000000	21.070384
2031.000000	21.230692
2030.000000	21.338785
2029.000000	21.366329
2028.000000	21.423100
2027.000000	21.595891
2026.000000	21.672973
2025.000000	21.859734
2024.000000	21.847547
2023.000000	21.851808
2022.000000	21.846358
2021.000000	21.991408
2020.000000	22.099105
2019.000000	22.093556
2018.000000	22.129224
2017.000000	22.125162
2016.000000	22.221465
2015.000000	22.354130
2014.000000	22.434382
2013.000000	22.371270
2012.000000	22.356012
2011.000000	22.459053
2010.000000	22.537324
2009.000000	22.441714
2008.000000	22.328271
2007.000000	22.402380
2006.000000	22.407731
2005.000000	22.395247
2004.000000	22.408424
2003.000000	22.353040
2002.000000	22.310932
2001.000000	22.283785
2000.000000	22.285073
1999.000000	22.294881
1998.000000	22.311725
1997.000000	22.268725
1996.000000	22.182429
1995.000000	22.112579
1994.000000	22.004189
1993.000000	21.951380
1992.000000	21.933943
1991.000000	21.913830
1990.000000	21.874100
1989.000000	21.808709
1988.000000	21.691699
1987.000000	21.640674
1986.000000	21.591928
1985.000000	21.483735
1984.000000	21.435881
1983.000000	21.398628
1982.000000	21.293309
1981.000000	21.198690
1980.000000	21.149448
1979.000000	21.060873
1978.000000	20.982404
1977.000000	20.856278
1976.000000	20.785933
1975.000000	20.756012
1974.000000	20.662681
1973.000000	20.601550
1972.000000	20.542203
1971.000000	20.422419
1970.000000	20.312542
1969.000000	20.269047
1968.000000	20.187605
1967.000000	20.126475
1966.000000	19.984398
1965.000000	19.949423
1964.000000	19.867585
1963.000000	19.816065
1962.000000	19.698262
1961.000000	19.621180
1960.000000	19.587196
1959.000000	19.506250
1958.000000	19.457405
1957.000000	19.429763
1956.000000	19.286100
1955.000000	19.176422
1954.000000	19.124703
1953.000000	19.035534
1952.000000	18.989166
1951.000000	18.951913
1950.000000	18.806863
1949.000000	18.770799
1948.000000	18.716901
1947.000000	18.663895
1946.000000	18.676676
1945.000000	18.560458
1944.000000	18.555306
1943.000000	18.501705
1942.000000	18.550253
1941.000000	18.570663
1940.000000	18.632091
1939.000000	18.606133
1938.000000	18.547875
1937.000000	18.494770
1936.000000	18.545894
1935.000000	18.626047
1934.000000	18.665480
1933.000000	18.681729
1932.000000	18.708380
1931.000000	18.859077
1930.000000	18.922685
1929.000000	19.010864
1928.000000	19.061294
1927.000000	19.136196
1926.000000	19.252117
1925.000000	19.470682
1924.000000	19.629701
1923.000000	19.758699
1922.000000	19.843609
1921.000000	20.065146
1920.000000	20.385463
1919.000000	20.389525
1918.000000	20.413006
1917.000000	20.686460
1916.000000	21.066719
1915.000000	21.098820
1914.000000	21.365140
1913.000000	21.558241
1912.000000	21.784534
1911.000000	22.042135
1910.000000	22.223546
1909.000000	22.348185
1908.000000	22.659486
1907.000000	23.133968
1906.000000	23.465282
1905.000000	23.717434
1904.000000	23.722586
1903.000000	23.974441
1902.000000	24.266224
1901.000000	24.385216
1900.000000	24.958477
1899.000000	25.171097
1898.000000	25.325261
1897.000000	25.515985
1896.000000	25.843337
1895.000000	26.018208
1894.000000	26.353783
1893.000000	26.744049
1892.000000	26.983519
1891.000000	27.200499
1890.000000	27.528048
1889.000000	27.703019
1888.000000	27.932482
1887.000000	28.220104
1886.000000	28.577971
1885.000000	28.918302
1884.000000	29.293607
1883.000000	29.607979
1882.000000	29.972088
1881.000000	30.508592
1880.000000	30.919268
1879.000000	31.358973
1878.000000	31.717732
1877.000000	32.240068
1876.000000	32.438520
1875.000000	32.651041
1874.000000	33.033777
1873.000000	33.427510
1872.000000	33.451883
1871.000000	33.658757
1870.000000	33.713943
1869.000000	33.860181
1868.000000	34.204475
1867.000000	34.086276
1866.000000	33.863946
1865.000000	34.136904
1864.000000	34.237864
1863.000000	34.201007
1862.000000	34.186046
1861.000000	34.388461
1860.000000	34.602964
1859.000000	34.329312
1858.000000	34.171581
1857.000000	34.249159
1856.000000	34.248267
1855.000000	34.107181
1854.000000	34.293248
1853.000000	34.103020
1852.000000	33.810048
1851.000000	33.905360
1850.000000	33.930625
1849.000000	34.033765
1848.000000	34.229145
1847.000000	33.912989
1846.000000	33.476752
1845.000000	33.339529
1844.000000	33.434644
1843.000000	33.552249
1842.000000	33.675303
1841.000000	33.564237
1840.000000	33.382232
1839.000000	33.316544
1838.000000	33.394220
1837.000000	33.470411
1836.000000	33.392437
1835.000000	33.127009
1834.000000	32.961153
1833.000000	32.944706
1832.000000	32.963432
1831.000000	32.930142
1830.000000	32.768150
1829.000000	32.620228
1828.000000	32.572076
1827.000000	32.555332
1826.000000	32.555729
1825.000000	32.301892
1824.000000	32.188746
1823.000000	32.314971
1822.000000	32.382839
1821.000000	32.405428
1820.000000	32.297830
1819.000000	32.127913
1818.000000	32.117807
1817.000000	32.163481
1816.000000	32.153474
1815.000000	32.190034
1814.000000	32.111367
1813.000000	32.173191
1812.000000	32.183396
1811.000000	32.112556
1810.000000	32.071934
1809.000000	32.000103
1808.000000	31.961165
1807.000000	31.955716
1806.000000	31.903601
1805.000000	31.806902
1804.000000	31.717831
1803.000000	31.739232
1802.000000	31.708716
1801.000000	31.688306
1800.000000	31.614494
1799.000000	31.500158
1798.000000	31.464788
1797.000000	31.486981
1796.000000	31.414258
1795.000000	31.367494
1794.000000	31.312110
1793.000000	31.278423
1792.000000	31.218977
1791.000000	31.129114
1790.000000	31.101967
1789.000000	31.056391
1788.000000	30.957016
1787.000000	30.902128
1786.000000	30.847338
1785.000000	30.776993
1784.000000	30.689904
1783.000000	30.597465
1782.000000	30.495712
1781.000000	30.430618
1780.000000	30.365227
1779.000000	30.285965
1778.000000	30.162911
1777.000000	30.070373
1776.000000	29.969909
1775.000000	29.886981
1774.000000	29.761846
1773.000000	29.632055
1772.000000	29.479674
1771.000000	29.322240
1770.000000	29.217813
1769.000000	29.078906
1768.000000	28.935640
1767.000000	28.814072
1766.000000	28.734414
1765.000000	28.673878
1764.000000	28.640192
1763.000000	28.637616
1762.000000	28.643164
1761.000000	28.664366
1760.000000	28.675760
1759.000000	28.717472
1758.000000	28.823881
1757.000000	28.878671
1756.000000	28.908493
1755.000000	28.933163
1754.000000	28.953177
1753.000000	28.945350
1752.000000	28.940198
1751.000000	28.911862
1750.000000	28.865989
1749.000000	28.796437
1748.000000	28.697954
1747.000000	28.598183
1746.000000	28.479191
1745.000000	28.347913
1744.000000	28.220401
1743.000000	28.060589
1742.000000	27.860156
1741.000000	27.626135
1740.000000	27.378739
1739.000000	27.155517
1738.000000	26.927838
1737.000000	26.748210
1736.000000	26.588696
1735.000000	26.482881
1734.000000	26.460886
1733.000000	26.461183
1732.000000	26.495464
1731.000000	26.589290
1730.000000	26.713731
1729.000000	26.821924
1728.000000	26.937646
1727.000000	27.072193
1726.000000	27.167506
1725.000000	27.257072
1724.000000	27.326822
1723.000000	27.347232
1722.000000	27.398950
1721.000000	27.432538
1720.000000	27.384584
1719.000000	27.393303
1718.000000	27.440365
1717.000000	27.478708
1716.000000	27.543702
1715.000000	27.628017
1714.000000	27.673395
1713.000000	27.723924
1712.000000	27.770193
1711.000000	27.811112
1710.000000	27.809725
1709.000000	27.793080
1708.000000	27.816363
1707.000000	27.797836
1706.000000	27.759988
1705.000000	27.730860
1704.000000	27.728779
1703.000000	27.650508
1702.000000	27.534984
1701.000000	27.413119
1700.000000	27.298882
1699.000000	27.142538
1698.000000	26.951319
1697.000000	26.820735
1696.000000	26.799731
1695.000000	26.777835
1694.000000	26.793390
1693.000000	26.943888
1692.000000	27.114499
1691.000000	27.275995
1690.000000	27.440464
1689.000000	27.558960
1688.000000	27.634457
1687.000000	27.687266
1686.000000	27.693408
1685.000000	27.668540
1684.000000	27.715106
1683.000000	27.857381
1682.000000	28.143913
1681.000000	28.545375
1680.000000	29.083959
1679.000000	29.638594
1678.000000	30.168559
1677.000000	30.687922
1676.000000	31.133969
1675.000000	31.511156
1674.000000	31.861295
1673.000000	32.131479
1672.000000	32.366194
1671.000000	32.580597
1670.000000	32.769339
1669.000000	32.912704
1668.000000	33.033777
1667.000000	33.188734
1666.000000	33.275724
1665.000000	33.368757
1664.000000	33.460503
1663.000000	33.503503
1662.000000	33.575036
1661.000000	33.603967
1660.000000	33.664800
1659.000000	33.664999
1658.000000	33.695613
1657.000000	33.726625
1656.000000	33.752286
1655.000000	33.745449
1654.000000	33.749115
1653.000000	33.736136
1652.000000	33.689074
1651.000000	33.665098
1650.000000	33.667376
1649.000000	33.619126
1648.000000	33.551456
1647.000000	33.531839
1646.000000	33.479823
1645.000000	33.412351
1644.000000	33.370838
1643.000000	33.341016
1642.000000	33.254917
1641.000000	33.217565
1640.000000	33.162875
1639.000000	33.103329
1638.000000	33.018519
1637.000000	32.979879
1636.000000	32.930043
1635.000000	32.820760
1634.000000	32.772213
1633.000000	32.684034
1632.000000	32.644006
1631.000000	32.570491
1630.000000	32.470126
1629.000000	32.367581
1628.000000	32.314277
1627.000000	32.243635
1626.000000	32.161896
1625.000000	32.096406
1624.000000	31.982863
1623.000000	31.952546
1622.000000	31.845146
1621.000000	31.797390
1620.000000	31.707825
1619.000000	31.620537
1618.000000	31.581501
1617.000000	31.495403
1616.000000	31.430210
1615.000000	31.350056
1614.000000	31.275352
1613.000000	31.236117
1612.000000	31.146155
1611.000000	31.104047
1610.000000	31.030730
1609.000000	30.981588
1608.000000	30.881420
1607.000000	30.830197
1606.000000	30.827423
1605.000000	30.736866
1604.000000	30.690003
1603.000000	30.620352
1602.000000	30.523157
1601.000000	30.482436
1600.000000	30.439833
1599.000000	30.393960
1598.000000	30.352744
1597.000000	30.257035
1596.000000	30.229491
1595.000000	30.217998
1594.000000	30.180349
1593.000000	30.132990
1592.000000	30.097025
1591.000000	30.014989
1590.000000	30.003793
1589.000000	29.984176
1588.000000	29.952471
1587.000000	29.921262
1586.000000	29.896691
1585.000000	29.852799
1584.000000	29.840316
1583.000000	29.836154
1582.000000	29.859041
1581.000000	29.834470
1580.000000	29.816933
1579.000000	29.779680
1578.000000	29.806728
1577.000000	29.821986
1576.000000	29.844279
1575.000000	29.884108
1574.000000	29.876182
1573.000000	29.852007
1572.000000	29.891638
1571.000000	29.906499
1570.000000	29.909769
1569.000000	29.967333
1568.000000	30.034012
1567.000000	30.025194
1566.000000	30.069085
1565.000000	30.086919
1564.000000	30.130315
1563.000000	30.157958
1562.000000	30.162020
1561.000000	30.245245
1560.000000	30.265357
1559.000000	30.274274
1558.000000	30.281606
1557.000000	30.282201
1556.000000	30.304889
1555.000000	30.333523
1554.000000	30.339864
1553.000000	30.328569
1552.000000	30.349672
1551.000000	30.334910
1550.000000	30.345313
1549.000000	30.328866
1548.000000	30.337486
1547.000000	30.339170
1546.000000	30.334117
1545.000000	30.314797
1544.000000	30.320543
1543.000000	30.353140
1542.000000	30.338179
1541.000000	30.338873
1540.000000	30.317769
1539.000000	30.334216
1538.000000	30.350861
1537.000000	30.350068
1536.000000	30.341052
1535.000000	30.344124
1534.000000	30.361462
1533.000000	30.323119
1532.000000	30.321732
1531.000000	30.311131
1530.000000	30.307762
1529.000000	30.299341
1528.000000	30.269122
1527.000000	30.244353
1526.000000	30.234842
1525.000000	30.228005
1524.000000	30.193526
1523.000000	30.170342
1522.000000	30.155580
1521.000000	30.131405
1520.000000	30.099601
1519.000000	30.088306
1518.000000	30.074039
1517.000000	30.033814
1516.000000	30.014890
1515.000000	30.000920
1514.000000	29.981303
1513.000000	29.949895
1512.000000	29.935628
1511.000000	29.894511
1510.000000	29.878559
1509.000000	29.852601
1508.000000	29.817131
1507.000000	29.817924
1506.000000	29.790678
1505.000000	29.773042
1504.000000	29.749363
1503.000000	29.714785
1502.000000	29.696653
1501.000000	29.709236
1500.000000	29.711911
1499.000000	29.698040
1498.000000	29.677432
1497.000000	29.667525
1496.000000	29.667326
1495.000000	29.678621
1494.000000	29.695861
1493.000000	29.690411
1492.000000	29.705868
1491.000000	29.736482
1490.000000	29.750551
1489.000000	29.763729
1488.000000	29.782157
1487.000000	29.813862
1486.000000	29.835163
1485.000000	29.847251
1484.000000	29.858843
1483.000000	29.904716
1482.000000	29.951579
1481.000000	29.994876
1480.000000	30.019348
1479.000000	30.039362
1478.000000	30.086721
1477.000000	30.119020
1476.000000	30.171630
1475.000000	30.235040
1474.000000	30.280813
1473.000000	30.309150
1472.000000	30.355419
1471.000000	30.424377
1470.000000	30.460639
1469.000000	30.492046
1468.000000	30.540495
1467.000000	30.589737
1466.000000	30.634321
1465.000000	30.680987
1464.000000	30.746774
1463.000000	30.816921
1462.000000	30.876962
1461.000000	30.946910
1460.000000	31.036873
1459.000000	31.125547
1458.000000	31.222346
1457.000000	31.320036
1456.000000	31.415745
1455.000000	31.498276
1454.000000	31.569116
1453.000000	31.681569
1452.000000	31.821764
1451.000000	31.944124
1450.000000	32.050137
1449.000000	32.147332
1448.000000	32.245616
1447.000000	32.379173
1446.000000	32.537300
1445.000000	32.652131
1444.000000	32.750217
1443.000000	32.881297
1442.000000	33.007026
1441.000000	33.133151
1440.000000	33.251450
1439.000000	33.374603
1438.000000	33.519454
1437.000000	33.601886
1436.000000	33.696902
1435.000000	33.823721
1434.000000	33.946973
1433.000000	34.072702
1432.000000	34.207348
1431.000000	34.301769
1430.000000	34.433343
1429.000000	34.582752
1428.000000	34.737610
1427.000000	34.898710
1426.000000	35.069618
1425.000000	35.275402
1424.000000	35.494660
1423.000000	35.652292
1422.000000	35.814085
1421.000000	36.017888
1420.000000	36.262510
1419.000000	36.475922
1418.000000	36.610469
1417.000000	36.760571
1416.000000	36.958825
1415.000000	37.216030
1414.000000	37.391001
1413.000000	37.465606
1412.000000	37.611646
1411.000000	37.831598
1410.000000	38.104754
1409.000000	38.375532
1408.000000	38.629368
1407.000000	38.949586
1406.000000	39.260293
1405.000000	39.659377
1404.000000	39.949376
1403.000000	40.209157
1402.000000	40.626074
1401.000000	41.100655
1400.000000	41.327047
1399.000000	41.423449
1398.000000	41.677285
1397.000000	42.019399
1396.000000	42.275910
1395.000000	42.277892
1394.000000	42.284332
1393.000000	42.448602
1392.000000	42.581663
1391.000000	42.614458
1390.000000	42.772783
1389.000000	43.024935
1388.000000	43.278672
1387.000000	43.359619
1386.000000	43.639017
1385.000000	44.008377
1384.000000	44.366344
1383.000000	44.759780
1382.000000	44.912062
1381.000000	45.006383
1380.000000	45.098327
1379.000000	45.102191
1378.000000	45.131320
1377.000000	45.226137
1376.000000	45.327691
1375.000000	45.466598
1374.000000	45.726477
1373.000000	46.047389
1372.000000	46.459452
1371.000000	46.779174
1370.000000	46.980698
1369.000000	47.326775
1368.000000	47.659477
1367.000000	47.811759
1366.000000	48.047662
1365.000000	48.335481
1364.000000	48.375410
1363.000000	48.565440
1362.000000	48.916273
1361.000000	48.849396
1360.000000	48.776970
1359.000000	48.835129
1358.000000	48.919641
1357.000000	49.104520
1356.000000	49.363904
1355.000000	49.724744
1354.000000	50.158901
1353.000000	50.657260
1352.000000	51.218434
1351.000000	51.767026
1350.000000	52.280444
1349.000000	52.711431
1348.000000	53.155297
1347.000000	53.474029
1346.000000	53.786024
1345.000000	54.137154
1344.000000	54.445285
1343.000000	54.704273
1342.000000	54.989219
1341.000000	55.233247
1340.000000	55.493721
1339.000000	55.747062
1338.000000	55.961564
1337.000000	56.146542
1336.000000	56.381652
1335.000000	56.542851
1334.000000	56.736845
1333.000000	56.901908
1332.000000	57.062512
1331.000000	57.216082
1330.000000	57.364302
1329.000000	57.482005
1328.000000	57.600007
1327.000000	57.725934
1326.000000	57.817580
1325.000000	57.937563
1324.000000	58.041396
1323.000000	58.119271
1322.000000	58.222807
1321.000000	58.271355
1320.000000	58.356462
1319.000000	58.438994
1318.000000	58.507753
1317.000000	58.579188
1316.000000	58.632492
1315.000000	58.677869
1314.000000	58.751285
1313.000000	58.794384
1312.000000	58.842238
1311.000000	58.881077
1310.000000	58.910800
1309.000000	58.933786
1308.000000	58.973219
1307.000000	59.000960
1306.000000	59.016317
1305.000000	59.037124
1304.000000	59.033061
1303.000000	59.028009
1302.000000	59.004824
1301.000000	58.993133
1300.000000	58.992539
1299.000000	58.977974
1298.000000	58.952016
1297.000000	58.950431
1296.000000	58.949539
1295.000000	58.923086
1294.000000	58.901189
1293.000000	58.871268
1292.000000	58.838870
1291.000000	58.811326
1290.000000	58.760797
1289.000000	58.723544
1288.000000	58.671132
1287.000000	58.624268
1286.000000	58.578395
1285.000000	58.504880
1284.000000	58.431067
1283.000000	58.360723
1282.000000	58.298106
1281.000000	58.243118
1280.000000	58.178717
1279.000000	58.119568
1278.000000	58.040108
1277.000000	57.969664
1276.000000	57.900805
1275.000000	57.848096
1274.000000	57.775076
1273.000000	57.753676
1272.000000	57.684817
1271.000000	57.627748
1270.000000	57.590594
1269.000000	57.547099
1268.000000	57.486464
1267.000000	57.431575
1266.000000	57.378767
1265.000000	57.340820
1264.000000	57.287616
1263.000000	57.229755
1262.000000	57.173776
1261.000000	57.107790
1260.000000	57.046065
1259.000000	56.994941
1258.000000	56.936882
1257.000000	56.881894
1256.000000	56.812936
1255.000000	56.751508
1254.000000	56.668184
1253.000000	56.594371
1252.000000	56.518181
1251.000000	56.444467
1250.000000	56.361837
1249.000000	56.265534
1248.000000	56.170320
1247.000000	56.085114
1246.000000	55.965032
1245.000000	55.839303
1244.000000	55.712088
1243.000000	55.593789
1242.000000	55.452406
1241.000000	55.292990
1240.000000	55.139024
1239.000000	54.970494
1238.000000	54.818509
1237.000000	54.662066
1236.000000	54.496012
1235.000000	54.323122
1234.000000	54.159843
1233.000000	53.965453
1232.000000	53.789293
1231.000000	53.626608
1230.000000	53.448467
1229.000000	53.264382
1228.000000	53.080989
1227.000000	52.915332
1226.000000	52.737191
1225.000000	52.558951
1224.000000	52.372785
1223.000000	52.207325
1222.000000	52.048901
1221.000000	51.881361
1220.000000	51.717685
1219.000000	51.564710
1218.000000	51.436305
1217.000000	51.320187
1216.000000	51.206941
1215.000000	51.088346
1214.000000	50.973911
1213.000000	50.865620
1212.000000	50.771992
1211.000000	50.669447
1210.000000	50.570171
1209.000000	50.494080
1208.000000	50.425915
1207.000000	50.361118
1206.000000	50.317623
1205.000000	50.288990
1204.000000	50.267490
1203.000000	50.249260
1202.000000	50.231029
1201.000000	50.205864
1200.000000	50.166035
1199.000000	50.097770
1198.000000	50.006025
1197.000000	49.885943
1196.000000	49.711468
1195.000000	49.480518
1194.000000	49.184475
1193.000000	48.841073
1192.000000	48.428515
1191.000000	47.971967
1190.000000	47.536819
1189.000000	47.170827
1188.000000	46.870425
1187.000000	46.695454
1186.000000	46.636899
1185.000000	46.692680
1184.000000	46.865273
1183.000000	47.151408
1182.000000	47.551482
1181.000000	48.027153
1180.000000	48.496779
1179.000000	48.920731
1178.000000	49.298910
1177.000000	49.624081
1176.000000	49.916558
1175.000000	50.188624
1174.000000	50.438299
1173.000000	50.710167
1172.000000	51.004427
1171.000000	51.308496
1170.000000	51.612465
1169.000000	51.915344
1168.000000	52.245569
1167.000000	52.550926
1166.000000	52.861236
1165.000000	53.203449
1164.000000	53.545563
1163.000000	53.876482
1162.000000	54.195213
1161.000000	54.507109
1160.000000	54.827624
1159.000000	55.148040
1158.000000	55.448046
1157.000000	55.686724
1156.000000	55.903406
1155.000000	56.073423
1154.000000	56.186371
1153.000000	56.256914
1152.000000	56.243241
1151.000000	56.206087
1150.000000	56.185975
1149.000000	56.146641
1148.000000	56.090266
1147.000000	56.108298
1146.000000	56.180228
1145.000000	56.315469
1144.000000	56.548895
1143.000000	56.789851
1142.000000	57.074302
1141.000000	57.365689
1140.000000	57.645780
1139.000000	57.967286
1138.000000	58.256691
1137.000000	58.582160
1136.000000	58.992043
1135.000000	59.346146
1134.000000	59.550939
1133.000000	59.743644
1132.000000	59.979052
1131.000000	60.211785
1130.000000	60.462946
1129.000000	60.597889
1128.000000	60.684186
1127.000000	60.768500
1126.000000	60.848357
1125.000000	60.875306
1124.000000	60.938121
1123.000000	60.981715
1122.000000	61.015897
1121.000000	60.999549
1120.000000	61.014410
1119.000000	61.027885
1118.000000	61.032145
1117.000000	61.007673
1116.000000	60.991226
1115.000000	60.971906
1114.000000	60.907110
1113.000000	60.875504
1112.000000	60.831216
1111.000000	60.818138
1110.000000	60.796737
1109.000000	60.782371
1108.000000	60.750171
1107.000000	60.696867
1106.000000	60.692211
1105.000000	60.631972
1104.000000	60.573615
1103.000000	60.551323
1102.000000	60.533588
1101.000000	60.462550
1100.000000	60.457596
1099.000000	60.401914
1098.000000	60.346332
1097.000000	60.286390
1096.000000	60.259243
1095.000000	60.225556
1094.000000	60.155311
1093.000000	60.113302
1092.000000	60.051478
1091.000000	59.960029
1090.000000	59.916039
1089.000000	59.847081
1088.000000	59.805568
1087.000000	59.743248
1086.000000	59.697573
1085.000000	59.628814
1084.000000	59.555496
1083.000000	59.454636
1082.000000	59.408862
1081.000000	59.321277
1080.000000	59.305524
1079.000000	59.246771
1078.000000	59.137489
1077.000000	59.110441
1076.000000	59.065856
1075.000000	58.968364
1074.000000	58.954592
1073.000000	58.907134
1072.000000	58.890687
1071.000000	58.791808
1070.000000	58.724039
1069.000000	58.716906
1068.000000	58.635068
1067.000000	58.600192
1066.000000	58.521624
1065.000000	58.462673
1064.000000	58.384897
1063.000000	58.325451
1062.000000	58.261150
1061.000000	58.186842
1060.000000	58.143149
1059.000000	58.103815
1058.000000	58.058041
1057.000000	57.948462
1056.000000	57.848096
1055.000000	57.797468
1054.000000	57.729501
1053.000000	57.675999
1052.000000	57.611103
1051.000000	57.524014
1050.000000	57.443266
1049.000000	57.400366
1048.000000	57.345972
1047.000000	57.254425
1046.000000	57.209345
1045.000000	57.171497
1044.000000	57.141477
1043.000000	57.054487
1042.000000	57.008515
1041.000000	56.942628
1040.000000	56.899629
1039.000000	56.830968
1038.000000	56.777764
1037.000000	56.693251
1036.000000	56.675615
1035.000000	56.590904
1034.000000	56.569305
1033.000000	56.473299
1032.000000	56.448331
1031.000000	56.408998
1030.000000	56.364314
1029.000000	56.309029
1028.000000	56.247006
1027.000000	56.212527
1026.000000	56.107010
1025.000000	56.089374
1024.000000	56.034683
1023.000000	55.978705
1022.000000	55.932337
1021.000000	55.852877
1020.000000	55.843365
1019.000000	55.798483
1018.000000	55.798582
1017.000000	55.730813
1016.000000	55.668295
1015.000000	55.616280
1014.000000	55.659775
1013.000000	55.634510
1012.000000	55.569614
1011.000000	55.528795
1010.000000	55.567435
1009.000000	55.549601
1008.000000	55.591114
1007.000000	55.618063
1006.000000	55.617865
1005.000000	55.612317
1004.000000	55.619153
1003.000000	55.628070
1002.000000	55.602013
1001.000000	55.592699
1000.000000	55.639365
999.000000	55.690885
998.000000	55.745279
997.000000	55.739730
996.000000	55.808292
995.000000	55.856641
994.000000	55.855155
993.000000	55.864667
992.000000	55.914701
991.000000	55.967905
990.000000	56.046969
989.000000	56.089473
988.000000	56.193108
987.000000	56.272469
986.000000	56.322602
985.000000	56.364809
984.000000	56.479145
983.000000	56.610125
982.000000	56.624392
981.000000	56.697511
980.000000	56.777665
979.000000	56.771522
978.000000	56.847811
977.000000	56.956995
976.000000	56.995536
975.000000	57.052703
974.000000	57.079256
973.000000	57.142566
972.000000	57.143557
971.000000	57.157032
970.000000	57.160599
969.000000	57.205580
968.000000	57.206075
967.000000	57.185071
966.000000	57.172488
965.000000	57.117401
964.000000	57.193789
963.000000	57.294353
962.000000	57.337551
961.000000	57.332498
960.000000	57.391746
959.000000	57.510044
958.000000	57.500038
957.000000	57.477547
956.000000	57.588315
955.000000	57.698390
954.000000	57.766952
953.000000	57.776166
952.000000	57.783399
951.000000	57.969070
950.000000	58.044468
949.000000	58.118181
948.000000	58.180303
947.000000	58.229544
946.000000	58.300087
945.000000	58.352301
944.000000	58.525092
943.000000	58.648047
942.000000	58.698180
941.000000	58.807859
940.000000	58.940127
939.000000	59.104397
938.000000	59.258859
937.000000	59.278476
936.000000	59.246870
935.000000	59.368934
934.000000	59.492186
933.000000	59.558766
932.000000	59.697672
931.000000	59.828157
930.000000	59.802595
929.000000	59.843811
928.000000	59.909698
927.000000	59.930207
926.000000	59.978061
925.000000	59.965181
924.000000	60.035625
923.000000	60.094279
922.000000	60.144511
921.000000	60.113995
920.000000	60.118751
919.000000	60.260531
918.000000	60.317104
917.000000	60.322950
916.000000	60.472259
915.000000	60.532399
914.000000	60.427278
913.000000	60.590260
912.000000	60.786830
911.000000	60.697561
910.000000	60.730653
909.000000	60.929204
908.000000	61.098329
907.000000	61.214348
906.000000	61.406261
905.000000	61.769974
904.000000	61.854784
903.000000	62.088904
902.000000	62.280124
901.000000	62.313612
900.000000	62.396341
899.000000	62.498589
898.000000	62.498490
897.000000	62.760649
896.000000	63.143583
895.000000	63.118516
894.000000	63.363336
893.000000	63.562185
892.000000	63.610732
891.000000	63.760537
890.000000	63.765788
889.000000	64.055193
888.000000	64.202323
887.000000	64.325576
886.000000	64.609729
885.000000	64.672643
884.000000	64.738332
883.000000	64.753887
882.000000	64.940450
881.000000	65.478935
880.000000	65.414733
879.000000	65.613680
878.000000	65.458525
877.000000	65.282366
876.000000	65.549577
875.000000	65.866327
874.000000	65.710082
873.000000	65.334976
872.000000	65.911408
871.000000	66.187536
870.000000	66.745639
869.000000	66.526579
868.000000	65.954804
867.000000	67.080520
866.000000	67.058030
865.000000	66.871864
864.000000	66.958259
863.000000	67.088546
862.000000	67.259355
861.000000	67.920696
860.000000	67.034945
859.000000	68.169876
858.000000	65.568600
857.000000	65.486600
856.000000	65.455000
855.000000	65.764200
854.000000	65.632700
853.000000	66.182600
852.000000	66.220600
851.000000	66.578600
850.000000	66.653600
849.000000	67.229000
848.000000	67.475000
847.000000	67.669200
846.000000	68.034400
845.000000	68.247900
844.000000	68.394000
843.000000	68.603900
842.000000	68.778800
841.000000	69.110400
840.000000	69.317600
839.000000	69.440800
838.000000	69.712300
837.000000	70.138400
836.000000	70.236600
835.000000	70.544900
834.000000	70.612300
833.000000	70.627600
832.000000	70.971700
831.000000	71.086500
830.000000	71.302500
829.000000	71.622600
828.000000	71.758000
827.000000	71.772400
826.000000	71.971300
825.000000	72.204700
824.000000	72.281500
823.000000	72.478100
822.000000	72.695200
821.000000	72.882300
820.000000	73.074300
819.000000	73.260000
818.000000	73.437500
817.000000	73.543100
816.000000	73.752800
815.000000	74.060500
814.000000	74.263900
813.000000	74.282600
812.000000	74.561000
811.000000	74.623500
810.000000	74.579200
809.000000	74.743200
808.000000	74.652000
807.000000	74.558100
806.000000	74.461300
805.000000	74.429000
804.000000	74.142800
803.000000	74.324900
802.000000	74.089900
801.000000	74.134000
800.000000	74.068700
799.000000	73.719700
798.000000	73.476500
797.000000	73.540700
796.000000	73.455000
795.000000	73.431200
794.000000	73.137000
793.000000	73.182300
792.000000	73.123500
791.000000	73.123000
790.000000	73.130200
789.000000	72.944800
788.000000	73.062600
787.000000	72.868500
786.000000	72.995800
785.000000	73.095400
784.000000	73.158800
783.000000	73.190600
782.000000	73.236100
781.000000	73.366800
780.000000	73.565900
779.000000	73.456000
778.000000	73.631900
777.000000	73.712800
776.000000	73.607600
775.000000	73.860900
774.000000	73.839200
773.000000	73.798500
772.000000	73.900100
771.000000	73.748800
770.000000	73.671100
769.000000	73.577000
768.000000	73.523300
767.000000	73.342900
766.000000	73.208000
765.000000	73.092300
764.000000	73.007000
763.000000	72.935100
762.000000	72.815000
761.000000	72.722500
760.000000	72.644800
759.000000	72.533600
758.000000	72.404400
757.000000	72.286700
756.000000	72.139300
755.000000	72.027200
754.000000	71.926200
753.000000	71.793000
752.000000	71.750900
751.000000	71.581300
750.000000	71.473000
749.000000	71.395100
748.000000	71.251600
747.000000	71.099100
746.000000	70.946500
745.000000	70.820200
744.000000	70.676500
743.000000	70.389300
742.000000	70.192400
741.000000	70.021700
740.000000	69.722700
739.000000	69.468200
738.000000	69.220300
737.000000	68.882200
736.000000	68.598500
735.000000	68.258100
734.000000	67.843900
733.000000	67.512100
732.000000	67.027900
731.000000	66.594100
730.000000	66.256600
729.000000	65.830200
728.000000	65.356200
727.000000	64.982300
726.000000	64.575700
725.000000	64.123700
724.000000	63.764800
723.000000	63.361900
722.000000	62.999600
721.000000	62.619100
720.000000	62.335100
719.000000	61.948800
718.000000	61.614600
717.000000	61.291600
716.000000	60.976800
715.000000	60.664500
714.000000	60.406800
713.000000	60.193700
712.000000	59.994200
711.000000	59.831500
710.000000	59.731400
709.000000	59.634800
708.000000	59.642000
707.000000	59.664700
706.000000	59.710400
705.000000	59.703200
704.000000	59.790900
703.000000	59.901300
702.000000	60.040900
701.000000	60.154100
700.000000	60.315400
699.000000	60.547600
698.000000	60.733000
697.000000	60.855300
696.000000	61.009100
695.000000	61.215200
694.000000	61.457600
693.000000	61.642500
692.000000	61.775000
691.000000	61.944100
690.000000	62.107800
689.000000	62.240600
688.000000	62.443200
687.000000	62.632200
686.000000	62.748400
685.000000	62.818900
684.000000	62.819800
683.000000	62.816500
682.000000	62.830900
681.000000	62.783600
680.000000	62.704800
679.000000	62.575500
678.000000	62.389000
677.000000	62.221400
676.000000	62.069700
675.000000	61.916700
674.000000	61.701300
673.000000	61.425400
672.000000	61.148700
671.000000	60.869200
670.000000	60.625200
669.000000	60.369900
668.000000	60.111900
667.000000	59.795500
666.000000	59.462100
665.000000	59.120500
664.000000	58.711800
663.000000	58.277100
662.000000	57.895000
661.000000	57.441600
660.000000	56.969800
659.000000	56.452100
658.000000	55.944200
657.000000	55.436700
656.000000	54.860400
655.000000	54.298600
654.000000	53.766800
653.000000	53.175600
652.000000	52.563600
651.000000	51.974900
650.000000	51.423100
649.000000	50.868100
648.000000	50.318500
647.000000	49.819600
646.000000	49.360400
645.000000	48.899600
644.000000	48.470400
643.000000	48.092800
642.000000	47.754100
641.000000	47.510000
640.000000	47.373100
639.000000	47.285800
638.000000	47.227500
637.000000	47.255400
636.000000	47.421000
635.000000	47.647800
634.000000	47.933100
633.000000	48.325900
632.000000	48.823100
631.000000	49.387200
630.000000	50.016700
629.000000	50.724200
628.000000	51.479000
627.000000	52.219800
626.000000	52.961900
625.000000	53.731000
624.000000	54.498700
623.000000	55.247700
622.000000	55.974600
621.000000	56.671400
620.000000	57.350400
619.000000	57.975800
618.000000	58.602000
617.000000	59.236400
616.000000	59.846400
615.000000	60.434700
614.000000	61.015100
613.000000	61.595700
612.000000	62.179500
611.000000	62.753000
610.000000	63.316800
609.000000	63.866500
608.000000	64.381700
607.000000	64.887000
606.000000	65.352000
605.000000	65.806000
604.000000	66.202700
603.000000	66.617400
602.000000	66.985800
601.000000	67.310200
600.000000	67.640900
599.000000	67.950900
598.000000	68.254300
597.000000	68.568300
596.000000	68.898500
595.000000	69.168700
594.000000	69.440600
593.000000	69.723100
592.000000	70.013700
591.000000	70.330800
590.000000	70.608800
589.000000	70.865400
588.000000	71.116400
587.000000	71.363700
586.000000	71.581100
585.000000	71.742500
584.000000	71.940100
583.000000	72.145400
582.000000	72.302300
581.000000	72.478100
580.000000	72.579000
579.000000	72.686200
578.000000	72.830400
577.000000	72.938900
576.000000	73.039200
575.000000	73.159400
574.000000	73.262700
573.000000	73.370900
572.000000	73.447300
571.000000	73.524100
570.000000	73.611400
569.000000	73.655700
568.000000	73.681400
567.000000	73.598900
566.000000	73.555400
565.000000	73.544700
564.000000	73.462900
563.000000	73.347100
562.000000	73.252900
561.000000	73.139100
560.000000	73.053000
559.000000	73.086400
558.000000	72.917700
557.000000	72.670200
556.000000	72.496200
555.000000	72.328200
554.000000	72.127100
553.000000	71.961600
552.000000	71.760400
551.000000	71.489800
550.000000	71.252200
549.000000	70.989300
548.000000	70.664300
547.000000	70.354300
546.000000	70.009600
545.000000	69.631400
544.000000	69.197800
543.000000	68.768300
542.000000	68.271700
541.000000	67.752200
540.000000	67.202900
539.000000	66.639600
538.000000	66.050400
537.000000	65.425000
536.000000	64.779600
535.000000	64.080000
534.000000	63.376100
533.000000	62.627300
532.000000	61.837800
531.000000	61.001700
530.000000	60.130400
529.000000	59.232800
528.000000	58.274900
527.000000	57.255000
526.000000	56.251500
525.000000	55.115500
524.000000	53.958300
523.000000	52.851700
522.000000	51.706200
521.000000	50.555500
520.000000	49.384400
519.000000	48.297200
518.000000	47.147700
517.000000	46.035900
516.000000	44.973700
515.000000	43.952500
514.000000	42.957200
513.000000	42.003300
512.000000	41.066900
511.000000	40.169500
510.000000	39.295300
509.000000	38.508400
508.000000	37.638500
507.000000	36.900000
506.000000	36.187800
505.000000	35.484900
504.000000	34.844400
503.000000	34.203900
502.000000	33.535900
501.000000	32.900500
500.000000	32.343400
499.000000	31.773500
498.000000	31.216400
497.000000	30.722600
496.000000	30.209900
495.000000	29.725300
494.000000	29.290100
493.000000	28.844300
492.000000	28.408000
491.000000	28.029600
490.000000	27.648400
489.000000	27.326100
488.000000	27.011700
487.000000	26.727900
486.000000	26.486400
485.000000	26.267500
484.000000	26.073100
483.000000	25.926900
482.000000	25.796500
481.000000	25.707200
480.000000	25.657800
479.000000	25.574700
478.000000	25.525700
477.000000	25.393300
476.000000	25.345200
475.000000	25.262800
474.000000	25.183400
473.000000	25.025500
472.000000	24.883300
471.000000	24.740900
470.000000	24.534200
469.000000	24.320300
468.000000	24.085600
467.000000	23.807800
466.000000	23.520900
465.000000	23.229700
464.000000	22.885700
463.000000	22.504300
462.000000	22.138900
461.000000	21.780200
460.000000	21.361900
459.000000	20.983300
458.000000	20.619800
457.000000	20.249600
456.000000	19.864800
455.000000	19.550400
454.000000	19.227900
453.000000	18.927200
452.000000	18.641800
451.000000	18.417200
450.000000	18.249400
449.000000	18.105600
448.000000	18.019900
447.000000	17.937300
446.000000	17.926700
445.000000	17.928700
444.000000	17.969300
443.000000	18.056300
442.000000	18.119900
441.000000	18.213900
440.000000	18.300200
439.000000	18.443600
438.000000	18.548000
437.000000	18.665100
436.000000	18.803400
435.000000	18.902200
434.000000	18.966900
433.000000	19.028600
432.000000	19.082900
431.000000	19.153900
430.000000	19.207200
429.000000	19.230500
428.000000	19.212800
427.000000	19.173800
426.000000	19.060900
425.000000	19.033100
424.000000	18.967100
423.000000	18.880800
422.000000	18.803000
421.000000	18.726600
420.000000	18.614400
419.000000	18.480900
418.000000	18.347400
417.000000	18.239300
416.000000	18.074200
415.000000	17.896600
414.000000	17.736100
413.000000	17.546200
412.000000	17.342000
411.000000	17.140700
410.000000	16.904900
409.000000	16.711200
408.000000	16.471100
407.000000	16.232100
406.000000	15.954000
405.000000	15.692100
404.000000	15.414800
403.000000	15.126900
402.000000	14.820500
401.000000	14.527900
400.000000	14.211300
399.000000	13.892100
398.000000	13.580500
397.000000	13.250100
396.000000	12.924100
395.000000	12.587400
394.000000	12.237000
393.000000	11.892500
392.000000	11.551500
391.000000	11.229100
390.000000	10.902200
389.000000	10.573900
388.000000	10.264400
387.000000	9.946600
386.000000	9.678200
385.000000	9.384300
384.000000	9.094600
383.000000	8.833400
382.000000	8.588400
381.000000	8.360600
380.000000	8.136200
379.000000	7.918900
378.000000	7.729500
377.000000	7.545400
376.000000	7.390800
375.000000	7.261500
374.000000	7.135900
373.000000	7.043900
372.000000	6.910800
371.000000	6.773000
370.000000	6.702700
369.000000	6.603500
368.000000	6.488900
367.000000	6.412300
366.000000	6.311300
365.000000	6.225000
364.000000	6.156900
363.000000	6.140400
362.000000	6.050900
361.000000	6.003500
360.000000	5.991200
359.000000	5.958700
358.000000	5.897300
357.000000	5.815400
356.000000	5.764100
355.000000	5.704200
354.000000	5.670200
353.000000	5.620600
352.000000	5.630600
351.000000	5.598700
350.000000	5.573300
349.000000	5.540100
348.000000	5.500500
347.000000	5.463500
346.000000	5.453900
345.000000	5.422900
344.000000	5.408900
343.000000	5.403200
342.000000	5.413200
341.000000	5.436900
340.000000	5.416400
339.000000	5.404100
338.000000	5.420700
337.000000	5.410400
336.000000	5.437500
335.000000	5.419300
334.000000	5.371800
333.000000	5.390000
332.000000	5.374600
331.000000	5.338100
330.000000	5.277800
329.000000	5.257300
328.000000	5.301300
327.000000	5.327300
326.000000	5.354200
325.000000	5.221200
324.000000	5.183900
323.000000	5.291600
322.000000	5.317900
321.000000	5.244200
320.000000	5.244600
319.000000	5.353200
318.000000	5.382400
317.000000	5.337500
316.000000	5.227000
315.000000	5.141500
314.000000	5.133400
313.000000	5.166800
312.000000	5.158700
311.000000	5.138700
310.000000	5.147200
309.000000	5.139700
308.000000	5.146900
307.000000	5.130100
306.000000	5.115600
305.000000	5.103700
304.000000	5.108700
303.000000	5.115900
302.000000	5.131200
301.000000	5.127700
300.000000	5.105200
299.000000	5.073700
298.000000	5.101000
297.000000	5.128800
296.000000	5.083500
295.000000	5.065100
294.000000	5.088300
293.000000	5.056700
292.000000	5.017000
291.000000	5.015300
290.000000	5.012800
289.000000	5.023500
288.000000	5.017100
287.000000	5.048300
286.000000	5.035300
285.000000	5.054200
284.000000	5.029600
283.000000	5.049000
282.000000	5.060100
281.000000	5.063700
280.000000	5.077600
279.000000	5.081100
278.000000	5.087500
277.000000	5.094900
276.000000	5.080200
275.000000	5.101000
274.000000	5.109300
273.000000	5.139200
272.000000	5.146300
271.000000	5.169900
270.000000	5.149900
269.000000	5.141900
268.000000	5.188900
267.000000	5.198900
266.000000	5.220400
265.000000	5.260900
264.000000	5.272100
263.000000	5.261100
262.000000	5.305200
261.000000	5.334400
260.000000	5.334800
259.000000	5.369000
258.000000	5.362100
257.000000	5.376300
256.000000	5.381100
255.000000	5.381000
254.000000	5.412500
253.000000	5.439800
252.000000	5.422200
251.000000	5.445000
250.000000	5.430600
