PE UV       SUBTECH     SPECTRUM    ASCII       PEDS        4.00        
   -1
CICIMAUCR0018-6.Sample.ASC
24/04/25
15:28:28.00
24/04/25
15:28:28.00
Vinicio Soto Monge
C. cupreomarginata
250,000000
1
Lambda 1050
1050L1511233
PerkinElmer UV WinLab 6.3.2.0749 / 2.02.05 Lambda 900 UV/VIS/NIR, Aug  7 2015 09:38:08

0
0
3350/servo 860,8/2
0
0
UV/VIS
1
1
1
DoubleDePol,CommonBeamDepol,RBeamAtt,SBeamAtt,60mm sphere, WB InGaAs Detector
0
0
0
0
Program
Program
3350/servo 860,8/2
3350/0,2 860,8/0,2
3350/0,2 860,8/0,2
0
15.00
 
 
 
0
 
860,8
319,2
860,8
Front
100
on
S:100 R:100
0
0
0
0
 
0
 
 
 
0
 
 
0
0
0
0
0
 
 
 
 
0
0


0
0
#HDR
-1
-1
#GR
nm
%R
1.0
0.0
2500,000000
-1,000000
2251
8
70,559000
5,550100
#DATA
2500.000000	6.461800
2499.000000	6.567400
2498.000000	6.552800
2497.000000	6.485700
2496.000000	6.350300
2495.000000	6.435500
2494.000000	6.368200
2493.000000	6.358100
2492.000000	6.382000
2491.000000	6.260800
2490.000000	6.337300
2489.000000	6.363500
2488.000000	6.286200
2487.000000	6.292900
2486.000000	6.284300
2485.000000	6.240100
2484.000000	6.310900
2483.000000	6.253800
2482.000000	6.293200
2481.000000	6.271900
2480.000000	6.275800
2479.000000	6.293800
2478.000000	6.267300
2477.000000	6.244100
2476.000000	6.244700
2475.000000	6.248500
2474.000000	6.246400
2473.000000	6.240400
2472.000000	6.276200
2471.000000	6.210900
2470.000000	6.252400
2469.000000	6.193100
2468.000000	6.189100
2467.000000	6.239100
2466.000000	6.270800
2465.000000	6.258500
2464.000000	6.252700
2463.000000	6.285500
2462.000000	6.315200
2461.000000	6.304800
2460.000000	6.336000
2459.000000	6.338200
2458.000000	6.420600
2457.000000	6.411000
2456.000000	6.442600
2455.000000	6.490500
2454.000000	6.518500
2453.000000	6.516200
2452.000000	6.566800
2451.000000	6.616400
2450.000000	6.645500
2449.000000	6.691700
2448.000000	6.708800
2447.000000	6.761300
2446.000000	6.805500
2445.000000	6.822400
2444.000000	6.868600
2443.000000	6.920700
2442.000000	6.968900
2441.000000	7.011100
2440.000000	7.039800
2439.000000	7.067900
2438.000000	7.102200
2437.000000	7.118500
2436.000000	7.170700
2435.000000	7.213600
2434.000000	7.251000
2433.000000	7.288300
2432.000000	7.306700
2431.000000	7.315600
2430.000000	7.365700
2429.000000	7.385600
2428.000000	7.401300
2427.000000	7.408700
2426.000000	7.433100
2425.000000	7.465700
2424.000000	7.492200
2423.000000	7.504900
2422.000000	7.509900
2421.000000	7.529200
2420.000000	7.539000
2419.000000	7.562800
2418.000000	7.580900
2417.000000	7.580000
2416.000000	7.599700
2415.000000	7.618900
2414.000000	7.637300
2413.000000	7.636000
2412.000000	7.640800
2411.000000	7.685700
2410.000000	7.734000
2409.000000	7.806000
2408.000000	7.881000
2407.000000	7.926400
2406.000000	7.961600
2405.000000	7.967900
2404.000000	7.982200
2403.000000	7.998000
2402.000000	8.007400
2401.000000	8.041300
2400.000000	8.105500
2399.000000	8.121600
2398.000000	8.130600
2397.000000	8.163400
2396.000000	8.203300
2395.000000	8.210900
2394.000000	8.244100
2393.000000	8.263800
2392.000000	8.283700
2391.000000	8.306200
2390.000000	8.323300
2389.000000	8.342900
2388.000000	8.343700
2387.000000	8.367500
2386.000000	8.378700
2385.000000	8.374700
2384.000000	8.378300
2383.000000	8.367900
2382.000000	8.373700
2381.000000	8.380300
2380.000000	8.366600
2379.000000	8.378400
2378.000000	8.390700
2377.000000	8.378000
2376.000000	8.369200
2375.000000	8.360800
2374.000000	8.340900
2373.000000	8.335600
2372.000000	8.336500
2371.000000	8.312300
2370.000000	8.285900
2369.000000	8.262600
2368.000000	8.243400
2367.000000	8.219100
2366.000000	8.202400
2365.000000	8.181500
2364.000000	8.141900
2363.000000	8.109500
2362.000000	8.074200
2361.000000	8.031300
2360.000000	8.001100
2359.000000	7.975200
2358.000000	7.960200
2357.000000	7.935200
2356.000000	7.897000
2355.000000	7.893500
2354.000000	7.889300
2353.000000	7.879100
2352.000000	7.879600
2351.000000	7.892700
2350.000000	7.896100
2349.000000	7.914100
2348.000000	7.944600
2347.000000	7.967500
2346.000000	8.003100
2345.000000	8.055200
2344.000000	8.085000
2343.000000	8.096200
2342.000000	8.122500
2341.000000	8.165500
2340.000000	8.187600
2339.000000	8.201500
2338.000000	8.214800
2337.000000	8.218000
2336.000000	8.218500
2335.000000	8.227500
2334.000000	8.218700
2333.000000	8.210300
2332.000000	8.202100
2331.000000	8.178900
2330.000000	8.131700
2329.000000	8.128300
2328.000000	8.107200
2327.000000	8.069400
2326.000000	8.034600
2325.000000	7.981800
2324.000000	7.944600
2323.000000	7.936800
2322.000000	7.883100
2321.000000	7.824900
2320.000000	7.766500
2319.000000	7.716200
2318.000000	7.658500
2317.000000	7.613700
2316.000000	7.556800
2315.000000	7.514900
2314.000000	7.455800
2313.000000	7.406500
2312.000000	7.362000
2311.000000	7.322400
2310.000000	7.285700
2309.000000	7.283000
2308.000000	7.257600
2307.000000	7.257500
2306.000000	7.243500
2305.000000	7.237000
2304.000000	7.290700
2303.000000	7.308200
2302.000000	7.356500
2301.000000	7.414400
2300.000000	7.446500
2299.000000	7.490100
2298.000000	7.552600
2297.000000	7.605900
2296.000000	7.685500
2295.000000	7.715000
2294.000000	7.764800
2293.000000	7.809800
2292.000000	7.831500
2291.000000	7.853500
2290.000000	7.887900
2289.000000	7.895700
2288.000000	7.912200
2287.000000	7.907200
2286.000000	7.920000
2285.000000	7.903600
2284.000000	7.882600
2283.000000	7.873100
2282.000000	7.852300
2281.000000	7.837700
2280.000000	7.800500
2279.000000	7.782500
2278.000000	7.775100
2277.000000	7.744200
2276.000000	7.717900
2275.000000	7.714500
2274.000000	7.721900
2273.000000	7.706800
2272.000000	7.730300
2271.000000	7.714800
2270.000000	7.734600
2269.000000	7.760200
2268.000000	7.805300
2267.000000	7.851000
2266.000000	7.916000
2265.000000	7.985600
2264.000000	8.065500
2263.000000	8.163900
2262.000000	8.290600
2261.000000	8.425200
2260.000000	8.554200
2259.000000	8.671100
2258.000000	8.817900
2257.000000	8.978500
2256.000000	9.120000
2255.000000	9.258200
2254.000000	9.432100
2253.000000	9.588000
2252.000000	9.712300
2251.000000	9.856600
2250.000000	9.995000
2249.000000	10.135600
2248.000000	10.233400
2247.000000	10.345000
2246.000000	10.481200
2245.000000	10.566700
2244.000000	10.671400
2243.000000	10.757800
2242.000000	10.830100
2241.000000	10.906300
2240.000000	10.984700
2239.000000	11.071200
2238.000000	11.135100
2237.000000	11.164000
2236.000000	11.235200
2235.000000	11.315000
2234.000000	11.357200
2233.000000	11.403900
2232.000000	11.439400
2231.000000	11.448600
2230.000000	11.498700
2229.000000	11.513700
2228.000000	11.550300
2227.000000	11.575300
2226.000000	11.567700
2225.000000	11.578100
2224.000000	11.563900
2223.000000	11.581800
2222.000000	11.575500
2221.000000	11.578500
2220.000000	11.552700
2219.000000	11.521400
2218.000000	11.517700
2217.000000	11.530300
2216.000000	11.511400
2215.000000	11.500400
2214.000000	11.481700
2213.000000	11.465500
2212.000000	11.475100
2211.000000	11.460000
2210.000000	11.419700
2209.000000	11.414600
2208.000000	11.418600
2207.000000	11.401800
2206.000000	11.394700
2205.000000	11.377200
2204.000000	11.373800
2203.000000	11.356200
2202.000000	11.361700
2201.000000	11.366000
2200.000000	11.359100
2199.000000	11.347300
2198.000000	11.321300
2197.000000	11.342900
2196.000000	11.302800
2195.000000	11.317400
2194.000000	11.304900
2193.000000	11.304300
2192.000000	11.300100
2191.000000	11.286600
2190.000000	11.285600
2189.000000	11.278200
2188.000000	11.282800
2187.000000	11.283600
2186.000000	11.250000
2185.000000	11.247600
2184.000000	11.241400
2183.000000	11.212000
2182.000000	11.230600
2181.000000	11.225200
2180.000000	11.208600
2179.000000	11.202900
2178.000000	11.189400
2177.000000	11.186200
2176.000000	11.187900
2175.000000	11.195400
2174.000000	11.194400
2173.000000	11.208100
2172.000000	11.193200
2171.000000	11.180700
2170.000000	11.213200
2169.000000	11.225800
2168.000000	11.226700
2167.000000	11.229500
2166.000000	11.247200
2165.000000	11.253800
2164.000000	11.265200
2163.000000	11.288800
2162.000000	11.290400
2161.000000	11.313300
2160.000000	11.301900
2159.000000	11.326500
2158.000000	11.342000
2157.000000	11.349400
2156.000000	11.388000
2155.000000	11.421600
2154.000000	11.412500
2153.000000	11.442200
2152.000000	11.457900
2151.000000	11.477800
2150.000000	11.515200
2149.000000	11.537900
2148.000000	11.557200
2147.000000	11.572500
2146.000000	11.575500
2145.000000	11.597900
2144.000000	11.623400
2143.000000	11.640200
2142.000000	11.642800
2141.000000	11.643100
2140.000000	11.659700
2139.000000	11.666500
2138.000000	11.701500
2137.000000	11.711900
2136.000000	11.715200
2135.000000	11.704600
2134.000000	11.712100
2133.000000	11.729000
2132.000000	11.716000
2131.000000	11.708400
2130.000000	11.708700
2129.000000	11.704100
2128.000000	11.697300
2127.000000	11.689000
2126.000000	11.683100
2125.000000	11.662300
2124.000000	11.645400
2123.000000	11.638200
2122.000000	11.611800
2121.000000	11.590500
2120.000000	11.581600
2119.000000	11.568500
2118.000000	11.546400
2117.000000	11.508200
2116.000000	11.479600
2115.000000	11.459000
2114.000000	11.445400
2113.000000	11.431500
2112.000000	11.420800
2111.000000	11.384300
2110.000000	11.352000
2109.000000	11.324300
2108.000000	11.295100
2107.000000	11.272500
2106.000000	11.244000
2105.000000	11.217300
2104.000000	11.200400
2103.000000	11.187700
2102.000000	11.164200
2101.000000	11.131200
2100.000000	11.106300
2099.000000	11.093100
2098.000000	11.060300
2097.000000	11.030100
2096.000000	11.019300
2095.000000	11.006900
2094.000000	10.983900
2093.000000	10.973200
2092.000000	10.955500
2091.000000	10.935300
2090.000000	10.934800
2089.000000	10.913300
2088.000000	10.900500
2087.000000	10.888900
2086.000000	10.868600
2085.000000	10.856200
2084.000000	10.843700
2083.000000	10.826100
2082.000000	10.808900
2081.000000	10.793000
2080.000000	10.781400
2079.000000	10.767000
2078.000000	10.746400
2077.000000	10.716900
2076.000000	10.705900
2075.000000	10.706400
2074.000000	10.679500
2073.000000	10.663200
2072.000000	10.671500
2071.000000	10.650600
2070.000000	10.625300
2069.000000	10.621000
2068.000000	10.619400
2067.000000	10.596900
2066.000000	10.585700
2065.000000	10.576000
2064.000000	10.571100
2063.000000	10.567600
2062.000000	10.556000
2061.000000	10.540500
2060.000000	10.530300
2059.000000	10.546900
2058.000000	10.567400
2057.000000	10.568300
2056.000000	10.588200
2055.000000	10.614400
2054.000000	10.655800
2053.000000	10.685400
2052.000000	10.724700
2051.000000	10.772900
2050.000000	10.827900
2049.000000	10.892200
2048.000000	10.941300
2047.000000	10.991400
2046.000000	11.067800
2045.000000	11.155700
2044.000000	11.231700
2043.000000	11.336000
2042.000000	11.425700
2041.000000	11.506800
2040.000000	11.580800
2039.000000	11.652900
2038.000000	11.745000
2037.000000	11.845200
2036.000000	11.911200
2035.000000	11.982300
2034.000000	12.058000
2033.000000	12.122500
2032.000000	12.198500
2031.000000	12.253400
2030.000000	12.322200
2029.000000	12.367400
2028.000000	12.413200
2027.000000	12.475700
2026.000000	12.517600
2025.000000	12.567000
2024.000000	12.608100
2023.000000	12.647500
2022.000000	12.713900
2021.000000	12.725200
2020.000000	12.762500
2019.000000	12.821000
2018.000000	12.848400
2017.000000	12.863800
2016.000000	12.919600
2015.000000	12.937700
2014.000000	12.960900
2013.000000	12.969800
2012.000000	13.011500
2011.000000	13.007400
2010.000000	13.016700
2009.000000	13.031400
2008.000000	13.018800
2007.000000	13.033900
2006.000000	13.036900
2005.000000	13.036000
2004.000000	13.036400
2003.000000	13.010200
2002.000000	13.015300
2001.000000	13.001700
2000.000000	12.987200
1999.000000	12.968100
1998.000000	12.955400
1997.000000	12.914100
1996.000000	12.901100
1995.000000	12.864500
1994.000000	12.833900
1993.000000	12.805000
1992.000000	12.760600
1991.000000	12.726500
1990.000000	12.685100
1989.000000	12.644400
1988.000000	12.611900
1987.000000	12.571400
1986.000000	12.521300
1985.000000	12.472000
1984.000000	12.442600
1983.000000	12.415100
1982.000000	12.359500
1981.000000	12.306400
1980.000000	12.256300
1979.000000	12.219400
1978.000000	12.183400
1977.000000	12.130500
1976.000000	12.076100
1975.000000	12.037800
1974.000000	12.010700
1973.000000	11.970100
1972.000000	11.913600
1971.000000	11.886900
1970.000000	11.863200
1969.000000	11.794500
1968.000000	11.757900
1967.000000	11.730200
1966.000000	11.694600
1965.000000	11.646200
1964.000000	11.611200
1963.000000	11.591500
1962.000000	11.550300
1961.000000	11.511400
1960.000000	11.477800
1959.000000	11.438800
1958.000000	11.398100
1957.000000	11.369600
1956.000000	11.338900
1955.000000	11.296400
1954.000000	11.249900
1953.000000	11.227900
1952.000000	11.194300
1951.000000	11.162900
1950.000000	11.149600
1949.000000	11.102500
1948.000000	11.089500
1947.000000	11.076100
1946.000000	11.040900
1945.000000	11.042700
1944.000000	11.004900
1943.000000	11.001200
1942.000000	11.020500
1941.000000	11.000300
1940.000000	11.015400
1939.000000	11.010200
1938.000000	11.000700
1937.000000	11.020300
1936.000000	11.041700
1935.000000	11.062600
1934.000000	11.077800
1933.000000	11.136200
1932.000000	11.171300
1931.000000	11.222700
1930.000000	11.265300
1929.000000	11.310100
1928.000000	11.380800
1927.000000	11.457500
1926.000000	11.502700
1925.000000	11.573900
1924.000000	11.668800
1923.000000	11.758000
1922.000000	11.822300
1921.000000	11.929500
1920.000000	12.038700
1919.000000	12.122900
1918.000000	12.245500
1917.000000	12.362000
1916.000000	12.471600
1915.000000	12.605700
1914.000000	12.739400
1913.000000	12.866600
1912.000000	13.010900
1911.000000	13.131200
1910.000000	13.265700
1909.000000	13.412500
1908.000000	13.585400
1907.000000	13.760800
1906.000000	13.920000
1905.000000	14.083300
1904.000000	14.243500
1903.000000	14.411000
1902.000000	14.607500
1901.000000	14.771900
1900.000000	14.954900
1899.000000	15.128000
1898.000000	15.328700
1897.000000	15.499100
1896.000000	15.671600
1895.000000	15.874100
1894.000000	16.069700
1893.000000	16.287100
1892.000000	16.502100
1891.000000	16.697900
1890.000000	16.893600
1889.000000	17.114500
1888.000000	17.378300
1887.000000	17.648000
1886.000000	17.930500
1885.000000	18.264400
1884.000000	18.624800
1883.000000	19.009200
1882.000000	19.403100
1881.000000	19.832700
1880.000000	20.247100
1879.000000	20.652300
1878.000000	21.042200
1877.000000	21.414300
1876.000000	21.752700
1875.000000	22.090100
1874.000000	22.396100
1873.000000	22.671900
1872.000000	22.923700
1871.000000	23.127000
1870.000000	23.278000
1869.000000	23.433500
1868.000000	23.533800
1867.000000	23.610800
1866.000000	23.690400
1865.000000	23.769600
1864.000000	23.835600
1863.000000	23.887400
1862.000000	23.959300
1861.000000	23.996300
1860.000000	24.017900
1859.000000	24.022100
1858.000000	24.001800
1857.000000	23.977200
1856.000000	23.964900
1855.000000	23.932600
1854.000000	23.864600
1853.000000	23.784300
1852.000000	23.734300
1851.000000	23.703500
1850.000000	23.678800
1849.000000	23.632500
1848.000000	23.546800
1847.000000	23.417200
1846.000000	23.298700
1845.000000	23.263300
1844.000000	23.258100
1843.000000	23.262100
1842.000000	23.232300
1841.000000	23.175500
1840.000000	23.116200
1839.000000	23.077400
1838.000000	23.037100
1837.000000	22.959600
1836.000000	22.870800
1835.000000	22.788000
1834.000000	22.702700
1833.000000	22.643900
1832.000000	22.586100
1831.000000	22.505900
1830.000000	22.429700
1829.000000	22.351000
1828.000000	22.249700
1827.000000	22.156900
1826.000000	22.073600
1825.000000	21.998400
1824.000000	21.962400
1823.000000	21.961600
1822.000000	21.959400
1821.000000	21.916400
1820.000000	21.867500
1819.000000	21.824600
1818.000000	21.809300
1817.000000	21.809800
1816.000000	21.799500
1815.000000	21.778900
1814.000000	21.758100
1813.000000	21.750000
1812.000000	21.752400
1811.000000	21.726300
1810.000000	21.665600
1809.000000	21.639800
1808.000000	21.621000
1807.000000	21.587900
1806.000000	21.548100
1805.000000	21.488700
1804.000000	21.449300
1803.000000	21.412200
1802.000000	21.370700
1801.000000	21.307300
1800.000000	21.243400
1799.000000	21.200100
1798.000000	21.163500
1797.000000	21.134800
1796.000000	21.095700
1795.000000	21.044800
1794.000000	20.991400
1793.000000	20.956200
1792.000000	20.903800
1791.000000	20.839500
1790.000000	20.797100
1789.000000	20.743600
1788.000000	20.680200
1787.000000	20.606900
1786.000000	20.537900
1785.000000	20.465400
1784.000000	20.386900
1783.000000	20.316800
1782.000000	20.242200
1781.000000	20.174000
1780.000000	20.094400
1779.000000	19.998500
1778.000000	19.915600
1777.000000	19.821200
1776.000000	19.724600
1775.000000	19.617300
1774.000000	19.499100
1773.000000	19.376900
1772.000000	19.248200
1771.000000	19.121200
1770.000000	19.017200
1769.000000	18.891500
1768.000000	18.783200
1767.000000	18.679700
1766.000000	18.601800
1765.000000	18.555500
1764.000000	18.520000
1763.000000	18.494800
1762.000000	18.532400
1761.000000	18.570000
1760.000000	18.627800
1759.000000	18.696600
1758.000000	18.769100
1757.000000	18.817800
1756.000000	18.866300
1755.000000	18.897100
1754.000000	18.903800
1753.000000	18.923500
1752.000000	18.906100
1751.000000	18.865600
1750.000000	18.818800
1749.000000	18.768000
1748.000000	18.697700
1747.000000	18.605900
1746.000000	18.503900
1745.000000	18.381000
1744.000000	18.241800
1743.000000	18.063300
1742.000000	17.886600
1741.000000	17.678500
1740.000000	17.470300
1739.000000	17.281800
1738.000000	17.084100
1737.000000	16.924300
1736.000000	16.831500
1735.000000	16.756300
1734.000000	16.758100
1733.000000	16.769600
1732.000000	16.798500
1731.000000	16.907900
1730.000000	17.002200
1729.000000	17.117500
1728.000000	17.214300
1727.000000	17.322700
1726.000000	17.425400
1725.000000	17.503500
1724.000000	17.549400
1723.000000	17.566400
1722.000000	17.580300
1721.000000	17.581000
1720.000000	17.609700
1719.000000	17.609400
1718.000000	17.620300
1717.000000	17.675300
1716.000000	17.733600
1715.000000	17.786900
1714.000000	17.826300
1713.000000	17.857100
1712.000000	17.891300
1711.000000	17.933600
1710.000000	17.923000
1709.000000	17.910400
1708.000000	17.892900
1707.000000	17.878200
1706.000000	17.832400
1705.000000	17.783700
1704.000000	17.727300
1703.000000	17.644400
1702.000000	17.535500
1701.000000	17.415700
1700.000000	17.281300
1699.000000	17.131100
1698.000000	17.015700
1697.000000	16.918300
1696.000000	16.870500
1695.000000	16.888200
1694.000000	16.964200
1693.000000	17.062000
1692.000000	17.202500
1691.000000	17.349200
1690.000000	17.494200
1689.000000	17.583300
1688.000000	17.649500
1687.000000	17.661400
1686.000000	17.665800
1685.000000	17.678300
1684.000000	17.768000
1683.000000	17.979700
1682.000000	18.293800
1681.000000	18.734700
1680.000000	19.183700
1679.000000	19.703400
1678.000000	20.200800
1677.000000	20.691600
1676.000000	21.123100
1675.000000	21.471900
1674.000000	21.805900
1673.000000	22.081400
1672.000000	22.347000
1671.000000	22.540600
1670.000000	22.721700
1669.000000	22.863800
1668.000000	22.992400
1667.000000	23.125400
1666.000000	23.215400
1665.000000	23.291600
1664.000000	23.350900
1663.000000	23.414300
1662.000000	23.453300
1661.000000	23.493000
1660.000000	23.527300
1659.000000	23.551300
1658.000000	23.560700
1657.000000	23.573300
1656.000000	23.574100
1655.000000	23.562700
1654.000000	23.536100
1653.000000	23.522600
1652.000000	23.497300
1651.000000	23.470000
1650.000000	23.424000
1649.000000	23.376600
1648.000000	23.328500
1647.000000	23.272300
1646.000000	23.215700
1645.000000	23.175000
1644.000000	23.104800
1643.000000	23.041800
1642.000000	22.982800
1641.000000	22.922100
1640.000000	22.858300
1639.000000	22.795200
1638.000000	22.716700
1637.000000	22.641700
1636.000000	22.567900
1635.000000	22.506100
1634.000000	22.438600
1633.000000	22.350500
1632.000000	22.278500
1631.000000	22.188400
1630.000000	22.114900
1629.000000	22.040100
1628.000000	21.961400
1627.000000	21.885600
1626.000000	21.794600
1625.000000	21.720700
1624.000000	21.657200
1623.000000	21.555900
1622.000000	21.492400
1621.000000	21.415500
1620.000000	21.332500
1619.000000	21.261100
1618.000000	21.176500
1617.000000	21.108100
1616.000000	21.041900
1615.000000	20.973600
1614.000000	20.888200
1613.000000	20.841600
1612.000000	20.767900
1611.000000	20.704700
1610.000000	20.646600
1609.000000	20.587400
1608.000000	20.526100
1607.000000	20.462500
1606.000000	20.407300
1605.000000	20.335900
1604.000000	20.279800
1603.000000	20.219600
1602.000000	20.170800
1601.000000	20.101400
1600.000000	20.039100
1599.000000	19.990200
1598.000000	19.939400
1597.000000	19.895000
1596.000000	19.844000
1595.000000	19.787800
1594.000000	19.748300
1593.000000	19.713600
1592.000000	19.677300
1591.000000	19.641500
1590.000000	19.601400
1589.000000	19.580500
1588.000000	19.559400
1587.000000	19.524700
1586.000000	19.502800
1585.000000	19.492200
1584.000000	19.462600
1583.000000	19.441400
1582.000000	19.434700
1581.000000	19.418100
1580.000000	19.408800
1579.000000	19.422000
1578.000000	19.419500
1577.000000	19.418900
1576.000000	19.427600
1575.000000	19.438400
1574.000000	19.464000
1573.000000	19.479100
1572.000000	19.489200
1571.000000	19.509900
1570.000000	19.536100
1569.000000	19.564100
1568.000000	19.596700
1567.000000	19.626100
1566.000000	19.651400
1565.000000	19.690800
1564.000000	19.725400
1563.000000	19.740700
1562.000000	19.762600
1561.000000	19.791300
1560.000000	19.805100
1559.000000	19.832500
1558.000000	19.873300
1557.000000	19.881100
1556.000000	19.880500
1555.000000	19.894200
1554.000000	19.895600
1553.000000	19.910600
1552.000000	19.919300
1551.000000	19.923700
1550.000000	19.931400
1549.000000	19.920600
1548.000000	19.919400
1547.000000	19.914600
1546.000000	19.913000
1545.000000	19.909800
1544.000000	19.908600
1543.000000	19.914100
1542.000000	19.915600
1541.000000	19.914300
1540.000000	19.921400
1539.000000	19.912900
1538.000000	19.923600
1537.000000	19.936400
1536.000000	19.922800
1535.000000	19.917900
1534.000000	19.925500
1533.000000	19.913100
1532.000000	19.885900
1531.000000	19.891000
1530.000000	19.882400
1529.000000	19.861100
1528.000000	19.859600
1527.000000	19.833600
1526.000000	19.810700
1525.000000	19.788300
1524.000000	19.761900
1523.000000	19.744600
1522.000000	19.720100
1521.000000	19.702000
1520.000000	19.676500
1519.000000	19.669400
1518.000000	19.653600
1517.000000	19.633300
1516.000000	19.616400
1515.000000	19.569100
1514.000000	19.548300
1513.000000	19.521700
1512.000000	19.489900
1511.000000	19.462600
1510.000000	19.440900
1509.000000	19.402200
1508.000000	19.377100
1507.000000	19.348200
1506.000000	19.317300
1505.000000	19.293500
1504.000000	19.264000
1503.000000	19.240100
1502.000000	19.224000
1501.000000	19.212100
1500.000000	19.182200
1499.000000	19.147800
1498.000000	19.134800
1497.000000	19.127600
1496.000000	19.116600
1495.000000	19.101000
1494.000000	19.088800
1493.000000	19.071000
1492.000000	19.087600
1491.000000	19.098000
1490.000000	19.081400
1489.000000	19.059100
1488.000000	19.045000
1487.000000	19.073600
1486.000000	19.077900
1485.000000	19.073900
1484.000000	19.061100
1483.000000	19.082500
1482.000000	19.093600
1481.000000	19.093900
1480.000000	19.111400
1479.000000	19.130000
1478.000000	19.169500
1477.000000	19.155600
1476.000000	19.185700
1475.000000	19.222000
1474.000000	19.244000
1473.000000	19.276100
1472.000000	19.310100
1471.000000	19.313800
1470.000000	19.343300
1469.000000	19.359200
1468.000000	19.407000
1467.000000	19.451800
1466.000000	19.484000
1465.000000	19.500500
1464.000000	19.546400
1463.000000	19.683500
1462.000000	19.817600
1461.000000	19.883600
1460.000000	19.959600
1459.000000	20.018300
1458.000000	20.096500
1457.000000	20.202700
1456.000000	20.309400
1455.000000	20.407700
1454.000000	20.479800
1453.000000	20.595600
1452.000000	20.690900
1451.000000	20.803300
1450.000000	20.878200
1449.000000	20.982700
1448.000000	21.118500
1447.000000	21.240600
1446.000000	21.379000
1445.000000	21.459400
1444.000000	21.569500
1443.000000	21.685300
1442.000000	21.843000
1441.000000	21.959100
1440.000000	22.073600
1439.000000	22.206000
1438.000000	22.345500
1437.000000	22.441000
1436.000000	22.578200
1435.000000	22.703900
1434.000000	22.826100
1433.000000	22.974400
1432.000000	23.097500
1431.000000	23.215300
1430.000000	23.379400
1429.000000	23.548000
1428.000000	23.721700
1427.000000	23.885000
1426.000000	24.116800
1425.000000	24.303000
1424.000000	24.543700
1423.000000	24.730800
1422.000000	24.937200
1421.000000	25.165400
1420.000000	25.390700
1419.000000	25.650000
1418.000000	25.882000
1417.000000	26.081300
1416.000000	26.334700
1415.000000	26.587700
1414.000000	26.790200
1413.000000	26.996000
1412.000000	27.178900
1411.000000	27.487300
1410.000000	27.774800
1409.000000	28.094000
1408.000000	28.418400
1407.000000	28.761600
1406.000000	29.097000
1405.000000	29.446000
1404.000000	29.772200
1403.000000	30.123000
1402.000000	30.460900
1401.000000	30.839000
1400.000000	31.116700
1399.000000	31.323900
1398.000000	31.534700
1397.000000	31.758100
1396.000000	31.969200
1395.000000	32.115600
1394.000000	32.248400
1393.000000	32.379600
1392.000000	32.546700
1391.000000	32.703200
1390.000000	32.892800
1389.000000	33.139300
1388.000000	33.410600
1387.000000	33.688000
1386.000000	34.030500
1385.000000	34.395700
1384.000000	34.799200
1383.000000	35.192400
1382.000000	35.483900
1381.000000	35.683000
1380.000000	35.786700
1379.000000	35.868500
1378.000000	35.946600
1377.000000	36.054700
1376.000000	36.182800
1375.000000	36.352500
1374.000000	36.625200
1373.000000	36.946900
1372.000000	37.266000
1371.000000	37.586100
1370.000000	37.876700
1369.000000	38.155300
1368.000000	38.410200
1367.000000	38.635700
1366.000000	38.832300
1365.000000	39.018500
1364.000000	39.163800
1363.000000	39.313900
1362.000000	39.455900
1361.000000	39.538200
1360.000000	39.571000
1359.000000	39.625100
1358.000000	39.724200
1357.000000	39.907200
1356.000000	40.193300
1355.000000	40.571400
1354.000000	40.982400
1353.000000	41.405200
1352.000000	41.920800
1351.000000	42.387400
1350.000000	42.802400
1349.000000	43.178500
1348.000000	43.530700
1347.000000	43.842800
1346.000000	44.133300
1345.000000	44.415100
1344.000000	44.706600
1343.000000	44.972400
1342.000000	45.197300
1341.000000	45.429300
1340.000000	45.657800
1339.000000	45.877800
1338.000000	46.086600
1337.000000	46.276600
1336.000000	46.450200
1335.000000	46.626200
1334.000000	46.788900
1333.000000	46.950900
1332.000000	47.112500
1331.000000	47.253000
1330.000000	47.384100
1329.000000	47.523200
1328.000000	47.644500
1327.000000	47.741800
1326.000000	47.854900
1325.000000	47.959900
1324.000000	48.054600
1323.000000	48.154400
1322.000000	48.250500
1321.000000	48.340200
1320.000000	48.417100
1319.000000	48.485800
1318.000000	48.571800
1317.000000	48.639500
1316.000000	48.706000
1315.000000	48.779200
1314.000000	48.845200
1313.000000	48.911000
1312.000000	48.970700
1311.000000	49.010700
1310.000000	49.057500
1309.000000	49.103300
1308.000000	49.145100
1307.000000	49.180200
1306.000000	49.208100
1305.000000	49.236900
1304.000000	49.251900
1303.000000	49.263100
1302.000000	49.277400
1301.000000	49.289300
1300.000000	49.306800
1299.000000	49.319300
1298.000000	49.314800
1297.000000	49.305000
1296.000000	49.308100
1295.000000	49.310500
1294.000000	49.296200
1293.000000	49.291800
1292.000000	49.292100
1291.000000	49.276500
1290.000000	49.247300
1289.000000	49.214800
1288.000000	49.186400
1287.000000	49.157000
1286.000000	49.109400
1285.000000	49.068000
1284.000000	49.023300
1283.000000	48.971700
1282.000000	48.922900
1281.000000	48.884900
1280.000000	48.845200
1279.000000	48.795400
1278.000000	48.754500
1277.000000	48.721400
1276.000000	48.693200
1275.000000	48.656000
1274.000000	48.628000
1273.000000	48.601100
1272.000000	48.575900
1271.000000	48.554700
1270.000000	48.532200
1269.000000	48.508700
1268.000000	48.486600
1267.000000	48.460600
1266.000000	48.435600
1265.000000	48.400600
1264.000000	48.376800
1263.000000	48.339800
1262.000000	48.315100
1261.000000	48.280100
1260.000000	48.244000
1259.000000	48.209300
1258.000000	48.187700
1257.000000	48.138600
1256.000000	48.088000
1255.000000	48.032700
1254.000000	47.993100
1253.000000	47.950400
1252.000000	47.895100
1251.000000	47.832200
1250.000000	47.755500
1249.000000	47.671100
1248.000000	47.593700
1247.000000	47.511900
1246.000000	47.409500
1245.000000	47.306300
1244.000000	47.204900
1243.000000	47.078900
1242.000000	46.961700
1241.000000	46.842800
1240.000000	46.720600
1239.000000	46.586100
1238.000000	46.450800
1237.000000	46.331400
1236.000000	46.203400
1235.000000	46.056300
1234.000000	45.902300
1233.000000	45.768200
1232.000000	45.605000
1231.000000	45.463000
1230.000000	45.300900
1229.000000	45.142500
1228.000000	44.972300
1227.000000	44.822200
1226.000000	44.672400
1225.000000	44.509800
1224.000000	44.343900
1223.000000	44.206800
1222.000000	44.062400
1221.000000	43.904700
1220.000000	43.750600
1219.000000	43.626000
1218.000000	43.489300
1217.000000	43.378500
1216.000000	43.256300
1215.000000	43.139800
1214.000000	43.019700
1213.000000	42.913800
1212.000000	42.823600
1211.000000	42.729100
1210.000000	42.631600
1209.000000	42.558400
1208.000000	42.471200
1207.000000	42.410000
1206.000000	42.369400
1205.000000	42.347200
1204.000000	42.335100
1203.000000	42.306000
1202.000000	42.270700
1201.000000	42.258400
1200.000000	42.210300
1199.000000	42.149500
1198.000000	42.043800
1197.000000	41.905000
1196.000000	41.710700
1195.000000	41.483100
1194.000000	41.156300
1193.000000	40.820300
1192.000000	40.389500
1191.000000	39.978400
1190.000000	39.559100
1189.000000	39.246900
1188.000000	39.003100
1187.000000	38.905300
1186.000000	38.920500
1185.000000	39.052400
1184.000000	39.279400
1183.000000	39.648500
1182.000000	40.111700
1181.000000	40.589200
1180.000000	41.076500
1179.000000	41.522300
1178.000000	41.938800
1177.000000	42.268200
1176.000000	42.595700
1175.000000	42.882500
1174.000000	43.169600
1173.000000	43.481800
1172.000000	43.790000
1171.000000	44.109000
1170.000000	44.433600
1169.000000	44.763500
1168.000000	45.098700
1167.000000	45.440900
1166.000000	45.781100
1165.000000	46.111100
1164.000000	46.456200
1163.000000	46.821600
1162.000000	47.135900
1161.000000	47.463500
1160.000000	47.765000
1159.000000	48.074500
1158.000000	48.344000
1157.000000	48.606900
1156.000000	48.774700
1155.000000	48.982000
1154.000000	49.089700
1153.000000	49.164200
1152.000000	49.196700
1151.000000	49.225900
1150.000000	49.227700
1149.000000	49.246300
1148.000000	49.273700
1147.000000	49.338600
1146.000000	49.447500
1145.000000	49.624900
1144.000000	49.868200
1143.000000	50.119900
1142.000000	50.397600
1141.000000	50.682400
1140.000000	50.982900
1139.000000	51.271200
1138.000000	51.591900
1137.000000	51.917200
1136.000000	52.227200
1135.000000	52.550300
1134.000000	52.836800
1133.000000	53.063800
1132.000000	53.296600
1131.000000	53.500500
1130.000000	53.712000
1129.000000	53.882500
1128.000000	54.017000
1127.000000	54.129100
1126.000000	54.218400
1125.000000	54.302900
1124.000000	54.383800
1123.000000	54.442500
1122.000000	54.489300
1121.000000	54.536800
1120.000000	54.554300
1119.000000	54.587400
1118.000000	54.609600
1117.000000	54.614400
1116.000000	54.608500
1115.000000	54.626700
1114.000000	54.638400
1113.000000	54.645400
1112.000000	54.649000
1111.000000	54.647000
1110.000000	54.653800
1109.000000	54.656500
1108.000000	54.646700
1107.000000	54.667700
1106.000000	54.658700
1105.000000	54.663900
1104.000000	54.659600
1103.000000	54.660800
1102.000000	54.665700
1101.000000	54.662900
1100.000000	54.659600
1099.000000	54.648100
1098.000000	54.619400
1097.000000	54.618800
1096.000000	54.597300
1095.000000	54.598000
1094.000000	54.587900
1093.000000	54.555000
1092.000000	54.529400
1091.000000	54.511500
1090.000000	54.503500
1089.000000	54.467100
1088.000000	54.440800
1087.000000	54.431300
1086.000000	54.402000
1085.000000	54.378100
1084.000000	54.340000
1083.000000	54.316000
1082.000000	54.301900
1081.000000	54.271000
1080.000000	54.231600
1079.000000	54.227200
1078.000000	54.218800
1077.000000	54.193800
1076.000000	54.174200
1075.000000	54.149600
1074.000000	54.134000
1073.000000	54.101100
1072.000000	54.092700
1071.000000	54.072000
1070.000000	54.048800
1069.000000	54.036300
1068.000000	54.020000
1067.000000	54.011100
1066.000000	54.005600
1065.000000	53.981100
1064.000000	53.965900
1063.000000	53.943500
1062.000000	53.927300
1061.000000	53.922000
1060.000000	53.897000
1059.000000	53.883900
1058.000000	53.873700
1057.000000	53.848600
1056.000000	53.831100
1055.000000	53.834800
1054.000000	53.826200
1053.000000	53.812800
1052.000000	53.820200
1051.000000	53.817500
1050.000000	53.817300
1049.000000	53.821400
1048.000000	53.825300
1047.000000	53.838500
1046.000000	53.850600
1045.000000	53.861400
1044.000000	53.868500
1043.000000	53.885400
1042.000000	53.914000
1041.000000	53.933500
1040.000000	53.944500
1039.000000	53.960300
1038.000000	53.978300
1037.000000	53.983700
1036.000000	53.994800
1035.000000	54.011800
1034.000000	54.004000
1033.000000	54.006600
1032.000000	54.023500
1031.000000	54.026700
1030.000000	54.035200
1029.000000	54.037200
1028.000000	54.036100
1027.000000	54.048800
1026.000000	54.048500
1025.000000	54.026800
1024.000000	54.022900
1023.000000	54.029600
1022.000000	54.033200
1021.000000	54.032200
1020.000000	54.025200
1019.000000	54.026300
1018.000000	54.024900
1017.000000	54.019000
1016.000000	54.028000
1015.000000	54.054400
1014.000000	54.069900
1013.000000	54.097600
1012.000000	54.132100
1011.000000	54.158300
1010.000000	54.180000
1009.000000	54.225200
1008.000000	54.279800
1007.000000	54.307500
1006.000000	54.340100
1005.000000	54.394100
1004.000000	54.433000
1003.000000	54.468700
1002.000000	54.511800
1001.000000	54.560000
1000.000000	54.622900
999.000000	54.667700
998.000000	54.695100
997.000000	54.750300
996.000000	54.790300
995.000000	54.821800
994.000000	54.883400
993.000000	54.934800
992.000000	54.974000
991.000000	55.023400
990.000000	55.081700
989.000000	55.147000
988.000000	55.218000
987.000000	55.297500
986.000000	55.365400
985.000000	55.446600
984.000000	55.528900
983.000000	55.594700
982.000000	55.680200
981.000000	55.765000
980.000000	55.844800
979.000000	55.944800
978.000000	56.031400
977.000000	56.144400
976.000000	56.248800
975.000000	56.326000
974.000000	56.427900
973.000000	56.554600
972.000000	56.681100
971.000000	56.778800
970.000000	56.891900
969.000000	57.018500
968.000000	57.143200
967.000000	57.257500
966.000000	57.371900
965.000000	57.496400
964.000000	57.611500
963.000000	57.745700
962.000000	57.880800
961.000000	57.986600
960.000000	58.114400
959.000000	58.244000
958.000000	58.371800
957.000000	58.469200
956.000000	58.566100
955.000000	58.682700
954.000000	58.788900
953.000000	58.867100
952.000000	58.971200
951.000000	59.067400
950.000000	59.132700
949.000000	59.211300
948.000000	59.278800
947.000000	59.375700
946.000000	59.443200
945.000000	59.503800
944.000000	59.582100
943.000000	59.632000
942.000000	59.692100
941.000000	59.771300
940.000000	59.805900
939.000000	59.867700
938.000000	59.924400
937.000000	59.983000
936.000000	60.056300
935.000000	60.150500
934.000000	60.191800
933.000000	60.263100
932.000000	60.328400
931.000000	60.429000
930.000000	60.482500
929.000000	60.561500
928.000000	60.671400
927.000000	60.733600
926.000000	60.817900
925.000000	60.900700
924.000000	60.997500
923.000000	61.105100
922.000000	61.202900
921.000000	61.299700
920.000000	61.379400
919.000000	61.450400
918.000000	61.539000
917.000000	61.603200
916.000000	61.691100
915.000000	61.759000
914.000000	61.838200
913.000000	61.918600
912.000000	62.049500
911.000000	62.094400
910.000000	62.184500
909.000000	62.205400
908.000000	62.322000
907.000000	62.401500
906.000000	62.503000
905.000000	62.588400
904.000000	62.699000
903.000000	62.804400
902.000000	62.913500
901.000000	63.026700
900.000000	63.095400
899.000000	63.197700
898.000000	63.258400
897.000000	63.314300
896.000000	63.352600
895.000000	63.399300
894.000000	63.443900
893.000000	63.482100
892.000000	63.534000
891.000000	63.557700
890.000000	63.528400
889.000000	63.545600
888.000000	63.539200
887.000000	63.516100
886.000000	63.444500
885.000000	63.404100
884.000000	63.319700
883.000000	63.278900
882.000000	63.230700
881.000000	63.138800
880.000000	62.987200
879.000000	62.902800
878.000000	62.719900
877.000000	62.615200
876.000000	62.424900
875.000000	62.270400
874.000000	62.045300
873.000000	61.838600
872.000000	61.538400
871.000000	61.117200
870.000000	60.671100
869.000000	60.344400
868.000000	59.828800
867.000000	59.312800
866.000000	58.940000
865.000000	58.856000
864.000000	58.931200
863.000000	59.029400
862.000000	59.115900
861.000000	59.165400
860.000000	59.207000
859.000000	59.246200
858.000000	60.569900
857.000000	59.487420
856.000000	59.053906
855.000000	59.389221
854.000000	59.753847
853.000000	59.462059
852.000000	59.436171
851.000000	59.482681
850.000000	59.681887
849.000000	59.685309
848.000000	59.789739
847.000000	59.654419
846.000000	59.819751
845.000000	59.821858
844.000000	59.755339
843.000000	59.555870
842.000000	59.537353
841.000000	59.675744
840.000000	59.742526
839.000000	59.517696
838.000000	59.424148
837.000000	59.514975
836.000000	59.448281
835.000000	59.528139
834.000000	59.604311
833.000000	59.467061
832.000000	59.476363
831.000000	59.394487
830.000000	59.283124
829.000000	59.198001
828.000000	59.220818
827.000000	59.249953
826.000000	59.155703
825.000000	59.194491
824.000000	59.092343
823.000000	59.039953
822.000000	58.962815
821.000000	58.860931
820.000000	58.796167
819.000000	58.714817
818.000000	58.750271
817.000000	58.762557
816.000000	58.653564
815.000000	58.499640
814.000000	58.487617
813.000000	58.395386
812.000000	58.307806
811.000000	58.266122
810.000000	58.095524
809.000000	57.964943
808.000000	57.933527
807.000000	57.839365
806.000000	57.679825
805.000000	57.577501
804.000000	57.481321
803.000000	57.384263
802.000000	57.228935
801.000000	57.143022
800.000000	57.098091
799.000000	56.975496
798.000000	56.743382
797.000000	56.665718
796.000000	56.627720
795.000000	56.553390
794.000000	56.527678
793.000000	56.400783
792.000000	56.241769
791.000000	56.082756
790.000000	55.966479
789.000000	55.806851
788.000000	55.713216
787.000000	55.610278
786.000000	55.472414
785.000000	55.426517
784.000000	55.259869
783.000000	55.119284
782.000000	55.009501
781.000000	54.979928
780.000000	54.863125
779.000000	54.712448
778.000000	54.632678
777.000000	54.548608
776.000000	54.406355
775.000000	54.333518
774.000000	54.269544
773.000000	54.239444
772.000000	54.118692
771.000000	54.043748
770.000000	54.025846
769.000000	54.024091
768.000000	53.872800
767.000000	53.721860
766.000000	53.667890
765.000000	53.673682
764.000000	53.604003
763.000000	53.510456
762.000000	53.499925
761.000000	53.492202
760.000000	53.391283
759.000000	53.320464
758.000000	53.281939
757.000000	53.264037
756.000000	53.230602
755.000000	53.191990
754.000000	53.160924
753.000000	53.126173
752.000000	53.091334
751.000000	53.064656
750.000000	53.073695
749.000000	53.077468
748.000000	53.038943
747.000000	52.959173
746.000000	52.947677
745.000000	52.948467
744.000000	52.867556
743.000000	52.787435
742.000000	52.782082
741.000000	52.780502
740.000000	52.693273
739.000000	52.571380
738.000000	52.534259
737.000000	52.505563
736.000000	52.402275
735.000000	52.339705
734.000000	52.294335
733.000000	52.198242
732.000000	52.106011
731.000000	51.984557
730.000000	51.918126
729.000000	51.850992
728.000000	51.784386
727.000000	51.748406
726.000000	51.689083
725.000000	51.543847
724.000000	51.430027
723.000000	51.334725
722.000000	51.222222
721.000000	51.089622
720.000000	50.947370
719.000000	50.851892
718.000000	50.726313
717.000000	50.605649
716.000000	50.487091
715.000000	50.362828
714.000000	50.232423
713.000000	50.100965
712.000000	49.963100
711.000000	49.808299
710.000000	49.638053
709.000000	49.534413
708.000000	49.399971
707.000000	49.275621
706.000000	49.138809
705.000000	48.983657
704.000000	48.890373
703.000000	48.779010
702.000000	48.663611
701.000000	48.533557
700.000000	48.450277
699.000000	48.313817
698.000000	48.202103
697.000000	48.125931
696.000000	47.987628
695.000000	47.890746
694.000000	47.851080
693.000000	47.774206
692.000000	47.683203
691.000000	47.630198
690.000000	47.596500
689.000000	47.541565
688.000000	47.563504
687.000000	47.549639
686.000000	47.575965
685.000000	47.595710
684.000000	47.638886
683.000000	47.680570
682.000000	47.718481
681.000000	47.746124
680.000000	47.835372
679.000000	47.824051
678.000000	47.864243
677.000000	47.907419
676.000000	47.918564
675.000000	47.904435
674.000000	47.946734
673.000000	47.919705
672.000000	47.907858
671.000000	47.880127
670.000000	47.834055
669.000000	47.798339
668.000000	47.759375
667.000000	47.703036
666.000000	47.618615
665.000000	47.504181
664.000000	47.418707
663.000000	47.292953
662.000000	47.143153
661.000000	46.988615
660.000000	46.870320
659.000000	46.656372
658.000000	46.427855
657.000000	46.156777
656.000000	45.876924
655.000000	45.584434
654.000000	45.230865
653.000000	44.873611
652.000000	44.476516
651.000000	44.078718
650.000000	43.614402
649.000000	43.210988
648.000000	42.817052
647.000000	42.403020
646.000000	42.064634
645.000000	41.733706
644.000000	41.414714
643.000000	41.184618
642.000000	40.970669
641.000000	40.865011
640.000000	40.779361
639.000000	40.771639
638.000000	40.861150
637.000000	41.011826
636.000000	41.220510
635.000000	41.493343
634.000000	41.850246
633.000000	42.306138
632.000000	42.799062
631.000000	43.325247
630.000000	43.943925
629.000000	44.567168
628.000000	45.282378
627.000000	45.963802
626.000000	46.653300
625.000000	47.375970
624.000000	48.080386
623.000000	48.807443
622.000000	49.533184
621.000000	50.282356
620.000000	50.958866
619.000000	51.591498
618.000000	52.242559
617.000000	52.851936
616.000000	53.466227
615.000000	53.960731
614.000000	54.456376
613.000000	54.950968
612.000000	55.405280
611.000000	55.801761
610.000000	56.190871
609.000000	56.539262
608.000000	56.866854
607.000000	57.145216
606.000000	57.464911
605.000000	57.697288
604.000000	58.020668
603.000000	58.256556
602.000000	58.512979
601.000000	58.756238
600.000000	59.046535
599.000000	59.266100
598.000000	59.437136
597.000000	59.667846
596.000000	59.858276
595.000000	60.020010
594.000000	60.202543
593.000000	60.379371
592.000000	60.547248
591.000000	60.680812
590.000000	60.792876
589.000000	60.917314
588.000000	60.999629
587.000000	61.088965
586.000000	61.164522
585.000000	61.237623
584.000000	61.310373
583.000000	61.344071
582.000000	61.400498
581.000000	61.463068
580.000000	61.521776
579.000000	61.585575
578.000000	61.632437
577.000000	61.706239
576.000000	61.756874
575.000000	61.812512
574.000000	61.894827
573.000000	61.859988
572.000000	61.886841
571.000000	61.892545
570.000000	61.919662
569.000000	61.883682
568.000000	61.831555
567.000000	61.831906
566.000000	61.748538
565.000000	61.682194
564.000000	61.601020
563.000000	61.522215
562.000000	61.361359
561.000000	61.208137
560.000000	61.065885
559.000000	60.832717
558.000000	60.673177
557.000000	60.505564
556.000000	60.267833
555.000000	60.020361
554.000000	59.734804
553.000000	59.429238
552.000000	59.100504
551.000000	58.711658
550.000000	58.258662
549.000000	57.778375
548.000000	57.235780
547.000000	56.650624
546.000000	55.988330
545.000000	55.261624
544.000000	54.452076
543.000000	53.609795
542.000000	52.717494
541.000000	51.776488
540.000000	50.780020
539.000000	49.796101
538.000000	48.783749
537.000000	47.778769
536.000000	46.759836
535.000000	45.757927
534.000000	44.754263
533.000000	43.769467
532.000000	42.780809
531.000000	41.824534
530.000000	40.917226
529.000000	40.044318
528.000000	39.216692
527.000000	38.437596
526.000000	37.666485
525.000000	36.928634
524.000000	36.211581
523.000000	35.492246
522.000000	34.802046
521.000000	34.135540
520.000000	33.482198
519.000000	32.840263
518.000000	32.231940
517.000000	31.629847
516.000000	31.025560
515.000000	30.470329
514.000000	29.920801
513.000000	29.335733
512.000000	28.788049
511.000000	28.275993
510.000000	27.776662
509.000000	27.292952
508.000000	26.810470
507.000000	26.362915
506.000000	25.929226
505.000000	25.520459
504.000000	25.116431
503.000000	24.728901
502.000000	24.360677
501.000000	24.014393
500.000000	23.691100
499.000000	23.382375
498.000000	23.086199
497.000000	22.814244
496.000000	22.536935
495.000000	22.279196
494.000000	22.061474
493.000000	21.824094
492.000000	21.602511
491.000000	21.382594
490.000000	21.141704
489.000000	20.929248
488.000000	20.719248
487.000000	20.499595
486.000000	20.268358
485.000000	20.031593
484.000000	19.787982
483.000000	19.499529
482.000000	19.185275
481.000000	18.862421
480.000000	18.527633
479.000000	18.186877
478.000000	17.843225
477.000000	17.479652
476.000000	17.116606
475.000000	16.767338
474.000000	16.423247
473.000000	16.085914
472.000000	15.757443
471.000000	15.459337
470.000000	15.179571
469.000000	14.918234
468.000000	14.681995
467.000000	14.475769
466.000000	14.304820
465.000000	14.151072
464.000000	14.020930
463.000000	13.932736
462.000000	13.852878
461.000000	13.783463
460.000000	13.747220
459.000000	13.742305
458.000000	13.759681
457.000000	13.782059
456.000000	13.813212
455.000000	13.858582
454.000000	13.901758
453.000000	13.963538
452.000000	14.034708
451.000000	14.093592
450.000000	14.158268
449.000000	14.206797
448.000000	14.248744
447.000000	14.294641
446.000000	14.320968
445.000000	14.325794
444.000000	14.330708
443.000000	14.338168
442.000000	14.310174
441.000000	14.257959
440.000000	14.211887
439.000000	14.152652
438.000000	14.076480
437.000000	14.005222
436.000000	13.919221
435.000000	13.829710
434.000000	13.741691
433.000000	13.653145
432.000000	13.538975
431.000000	13.415503
430.000000	13.306510
429.000000	13.192778
428.000000	13.083610
427.000000	12.944166
426.000000	12.799720
425.000000	12.672474
424.000000	12.540313
423.000000	12.399553
422.000000	12.242119
421.000000	12.096532
420.000000	11.943486
419.000000	11.774292
418.000000	11.599570
417.000000	11.442487
416.000000	11.285492
415.000000	11.098923
414.000000	10.895944
413.000000	10.704110
412.000000	10.514557
411.000000	10.310173
410.000000	10.106843
409.000000	9.879468
408.000000	9.669907
407.000000	9.460697
406.000000	9.235515
405.000000	9.033238
404.000000	8.807266
403.000000	8.596389
402.000000	8.394638
401.000000	8.175336
400.000000	7.973322
399.000000	7.779031
398.000000	7.580615
397.000000	7.384656
396.000000	7.224853
395.000000	7.057415
394.000000	6.900946
393.000000	6.734210
392.000000	6.598978
391.000000	6.468573
390.000000	6.342906
389.000000	6.220136
388.000000	6.116233
387.000000	6.005836
386.000000	5.915096
385.000000	5.842522
384.000000	5.773546
383.000000	5.700621
382.000000	5.628310
381.000000	5.574165
380.000000	5.523881
379.000000	5.472982
378.000000	5.435072
377.000000	5.400496
376.000000	5.497378
375.000000	5.109322
374.000000	4.989535
373.000000	5.029815
372.000000	5.063250
371.000000	5.079748
370.000000	5.040346
369.000000	5.051930
368.000000	5.111165
367.000000	5.089050
366.000000	4.911082
365.000000	4.925473
364.000000	5.059038
363.000000	5.028674
362.000000	5.015774
361.000000	5.094404
360.000000	5.037011
359.000000	5.065971
358.000000	5.046226
357.000000	5.051842
356.000000	5.113798
355.000000	5.059126
354.000000	5.012176
353.000000	5.000505
352.000000	5.130910
351.000000	4.909326
350.000000	4.946008
349.000000	4.986552
348.000000	5.014984
347.000000	4.914504
346.000000	5.090718
345.000000	5.117308
344.000000	4.998662
343.000000	4.945482
342.000000	5.061144
341.000000	5.050087
340.000000	4.870538
339.000000	5.013931
338.000000	5.024725
337.000000	4.975582
336.000000	4.989711
335.000000	4.984094
334.000000	5.120994
333.000000	5.096861
332.000000	5.230425
331.000000	5.239639
330.000000	5.200325
329.000000	5.207345
328.000000	5.363463
327.000000	5.220421
326.000000	5.291415
325.000000	5.369869
324.000000	5.819355
323.000000	5.395055
322.000000	5.458590
321.000000	5.521424
320.000000	5.580220
319.000000	5.854457
318.000000	5.831465
317.000000	5.870604
316.000000	5.044119
315.000000	4.965841
314.000000	4.890371
313.000000	4.944955
312.000000	4.954872
311.000000	4.943990
310.000000	4.963033
309.000000	4.992256
308.000000	4.990852
307.000000	4.937233
306.000000	4.939865
305.000000	5.007701
304.000000	4.944078
303.000000	5.046050
302.000000	4.942410
301.000000	4.935214
300.000000	5.025252
299.000000	5.038942
298.000000	5.023497
297.000000	4.973213
296.000000	5.012703
295.000000	5.029903
294.000000	5.019372
293.000000	4.972335
292.000000	5.026919
291.000000	5.088963
290.000000	5.059126
289.000000	5.062109
288.000000	5.081152
287.000000	5.029025
286.000000	5.061144
285.000000	5.103442
284.000000	5.091069
283.000000	5.051403
282.000000	5.089226
281.000000	5.060705
280.000000	5.115904
279.000000	5.129243
278.000000	5.168557
277.000000	5.186810
276.000000	5.117220
275.000000	5.121169
274.000000	5.218403
273.000000	5.187513
272.000000	5.094316
271.000000	5.193831
270.000000	5.218841
269.000000	5.255699
268.000000	5.273777
267.000000	5.292381
266.000000	5.318005
265.000000	5.384700
264.000000	5.378031
263.000000	5.364253
262.000000	5.463505
261.000000	5.462452
260.000000	5.481495
259.000000	5.511770
258.000000	5.561704
257.000000	5.595928
256.000000	5.554420
255.000000	5.579957
254.000000	5.584871
253.000000	5.641912
252.000000	5.594963
251.000000	5.634278
250.000000	5.654988
