PE UV       SUBTECH     SPECTRUM    ASCII       PEDS        4.00        
   -1
CICIMAUCR0158-5.Sample.ASC
24/04/25
13:52:02.00
24/04/25
13:52:02.00
Vinicio Soto Monge
C. cupreomarginata
250,000000
1
Lambda 1050
1050L1511233
PerkinElmer UV WinLab 6.3.2.0749 / 2.02.05 Lambda 900 UV/VIS/NIR, Aug  7 2015 09:38:08

0
0
3350/servo 860,8/2
0
0
UV/VIS
1
1
1
DoubleDePol,CommonBeamDepol,RBeamAtt,SBeamAtt,60mm sphere, WB InGaAs Detector
0
0
0
0
Program
Program
3350/servo 860,8/2
3350/0,2 860,8/0,2
3350/0,2 860,8/0,2
0
15.00
 
 
 
0
 
860,8
319,2
860,8
Front
100
on
S:100 R:100
0
0
0
0
 
0
 
 
 
0
 
 
0
0
0
0
0
 
 
 
 
0
0


0
0
#HDR
-1
-1
#GR
nm
%R
1.0
0.0
2500,000000
-1,000000
2251
8
68,614000
5,280700
#DATA
2500.000000	15.497200
2499.000000	15.395500
2498.000000	15.299600
2497.000000	15.475000
2496.000000	15.348700
2495.000000	15.369800
2494.000000	15.339200
2493.000000	15.391800
2492.000000	15.242600
2491.000000	15.322500
2490.000000	15.346700
2489.000000	15.240800
2488.000000	15.295300
2487.000000	15.275000
2486.000000	15.266100
2485.000000	15.272600
2484.000000	15.250900
2483.000000	15.243600
2482.000000	15.302200
2481.000000	15.278500
2480.000000	15.323900
2479.000000	15.299800
2478.000000	15.331100
2477.000000	15.396700
2476.000000	15.342500
2475.000000	15.367100
2474.000000	15.394300
2473.000000	15.394000
2472.000000	15.404500
2471.000000	15.482400
2470.000000	15.481000
2469.000000	15.543500
2468.000000	15.586900
2467.000000	15.574100
2466.000000	15.624200
2465.000000	15.673500
2464.000000	15.668900
2463.000000	15.731400
2462.000000	15.742700
2461.000000	15.799700
2460.000000	15.852800
2459.000000	15.879200
2458.000000	15.949300
2457.000000	16.029800
2456.000000	16.036900
2455.000000	16.096600
2454.000000	16.167200
2453.000000	16.243900
2452.000000	16.342800
2451.000000	16.417400
2450.000000	16.492000
2449.000000	16.563200
2448.000000	16.641600
2447.000000	16.728900
2446.000000	16.815700
2445.000000	16.886700
2444.000000	16.985500
2443.000000	17.043600
2442.000000	17.139600
2441.000000	17.224900
2440.000000	17.308800
2439.000000	17.390100
2438.000000	17.497300
2437.000000	17.580800
2436.000000	17.648600
2435.000000	17.721300
2434.000000	17.795100
2433.000000	17.866500
2432.000000	17.959100
2431.000000	18.029500
2430.000000	18.095300
2429.000000	18.172700
2428.000000	18.242400
2427.000000	18.311600
2426.000000	18.371300
2425.000000	18.432100
2424.000000	18.497500
2423.000000	18.564200
2422.000000	18.624700
2421.000000	18.678000
2420.000000	18.729300
2419.000000	18.784000
2418.000000	18.829500
2417.000000	18.875700
2416.000000	18.917200
2415.000000	18.970800
2414.000000	19.026100
2413.000000	19.066900
2412.000000	19.119300
2411.000000	19.159600
2410.000000	19.227400
2409.000000	19.290000
2408.000000	19.333000
2407.000000	19.368100
2406.000000	19.401700
2405.000000	19.425200
2404.000000	19.454500
2403.000000	19.470400
2402.000000	19.495600
2401.000000	19.542000
2400.000000	19.565400
2399.000000	19.589600
2398.000000	19.606900
2397.000000	19.629600
2396.000000	19.681000
2395.000000	19.707100
2394.000000	19.703600
2393.000000	19.727100
2392.000000	19.745100
2391.000000	19.759800
2390.000000	19.773800
2389.000000	19.782600
2388.000000	19.787500
2387.000000	19.786700
2386.000000	19.804700
2385.000000	19.820300
2384.000000	19.826900
2383.000000	19.832900
2382.000000	19.827400
2381.000000	19.830700
2380.000000	19.842800
2379.000000	19.826500
2378.000000	19.818700
2377.000000	19.817300
2376.000000	19.811900
2375.000000	19.803700
2374.000000	19.806800
2373.000000	19.816400
2372.000000	19.807400
2371.000000	19.791300
2370.000000	19.790000
2369.000000	19.784800
2368.000000	19.773600
2367.000000	19.772900
2366.000000	19.777100
2365.000000	19.776800
2364.000000	19.774000
2363.000000	19.767700
2362.000000	19.778200
2361.000000	19.793500
2360.000000	19.785100
2359.000000	19.767800
2358.000000	19.766100
2357.000000	19.769100
2356.000000	19.763300
2355.000000	19.761100
2354.000000	19.750700
2353.000000	19.732600
2352.000000	19.726700
2351.000000	19.719900
2350.000000	19.716300
2349.000000	19.711000
2348.000000	19.702700
2347.000000	19.709200
2346.000000	19.700600
2345.000000	19.706100
2344.000000	19.709800
2343.000000	19.699100
2342.000000	19.700400
2341.000000	19.702500
2340.000000	19.720300
2339.000000	19.728000
2338.000000	19.717400
2337.000000	19.716400
2336.000000	19.733600
2335.000000	19.765600
2334.000000	19.784300
2333.000000	19.785900
2332.000000	19.810500
2331.000000	19.834800
2330.000000	19.857200
2329.000000	19.875000
2328.000000	19.901700
2327.000000	19.949800
2326.000000	19.976500
2325.000000	19.992600
2324.000000	19.999300
2323.000000	20.008100
2322.000000	20.040000
2321.000000	20.053200
2320.000000	20.069300
2319.000000	20.063500
2318.000000	20.045900
2317.000000	20.045100
2316.000000	20.034200
2315.000000	20.035300
2314.000000	20.001600
2313.000000	19.983700
2312.000000	19.949600
2311.000000	19.914700
2310.000000	19.902700
2309.000000	19.869700
2308.000000	19.842300
2307.000000	19.813800
2306.000000	19.801200
2305.000000	19.783100
2304.000000	19.773600
2303.000000	19.765400
2302.000000	19.738700
2301.000000	19.723000
2300.000000	19.725400
2299.000000	19.723600
2298.000000	19.726000
2297.000000	19.735200
2296.000000	19.744300
2295.000000	19.741700
2294.000000	19.785900
2293.000000	19.794900
2292.000000	19.815400
2291.000000	19.828600
2290.000000	19.862800
2289.000000	19.888500
2288.000000	19.917400
2287.000000	19.964500
2286.000000	19.998900
2285.000000	20.028400
2284.000000	20.059500
2283.000000	20.118700
2282.000000	20.146300
2281.000000	20.184500
2280.000000	20.222300
2279.000000	20.277800
2278.000000	20.299900
2277.000000	20.335400
2276.000000	20.360100
2275.000000	20.392500
2274.000000	20.442800
2273.000000	20.454700
2272.000000	20.463200
2271.000000	20.516100
2270.000000	20.551600
2269.000000	20.591400
2268.000000	20.631900
2267.000000	20.692100
2266.000000	20.747200
2265.000000	20.801000
2264.000000	20.867000
2263.000000	20.952300
2262.000000	21.070300
2261.000000	21.144800
2260.000000	21.249600
2259.000000	21.348700
2258.000000	21.489600
2257.000000	21.603900
2256.000000	21.753200
2255.000000	21.881300
2254.000000	22.008200
2253.000000	22.167200
2252.000000	22.275800
2251.000000	22.408700
2250.000000	22.528800
2249.000000	22.691200
2248.000000	22.785500
2247.000000	22.872500
2246.000000	23.014400
2245.000000	23.127600
2244.000000	23.201000
2243.000000	23.283800
2242.000000	23.358800
2241.000000	23.413000
2240.000000	23.516000
2239.000000	23.553800
2238.000000	23.592700
2237.000000	23.608500
2236.000000	23.627900
2235.000000	23.680600
2234.000000	23.690900
2233.000000	23.674600
2232.000000	23.695100
2231.000000	23.656400
2230.000000	23.665500
2229.000000	23.642500
2228.000000	23.625300
2227.000000	23.561900
2226.000000	23.526100
2225.000000	23.490200
2224.000000	23.435400
2223.000000	23.372100
2222.000000	23.299300
2221.000000	23.256900
2220.000000	23.178100
2219.000000	23.136400
2218.000000	23.069500
2217.000000	22.993600
2216.000000	22.935500
2215.000000	22.861300
2214.000000	22.808400
2213.000000	22.739600
2212.000000	22.704900
2211.000000	22.624000
2210.000000	22.586600
2209.000000	22.528600
2208.000000	22.500800
2207.000000	22.423200
2206.000000	22.383300
2205.000000	22.345500
2204.000000	22.310200
2203.000000	22.293600
2202.000000	22.274100
2201.000000	22.216100
2200.000000	22.191700
2199.000000	22.140700
2198.000000	22.132700
2197.000000	22.112900
2196.000000	22.099100
2195.000000	22.066700
2194.000000	22.058400
2193.000000	22.049600
2192.000000	22.047100
2191.000000	22.008400
2190.000000	21.988700
2189.000000	21.974000
2188.000000	21.959400
2187.000000	21.947200
2186.000000	21.903900
2185.000000	21.885500
2184.000000	21.875700
2183.000000	21.867100
2182.000000	21.855700
2181.000000	21.831200
2180.000000	21.849100
2179.000000	21.836500
2178.000000	21.788800
2177.000000	21.783200
2176.000000	21.785900
2175.000000	21.802300
2174.000000	21.791200
2173.000000	21.777100
2172.000000	21.801800
2171.000000	21.821100
2170.000000	21.825800
2169.000000	21.844000
2168.000000	21.854800
2167.000000	21.903200
2166.000000	21.931300
2165.000000	21.948100
2164.000000	21.988500
2163.000000	22.051700
2162.000000	22.097900
2161.000000	22.154700
2160.000000	22.196100
2159.000000	22.268000
2158.000000	22.329600
2157.000000	22.407700
2156.000000	22.494000
2155.000000	22.559100
2154.000000	22.644900
2153.000000	22.744300
2152.000000	22.842000
2151.000000	22.940600
2150.000000	23.027400
2149.000000	23.122600
2148.000000	23.213700
2147.000000	23.312900
2146.000000	23.418400
2145.000000	23.501800
2144.000000	23.586900
2143.000000	23.677400
2142.000000	23.767900
2141.000000	23.853500
2140.000000	23.933800
2139.000000	24.013900
2138.000000	24.099500
2137.000000	24.184100
2136.000000	24.259700
2135.000000	24.338900
2134.000000	24.421700
2133.000000	24.491200
2132.000000	24.565700
2131.000000	24.626100
2130.000000	24.672000
2129.000000	24.742900
2128.000000	24.801900
2127.000000	24.856400
2126.000000	24.912200
2125.000000	24.963200
2124.000000	25.003400
2123.000000	25.042400
2122.000000	25.085900
2121.000000	25.113300
2120.000000	25.134700
2119.000000	25.182100
2118.000000	25.217300
2117.000000	25.225400
2116.000000	25.245400
2115.000000	25.261000
2114.000000	25.274100
2113.000000	25.307800
2112.000000	25.321500
2111.000000	25.321100
2110.000000	25.327300
2109.000000	25.331100
2108.000000	25.350300
2107.000000	25.356500
2106.000000	25.358100
2105.000000	25.351500
2104.000000	25.345400
2103.000000	25.359300
2102.000000	25.359900
2101.000000	25.362400
2100.000000	25.362300
2099.000000	25.371200
2098.000000	25.375600
2097.000000	25.364800
2096.000000	25.366500
2095.000000	25.389900
2094.000000	25.417500
2093.000000	25.425300
2092.000000	25.416800
2091.000000	25.407000
2090.000000	25.400300
2089.000000	25.421600
2088.000000	25.444400
2087.000000	25.432700
2086.000000	25.426500
2085.000000	25.421200
2084.000000	25.394200
2083.000000	25.378700
2082.000000	25.357800
2081.000000	25.316000
2080.000000	25.277700
2079.000000	25.242300
2078.000000	25.184400
2077.000000	25.123600
2076.000000	25.064800
2075.000000	24.999000
2074.000000	24.928600
2073.000000	24.844600
2072.000000	24.754400
2071.000000	24.670700
2070.000000	24.587600
2069.000000	24.492900
2068.000000	24.395700
2067.000000	24.287100
2066.000000	24.183000
2065.000000	24.093300
2064.000000	23.997000
2063.000000	23.915300
2062.000000	23.832400
2061.000000	23.742000
2060.000000	23.656600
2059.000000	23.597300
2058.000000	23.526800
2057.000000	23.475100
2056.000000	23.448000
2055.000000	23.439100
2054.000000	23.424500
2053.000000	23.446900
2052.000000	23.478400
2051.000000	23.516300
2050.000000	23.572200
2049.000000	23.661600
2048.000000	23.756400
2047.000000	23.835900
2046.000000	23.922100
2045.000000	24.021200
2044.000000	24.143900
2043.000000	24.288400
2042.000000	24.384400
2041.000000	24.482200
2040.000000	24.580400
2039.000000	24.707700
2038.000000	24.794300
2037.000000	24.885900
2036.000000	25.000200
2035.000000	25.110000
2034.000000	25.172400
2033.000000	25.243800
2032.000000	25.302200
2031.000000	25.395000
2030.000000	25.461600
2029.000000	25.532100
2028.000000	25.576900
2027.000000	25.630200
2026.000000	25.697900
2025.000000	25.734900
2024.000000	25.781400
2023.000000	25.807800
2022.000000	25.849400
2021.000000	25.886700
2020.000000	25.915900
2019.000000	25.933300
2018.000000	25.948700
2017.000000	25.959800
2016.000000	25.989600
2015.000000	26.004000
2014.000000	26.005500
2013.000000	25.996500
2012.000000	25.969400
2011.000000	25.956300
2010.000000	25.956500
2009.000000	25.906100
2008.000000	25.909300
2007.000000	25.873400
2006.000000	25.826500
2005.000000	25.790500
2004.000000	25.749100
2003.000000	25.699400
2002.000000	25.631300
2001.000000	25.578500
2000.000000	25.527500
1999.000000	25.466000
1998.000000	25.392200
1997.000000	25.326000
1996.000000	25.273000
1995.000000	25.170200
1994.000000	25.090500
1993.000000	25.008600
1992.000000	24.935000
1991.000000	24.852700
1990.000000	24.763700
1989.000000	24.680000
1988.000000	24.597800
1987.000000	24.485100
1986.000000	24.392400
1985.000000	24.304500
1984.000000	24.218500
1983.000000	24.120300
1982.000000	24.035700
1981.000000	23.947900
1980.000000	23.848200
1979.000000	23.738100
1978.000000	23.662000
1977.000000	23.551100
1976.000000	23.481300
1975.000000	23.397300
1974.000000	23.310300
1973.000000	23.203900
1972.000000	23.142400
1971.000000	23.046000
1970.000000	22.969800
1969.000000	22.918700
1968.000000	22.802000
1967.000000	22.714600
1966.000000	22.644700
1965.000000	22.567300
1964.000000	22.484700
1963.000000	22.401500
1962.000000	22.330100
1961.000000	22.228800
1960.000000	22.163300
1959.000000	22.074600
1958.000000	21.994800
1957.000000	21.926900
1956.000000	21.828600
1955.000000	21.765800
1954.000000	21.678600
1953.000000	21.576900
1952.000000	21.488800
1951.000000	21.420000
1950.000000	21.356000
1949.000000	21.275800
1948.000000	21.242500
1947.000000	21.148300
1946.000000	21.097300
1945.000000	21.030000
1944.000000	20.983600
1943.000000	20.955900
1942.000000	20.932800
1941.000000	20.881200
1940.000000	20.858200
1939.000000	20.837800
1938.000000	20.811600
1937.000000	20.813200
1936.000000	20.802500
1935.000000	20.816800
1934.000000	20.824100
1933.000000	20.843500
1932.000000	20.893700
1931.000000	20.942800
1930.000000	20.993600
1929.000000	21.053300
1928.000000	21.128800
1927.000000	21.220600
1926.000000	21.289400
1925.000000	21.399700
1924.000000	21.539400
1923.000000	21.663000
1922.000000	21.786800
1921.000000	21.958300
1920.000000	22.115600
1919.000000	22.278700
1918.000000	22.479900
1917.000000	22.662200
1916.000000	22.843600
1915.000000	23.067800
1914.000000	23.332900
1913.000000	23.622400
1912.000000	23.881200
1911.000000	24.149100
1910.000000	24.411800
1909.000000	24.671300
1908.000000	24.978300
1907.000000	25.330700
1906.000000	25.707900
1905.000000	26.119200
1904.000000	26.507000
1903.000000	26.896600
1902.000000	27.313600
1901.000000	27.745100
1900.000000	28.219600
1899.000000	28.685200
1898.000000	29.163100
1897.000000	29.655000
1896.000000	30.057400
1895.000000	30.479400
1894.000000	30.943600
1893.000000	31.421000
1892.000000	31.934400
1891.000000	32.422500
1890.000000	32.877600
1889.000000	33.307700
1888.000000	33.742200
1887.000000	34.139400
1886.000000	34.533000
1885.000000	34.936600
1884.000000	35.333400
1883.000000	35.663500
1882.000000	35.989100
1881.000000	36.314200
1880.000000	36.593400
1879.000000	36.869600
1878.000000	37.144800
1877.000000	37.383700
1876.000000	37.598100
1875.000000	37.832000
1874.000000	38.064100
1873.000000	38.278100
1872.000000	38.484400
1871.000000	38.656800
1870.000000	38.824500
1869.000000	39.004200
1868.000000	39.127700
1867.000000	39.213300
1866.000000	39.267300
1865.000000	39.353200
1864.000000	39.429800
1863.000000	39.493700
1862.000000	39.570600
1861.000000	39.658900
1860.000000	39.754700
1859.000000	39.816100
1858.000000	39.888900
1857.000000	39.949100
1856.000000	39.967100
1855.000000	40.007300
1854.000000	40.056500
1853.000000	40.051700
1852.000000	40.077900
1851.000000	40.128100
1850.000000	40.152300
1849.000000	40.164700
1848.000000	40.195900
1847.000000	40.198600
1846.000000	40.173500
1845.000000	40.161400
1844.000000	40.125600
1843.000000	40.146600
1842.000000	40.192700
1841.000000	40.193700
1840.000000	40.168900
1839.000000	40.129100
1838.000000	40.109500
1837.000000	40.107300
1836.000000	40.093100
1835.000000	40.063200
1834.000000	40.014200
1833.000000	39.981800
1832.000000	39.954200
1831.000000	39.942400
1830.000000	39.940200
1829.000000	39.919300
1828.000000	39.869300
1827.000000	39.851600
1826.000000	39.850500
1825.000000	39.826000
1824.000000	39.819400
1823.000000	39.843300
1822.000000	39.860200
1821.000000	39.877400
1820.000000	39.879700
1819.000000	39.839800
1818.000000	39.808000
1817.000000	39.808200
1816.000000	39.819800
1815.000000	39.797900
1814.000000	39.793000
1813.000000	39.783400
1812.000000	39.769600
1811.000000	39.748500
1810.000000	39.693500
1809.000000	39.685400
1808.000000	39.695400
1807.000000	39.688200
1806.000000	39.675400
1805.000000	39.636900
1804.000000	39.611100
1803.000000	39.606700
1802.000000	39.610400
1801.000000	39.590100
1800.000000	39.560300
1799.000000	39.534000
1798.000000	39.532000
1797.000000	39.534200
1796.000000	39.520900
1795.000000	39.506600
1794.000000	39.491500
1793.000000	39.482100
1792.000000	39.471000
1791.000000	39.452700
1790.000000	39.447300
1789.000000	39.446400
1788.000000	39.454800
1787.000000	39.461700
1786.000000	39.450200
1785.000000	39.457000
1784.000000	39.444600
1783.000000	39.442700
1782.000000	39.436700
1781.000000	39.416700
1780.000000	39.395000
1779.000000	39.387100
1778.000000	39.364200
1777.000000	39.349000
1776.000000	39.324200
1775.000000	39.294600
1774.000000	39.264700
1773.000000	39.245600
1772.000000	39.219400
1771.000000	39.176200
1770.000000	39.154200
1769.000000	39.136600
1768.000000	39.094000
1767.000000	39.068700
1766.000000	39.052300
1765.000000	39.025100
1764.000000	39.022600
1763.000000	38.994300
1762.000000	38.967200
1761.000000	38.961100
1760.000000	38.956700
1759.000000	38.953100
1758.000000	38.933500
1757.000000	38.933900
1756.000000	38.924200
1755.000000	38.926700
1754.000000	38.925500
1753.000000	38.922900
1752.000000	38.920400
1751.000000	38.892000
1750.000000	38.868800
1749.000000	38.833800
1748.000000	38.810400
1747.000000	38.784900
1746.000000	38.733900
1745.000000	38.699000
1744.000000	38.666600
1743.000000	38.627100
1742.000000	38.587900
1741.000000	38.538800
1740.000000	38.482500
1739.000000	38.447500
1738.000000	38.401300
1737.000000	38.373800
1736.000000	38.344300
1735.000000	38.315000
1734.000000	38.278500
1733.000000	38.252000
1732.000000	38.235400
1731.000000	38.208400
1730.000000	38.198700
1729.000000	38.181000
1728.000000	38.160600
1727.000000	38.140400
1726.000000	38.160600
1725.000000	38.152200
1724.000000	38.188100
1723.000000	38.224000
1722.000000	38.286200
1721.000000	38.394600
1720.000000	38.512600
1719.000000	38.633600
1718.000000	38.761300
1717.000000	38.919500
1716.000000	39.054600
1715.000000	39.220400
1714.000000	39.332400
1713.000000	39.429700
1712.000000	39.547100
1711.000000	39.650700
1710.000000	39.726000
1709.000000	39.801500
1708.000000	39.860600
1707.000000	39.924500
1706.000000	39.970500
1705.000000	39.993600
1704.000000	40.015800
1703.000000	40.028000
1702.000000	40.037300
1701.000000	40.034200
1700.000000	40.053200
1699.000000	40.052200
1698.000000	40.063700
1697.000000	40.039000
1696.000000	40.026800
1695.000000	39.994300
1694.000000	39.969900
1693.000000	39.935400
1692.000000	39.900900
1691.000000	39.876200
1690.000000	39.864000
1689.000000	39.856000
1688.000000	39.884800
1687.000000	39.968400
1686.000000	40.055000
1685.000000	40.152700
1684.000000	40.327200
1683.000000	40.456200
1682.000000	40.623200
1681.000000	40.771000
1680.000000	40.929300
1679.000000	41.044200
1678.000000	41.202900
1677.000000	41.323700
1676.000000	41.456300
1675.000000	41.584600
1674.000000	41.724500
1673.000000	41.815100
1672.000000	41.922600
1671.000000	42.043800
1670.000000	42.176400
1669.000000	42.278100
1668.000000	42.420600
1667.000000	42.550800
1666.000000	42.648800
1665.000000	42.737300
1664.000000	42.822200
1663.000000	42.909000
1662.000000	43.016900
1661.000000	43.075400
1660.000000	43.149200
1659.000000	43.203200
1658.000000	43.250400
1657.000000	43.331100
1656.000000	43.354100
1655.000000	43.371900
1654.000000	43.405400
1653.000000	43.418800
1652.000000	43.444400
1651.000000	43.453900
1650.000000	43.453200
1649.000000	43.445600
1648.000000	43.468200
1647.000000	43.461700
1646.000000	43.439400
1645.000000	43.440200
1644.000000	43.425300
1643.000000	43.408900
1642.000000	43.409900
1641.000000	43.396300
1640.000000	43.389600
1639.000000	43.392600
1638.000000	43.377800
1637.000000	43.374200
1636.000000	43.359000
1635.000000	43.333300
1634.000000	43.307100
1633.000000	43.301800
1632.000000	43.281400
1631.000000	43.240700
1630.000000	43.201600
1629.000000	43.179600
1628.000000	43.145200
1627.000000	43.108900
1626.000000	43.094100
1625.000000	43.061800
1624.000000	43.023700
1623.000000	42.995500
1622.000000	42.977100
1621.000000	42.956000
1620.000000	42.916500
1619.000000	42.904500
1618.000000	42.893500
1617.000000	42.873100
1616.000000	42.848300
1615.000000	42.820400
1614.000000	42.788600
1613.000000	42.754600
1612.000000	42.722100
1611.000000	42.692700
1610.000000	42.650700
1609.000000	42.615800
1608.000000	42.574000
1607.000000	42.528600
1606.000000	42.485600
1605.000000	42.437400
1604.000000	42.381300
1603.000000	42.340900
1602.000000	42.300000
1601.000000	42.237000
1600.000000	42.177200
1599.000000	42.121100
1598.000000	42.086900
1597.000000	42.043000
1596.000000	41.990900
1595.000000	41.952300
1594.000000	41.910700
1593.000000	41.859700
1592.000000	41.811900
1591.000000	41.779400
1590.000000	41.745800
1589.000000	41.718300
1588.000000	41.687600
1587.000000	41.643700
1586.000000	41.618100
1585.000000	41.589700
1584.000000	41.544300
1583.000000	41.511600
1582.000000	41.481100
1581.000000	41.459900
1580.000000	41.437500
1579.000000	41.403100
1578.000000	41.380700
1577.000000	41.367000
1576.000000	41.358900
1575.000000	41.358100
1574.000000	41.351300
1573.000000	41.341500
1572.000000	41.344900
1571.000000	41.345900
1570.000000	41.347100
1569.000000	41.344800
1568.000000	41.350100
1567.000000	41.369700
1566.000000	41.378600
1565.000000	41.369600
1564.000000	41.374900
1563.000000	41.391700
1562.000000	41.380800
1561.000000	41.366600
1560.000000	41.349900
1559.000000	41.333500
1558.000000	41.309700
1557.000000	41.276800
1556.000000	41.227100
1555.000000	41.185200
1554.000000	41.152100
1553.000000	41.099000
1552.000000	41.044200
1551.000000	40.981200
1550.000000	40.923500
1549.000000	40.858800
1548.000000	40.797600
1547.000000	40.740900
1546.000000	40.689500
1545.000000	40.642400
1544.000000	40.598100
1543.000000	40.557200
1542.000000	40.521000
1541.000000	40.482700
1540.000000	40.453600
1539.000000	40.423600
1538.000000	40.391600
1537.000000	40.361300
1536.000000	40.320900
1535.000000	40.290600
1534.000000	40.259800
1533.000000	40.214300
1532.000000	40.177500
1531.000000	40.122400
1530.000000	40.085000
1529.000000	40.039700
1528.000000	39.995200
1527.000000	39.949500
1526.000000	39.895800
1525.000000	39.863300
1524.000000	39.808300
1523.000000	39.756600
1522.000000	39.727500
1521.000000	39.678000
1520.000000	39.610300
1519.000000	39.561200
1518.000000	39.510400
1517.000000	39.456600
1516.000000	39.406600
1515.000000	39.349100
1514.000000	39.296500
1513.000000	39.256200
1512.000000	39.201700
1511.000000	39.150100
1510.000000	39.088300
1509.000000	39.044300
1508.000000	38.994300
1507.000000	38.948400
1506.000000	38.896100
1505.000000	38.842900
1504.000000	38.794200
1503.000000	38.746700
1502.000000	38.701800
1501.000000	38.662100
1500.000000	38.639500
1499.000000	38.610400
1498.000000	38.584900
1497.000000	38.558100
1496.000000	38.558600
1495.000000	38.553500
1494.000000	38.546700
1493.000000	38.546800
1492.000000	38.548500
1491.000000	38.565500
1490.000000	38.585000
1489.000000	38.583400
1488.000000	38.594600
1487.000000	38.601200
1486.000000	38.630900
1485.000000	38.662800
1484.000000	38.673500
1483.000000	38.688000
1482.000000	38.708800
1481.000000	38.736100
1480.000000	38.757000
1479.000000	38.767500
1478.000000	38.792000
1477.000000	38.816600
1476.000000	38.811600
1475.000000	38.864600
1474.000000	38.911500
1473.000000	38.959100
1472.000000	38.989000
1471.000000	39.023000
1470.000000	39.051700
1469.000000	39.092200
1468.000000	39.151000
1467.000000	39.216600
1466.000000	39.259800
1465.000000	39.301000
1464.000000	39.373500
1463.000000	39.405700
1462.000000	39.467500
1461.000000	39.513300
1460.000000	39.581400
1459.000000	39.642100
1458.000000	39.741100
1457.000000	39.796000
1456.000000	39.860900
1455.000000	39.912000
1454.000000	39.974100
1453.000000	40.054200
1452.000000	40.130700
1451.000000	40.195900
1450.000000	40.248500
1449.000000	40.291000
1448.000000	40.363600
1447.000000	40.458000
1446.000000	40.544100
1445.000000	40.597700
1444.000000	40.648200
1443.000000	40.724500
1442.000000	40.785300
1441.000000	40.834500
1440.000000	40.942900
1439.000000	41.024600
1438.000000	41.101400
1437.000000	41.181600
1436.000000	41.281700
1435.000000	41.365000
1434.000000	41.472700
1433.000000	41.596300
1432.000000	41.691200
1431.000000	41.791100
1430.000000	41.919200
1429.000000	42.056200
1428.000000	42.176800
1427.000000	42.298900
1426.000000	42.480700
1425.000000	42.624600
1424.000000	42.799600
1423.000000	42.950100
1422.000000	43.119100
1421.000000	43.315900
1420.000000	43.553500
1419.000000	43.730400
1418.000000	43.920200
1417.000000	44.092700
1416.000000	44.332800
1415.000000	44.645300
1414.000000	44.883200
1413.000000	45.101300
1412.000000	45.300900
1411.000000	45.583800
1410.000000	45.938300
1409.000000	46.240200
1408.000000	46.506700
1407.000000	46.788100
1406.000000	47.069900
1405.000000	47.364400
1404.000000	47.607700
1403.000000	47.911400
1402.000000	48.207700
1401.000000	48.559800
1400.000000	48.840900
1399.000000	49.051300
1398.000000	49.213400
1397.000000	49.508000
1396.000000	49.871800
1395.000000	50.120800
1394.000000	50.255200
1393.000000	50.484000
1392.000000	50.728900
1391.000000	50.977400
1390.000000	51.150200
1389.000000	51.411700
1388.000000	51.673000
1387.000000	51.849100
1386.000000	52.048900
1385.000000	52.295200
1384.000000	52.439400
1383.000000	52.639100
1382.000000	52.778500
1381.000000	52.919400
1380.000000	52.977300
1379.000000	53.082800
1378.000000	53.142800
1377.000000	53.266800
1376.000000	53.338400
1375.000000	53.413100
1374.000000	53.514200
1373.000000	53.640700
1372.000000	53.715500
1371.000000	53.804200
1370.000000	53.873100
1369.000000	53.975800
1368.000000	54.049800
1367.000000	54.110400
1366.000000	54.193700
1365.000000	54.291600
1364.000000	54.345700
1363.000000	54.414600
1362.000000	54.511600
1361.000000	54.565200
1360.000000	54.577700
1359.000000	54.613000
1358.000000	54.660500
1357.000000	54.714900
1356.000000	54.818100
1355.000000	54.909900
1354.000000	54.939900
1353.000000	54.988100
1352.000000	55.115300
1351.000000	55.237300
1350.000000	55.367500
1349.000000	55.467200
1348.000000	55.559000
1347.000000	55.651900
1346.000000	55.759400
1345.000000	55.874200
1344.000000	55.986100
1343.000000	56.083400
1342.000000	56.171100
1341.000000	56.263800
1340.000000	56.358000
1339.000000	56.439300
1338.000000	56.516200
1337.000000	56.596300
1336.000000	56.678200
1335.000000	56.758500
1334.000000	56.805400
1333.000000	56.869900
1332.000000	56.951300
1331.000000	57.013000
1330.000000	57.067900
1329.000000	57.112500
1328.000000	57.160800
1327.000000	57.199300
1326.000000	57.246600
1325.000000	57.294200
1324.000000	57.341400
1323.000000	57.385300
1322.000000	57.429300
1321.000000	57.461600
1320.000000	57.499200
1319.000000	57.538700
1318.000000	57.576200
1317.000000	57.599900
1316.000000	57.632100
1315.000000	57.678700
1314.000000	57.714800
1313.000000	57.740000
1312.000000	57.762000
1311.000000	57.781900
1310.000000	57.785900
1309.000000	57.813700
1308.000000	57.841600
1307.000000	57.864800
1306.000000	57.892000
1305.000000	57.911300
1304.000000	57.925100
1303.000000	57.919100
1302.000000	57.925300
1301.000000	57.942500
1300.000000	57.951700
1299.000000	57.949300
1298.000000	57.949200
1297.000000	57.965400
1296.000000	57.974100
1295.000000	57.967400
1294.000000	57.964600
1293.000000	57.963800
1292.000000	57.956900
1291.000000	57.944600
1290.000000	57.948500
1289.000000	57.954500
1288.000000	57.932100
1287.000000	57.927700
1286.000000	57.932300
1285.000000	57.913500
1284.000000	57.905800
1283.000000	57.900500
1282.000000	57.889000
1281.000000	57.886100
1280.000000	57.881600
1279.000000	57.883200
1278.000000	57.884800
1277.000000	57.876500
1276.000000	57.866600
1275.000000	57.876700
1274.000000	57.889300
1273.000000	57.901500
1272.000000	57.917100
1271.000000	57.914400
1270.000000	57.914800
1269.000000	57.931200
1268.000000	57.942300
1267.000000	57.958100
1266.000000	57.982600
1265.000000	58.000400
1264.000000	57.999100
1263.000000	58.007900
1262.000000	58.018900
1261.000000	58.028800
1260.000000	58.033700
1259.000000	58.037000
1258.000000	58.037300
1257.000000	58.035600
1256.000000	58.045200
1255.000000	58.037900
1254.000000	58.016000
1253.000000	58.018200
1252.000000	58.029000
1251.000000	58.013100
1250.000000	57.993500
1249.000000	57.970000
1248.000000	57.962200
1247.000000	57.942700
1246.000000	57.920200
1245.000000	57.912100
1244.000000	57.867700
1243.000000	57.852300
1242.000000	57.837100
1241.000000	57.822700
1240.000000	57.806100
1239.000000	57.799000
1238.000000	57.799100
1237.000000	57.771300
1236.000000	57.760000
1235.000000	57.764300
1234.000000	57.740200
1233.000000	57.726500
1232.000000	57.721800
1231.000000	57.711200
1230.000000	57.698500
1229.000000	57.691800
1228.000000	57.672400
1227.000000	57.652600
1226.000000	57.644000
1225.000000	57.623000
1224.000000	57.614200
1223.000000	57.607600
1222.000000	57.588300
1221.000000	57.572800
1220.000000	57.551800
1219.000000	57.530500
1218.000000	57.506500
1217.000000	57.494700
1216.000000	57.461000
1215.000000	57.422300
1214.000000	57.395400
1213.000000	57.372800
1212.000000	57.355000
1211.000000	57.327200
1210.000000	57.285700
1209.000000	57.243900
1208.000000	57.215300
1207.000000	57.186300
1206.000000	57.137100
1205.000000	57.114700
1204.000000	57.076600
1203.000000	57.030600
1202.000000	56.978600
1201.000000	56.950800
1200.000000	56.908600
1199.000000	56.872600
1198.000000	56.827900
1197.000000	56.787300
1196.000000	56.742200
1195.000000	56.690700
1194.000000	56.654100
1193.000000	56.620000
1192.000000	56.565800
1191.000000	56.527600
1190.000000	56.483700
1189.000000	56.449400
1188.000000	56.423500
1187.000000	56.439500
1186.000000	56.441500
1185.000000	56.457500
1184.000000	56.461200
1183.000000	56.499100
1182.000000	56.527200
1181.000000	56.552800
1180.000000	56.597200
1179.000000	56.633200
1178.000000	56.674400
1177.000000	56.725600
1176.000000	56.772600
1175.000000	56.799900
1174.000000	56.860800
1173.000000	56.892100
1172.000000	56.938600
1171.000000	56.997200
1170.000000	57.057900
1169.000000	57.144600
1168.000000	57.220800
1167.000000	57.289600
1166.000000	57.363800
1165.000000	57.439200
1164.000000	57.517300
1163.000000	57.623000
1162.000000	57.705100
1161.000000	57.771100
1160.000000	57.854200
1159.000000	57.945600
1158.000000	58.017500
1157.000000	58.084600
1156.000000	58.131400
1155.000000	58.191300
1154.000000	58.253400
1153.000000	58.347300
1152.000000	58.371400
1151.000000	58.414900
1150.000000	58.455300
1149.000000	58.503000
1148.000000	58.550500
1147.000000	58.593400
1146.000000	58.647800
1145.000000	58.674000
1144.000000	58.721600
1143.000000	58.757300
1142.000000	58.807300
1141.000000	58.849800
1140.000000	58.931800
1139.000000	58.998900
1138.000000	59.053300
1137.000000	59.149700
1136.000000	59.213800
1135.000000	59.281000
1134.000000	59.338600
1133.000000	59.361700
1132.000000	59.419700
1131.000000	59.466500
1130.000000	59.536400
1129.000000	59.559900
1128.000000	59.589800
1127.000000	59.613700
1126.000000	59.651800
1125.000000	59.676700
1124.000000	59.702800
1123.000000	59.714400
1122.000000	59.710100
1121.000000	59.696400
1120.000000	59.704200
1119.000000	59.713900
1118.000000	59.699600
1117.000000	59.695200
1116.000000	59.681000
1115.000000	59.687700
1114.000000	59.662900
1113.000000	59.656800
1112.000000	59.637700
1111.000000	59.651900
1110.000000	59.637000
1109.000000	59.630700
1108.000000	59.623900
1107.000000	59.604300
1106.000000	59.604400
1105.000000	59.578000
1104.000000	59.577900
1103.000000	59.564900
1102.000000	59.541800
1101.000000	59.535300
1100.000000	59.528300
1099.000000	59.512500
1098.000000	59.490700
1097.000000	59.472300
1096.000000	59.461300
1095.000000	59.439800
1094.000000	59.430200
1093.000000	59.412900
1092.000000	59.391800
1091.000000	59.358500
1090.000000	59.342100
1089.000000	59.318100
1088.000000	59.294700
1087.000000	59.265600
1086.000000	59.246300
1085.000000	59.224200
1084.000000	59.191900
1083.000000	59.155100
1082.000000	59.129800
1081.000000	59.107100
1080.000000	59.081500
1079.000000	59.069500
1078.000000	59.031300
1077.000000	58.996700
1076.000000	58.967200
1075.000000	58.945700
1074.000000	58.921500
1073.000000	58.893700
1072.000000	58.849900
1071.000000	58.821500
1070.000000	58.797500
1069.000000	58.753300
1068.000000	58.723400
1067.000000	58.701000
1066.000000	58.668200
1065.000000	58.643000
1064.000000	58.599600
1063.000000	58.577000
1062.000000	58.560300
1061.000000	58.530800
1060.000000	58.504200
1059.000000	58.467400
1058.000000	58.441500
1057.000000	58.416200
1056.000000	58.372700
1055.000000	58.330400
1054.000000	58.310600
1053.000000	58.298900
1052.000000	58.265900
1051.000000	58.237200
1050.000000	58.221500
1049.000000	58.202700
1048.000000	58.170000
1047.000000	58.134600
1046.000000	58.112000
1045.000000	58.089800
1044.000000	58.058000
1043.000000	58.030900
1042.000000	58.011900
1041.000000	57.989200
1040.000000	57.959900
1039.000000	57.931600
1038.000000	57.914200
1037.000000	57.895600
1036.000000	57.860000
1035.000000	57.833000
1034.000000	57.806900
1033.000000	57.786800
1032.000000	57.762300
1031.000000	57.723800
1030.000000	57.688300
1029.000000	57.660300
1028.000000	57.643200
1027.000000	57.620500
1026.000000	57.585900
1025.000000	57.553400
1024.000000	57.532500
1023.000000	57.509600
1022.000000	57.490500
1021.000000	57.470500
1020.000000	57.419400
1019.000000	57.392300
1018.000000	57.388000
1017.000000	57.347700
1016.000000	57.311800
1015.000000	57.293600
1014.000000	57.270900
1013.000000	57.247000
1012.000000	57.224400
1011.000000	57.188800
1010.000000	57.160800
1009.000000	57.140400
1008.000000	57.129700
1007.000000	57.118000
1006.000000	57.087100
1005.000000	57.058800
1004.000000	57.013000
1003.000000	56.995500
1002.000000	56.983500
1001.000000	56.944000
1000.000000	56.924300
999.000000	56.895600
998.000000	56.869100
997.000000	56.843300
996.000000	56.808100
995.000000	56.778600
994.000000	56.758500
993.000000	56.729700
992.000000	56.705200
991.000000	56.680800
990.000000	56.644300
989.000000	56.623600
988.000000	56.602200
987.000000	56.571800
986.000000	56.561700
985.000000	56.539500
984.000000	56.526500
983.000000	56.504200
982.000000	56.462400
981.000000	56.466500
980.000000	56.457600
979.000000	56.427200
978.000000	56.402200
977.000000	56.401600
976.000000	56.399400
975.000000	56.380600
974.000000	56.379700
973.000000	56.377000
972.000000	56.372200
971.000000	56.396800
970.000000	56.386300
969.000000	56.387700
968.000000	56.380600
967.000000	56.382900
966.000000	56.403500
965.000000	56.404500
964.000000	56.435000
963.000000	56.453600
962.000000	56.453600
961.000000	56.466900
960.000000	56.466300
959.000000	56.508300
958.000000	56.517800
957.000000	56.533100
956.000000	56.599900
955.000000	56.602400
954.000000	56.616800
953.000000	56.657700
952.000000	56.686000
951.000000	56.691800
950.000000	56.743600
949.000000	56.766800
948.000000	56.803600
947.000000	56.838100
946.000000	56.848900
945.000000	56.861900
944.000000	56.911900
943.000000	56.916500
942.000000	56.917100
941.000000	56.966000
940.000000	56.981700
939.000000	56.993800
938.000000	57.005100
937.000000	57.026300
936.000000	57.047300
935.000000	57.094200
934.000000	57.096200
933.000000	57.094300
932.000000	57.112600
931.000000	57.159200
930.000000	57.158400
929.000000	57.180900
928.000000	57.250800
927.000000	57.256100
926.000000	57.272900
925.000000	57.293300
924.000000	57.317400
923.000000	57.328100
922.000000	57.417100
921.000000	57.430300
920.000000	57.470000
919.000000	57.488100
918.000000	57.532300
917.000000	57.555300
916.000000	57.581500
915.000000	57.618300
914.000000	57.666800
913.000000	57.733500
912.000000	57.785000
911.000000	57.837400
910.000000	57.889500
909.000000	57.947900
908.000000	58.011500
907.000000	58.087800
906.000000	58.147400
905.000000	58.228400
904.000000	58.286200
903.000000	58.335800
902.000000	58.399100
901.000000	58.465000
900.000000	58.503400
899.000000	58.551100
898.000000	58.519200
897.000000	58.546200
896.000000	58.588300
895.000000	58.609600
894.000000	58.648500
893.000000	58.643300
892.000000	58.548200
891.000000	58.552100
890.000000	58.556000
889.000000	58.493000
888.000000	58.375700
887.000000	58.355600
886.000000	58.292200
885.000000	58.202200
884.000000	58.024300
883.000000	57.892700
882.000000	57.662300
881.000000	57.503600
880.000000	57.268900
879.000000	57.155200
878.000000	56.963700
877.000000	56.688900
876.000000	56.472700
875.000000	56.175400
874.000000	55.939300
873.000000	55.609200
872.000000	55.185300
871.000000	54.910500
870.000000	54.446200
869.000000	53.980700
868.000000	53.499200
867.000000	53.143900
866.000000	52.916700
865.000000	52.930800
864.000000	52.984500
863.000000	53.095900
862.000000	53.166900
861.000000	53.255700
860.000000	53.302800
859.000000	53.373300
858.000000	55.260700
857.000000	53.708480
856.000000	53.533747
855.000000	53.825732
854.000000	53.970375
853.000000	54.369391
852.000000	54.065142
851.000000	54.294167
850.000000	54.307985
849.000000	54.606757
848.000000	54.754508
847.000000	54.714769
846.000000	55.035372
845.000000	54.812152
844.000000	55.105854
843.000000	55.418444
842.000000	55.345346
841.000000	55.502418
840.000000	55.687944
839.000000	55.464070
838.000000	55.699963
837.000000	55.737903
836.000000	55.776087
835.000000	55.699963
834.000000	55.902579
833.000000	56.049266
832.000000	55.988596
831.000000	56.073469
830.000000	56.102659
829.000000	55.942317
828.000000	56.036102
827.000000	56.045096
826.000000	56.046813
825.000000	56.045914
824.000000	56.015415
823.000000	55.895628
822.000000	55.907403
821.000000	55.975513
820.000000	55.845915
819.000000	55.745098
818.000000	55.868809
817.000000	55.722367
816.000000	55.793994
815.000000	55.770445
814.000000	55.573963
813.000000	55.663823
812.000000	55.682384
811.000000	55.601272
810.000000	55.469139
809.000000	55.427520
808.000000	55.421306
807.000000	55.360800
806.000000	55.340685
805.000000	55.263744
804.000000	55.232182
803.000000	55.190727
802.000000	55.120572
801.000000	55.108062
800.000000	55.060883
799.000000	54.983369
798.000000	54.902667
797.000000	54.867998
796.000000	54.851318
795.000000	54.817058
794.000000	54.749929
793.000000	54.770207
792.000000	54.698662
791.000000	54.556798
790.000000	54.549766
789.000000	54.464894
788.000000	54.418941
787.000000	54.361705
786.000000	54.212565
785.000000	54.158927
784.000000	54.038404
783.000000	54.017390
782.000000	53.911586
781.000000	53.757049
780.000000	53.654269
779.000000	53.577737
778.000000	53.458768
777.000000	53.365310
776.000000	53.215433
775.000000	53.109792
774.000000	52.983628
773.000000	52.889924
772.000000	52.746998
771.000000	52.588046
770.000000	52.502355
769.000000	52.351988
768.000000	52.224271
767.000000	52.126642
766.000000	52.006774
765.000000	51.909146
764.000000	51.773251
763.000000	51.603997
762.000000	51.532942
761.000000	51.486172
760.000000	51.354448
759.000000	51.265160
758.000000	51.167695
757.000000	51.082904
756.000000	50.983641
755.000000	50.914304
754.000000	50.868597
753.000000	50.769006
752.000000	50.684869
751.000000	50.589040
750.000000	50.509891
749.000000	50.521829
748.000000	50.492802
747.000000	50.386261
746.000000	50.310219
745.000000	50.245216
744.000000	50.211528
743.000000	50.185445
742.000000	50.120523
741.000000	50.092641
740.000000	50.099673
739.000000	50.071545
738.000000	50.028946
737.000000	49.968684
736.000000	49.924204
735.000000	49.879887
734.000000	49.847508
733.000000	49.839576
732.000000	49.799838
731.000000	49.709814
730.000000	49.666560
729.000000	49.673510
728.000000	49.603683
727.000000	49.558303
726.000000	49.515130
725.000000	49.441787
724.000000	49.384305
723.000000	49.292156
722.000000	49.237454
721.000000	49.159532
720.000000	49.070571
719.000000	48.959942
718.000000	48.840809
717.000000	48.715054
716.000000	48.617916
715.000000	48.493306
714.000000	48.341303
713.000000	48.214158
712.000000	48.076955
711.000000	47.959213
710.000000	47.869516
709.000000	47.676631
708.000000	47.550793
707.000000	47.424384
706.000000	47.309012
705.000000	47.204025
704.000000	47.077452
703.000000	46.948426
702.000000	46.796587
701.000000	46.642868
700.000000	46.501986
699.000000	46.371815
698.000000	46.297981
697.000000	46.242871
696.000000	46.128971
695.000000	46.057099
694.000000	45.972308
693.000000	45.893077
692.000000	45.865440
691.000000	45.801990
690.000000	45.758573
689.000000	45.748189
688.000000	45.709922
687.000000	45.695041
686.000000	45.658492
685.000000	45.664215
684.000000	45.621370
683.000000	45.600847
682.000000	45.638214
681.000000	45.640013
680.000000	45.644346
679.000000	45.672392
678.000000	45.650479
677.000000	45.646309
676.000000	45.688745
675.000000	45.653422
674.000000	45.608533
673.000000	45.591771
672.000000	45.567568
671.000000	45.581714
670.000000	45.548026
669.000000	45.475746
668.000000	45.487029
667.000000	45.437561
666.000000	45.317202
665.000000	45.236009
664.000000	45.142878
663.000000	45.030286
662.000000	44.829143
661.000000	44.655555
660.000000	44.456782
659.000000	44.257029
658.000000	44.050898
657.000000	43.791783
656.000000	43.523919
655.000000	43.280502
654.000000	42.970529
653.000000	42.699885
652.000000	42.392855
651.000000	42.085089
650.000000	41.753284
649.000000	41.436524
648.000000	41.145520
647.000000	40.855498
646.000000	40.493685
645.000000	40.196467
644.000000	39.918873
643.000000	39.638580
642.000000	39.407265
641.000000	39.200970
640.000000	39.071372
639.000000	38.960089
638.000000	38.910784
637.000000	38.873663
636.000000	38.886582
635.000000	39.012092
634.000000	39.152156
633.000000	39.389522
632.000000	39.647738
631.000000	39.995814
630.000000	40.371772
629.000000	40.774304
628.000000	41.192209
627.000000	41.649278
626.000000	42.151728
625.000000	42.603238
624.000000	43.092850
623.000000	43.520484
622.000000	43.982951
621.000000	44.433561
620.000000	44.838546
619.000000	45.254815
618.000000	45.609841
617.000000	45.992177
616.000000	46.395527
615.000000	46.703947
614.000000	47.080559
613.000000	47.423566
612.000000	47.824708
611.000000	48.186030
610.000000	48.499193
609.000000	48.848332
608.000000	49.204094
607.000000	49.544075
606.000000	49.842275
605.000000	50.173752
604.000000	50.486424
603.000000	50.792309
602.000000	51.085521
601.000000	51.341856
600.000000	51.556327
599.000000	51.761314
598.000000	51.928197
597.000000	52.101786
596.000000	52.230076
595.000000	52.359593
594.000000	52.497858
593.000000	52.613230
592.000000	52.736777
591.000000	52.863187
590.000000	52.952148
589.000000	52.998100
588.000000	53.089351
587.000000	53.136611
586.000000	53.147404
585.000000	53.194093
584.000000	53.253536
583.000000	53.292129
582.000000	53.334075
581.000000	53.368253
580.000000	53.446421
579.000000	53.515922
578.000000	53.576020
577.000000	53.663018
576.000000	53.758112
575.000000	53.860809
574.000000	53.969966
573.000000	54.017390
572.000000	54.136114
571.000000	54.197929
570.000000	54.267266
569.000000	54.306105
568.000000	54.311992
567.000000	54.297029
566.000000	54.255165
565.000000	54.149524
564.000000	54.057537
563.000000	53.910032
562.000000	53.763181
561.000000	53.603084
560.000000	53.484769
559.000000	53.259914
558.000000	53.089187
557.000000	52.939883
556.000000	52.758772
555.000000	52.587310
554.000000	52.363763
553.000000	52.132530
552.000000	51.887069
551.000000	51.627300
550.000000	51.297294
549.000000	50.937362
548.000000	50.556906
547.000000	50.113982
546.000000	49.587084
545.000000	49.045878
544.000000	48.476462
543.000000	47.847030
542.000000	47.177942
541.000000	46.480645
540.000000	45.742056
539.000000	45.011399
538.000000	44.262589
537.000000	43.500288
536.000000	42.737579
535.000000	41.985417
534.000000	41.241922
533.000000	40.493113
532.000000	39.760166
531.000000	39.048396
530.000000	38.374647
529.000000	37.718396
528.000000	37.060919
527.000000	36.450212
526.000000	35.871148
525.000000	35.291756
524.000000	34.733870
523.000000	34.187675
522.000000	33.657507
521.000000	33.144591
520.000000	32.653507
519.000000	32.175996
518.000000	31.732745
517.000000	31.294726
516.000000	30.860796
515.000000	30.442565
514.000000	30.031447
513.000000	29.639708
512.000000	29.250013
511.000000	28.895069
510.000000	28.534237
509.000000	28.194910
508.000000	27.873980
507.000000	27.570466
506.000000	27.263600
505.000000	26.955261
504.000000	26.679793
503.000000	26.393695
502.000000	26.122887
501.000000	25.865489
500.000000	25.607682
499.000000	25.339736
498.000000	25.056091
497.000000	24.821342
496.000000	24.533773
495.000000	24.240479
494.000000	23.956262
493.000000	23.680467
492.000000	23.385048
491.000000	23.116856
490.000000	22.819066
489.000000	22.528635
488.000000	22.239430
487.000000	21.952923
486.000000	21.665680
485.000000	21.399778
484.000000	21.130933
483.000000	20.845653
482.000000	20.582858
481.000000	20.349009
480.000000	20.108209
479.000000	19.871988
478.000000	19.631761
477.000000	19.408704
476.000000	19.195296
475.000000	18.986875
474.000000	18.799223
473.000000	18.612062
472.000000	18.432177
471.000000	18.239374
470.000000	18.064150
469.000000	17.903235
468.000000	17.740440
467.000000	17.574211
466.000000	17.400377
465.000000	17.237827
464.000000	17.076585
463.000000	16.899563
462.000000	16.717062
461.000000	16.517635
460.000000	16.303655
459.000000	16.097769
458.000000	15.868743
457.000000	15.625654
456.000000	15.381502
455.000000	15.126802
454.000000	14.852969
453.000000	14.584206
452.000000	14.309064
451.000000	14.035967
450.000000	13.772518
449.000000	13.512422
448.000000	13.258131
447.000000	13.022074
446.000000	12.807112
445.000000	12.595911
444.000000	12.412674
443.000000	12.268440
442.000000	12.130992
441.000000	12.006790
440.000000	11.901394
439.000000	11.826824
438.000000	11.774330
437.000000	11.731730
436.000000	11.714478
435.000000	11.704094
434.000000	11.717176
433.000000	11.745140
432.000000	11.761248
431.000000	11.773267
430.000000	11.807364
429.000000	11.856750
428.000000	11.887657
427.000000	11.918238
426.000000	11.943667
425.000000	11.964517
424.000000	12.000003
423.000000	12.018728
422.000000	12.019954
421.000000	12.021753
420.000000	11.995997
419.000000	11.952825
418.000000	11.932710
417.000000	11.908426
416.000000	11.868279
415.000000	11.825270
414.000000	11.749474
413.000000	11.667136
412.000000	11.584961
411.000000	11.487169
410.000000	11.393548
409.000000	11.311046
408.000000	11.207122
407.000000	11.064605
406.000000	10.913584
405.000000	10.784558
404.000000	10.652670
403.000000	10.494617
402.000000	10.334438
401.000000	10.167064
400.000000	9.994048
399.000000	9.822994
398.000000	9.643028
397.000000	9.445727
396.000000	9.246873
395.000000	9.044503
394.000000	8.845731
393.000000	8.630933
392.000000	8.422758
391.000000	8.235024
390.000000	8.008370
389.000000	7.792427
388.000000	7.597661
387.000000	7.385970
386.000000	7.188669
385.000000	7.010829
384.000000	6.802981
383.000000	6.615002
382.000000	6.464144
381.000000	6.304292
380.000000	6.135365
379.000000	5.977884
378.000000	5.853927
377.000000	5.710592
376.000000	5.647715
375.000000	5.385329
374.000000	5.093753
373.000000	5.086394
372.000000	5.064807
371.000000	4.891137
370.000000	4.897433
369.000000	5.018201
368.000000	4.929731
367.000000	4.820737
366.000000	4.767099
365.000000	4.756551
364.000000	4.778301
363.000000	4.749683
362.000000	4.763501
361.000000	4.731940
360.000000	4.669062
359.000000	4.603404
358.000000	4.599234
357.000000	4.547640
356.000000	4.649602
355.000000	4.649111
354.000000	4.530387
353.000000	4.455163
352.000000	4.536193
351.000000	4.533167
350.000000	4.394575
349.000000	4.540281
348.000000	4.564484
347.000000	4.428998
346.000000	4.317797
345.000000	4.494656
344.000000	4.390078
343.000000	4.490649
342.000000	4.579447
341.000000	4.431615
340.000000	4.350667
339.000000	4.435212
338.000000	4.377159
337.000000	4.412154
336.000000	4.376096
335.000000	4.538891
334.000000	4.502505
333.000000	4.632104
332.000000	4.536438
331.000000	4.339546
330.000000	4.396374
329.000000	4.670615
328.000000	4.533822
327.000000	4.587051
326.000000	4.540608
325.000000	4.752463
324.000000	4.887621
323.000000	5.051970
322.000000	5.002584
321.000000	4.891546
320.000000	5.036108
319.000000	4.500952
318.000000	4.731858
317.000000	5.259491
316.000000	4.552301
315.000000	4.470290
314.000000	4.473642
313.000000	4.470290
312.000000	4.465629
311.000000	4.474869
310.000000	4.488687
309.000000	4.495637
308.000000	4.538400
307.000000	4.446414
306.000000	4.476095
305.000000	4.496455
304.000000	4.452219
303.000000	4.441508
302.000000	4.420086
301.000000	4.420413
300.000000	4.410928
299.000000	4.437175
298.000000	4.485662
297.000000	4.419023
296.000000	4.476259
295.000000	4.447395
294.000000	4.503159
293.000000	4.452465
292.000000	4.440936
291.000000	4.520085
290.000000	4.521884
289.000000	4.503895
288.000000	4.429570
287.000000	4.554835
286.000000	4.485989
285.000000	4.441917
284.000000	4.506348
283.000000	4.561050
282.000000	4.540608
281.000000	4.517550
280.000000	4.563584
279.000000	4.586152
278.000000	4.596536
277.000000	4.628343
276.000000	4.580919
275.000000	4.620248
274.000000	4.655979
273.000000	4.586479
272.000000	4.658432
271.000000	4.652463
270.000000	4.693673
269.000000	4.720492
268.000000	4.717467
267.000000	4.688604
266.000000	4.736764
265.000000	4.767835
264.000000	4.774867
263.000000	4.801195
262.000000	4.862928
261.000000	4.847802
260.000000	4.879690
259.000000	4.866117
258.000000	4.870941
257.000000	4.965708
256.000000	4.939134
255.000000	4.945593
254.000000	4.969878
253.000000	4.981815
252.000000	5.005854
251.000000	4.978054
250.000000	5.032428
