PE UV       SUBTECH     SPECTRUM    ASCII       PEDS        4.00        
   -1
CICIMAUCR0003-1.Sample.ASC
24/05/03
10:03:20.00
24/05/03
10:03:20.00
Vinicio Soto Monge
C. kalinini
250,000000
1
Lambda 1050
1050L1511233
PerkinElmer UV WinLab 6.3.2.0749 / 2.02.05 Lambda 900 UV/VIS/NIR, Aug  7 2015 09:38:08

0
0
3350/servo 860,8/2
0
0
UV/VIS
1
1
1
DoubleDePol,CommonBeamDepol,RBeamAtt,SBeamAtt,60mm sphere, WB InGaAs Detector
0
0
0
0
Program
Program
3350/servo 860,8/2
3350/0,2 860,8/0,2
3350/0,2 860,8/0,2
0
15.00
 
 
 
0
 
860,8
319,2
860,8
Front
100
on
S:100 R:100
0
0
0
0
 
0
 
 
 
0
 
 
0
0
0
0
0
 
 
 
 
0
0


0
0
#HDR
-1
-1
#GR
nm
%R
1.0
0.0
2500,000000
-1,000000
2251
8
96,293800
5,389400
#DATA
2500.000000	8.229477
2499.000000	8.125292
2498.000000	7.974747
2497.000000	8.083256
2496.000000	8.057814
2495.000000	8.063847
2494.000000	7.990134
2493.000000	8.026639
2492.000000	7.946992
2491.000000	7.963887
2490.000000	7.915817
2489.000000	7.854975
2488.000000	7.931304
2487.000000	7.859501
2486.000000	7.871367
2485.000000	7.826214
2484.000000	7.788201
2483.000000	7.858495
2482.000000	7.763965
2481.000000	7.821588
2480.000000	7.815353
2479.000000	7.829734
2478.000000	7.838986
2477.000000	7.825711
2476.000000	7.804291
2475.000000	7.850048
2474.000000	7.763060
2473.000000	7.752500
2472.000000	7.795844
2471.000000	7.815253
2470.000000	7.834360
2469.000000	7.810124
2468.000000	7.777038
2467.000000	7.818772
2466.000000	7.884541
2465.000000	7.845724
2464.000000	7.879312
2463.000000	7.931706
2462.000000	7.929996
2461.000000	7.955942
2460.000000	7.987620
2459.000000	8.072395
2458.000000	8.092307
2457.000000	8.130723
2456.000000	8.216705
2455.000000	8.243455
2454.000000	8.309627
2453.000000	8.397620
2452.000000	8.455948
2451.000000	8.533985
2450.000000	8.581452
2449.000000	8.639980
2448.000000	8.708163
2447.000000	8.780871
2446.000000	8.881435
2445.000000	8.968926
2444.000000	9.029164
2443.000000	9.072205
2442.000000	9.139483
2441.000000	9.214605
2440.000000	9.264082
2439.000000	9.344131
2438.000000	9.432427
2437.000000	9.469535
2436.000000	9.532086
2435.000000	9.599263
2434.000000	9.639991
2433.000000	9.706867
2432.000000	9.760870
2431.000000	9.817789
2430.000000	9.850171
2429.000000	9.891503
2428.000000	9.918655
2427.000000	9.969541
2426.000000	10.014895
2425.000000	10.044260
2424.000000	10.083279
2423.000000	10.104598
2422.000000	10.133762
2421.000000	10.170066
2420.000000	10.197821
2419.000000	10.223767
2418.000000	10.245489
2417.000000	10.277167
2416.000000	10.309347
2415.000000	10.326544
2414.000000	10.354903
2413.000000	10.366669
2412.000000	10.391609
2411.000000	10.416147
2410.000000	10.421074
2409.000000	10.449836
2408.000000	10.485335
2407.000000	10.499816
2406.000000	10.533606
2405.000000	10.557842
2404.000000	10.569105
2403.000000	10.594648
2402.000000	10.632661
2401.000000	10.647847
2400.000000	10.659814
2399.000000	10.685458
2398.000000	10.693101
2397.000000	10.711303
2396.000000	10.723773
2395.000000	10.730913
2394.000000	10.747305
2393.000000	10.781195
2392.000000	10.801308
2391.000000	10.810861
2390.000000	10.806638
2389.000000	10.814381
2388.000000	10.826147
2387.000000	10.823734
2386.000000	10.833086
2385.000000	10.832885
2384.000000	10.828460
2383.000000	10.819108
2382.000000	10.792659
2381.000000	10.775060
2380.000000	10.768926
2379.000000	10.748109
2378.000000	10.717638
2377.000000	10.697123
2376.000000	10.668865
2375.000000	10.635377
2374.000000	10.614158
2373.000000	10.568501
2372.000000	10.529181
2371.000000	10.507660
2370.000000	10.452953
2369.000000	10.399553
2368.000000	10.351283
2367.000000	10.286620
2366.000000	10.225678
2365.000000	10.155685
2364.000000	10.084787
2363.000000	10.028572
2362.000000	9.957272
2361.000000	9.884363
2360.000000	9.822918
2359.000000	9.751014
2358.000000	9.695000
2357.000000	9.628829
2356.000000	9.569094
2355.000000	9.546768
2354.000000	9.523639
2353.000000	9.504732
2352.000000	9.497391
2351.000000	9.492061
2350.000000	9.497794
2349.000000	9.522331
2348.000000	9.560445
2347.000000	9.593933
2346.000000	9.621488
2345.000000	9.658093
2344.000000	9.702844
2343.000000	9.750210
2342.000000	9.804716
2341.000000	9.823622
2340.000000	9.834282
2339.000000	9.854897
2338.000000	9.856406
2337.000000	9.856909
2336.000000	9.854093
2335.000000	9.836494
2334.000000	9.806727
2333.000000	9.764591
2332.000000	9.726778
2331.000000	9.675088
2330.000000	9.609621
2329.000000	9.544053
2328.000000	9.467423
2327.000000	9.394112
2326.000000	9.315169
2325.000000	9.222549
2324.000000	9.131840
2323.000000	9.032382
2322.000000	8.935438
2321.000000	8.823711
2320.000000	8.696296
2319.000000	8.594022
2318.000000	8.487424
2317.000000	8.365641
2316.000000	8.257132
2315.000000	8.134142
2314.000000	8.038706
2313.000000	7.939852
2312.000000	7.863021
2311.000000	7.775429
2310.000000	7.728767
2309.000000	7.677077
2308.000000	7.644394
2307.000000	7.625588
2306.000000	7.633734
2305.000000	7.676273
2304.000000	7.681804
2303.000000	7.718811
2302.000000	7.784178
2301.000000	7.857590
2300.000000	7.949003
2299.000000	8.032773
2298.000000	8.093614
2297.000000	8.171954
2296.000000	8.244159
2295.000000	8.333159
2294.000000	8.392492
2293.000000	8.438751
2292.000000	8.504118
2291.000000	8.545450
2290.000000	8.581452
2289.000000	8.594324
2288.000000	8.602671
2287.000000	8.599352
2286.000000	8.595832
2285.000000	8.575820
2284.000000	8.549472
2283.000000	8.510152
2282.000000	8.481189
2281.000000	8.439153
2280.000000	8.417633
2279.000000	8.394503
2278.000000	8.368155
2277.000000	8.352567
2276.000000	8.322499
2275.000000	8.311236
2274.000000	8.312543
2273.000000	8.333661
2272.000000	8.326421
2271.000000	8.348746
2270.000000	8.388972
2269.000000	8.458562
2268.000000	8.531572
2267.000000	8.605386
2266.000000	8.709772
2265.000000	8.842818
2264.000000	8.976770
2263.000000	9.147629
2262.000000	9.337695
2261.000000	9.550087
2260.000000	9.747495
2259.000000	9.987441
2258.000000	10.227890
2257.000000	10.468339
2256.000000	10.707481
2255.000000	10.966535
2254.000000	11.228203
2253.000000	11.448539
2252.000000	11.691905
2251.000000	11.913348
2250.000000	12.130868
2249.000000	12.314800
2248.000000	12.502051
2247.000000	12.676128
2246.000000	12.868407
2245.000000	13.031723
2244.000000	13.156925
2243.000000	13.311794
2242.000000	13.419298
2241.000000	13.547316
2240.000000	13.653110
2239.000000	13.760915
2238.000000	13.844886
2237.000000	13.909448
2236.000000	13.993620
2235.000000	14.077692
2234.000000	14.127371
2233.000000	14.187609
2232.000000	14.236382
2231.000000	14.281234
2230.000000	14.314823
2229.000000	14.312208
2228.000000	14.339260
2227.000000	14.375664
2226.000000	14.375262
2225.000000	14.341271
2224.000000	14.353640
2223.000000	14.351026
2222.000000	14.311906
2221.000000	14.310599
2220.000000	14.294911
2219.000000	14.265345
2218.000000	14.230550
2217.000000	14.230349
2216.000000	14.217175
2215.000000	14.173530
2214.000000	14.138936
2213.000000	14.127874
2212.000000	14.070049
2211.000000	14.051746
2210.000000	14.058283
2209.000000	14.024192
2208.000000	14.008604
2207.000000	13.980145
2206.000000	13.951584
2205.000000	13.950981
2204.000000	13.933684
2203.000000	13.919203
2202.000000	13.914174
2201.000000	13.899090
2200.000000	13.894564
2199.000000	13.873144
2198.000000	13.876765
2197.000000	13.866608
2196.000000	13.863792
2195.000000	13.839154
2194.000000	13.828494
2193.000000	13.829399
2192.000000	13.825075
2191.000000	13.817130
2190.000000	13.806370
2189.000000	13.784044
2188.000000	13.778614
2187.000000	13.766647
2186.000000	13.751663
2185.000000	13.733460
2184.000000	13.721594
2183.000000	13.718979
2182.000000	13.701682
2181.000000	13.692832
2180.000000	13.699771
2179.000000	13.677647
2178.000000	13.678955
2177.000000	13.689816
2176.000000	13.680463
2175.000000	13.687100
2174.000000	13.707917
2173.000000	13.713448
2172.000000	13.714756
2171.000000	13.729136
2170.000000	13.753875
2169.000000	13.775697
2168.000000	13.804962
2167.000000	13.816225
2166.000000	13.851825
2165.000000	13.890341
2164.000000	13.923628
2163.000000	13.956210
2162.000000	13.974513
2161.000000	14.013834
2160.000000	14.056674
2159.000000	14.084631
2158.000000	14.122343
2157.000000	14.183284
2156.000000	14.226728
2155.000000	14.261926
2154.000000	14.321058
2153.000000	14.366110
2152.000000	14.411968
2151.000000	14.459434
2150.000000	14.496442
2149.000000	14.549841
2148.000000	14.614202
2147.000000	14.658954
2146.000000	14.693447
2145.000000	14.721605
2144.000000	14.768971
2143.000000	14.824985
2142.000000	14.857065
2141.000000	14.881301
2140.000000	14.916700
2139.000000	14.961753
2138.000000	14.995844
2137.000000	15.019275
2136.000000	15.035768
2135.000000	15.062820
2134.000000	15.091883
2133.000000	15.108476
2132.000000	15.114912
2131.000000	15.127784
2130.000000	15.158255
2129.000000	15.155540
2128.000000	15.149808
2127.000000	15.152724
2126.000000	15.160568
2125.000000	15.153126
2124.000000	15.141159
2123.000000	15.128086
2122.000000	15.123158
2121.000000	15.110387
2120.000000	15.098319
2119.000000	15.070865
2118.000000	15.052160
2117.000000	15.032952
2116.000000	15.006504
2115.000000	14.984782
2114.000000	14.950892
2113.000000	14.920320
2112.000000	14.899101
2111.000000	14.888642
2110.000000	14.872049
2109.000000	14.829108
2108.000000	14.780636
2107.000000	14.754490
2106.000000	14.733874
2105.000000	14.708331
2104.000000	14.678262
2103.000000	14.643768
2102.000000	14.615711
2101.000000	14.598414
2100.000000	14.583329
2099.000000	14.558389
2098.000000	14.539483
2097.000000	14.505291
2096.000000	14.482363
2095.000000	14.471803
2094.000000	14.464965
2093.000000	14.463959
2092.000000	14.438718
2091.000000	14.426851
2090.000000	14.411968
2089.000000	14.409252
2088.000000	14.402515
2087.000000	14.380994
2086.000000	14.366211
2085.000000	14.355752
2084.000000	14.330812
2083.000000	14.321158
2082.000000	14.310398
2081.000000	14.278117
2080.000000	14.260216
2079.000000	14.235176
2078.000000	14.207319
2077.000000	14.173530
2076.000000	14.144668
2075.000000	14.125460
2074.000000	14.091067
2073.000000	14.046215
2072.000000	14.019868
2071.000000	13.994224
2070.000000	13.959328
2069.000000	13.912264
2068.000000	13.887123
2067.000000	13.844785
2066.000000	13.802850
2065.000000	13.760311
2064.000000	13.722298
2063.000000	13.696453
2062.000000	13.646774
2061.000000	13.631488
2060.000000	13.628874
2059.000000	13.620125
2058.000000	13.623443
2057.000000	13.621231
2056.000000	13.643958
2055.000000	13.672116
2054.000000	13.691022
2053.000000	13.741506
2052.000000	13.809085
2051.000000	13.897581
2050.000000	13.983765
2049.000000	14.094888
2048.000000	14.221700
2047.000000	14.348109
2046.000000	14.482765
2045.000000	14.621544
2044.000000	14.788179
2043.000000	14.956222
2042.000000	15.100632
2041.000000	15.267267
2040.000000	15.414191
2039.000000	15.578513
2038.000000	15.742936
2037.000000	15.865624
2036.000000	16.009331
2035.000000	16.157663
2034.000000	16.274820
2033.000000	16.411688
2032.000000	16.525628
2031.000000	16.643891
2030.000000	16.747372
2029.000000	16.843713
2028.000000	16.953931
2027.000000	17.044338
2026.000000	17.136857
2025.000000	17.232393
2024.000000	17.338690
2023.000000	17.409085
2022.000000	17.484307
2021.000000	17.546858
2020.000000	17.631030
2019.000000	17.694587
2018.000000	17.754322
2017.000000	17.817577
2016.000000	17.867055
2015.000000	17.945093
2014.000000	17.994369
2013.000000	18.027656
2012.000000	18.067882
2011.000000	18.100062
2010.000000	18.141092
2009.000000	18.162513
2008.000000	18.198716
2007.000000	18.190972
2006.000000	18.225265
2005.000000	18.225969
2004.000000	18.242159
2003.000000	18.232606
2002.000000	18.212895
2001.000000	18.200425
2000.000000	18.204146
1999.000000	18.176994
1998.000000	18.174882
1997.000000	18.146121
1996.000000	18.108308
1995.000000	18.056618
1994.000000	17.996581
1993.000000	17.975262
1992.000000	17.917940
1991.000000	17.865747
1990.000000	17.815867
1989.000000	17.765485
1988.000000	17.662909
1987.000000	17.625801
1986.000000	17.562546
1985.000000	17.493056
1984.000000	17.431812
1983.000000	17.347741
1982.000000	17.262161
1981.000000	17.200313
1980.000000	17.125594
1979.000000	17.058317
1978.000000	16.975552
1977.000000	16.885246
1976.000000	16.808012
1975.000000	16.756121
1974.000000	16.666015
1973.000000	16.594816
1972.000000	16.532265
1971.000000	16.460261
1970.000000	16.395598
1969.000000	16.317661
1968.000000	16.249679
1967.000000	16.196079
1966.000000	16.129002
1965.000000	16.059814
1964.000000	15.997665
1963.000000	15.926265
1962.000000	15.841791
1961.000000	15.787687
1960.000000	15.692855
1959.000000	15.645891
1958.000000	15.596414
1957.000000	15.527628
1956.000000	15.452909
1955.000000	15.376279
1954.000000	15.331326
1953.000000	15.266161
1952.000000	15.193352
1951.000000	15.153227
1950.000000	15.091983
1949.000000	15.030438
1948.000000	14.997151
1947.000000	14.959037
1946.000000	14.922935
1945.000000	14.894978
1944.000000	14.872954
1943.000000	14.847914
1942.000000	14.835746
1941.000000	14.832527
1940.000000	14.825890
1939.000000	14.813119
1938.000000	14.840070
1937.000000	14.857669
1936.000000	14.884620
1935.000000	14.916599
1934.000000	14.965876
1933.000000	15.014348
1932.000000	15.090575
1931.000000	15.161071
1930.000000	15.263647
1929.000000	15.353752
1928.000000	15.438729
1927.000000	15.549853
1926.000000	15.661479
1925.000000	15.784268
1924.000000	15.929985
1923.000000	16.053680
1922.000000	16.226650
1921.000000	16.406258
1920.000000	16.590592
1919.000000	16.749685
1918.000000	16.910487
1917.000000	17.096431
1916.000000	17.283380
1915.000000	17.510957
1914.000000	17.740947
1913.000000	17.979988
1912.000000	18.213297
1911.000000	18.419756
1910.000000	18.646126
1909.000000	18.881447
1908.000000	19.136679
1907.000000	19.418158
1906.000000	19.692699
1905.000000	19.989263
1904.000000	20.266317
1903.000000	20.534019
1902.000000	20.825254
1901.000000	21.100498
1900.000000	21.408024
1899.000000	21.694933
1898.000000	21.998436
1897.000000	22.259501
1896.000000	22.516544
1895.000000	22.796515
1894.000000	23.079704
1893.000000	23.370536
1892.000000	23.691939
1891.000000	23.992526
1890.000000	24.281748
1889.000000	24.605364
1888.000000	24.906655
1887.000000	25.235299
1886.000000	25.596124
1885.000000	26.022918
1884.000000	26.465502
1883.000000	26.919047
1882.000000	27.390693
1881.000000	27.848160
1880.000000	28.269424
1879.000000	28.733729
1878.000000	29.165150
1877.000000	29.538143
1876.000000	29.897358
1875.000000	30.233344
1874.000000	30.541171
1873.000000	30.822550
1872.000000	31.073257
1871.000000	31.277000
1870.000000	31.459122
1869.000000	31.627969
1868.000000	31.726019
1867.000000	31.806672
1866.000000	31.850216
1865.000000	31.911862
1864.000000	31.967474
1863.000000	32.008907
1862.000000	32.065022
1861.000000	32.090867
1860.000000	32.101225
1859.000000	32.094688
1858.000000	32.070553
1857.000000	32.039780
1856.000000	31.992213
1855.000000	31.941830
1854.000000	31.883503
1853.000000	31.804862
1852.000000	31.737584
1851.000000	31.695247
1850.000000	31.635512
1849.000000	31.562200
1848.000000	31.477726
1847.000000	31.358960
1846.000000	31.253267
1845.000000	31.193632
1844.000000	31.153809
1843.000000	31.151697
1842.000000	31.126153
1841.000000	31.064910
1840.000000	30.997331
1839.000000	30.923919
1838.000000	30.857144
1837.000000	30.780615
1836.000000	30.706298
1835.000000	30.630170
1834.000000	30.536545
1833.000000	30.443121
1832.000000	30.376950
1831.000000	30.298811
1830.000000	30.193420
1829.000000	30.091448
1828.000000	30.001241
1827.000000	29.913348
1826.000000	29.823846
1825.000000	29.766323
1824.000000	29.742389
1823.000000	29.730522
1822.000000	29.703068
1821.000000	29.661234
1820.000000	29.607029
1819.000000	29.572435
1818.000000	29.557552
1817.000000	29.559865
1816.000000	29.565295
1815.000000	29.542065
1814.000000	29.521851
1813.000000	29.497917
1812.000000	29.463021
1811.000000	29.420282
1810.000000	29.374424
1809.000000	29.332087
1808.000000	29.286430
1807.000000	29.246305
1806.000000	29.179631
1805.000000	29.116678
1804.000000	29.058049
1803.000000	29.001331
1802.000000	28.954769
1801.000000	28.903079
1800.000000	28.832483
1799.000000	28.760781
1798.000000	28.705068
1797.000000	28.666854
1796.000000	28.611946
1795.000000	28.563172
1794.000000	28.500420
1793.000000	28.419868
1792.000000	28.355607
1791.000000	28.294967
1790.000000	28.236640
1789.000000	28.163831
1788.000000	28.094744
1787.000000	28.008560
1786.000000	27.917147
1785.000000	27.839210
1784.000000	27.735528
1783.000000	27.646428
1782.000000	27.554512
1781.000000	27.457770
1780.000000	27.367765
1779.000000	27.244171
1778.000000	27.131338
1777.000000	27.009253
1776.000000	26.864641
1775.000000	26.726064
1774.000000	26.556010
1773.000000	26.393799
1772.000000	26.220226
1771.000000	26.058116
1770.000000	25.915918
1769.000000	25.761954
1768.000000	25.605074
1767.000000	25.471625
1766.000000	25.371966
1765.000000	25.311124
1764.000000	25.263055
1763.000000	25.255311
1762.000000	25.277938
1761.000000	25.339986
1760.000000	25.424662
1759.000000	25.489525
1758.000000	25.567463
1757.000000	25.625589
1756.000000	25.692464
1755.000000	25.710566
1754.000000	25.734802
1753.000000	25.720321
1752.000000	25.689347
1751.000000	25.656965
1750.000000	25.596023
1749.000000	25.517281
1748.000000	25.411387
1747.000000	25.297247
1746.000000	25.133226
1745.000000	24.960155
1744.000000	24.744545
1743.000000	24.525818
1742.000000	24.263546
1741.000000	23.981966
1740.000000	23.703001
1739.000000	23.415488
1738.000000	23.180670
1737.000000	22.962848
1736.000000	22.816125
1735.000000	22.714957
1734.000000	22.647881
1733.000000	22.659546
1732.000000	22.720287
1731.000000	22.804861
1730.000000	22.902811
1729.000000	23.038573
1728.000000	23.146579
1727.000000	23.252473
1726.000000	23.350825
1725.000000	23.413879
1724.000000	23.456116
1723.000000	23.494230
1722.000000	23.533952
1721.000000	23.554769
1720.000000	23.610683
1719.000000	23.639243
1718.000000	23.727237
1717.000000	23.805074
1716.000000	23.873457
1715.000000	23.988604
1714.000000	24.053367
1713.000000	24.146490
1712.000000	24.216281
1711.000000	24.236997
1710.000000	24.275312
1709.000000	24.299046
1708.000000	24.289190
1707.000000	24.284765
1706.000000	24.247557
1705.000000	24.211957
1704.000000	24.154334
1703.000000	24.065334
1702.000000	23.941137
1701.000000	23.792403
1700.000000	23.652317
1699.000000	23.496945
1698.000000	23.372848
1697.000000	23.273893
1696.000000	23.247043
1695.000000	23.277312
1694.000000	23.353138
1693.000000	23.510018
1692.000000	23.667502
1691.000000	23.842785
1690.000000	23.969597
1689.000000	24.075391
1688.000000	24.110890
1687.000000	24.137841
1686.000000	24.155339
1685.000000	24.232874
1684.000000	24.400314
1683.000000	24.684609
1682.000000	25.124578
1681.000000	25.638662
1680.000000	26.232394
1679.000000	26.835176
1678.000000	27.453848
1677.000000	27.948926
1676.000000	28.409912
1675.000000	28.807644
1674.000000	29.169675
1673.000000	29.482833
1672.000000	29.746009
1671.000000	29.970469
1670.000000	30.193621
1669.000000	30.402795
1668.000000	30.531416
1667.000000	30.644752
1666.000000	30.777195
1665.000000	30.878061
1664.000000	30.957205
1663.000000	31.041378
1662.000000	31.122835
1661.000000	31.196649
1660.000000	31.234964
1659.000000	31.276899
1658.000000	31.306365
1657.000000	31.316924
1656.000000	31.340456
1655.000000	31.331103
1654.000000	31.332612
1653.000000	31.304253
1652.000000	31.321751
1651.000000	31.300632
1650.000000	31.258295
1649.000000	31.208314
1648.000000	31.166279
1647.000000	31.111672
1646.000000	31.053144
1645.000000	31.004169
1644.000000	30.945741
1643.000000	30.891638
1642.000000	30.835422
1641.000000	30.763720
1640.000000	30.698554
1639.000000	30.632483
1638.000000	30.555753
1637.000000	30.481034
1636.000000	30.409532
1635.000000	30.336724
1634.000000	30.247825
1633.000000	30.152691
1632.000000	30.063290
1631.000000	29.995208
1630.000000	29.907314
1629.000000	29.815298
1628.000000	29.729215
1627.000000	29.627947
1626.000000	29.538545
1625.000000	29.445724
1624.000000	29.352401
1623.000000	29.262094
1622.000000	29.180737
1621.000000	29.085101
1620.000000	29.002236
1619.000000	28.913136
1618.000000	28.832282
1617.000000	28.749618
1616.000000	28.674899
1615.000000	28.589621
1614.000000	28.506655
1613.000000	28.407599
1612.000000	28.330668
1611.000000	28.253836
1610.000000	28.182134
1609.000000	28.108521
1608.000000	28.029377
1607.000000	27.954054
1606.000000	27.879234
1605.000000	27.817186
1604.000000	27.734623
1603.000000	27.661613
1602.000000	27.582570
1601.000000	27.500811
1600.000000	27.436651
1599.000000	27.373094
1598.000000	27.307225
1597.000000	27.229489
1596.000000	27.169854
1595.000000	27.122689
1594.000000	27.079849
1593.000000	27.025645
1592.000000	26.979788
1591.000000	26.936645
1590.000000	26.891090
1589.000000	26.853579
1588.000000	26.815968
1587.000000	26.780670
1586.000000	26.739338
1585.000000	26.711583
1584.000000	26.689056
1583.000000	26.666228
1582.000000	26.655367
1581.000000	26.642294
1580.000000	26.627913
1579.000000	26.623187
1578.000000	26.629422
1577.000000	26.642495
1576.000000	26.653155
1575.000000	26.663312
1574.000000	26.669446
1573.000000	26.687749
1572.000000	26.702934
1571.000000	26.736724
1570.000000	26.776245
1569.000000	26.804102
1568.000000	26.837288
1567.000000	26.879424
1566.000000	26.922667
1565.000000	26.960580
1564.000000	26.998694
1563.000000	27.032383
1562.000000	27.064764
1561.000000	27.097548
1560.000000	27.125103
1559.000000	27.141797
1558.000000	27.168949
1557.000000	27.199319
1556.000000	27.204448
1555.000000	27.190470
1554.000000	27.205353
1553.000000	27.220538
1552.000000	27.193487
1551.000000	27.173776
1550.000000	27.177597
1549.000000	27.164122
1548.000000	27.148534
1547.000000	27.138176
1546.000000	27.129729
1545.000000	27.133048
1544.000000	27.126511
1543.000000	27.106197
1542.000000	27.111627
1541.000000	27.108812
1540.000000	27.102174
1539.000000	27.111024
1538.000000	27.112231
1537.000000	27.109817
1536.000000	27.113236
1535.000000	27.120678
1534.000000	27.124600
1533.000000	27.102375
1532.000000	27.085983
1531.000000	27.083872
1530.000000	27.068284
1529.000000	27.046160
1528.000000	27.033791
1527.000000	27.029165
1526.000000	27.003822
1525.000000	26.979285
1524.000000	26.961988
1523.000000	26.929304
1522.000000	26.897124
1521.000000	26.876206
1520.000000	26.858608
1519.000000	26.831556
1518.000000	26.800683
1517.000000	26.773229
1516.000000	26.750903
1515.000000	26.724857
1514.000000	26.688553
1513.000000	26.669346
1512.000000	26.634249
1511.000000	26.593922
1510.000000	26.557116
1509.000000	26.532277
1508.000000	26.494665
1507.000000	26.462787
1506.000000	26.436539
1505.000000	26.410493
1504.000000	26.377408
1503.000000	26.343216
1502.000000	26.323002
1501.000000	26.311940
1500.000000	26.291123
1499.000000	26.300375
1498.000000	26.278553
1497.000000	26.272016
1496.000000	26.275536
1495.000000	26.258138
1494.000000	26.272620
1493.000000	26.283983
1492.000000	26.314555
1491.000000	26.319684
1490.000000	26.321594
1489.000000	26.339394
1488.000000	26.370066
1487.000000	26.378815
1486.000000	26.398224
1485.000000	26.403051
1484.000000	26.419343
1483.000000	26.449814
1482.000000	26.503213
1481.000000	26.549473
1480.000000	26.577229
1479.000000	26.612326
1478.000000	26.653557
1477.000000	26.702130
1476.000000	26.767999
1475.000000	26.837791
1474.000000	26.906074
1473.000000	26.954747
1472.000000	27.019108
1471.000000	27.086687
1470.000000	27.129126
1469.000000	27.196403
1468.000000	27.243165
1467.000000	27.327338
1466.000000	27.390693
1465.000000	27.449121
1464.000000	27.526656
1463.000000	27.596347
1462.000000	27.699426
1461.000000	27.784503
1460.000000	27.872094
1459.000000	27.988648
1458.000000	28.087403
1457.000000	28.191889
1456.000000	28.312465
1455.000000	28.412225
1454.000000	28.531293
1453.000000	28.657602
1452.000000	28.806739
1451.000000	28.914946
1450.000000	29.017421
1449.000000	29.156300
1448.000000	29.307247
1447.000000	29.458496
1446.000000	29.603208
1445.000000	29.733338
1444.000000	29.843557
1443.000000	29.989576
1442.000000	30.136098
1441.000000	30.282218
1440.000000	30.438595
1439.000000	30.556758
1438.000000	30.693023
1437.000000	30.830595
1436.000000	30.973899
1435.000000	31.133293
1434.000000	31.270664
1433.000000	31.426036
1432.000000	31.577586
1431.000000	31.722097
1430.000000	31.875156
1429.000000	32.091671
1428.000000	32.272787
1427.000000	32.481860
1426.000000	32.718287
1425.000000	32.955518
1424.000000	33.184905
1423.000000	33.413086
1422.000000	33.644786
1421.000000	33.917516
1420.000000	34.174257
1419.000000	34.394694
1418.000000	34.598135
1417.000000	34.825310
1416.000000	35.081849
1415.000000	35.333059
1414.000000	35.552591
1413.000000	35.755127
1412.000000	36.002918
1411.000000	36.307225
1410.000000	36.660910
1409.000000	37.005644
1408.000000	37.361441
1407.000000	37.728601
1406.000000	38.139708
1405.000000	38.535629
1404.000000	38.949149
1403.000000	39.328377
1402.000000	39.730634
1401.000000	40.160346
1400.000000	40.436596
1399.000000	40.641646
1398.000000	40.862586
1397.000000	41.124556
1396.000000	41.334333
1395.000000	41.446161
1394.000000	41.548334
1393.000000	41.685101
1392.000000	41.856664
1391.000000	42.009924
1390.000000	42.191644
1389.000000	42.481269
1388.000000	42.770994
1387.000000	43.055189
1386.000000	43.426673
1385.000000	43.838987
1384.000000	44.241345
1383.000000	44.634853
1382.000000	44.920355
1381.000000	45.093526
1380.000000	45.180816
1379.000000	45.252317
1378.000000	45.316477
1377.000000	45.433434
1376.000000	45.597353
1375.000000	45.846351
1374.000000	46.170168
1373.000000	46.569508
1372.000000	46.989063
1371.000000	47.383174
1370.000000	47.731227
1369.000000	48.094666
1368.000000	48.401287
1367.000000	48.657223
1366.000000	48.889526
1365.000000	49.112075
1364.000000	49.296510
1363.000000	49.489694
1362.000000	49.622137
1361.000000	49.687403
1360.000000	49.707114
1359.000000	49.817433
1358.000000	49.974213
1357.000000	50.226830
1356.000000	50.658351
1355.000000	51.206628
1354.000000	51.835657
1353.000000	52.483794
1352.000000	53.158480
1351.000000	53.810639
1350.000000	54.392907
1349.000000	54.913930
1348.000000	55.427713
1347.000000	55.876934
1346.000000	56.313785
1345.000000	56.750536
1344.000000	57.129562
1343.000000	57.501147
1342.000000	57.863179
1341.000000	58.212640
1340.000000	58.526199
1339.000000	58.833825
1338.000000	59.131898
1337.000000	59.413779
1336.000000	59.672531
1335.000000	59.931987
1334.000000	60.187923
1333.000000	60.409869
1332.000000	60.618338
1331.000000	60.823691
1330.000000	61.022909
1329.000000	61.196684
1328.000000	61.376191
1327.000000	61.534479
1326.000000	61.679090
1325.000000	61.821691
1324.000000	61.961073
1323.000000	62.093415
1322.000000	62.214696
1321.000000	62.332959
1320.000000	62.443781
1319.000000	62.554603
1318.000000	62.657380
1317.000000	62.747888
1316.000000	62.829948
1315.000000	62.917540
1314.000000	62.987331
1313.000000	63.056721
1312.000000	63.123495
1311.000000	63.187454
1310.000000	63.232105
1309.000000	63.283191
1308.000000	63.333172
1307.000000	63.361330
1306.000000	63.374202
1305.000000	63.387879
1304.000000	63.395119
1303.000000	63.399343
1302.000000	63.393711
1301.000000	63.372492
1300.000000	63.355899
1299.000000	63.342826
1298.000000	63.321707
1297.000000	63.292142
1296.000000	63.275347
1295.000000	63.237133
1294.000000	63.191577
1293.000000	63.150949
1292.000000	63.098254
1291.000000	63.045357
1290.000000	62.974358
1289.000000	62.888175
1288.000000	62.811545
1287.000000	62.729082
1286.000000	62.629926
1285.000000	62.519707
1284.000000	62.411400
1283.000000	62.315662
1282.000000	62.211176
1281.000000	62.101259
1280.000000	61.995265
1279.000000	61.887158
1278.000000	61.791924
1277.000000	61.695080
1276.000000	61.603969
1275.000000	61.521205
1274.000000	61.440150
1273.000000	61.357084
1272.000000	61.287191
1271.000000	61.214182
1270.000000	61.125987
1269.000000	61.058307
1268.000000	60.983990
1267.000000	60.910075
1266.000000	60.834350
1265.000000	60.758927
1264.000000	60.684007
1263.000000	60.622462
1262.000000	60.556994
1261.000000	60.483985
1260.000000	60.421232
1259.000000	60.351240
1258.000000	60.266866
1257.000000	60.187521
1256.000000	60.103550
1255.000000	60.028730
1254.000000	59.932088
1253.000000	59.838563
1252.000000	59.746446
1251.000000	59.630998
1250.000000	59.516053
1249.000000	59.395477
1248.000000	59.277716
1247.000000	59.136222
1246.000000	58.983767
1245.000000	58.825478
1244.000000	58.639334
1243.000000	58.438306
1242.000000	58.254072
1241.000000	58.058274
1240.000000	57.861972
1239.000000	57.648273
1238.000000	57.443423
1237.000000	57.227009
1236.000000	57.009589
1235.000000	56.777286
1234.000000	56.537339
1233.000000	56.318411
1232.000000	56.085202
1231.000000	55.865268
1230.000000	55.614662
1229.000000	55.368481
1228.000000	55.137183
1227.000000	54.906690
1226.000000	54.673481
1225.000000	54.445602
1224.000000	54.212494
1223.000000	53.978783
1222.000000	53.756335
1221.000000	53.556715
1220.000000	53.354580
1219.000000	53.155363
1218.000000	52.973442
1217.000000	52.804293
1216.000000	52.646708
1215.000000	52.485806
1214.000000	52.332244
1213.000000	52.197186
1212.000000	52.055793
1211.000000	51.911684
1210.000000	51.808405
1209.000000	51.719506
1208.000000	51.614416
1207.000000	51.546334
1206.000000	51.510835
1205.000000	51.467693
1204.000000	51.435110
1203.000000	51.405946
1202.000000	51.368034
1201.000000	51.311718
1200.000000	51.252686
1199.000000	51.156044
1198.000000	50.991219
1197.000000	50.789085
1196.000000	50.530534
1195.000000	50.185096
1194.000000	49.769363
1193.000000	49.294800
1192.000000	48.758592
1191.000000	48.223791
1190.000000	47.756670
1189.000000	47.371609
1188.000000	47.101896
1187.000000	46.995499
1186.000000	47.034216
1185.000000	47.222673
1184.000000	47.555642
1183.000000	48.008282
1182.000000	48.545596
1181.000000	49.142848
1180.000000	49.708220
1179.000000	50.251971
1178.000000	50.716679
1177.000000	51.135931
1176.000000	51.485191
1175.000000	51.835557
1174.000000	52.178381
1173.000000	52.567464
1172.000000	52.951418
1171.000000	53.373688
1170.000000	53.760257
1169.000000	54.178302
1168.000000	54.600974
1167.000000	55.011578
1166.000000	55.456273
1165.000000	55.904488
1164.000000	56.345463
1163.000000	56.788750
1162.000000	57.222283
1161.000000	57.636607
1160.000000	58.032127
1159.000000	58.424428
1158.000000	58.805164
1157.000000	59.106354
1156.000000	59.377677
1155.000000	59.543910
1154.000000	59.651413
1153.000000	59.705718
1152.000000	59.719595
1151.000000	59.667000
1150.000000	59.636529
1149.000000	59.597008
1148.000000	59.590069
1147.000000	59.654128
1146.000000	59.831322
1145.000000	60.054374
1144.000000	60.369744
1143.000000	60.721819
1142.000000	61.110500
1141.000000	61.497471
1140.000000	61.904757
1139.000000	62.330445
1138.000000	62.748592
1137.000000	63.192382
1136.000000	63.645323
1135.000000	64.085694
1134.000000	64.451748
1133.000000	64.753341
1132.000000	65.100388
1131.000000	65.395846
1130.000000	65.630362
1129.000000	65.827166
1128.000000	65.988873
1127.000000	66.113875
1126.000000	66.215344
1125.000000	66.276487
1124.000000	66.350402
1123.000000	66.394952
1122.000000	66.453782
1121.000000	66.460117
1120.000000	66.483750
1119.000000	66.482443
1118.000000	66.473593
1117.000000	66.451268
1116.000000	66.422909
1115.000000	66.379968
1114.000000	66.341452
1113.000000	66.300924
1112.000000	66.258888
1111.000000	66.231535
1110.000000	66.191611
1109.000000	66.146759
1108.000000	66.091851
1107.000000	66.052229
1106.000000	66.014718
1105.000000	65.944726
1104.000000	65.913148
1103.000000	65.863470
1102.000000	65.816204
1101.000000	65.753754
1100.000000	65.702567
1099.000000	65.628350
1098.000000	65.559866
1097.000000	65.497416
1096.000000	65.424305
1095.000000	65.351899
1094.000000	65.274364
1093.000000	65.204874
1092.000000	65.121506
1091.000000	65.029993
1090.000000	64.957687
1089.000000	64.861347
1088.000000	64.778582
1087.000000	64.695717
1086.000000	64.606114
1085.000000	64.513092
1084.000000	64.443502
1083.000000	64.351285
1082.000000	64.262386
1081.000000	64.180627
1080.000000	64.104299
1079.000000	64.035613
1078.000000	63.947921
1077.000000	63.874006
1076.000000	63.776560
1075.000000	63.705762
1074.000000	63.629635
1073.000000	63.540234
1072.000000	63.444195
1071.000000	63.358916
1070.000000	63.277660
1069.000000	63.203645
1068.000000	63.124300
1067.000000	63.021825
1066.000000	62.927194
1065.000000	62.838496
1064.000000	62.753218
1063.000000	62.667637
1062.000000	62.569285
1061.000000	62.471135
1060.000000	62.376403
1059.000000	62.280565
1058.000000	62.189354
1057.000000	62.090801
1056.000000	61.986013
1055.000000	61.888767
1054.000000	61.803891
1053.000000	61.715998
1052.000000	61.628808
1051.000000	61.533272
1050.000000	61.440250
1049.000000	61.365129
1048.000000	61.303785
1047.000000	61.238217
1046.000000	61.158771
1045.000000	61.082644
1044.000000	61.022707
1043.000000	60.966593
1042.000000	60.903740
1041.000000	60.838373
1040.000000	60.788191
1039.000000	60.734188
1038.000000	60.681694
1037.000000	60.631713
1036.000000	60.562525
1035.000000	60.502187
1034.000000	60.444764
1033.000000	60.389957
1032.000000	60.338669
1031.000000	60.268777
1030.000000	60.195264
1029.000000	60.130702
1028.000000	60.076900
1027.000000	60.007511
1026.000000	59.934200
1025.000000	59.866620
1024.000000	59.804069
1023.000000	59.742826
1022.000000	59.681884
1021.000000	59.621445
1020.000000	59.569654
1019.000000	59.519171
1018.000000	59.463659
1017.000000	59.414383
1016.000000	59.379286
1015.000000	59.356558
1014.000000	59.321864
1013.000000	59.301248
1012.000000	59.308086
1011.000000	59.300242
1010.000000	59.308790
1009.000000	59.329004
1008.000000	59.333227
1007.000000	59.356257
1006.000000	59.372045
1005.000000	59.374660
1004.000000	59.390449
1003.000000	59.407042
1002.000000	59.423836
1001.000000	59.449379
1000.000000	59.472006
999.000000	59.486286
998.000000	59.507204
997.000000	59.555575
996.000000	59.590571
995.000000	59.629289
994.000000	59.671023
993.000000	59.699080
992.000000	59.746245
991.000000	59.796527
990.000000	59.856463
989.000000	59.914992
988.000000	59.961955
987.000000	60.018271
986.000000	60.088465
985.000000	60.154737
984.000000	60.212964
983.000000	60.277928
982.000000	60.373565
981.000000	60.450899
980.000000	60.517975
979.000000	60.599231
978.000000	60.702410
977.000000	60.787588
976.000000	60.862508
975.000000	60.937529
974.000000	61.016271
973.000000	61.106276
972.000000	61.199600
971.000000	61.262050
970.000000	61.336870
969.000000	61.400628
968.000000	61.487515
967.000000	61.582549
966.000000	61.649525
965.000000	61.739027
964.000000	61.801578
963.000000	61.884744
962.000000	61.996572
961.000000	62.084867
960.000000	62.179297
959.000000	62.274029
958.000000	62.385655
957.000000	62.488633
956.000000	62.560134
955.000000	62.649938
954.000000	62.748592
953.000000	62.824216
952.000000	62.887471
951.000000	62.973152
950.000000	63.047167
949.000000	63.114444
948.000000	63.206863
947.000000	63.265492
946.000000	63.340312
945.000000	63.444698
944.000000	63.556223
943.000000	63.637278
942.000000	63.737541
941.000000	63.856709
940.000000	63.989253
939.000000	64.072520
938.000000	64.182437
937.000000	64.314277
936.000000	64.462609
935.000000	64.565788
934.000000	64.664743
933.000000	64.816495
932.000000	64.947128
931.000000	65.072431
930.000000	65.195019
929.000000	65.308757
928.000000	65.428227
927.000000	65.586415
926.000000	65.692309
925.000000	65.829177
924.000000	65.958302
923.000000	66.079683
922.000000	66.195131
921.000000	66.321942
920.000000	66.479526
919.000000	66.611064
918.000000	66.722993
917.000000	66.847189
916.000000	66.971990
915.000000	67.106243
914.000000	67.249547
913.000000	67.362481
912.000000	67.498947
911.000000	67.633401
910.000000	67.772079
909.000000	67.928255
908.000000	68.085136
907.000000	68.231054
906.000000	68.412975
905.000000	68.581622
904.000000	68.740211
903.000000	68.936613
902.000000	69.118937
901.000000	69.280342
900.000000	69.466185
899.000000	69.655346
898.000000	69.843100
897.000000	70.028038
896.000000	70.222227
895.000000	70.396907
894.000000	70.577923
893.000000	70.755318
892.000000	70.933217
891.000000	71.107796
890.000000	71.268196
889.000000	71.441167
888.000000	71.615948
887.000000	71.787913
886.000000	71.946000
885.000000	72.108914
884.000000	72.268107
883.000000	72.416540
882.000000	72.569196
881.000000	72.736033
880.000000	72.877929
879.000000	73.011981
878.000000	73.110433
877.000000	73.213411
876.000000	73.267012
875.000000	73.275862
874.000000	73.267314
873.000000	73.273750
872.000000	73.349475
871.000000	73.537128
870.000000	73.770336
869.000000	73.992784
868.000000	74.216339
867.000000	74.470163
866.000000	74.688689
865.000000	74.909528
864.000000	75.133183
863.000000	75.369711
862.000000	75.593064
861.000000	75.855134
860.000000	76.086834
859.000000	76.335228
858.000000	76.573767
857.000000	76.426900
856.000000	76.498900
855.000000	76.795500
854.000000	77.518600
853.000000	77.651700
852.000000	77.764300
851.000000	77.778700
850.000000	77.769200
849.000000	78.265600
848.000000	78.585900
847.000000	78.784500
846.000000	79.266000
845.000000	79.229200
844.000000	79.330900
843.000000	79.755700
842.000000	80.420600
841.000000	80.495700
840.000000	80.834700
839.000000	81.336500
838.000000	81.636400
837.000000	81.969400
836.000000	82.053600
835.000000	82.210300
834.000000	82.665400
833.000000	83.222600
832.000000	83.427800
831.000000	83.965400
830.000000	84.275700
829.000000	84.542700
828.000000	84.916400
827.000000	85.132300
826.000000	85.554100
825.000000	85.684700
824.000000	86.319100
823.000000	86.496400
822.000000	87.154600
821.000000	87.375500
820.000000	87.793400
819.000000	88.215400
818.000000	88.462700
817.000000	88.804600
816.000000	89.241700
815.000000	89.567900
814.000000	89.866000
813.000000	90.126800
812.000000	90.628500
811.000000	90.930600
810.000000	91.182700
809.000000	91.526400
808.000000	91.814000
807.000000	91.980400
806.000000	92.359600
805.000000	92.829800
804.000000	93.104800
803.000000	93.362400
802.000000	93.570800
801.000000	93.788400
800.000000	94.009200
799.000000	94.247800
798.000000	94.542100
797.000000	94.746000
796.000000	94.835100
795.000000	94.987900
794.000000	95.265900
793.000000	95.490000
792.000000	95.576600
791.000000	95.693100
790.000000	95.909700
789.000000	95.917100
788.000000	95.945700
787.000000	95.994100
786.000000	96.072100
785.000000	96.145500
784.000000	96.161300
783.000000	96.204000
782.000000	96.263600
781.000000	96.293800
780.000000	96.222700
779.000000	96.231900
778.000000	96.260000
777.000000	96.189300
776.000000	96.090500
775.000000	96.201700
774.000000	96.166300
773.000000	96.050500
772.000000	95.989200
771.000000	95.992400
770.000000	95.969100
769.000000	95.880100
768.000000	95.715100
767.000000	95.701600
766.000000	95.790200
765.000000	95.671900
764.000000	95.606900
763.000000	95.679700
762.000000	95.584600
761.000000	95.486500
760.000000	95.395900
759.000000	95.226400
758.000000	95.244200
757.000000	95.208300
756.000000	95.031400
755.000000	94.969100
754.000000	94.944400
753.000000	94.865200
752.000000	94.812800
751.000000	94.718100
750.000000	94.564400
749.000000	94.363400
748.000000	94.215500
747.000000	94.174600
746.000000	93.947400
745.000000	93.646500
744.000000	93.463400
743.000000	93.249200
742.000000	93.016200
741.000000	92.777100
740.000000	92.550400
739.000000	92.360700
738.000000	92.103900
737.000000	91.768500
736.000000	91.486500
735.000000	91.223900
734.000000	90.903800
733.000000	90.604100
732.000000	90.221500
731.000000	89.863700
730.000000	89.547200
729.000000	89.198500
728.000000	88.792600
727.000000	88.377700
726.000000	88.094800
725.000000	87.755800
724.000000	87.347800
723.000000	86.932800
722.000000	86.539300
721.000000	86.200100
720.000000	85.766300
719.000000	85.383100
718.000000	85.047400
717.000000	84.647600
716.000000	84.268000
715.000000	83.868600
714.000000	83.533800
713.000000	83.189300
712.000000	82.883900
711.000000	82.512700
710.000000	82.127500
709.000000	81.774400
708.000000	81.363500
707.000000	81.023600
706.000000	80.738200
705.000000	80.471800
704.000000	80.037100
703.000000	79.604600
702.000000	79.295600
701.000000	78.939800
700.000000	78.632200
699.000000	78.302400
698.000000	77.908400
697.000000	77.523600
696.000000	77.161100
695.000000	76.846400
694.000000	76.443600
693.000000	76.061000
692.000000	75.682400
691.000000	75.307400
690.000000	74.986500
689.000000	74.582000
688.000000	74.193700
687.000000	73.944700
686.000000	73.568100
685.000000	73.242900
684.000000	72.924600
683.000000	72.592300
682.000000	72.197400
681.000000	71.894200
680.000000	71.594200
679.000000	71.377300
678.000000	71.103700
677.000000	70.881600
676.000000	70.548400
675.000000	70.275400
674.000000	70.078600
673.000000	69.854100
672.000000	69.578600
671.000000	69.316100
670.000000	69.114800
669.000000	68.943400
668.000000	68.688900
667.000000	68.373200
666.000000	68.162700
665.000000	67.866100
664.000000	67.590700
663.000000	67.299900
662.000000	67.021600
661.000000	66.699400
660.000000	66.371200
659.000000	66.043700
658.000000	65.715900
657.000000	65.342000
656.000000	64.958600
655.000000	64.574000
654.000000	64.213800
653.000000	63.817600
652.000000	63.480100
651.000000	63.165400
650.000000	62.802300
649.000000	62.456400
648.000000	62.202100
647.000000	61.904600
646.000000	61.634600
645.000000	61.418600
644.000000	61.213600
643.000000	61.046900
642.000000	60.915700
641.000000	60.713700
640.000000	60.654400
639.000000	60.602300
638.000000	60.588500
637.000000	60.556800
636.000000	60.548700
635.000000	60.594200
634.000000	60.703100
633.000000	60.835800
632.000000	60.944300
631.000000	61.183600
630.000000	61.366200
629.000000	61.689900
628.000000	61.966800
627.000000	62.274300
626.000000	62.578700
625.000000	62.999200
624.000000	63.353100
623.000000	63.755800
622.000000	64.242300
621.000000	64.723700
620.000000	65.143900
619.000000	65.701500
618.000000	66.149800
617.000000	66.662800
616.000000	67.192500
615.000000	67.762800
614.000000	68.323000
613.000000	68.909000
612.000000	69.506300
611.000000	70.119900
610.000000	70.778500
609.000000	71.342100
608.000000	71.924700
607.000000	72.577700
606.000000	73.193600
605.000000	73.693400
604.000000	74.250700
603.000000	74.802500
602.000000	75.307900
601.000000	75.787500
600.000000	76.240300
599.000000	76.632200
598.000000	77.005400
597.000000	77.298100
596.000000	77.630100
595.000000	77.899500
594.000000	78.186500
593.000000	78.428800
592.000000	78.662800
591.000000	78.857200
590.000000	79.109600
589.000000	79.295900
588.000000	79.442200
587.000000	79.619800
586.000000	79.730500
585.000000	79.864800
584.000000	79.947600
583.000000	80.041100
582.000000	80.064600
581.000000	80.126800
580.000000	80.165600
579.000000	80.132500
578.000000	80.125600
577.000000	80.092000
576.000000	80.052300
575.000000	80.019400
574.000000	79.839400
573.000000	79.787500
572.000000	79.678800
571.000000	79.473500
570.000000	79.319300
569.000000	79.171100
568.000000	79.023800
567.000000	78.812500
566.000000	78.580900
565.000000	78.318600
564.000000	78.027900
563.000000	77.692800
562.000000	77.392600
561.000000	77.088500
560.000000	76.703400
559.000000	76.245200
558.000000	75.787100
557.000000	75.408600
556.000000	74.960000
555.000000	74.517800
554.000000	74.017700
553.000000	73.487900
552.000000	72.942200
551.000000	72.367900
550.000000	71.769800
549.000000	71.156000
548.000000	70.495000
547.000000	69.876100
546.000000	69.165200
545.000000	68.438500
544.000000	67.721800
543.000000	66.993400
542.000000	66.200300
541.000000	65.422200
540.000000	64.610500
539.000000	63.822500
538.000000	63.027000
537.000000	62.235700
536.000000	61.374300
535.000000	60.550000
534.000000	59.730500
533.000000	58.890400
532.000000	58.025600
531.000000	57.212300
530.000000	56.376000
529.000000	55.567700
528.000000	54.766500
527.000000	53.957900
526.000000	53.163100
525.000000	52.368100
524.000000	51.601200
523.000000	50.843900
522.000000	50.044800
521.000000	49.273300
520.000000	48.524100
519.000000	47.799800
518.000000	47.096700
517.000000	46.383100
516.000000	45.717600
515.000000	45.051700
514.000000	44.386800
513.000000	43.752400
512.000000	43.139000
511.000000	42.548000
510.000000	41.938100
509.000000	41.380000
508.000000	40.835800
507.000000	40.335000
506.000000	39.886100
505.000000	39.398300
504.000000	38.915000
503.000000	38.507100
502.000000	38.078700
501.000000	37.678900
500.000000	37.297400
499.000000	36.951100
498.000000	36.575400
497.000000	36.212500
496.000000	35.869600
495.000000	35.520300
494.000000	35.196000
493.000000	34.870900
492.000000	34.528500
491.000000	34.176300
490.000000	33.863900
489.000000	33.498700
488.000000	33.165700
487.000000	32.813100
486.000000	32.446600
485.000000	32.087500
484.000000	31.727500
483.000000	31.349900
482.000000	30.974300
481.000000	30.628900
480.000000	30.255900
479.000000	29.876700
478.000000	29.511900
477.000000	29.129900
476.000000	28.765800
475.000000	28.425800
474.000000	28.106100
473.000000	27.815600
472.000000	27.537100
471.000000	27.244300
470.000000	26.967700
469.000000	26.732000
468.000000	26.502700
467.000000	26.282100
466.000000	26.073800
465.000000	25.884800
464.000000	25.727400
463.000000	25.589600
462.000000	25.459200
461.000000	25.344600
460.000000	25.233500
459.000000	25.133800
458.000000	25.055500
457.000000	24.986200
456.000000	24.917600
455.000000	24.886300
454.000000	24.849800
453.000000	24.813900
452.000000	24.788900
451.000000	24.763800
450.000000	24.753100
449.000000	24.757600
448.000000	24.721000
447.000000	24.668300
446.000000	24.619200
445.000000	24.555500
444.000000	24.523200
443.000000	24.472600
442.000000	24.404500
441.000000	24.294700
440.000000	24.156700
439.000000	24.065000
438.000000	23.945500
437.000000	23.797800
436.000000	23.650900
435.000000	23.480800
434.000000	23.302200
433.000000	23.088100
432.000000	22.889500
431.000000	22.687400
430.000000	22.463700
429.000000	22.237500
428.000000	21.975200
427.000000	21.720800
426.000000	21.478000
425.000000	21.187700
424.000000	20.871000
423.000000	20.571100
422.000000	20.278900
421.000000	19.957400
420.000000	19.599100
419.000000	19.281300
418.000000	18.937400
417.000000	18.568000
416.000000	18.238800
415.000000	17.861400
414.000000	17.462200
413.000000	17.071400
412.000000	16.686600
411.000000	16.306500
410.000000	15.919600
409.000000	15.514600
408.000000	15.138800
407.000000	14.754600
406.000000	14.338100
405.000000	13.947500
404.000000	13.580300
403.000000	13.209300
402.000000	12.847700
401.000000	12.458500
400.000000	12.110600
399.000000	11.761700
398.000000	11.406600
397.000000	11.059600
396.000000	10.757700
395.000000	10.444300
394.000000	10.140300
393.000000	9.828700
392.000000	9.541300
391.000000	9.289100
390.000000	9.034500
389.000000	8.806100
388.000000	8.546900
387.000000	8.313200
386.000000	8.107200
385.000000	7.939600
384.000000	7.771900
383.000000	7.583700
382.000000	7.445500
381.000000	7.290500
380.000000	7.148700
379.000000	7.029800
378.000000	6.923300
377.000000	6.831900
376.000000	6.739400
375.000000	6.564600
374.000000	6.567900
373.000000	6.531600
372.000000	6.410000
371.000000	6.346600
370.000000	6.356300
369.000000	6.325800
368.000000	6.244600
367.000000	6.229400
366.000000	6.254400
365.000000	6.178900
364.000000	6.071800
363.000000	6.048000
362.000000	6.027800
361.000000	5.969700
360.000000	6.028200
359.000000	5.860600
358.000000	5.849600
357.000000	5.786000
356.000000	5.890600
355.000000	5.791700
354.000000	5.794100
353.000000	5.754100
352.000000	5.729500
351.000000	5.714300
350.000000	5.811400
349.000000	5.785500
348.000000	5.715900
347.000000	5.730800
346.000000	5.669500
345.000000	5.774100
344.000000	5.680100
343.000000	5.683500
342.000000	5.742500
341.000000	5.714600
340.000000	5.632200
339.000000	5.703600
338.000000	5.728000
337.000000	5.672700
336.000000	5.572100
335.000000	5.727500
334.000000	5.578800
333.000000	5.624800
332.000000	5.590100
331.000000	5.579900
330.000000	5.636000
329.000000	5.573300
328.000000	5.543600
327.000000	5.553700
326.000000	5.577300
325.000000	5.550500
324.000000	5.734700
323.000000	5.389400
322.000000	5.543900
321.000000	5.510800
320.000000	5.651700
319.000000	5.562800
318.000000	5.829600
317.000000	5.802900
316.000000	5.646900
315.000000	5.623700
314.000000	5.659000
313.000000	5.666700
312.000000	5.642100
311.000000	5.652800
310.000000	5.605300
309.000000	5.636900
308.000000	5.664000
307.000000	5.653400
306.000000	5.671600
305.000000	5.646600
304.000000	5.672200
303.000000	5.681500
302.000000	5.670400
301.000000	5.696200
300.000000	5.711900
299.000000	5.709800
298.000000	5.716200
297.000000	5.711500
296.000000	5.668300
295.000000	5.706200
294.000000	5.741200
293.000000	5.743200
292.000000	5.738600
291.000000	5.726100
290.000000	5.722300
289.000000	5.742900
288.000000	5.710200
287.000000	5.782700
286.000000	5.791200
285.000000	5.785000
284.000000	5.794900
283.000000	5.806000
282.000000	5.805400
281.000000	5.812900
280.000000	5.858800
279.000000	5.845300
278.000000	5.865100
277.000000	5.879800
276.000000	5.872500
275.000000	5.868000
274.000000	5.883500
273.000000	5.894500
272.000000	5.925100
271.000000	5.943600
270.000000	5.953300
269.000000	5.961500
268.000000	6.019200
267.000000	5.985300
266.000000	6.040400
265.000000	6.003600
264.000000	6.070300
263.000000	6.124500
262.000000	6.123600
261.000000	6.170200
260.000000	6.191000
259.000000	6.198400
258.000000	6.242600
257.000000	6.265300
256.000000	6.260800
255.000000	6.212600
254.000000	6.278300
253.000000	6.299200
252.000000	6.311900
251.000000	6.328700
250.000000	6.327900
