PE UV       SUBTECH     SPECTRUM    ASCII       PEDS        4.00        
   -1
CICIMAUCR0097-2.Sample.ASC
24/04/18
12:01:15.00
24/04/18
12:01:15.00
Vinicio Soto Monge
C. kalinini
250,000000
1
Lambda 1050
1050L1511233
PerkinElmer UV WinLab 6.3.2.0749 / 2.02.05 Lambda 900 UV/VIS/NIR, Aug  7 2015 09:38:08

0
0
3350/servo 860,8/2
0
0
UV/VIS
1
1
1
DoubleDePol,CommonBeamDepol,RBeamAtt,SBeamAtt,60mm sphere, WB InGaAs Detector
0
0
0
0
Program
Program
3350/servo 860,8/2
3350/0,2 860,8/0,2
3350/0,2 860,8/0,2
0
15.00
 
 
 
0
 
860,8
319,2
860,8
Front
100
on
S:100 R:100
0
0
0
0
 
0
 
 
 
0
 
 
0
0
0
0
0
 
 
 
 
0
0


0
0
#HDR
-1
-1
#GR
nm
%R
1.0
0.0
2500,000000
-1,000000
2251
8
91,681900
5,245000
#DATA
2500.000000	16.973600
2499.000000	16.971700
2498.000000	16.889800
2497.000000	16.998800
2496.000000	16.993200
2495.000000	16.903000
2494.000000	16.847600
2493.000000	16.872900
2492.000000	16.807100
2491.000000	16.880000
2490.000000	16.801100
2489.000000	16.817200
2488.000000	16.832300
2487.000000	16.811700
2486.000000	16.861300
2485.000000	16.867400
2484.000000	16.853800
2483.000000	16.881800
2482.000000	16.850600
2481.000000	16.860300
2480.000000	16.869700
2479.000000	16.861300
2478.000000	16.910100
2477.000000	16.912300
2476.000000	16.916700
2475.000000	16.943000
2474.000000	16.973700
2473.000000	17.018100
2472.000000	17.048500
2471.000000	17.123600
2470.000000	17.091700
2469.000000	17.165100
2468.000000	17.183400
2467.000000	17.236800
2466.000000	17.259800
2465.000000	17.303200
2464.000000	17.352800
2463.000000	17.442800
2462.000000	17.472100
2461.000000	17.531600
2460.000000	17.576800
2459.000000	17.637500
2458.000000	17.691200
2457.000000	17.765900
2456.000000	17.853500
2455.000000	17.959300
2454.000000	18.019900
2453.000000	18.098200
2452.000000	18.179200
2451.000000	18.278400
2450.000000	18.384200
2449.000000	18.488200
2448.000000	18.573500
2447.000000	18.669600
2446.000000	18.763900
2445.000000	18.866700
2444.000000	18.979400
2443.000000	19.069500
2442.000000	19.173600
2441.000000	19.280800
2440.000000	19.352700
2439.000000	19.459400
2438.000000	19.567900
2437.000000	19.669500
2436.000000	19.771000
2435.000000	19.865200
2434.000000	19.942100
2433.000000	20.023600
2432.000000	20.117600
2431.000000	20.203600
2430.000000	20.280000
2429.000000	20.353300
2428.000000	20.454800
2427.000000	20.532600
2426.000000	20.601900
2425.000000	20.690300
2424.000000	20.801600
2423.000000	20.905100
2422.000000	21.016400
2421.000000	21.122400
2420.000000	21.170700
2419.000000	21.230700
2418.000000	21.297100
2417.000000	21.396000
2416.000000	21.472500
2415.000000	21.540800
2414.000000	21.600100
2413.000000	21.677500
2412.000000	21.728300
2411.000000	21.796300
2410.000000	21.839200
2409.000000	21.900100
2408.000000	21.933800
2407.000000	21.978300
2406.000000	22.032300
2405.000000	22.084100
2404.000000	22.133800
2403.000000	22.153600
2402.000000	22.179400
2401.000000	22.232100
2400.000000	22.265000
2399.000000	22.305900
2398.000000	22.324600
2397.000000	22.350600
2396.000000	22.396100
2395.000000	22.419100
2394.000000	22.435600
2393.000000	22.462800
2392.000000	22.474100
2391.000000	22.503200
2390.000000	22.528800
2389.000000	22.538700
2388.000000	22.560800
2387.000000	22.558700
2386.000000	22.567100
2385.000000	22.578100
2384.000000	22.586300
2383.000000	22.584300
2382.000000	22.586000
2381.000000	22.585000
2380.000000	22.555400
2379.000000	22.563800
2378.000000	22.568800
2377.000000	22.566800
2376.000000	22.562100
2375.000000	22.538000
2374.000000	22.515800
2373.000000	22.510100
2372.000000	22.509500
2371.000000	22.486000
2370.000000	22.466600
2369.000000	22.472700
2368.000000	22.489100
2367.000000	22.474500
2366.000000	22.468700
2365.000000	22.477400
2364.000000	22.466700
2363.000000	22.458100
2362.000000	22.468900
2361.000000	22.471100
2360.000000	22.456200
2359.000000	22.439600
2358.000000	22.419400
2357.000000	22.414600
2356.000000	22.402600
2355.000000	22.389300
2354.000000	22.390800
2353.000000	22.382000
2352.000000	22.375400
2351.000000	22.358400
2350.000000	22.361500
2349.000000	22.380200
2348.000000	22.374200
2347.000000	22.361300
2346.000000	22.345900
2345.000000	22.356200
2344.000000	22.395600
2343.000000	22.418500
2342.000000	22.404300
2341.000000	22.388600
2340.000000	22.371100
2339.000000	22.393100
2338.000000	22.421800
2337.000000	22.429000
2336.000000	22.423300
2335.000000	22.429300
2334.000000	22.442700
2333.000000	22.468000
2332.000000	22.505100
2331.000000	22.506100
2330.000000	22.512500
2329.000000	22.538800
2328.000000	22.580700
2327.000000	22.606100
2326.000000	22.607400
2325.000000	22.607500
2324.000000	22.617100
2323.000000	22.636700
2322.000000	22.647400
2321.000000	22.631400
2320.000000	22.606600
2319.000000	22.601000
2318.000000	22.580200
2317.000000	22.548400
2316.000000	22.518700
2315.000000	22.496500
2314.000000	22.475500
2313.000000	22.443900
2312.000000	22.400000
2311.000000	22.363500
2310.000000	22.333800
2309.000000	22.274600
2308.000000	22.254900
2307.000000	22.236200
2306.000000	22.200100
2305.000000	22.181200
2304.000000	22.176200
2303.000000	22.167900
2302.000000	22.147800
2301.000000	22.139000
2300.000000	22.134200
2299.000000	22.158400
2298.000000	22.169100
2297.000000	22.178700
2296.000000	22.209600
2295.000000	22.225000
2294.000000	22.225600
2293.000000	22.266900
2292.000000	22.287100
2291.000000	22.296200
2290.000000	22.318300
2289.000000	22.366900
2288.000000	22.379300
2287.000000	22.441900
2286.000000	22.451300
2285.000000	22.490100
2284.000000	22.526600
2283.000000	22.532100
2282.000000	22.554800
2281.000000	22.571300
2280.000000	22.601100
2279.000000	22.629200
2278.000000	22.634000
2277.000000	22.661200
2276.000000	22.697200
2275.000000	22.707800
2274.000000	22.729300
2273.000000	22.750800
2272.000000	22.791100
2271.000000	22.815900
2270.000000	22.846400
2269.000000	22.892300
2268.000000	22.961200
2267.000000	23.007600
2266.000000	23.080600
2265.000000	23.165700
2264.000000	23.266600
2263.000000	23.374600
2262.000000	23.480500
2261.000000	23.587900
2260.000000	23.734200
2259.000000	23.884900
2258.000000	24.027200
2257.000000	24.162100
2256.000000	24.326600
2255.000000	24.486800
2254.000000	24.676200
2253.000000	24.813500
2252.000000	24.963600
2251.000000	25.103600
2250.000000	25.261000
2249.000000	25.420200
2248.000000	25.545800
2247.000000	25.649100
2246.000000	25.771600
2245.000000	25.864800
2244.000000	25.961000
2243.000000	26.046000
2242.000000	26.122100
2241.000000	26.177800
2240.000000	26.258400
2239.000000	26.293700
2238.000000	26.328800
2237.000000	26.342200
2236.000000	26.337700
2235.000000	26.407500
2234.000000	26.385900
2233.000000	26.364700
2232.000000	26.362800
2231.000000	26.319000
2230.000000	26.298600
2229.000000	26.273500
2228.000000	26.239300
2227.000000	26.186800
2226.000000	26.140700
2225.000000	26.062400
2224.000000	25.994800
2223.000000	25.948600
2222.000000	25.890500
2221.000000	25.810100
2220.000000	25.725600
2219.000000	25.659800
2218.000000	25.567700
2217.000000	25.501000
2216.000000	25.438500
2215.000000	25.371900
2214.000000	25.277500
2213.000000	25.203800
2212.000000	25.118900
2211.000000	25.070800
2210.000000	25.016700
2209.000000	24.950900
2208.000000	24.901500
2207.000000	24.866200
2206.000000	24.816600
2205.000000	24.784100
2204.000000	24.748100
2203.000000	24.712400
2202.000000	24.665500
2201.000000	24.629000
2200.000000	24.610700
2199.000000	24.556700
2198.000000	24.542400
2197.000000	24.533100
2196.000000	24.497000
2195.000000	24.483200
2194.000000	24.471000
2193.000000	24.437100
2192.000000	24.409500
2191.000000	24.399600
2190.000000	24.381500
2189.000000	24.369900
2188.000000	24.344900
2187.000000	24.337200
2186.000000	24.331500
2185.000000	24.329700
2184.000000	24.310900
2183.000000	24.290900
2182.000000	24.286800
2181.000000	24.276900
2180.000000	24.263800
2179.000000	24.239500
2178.000000	24.230800
2177.000000	24.215300
2176.000000	24.226600
2175.000000	24.223500
2174.000000	24.239800
2173.000000	24.244100
2172.000000	24.241300
2171.000000	24.260500
2170.000000	24.284700
2169.000000	24.321700
2168.000000	24.361200
2167.000000	24.390500
2166.000000	24.439600
2165.000000	24.463300
2164.000000	24.493900
2163.000000	24.569000
2162.000000	24.638900
2161.000000	24.683800
2160.000000	24.759900
2159.000000	24.838100
2158.000000	24.917600
2157.000000	25.005200
2156.000000	25.086400
2155.000000	25.196400
2154.000000	25.293400
2153.000000	25.392500
2152.000000	25.494300
2151.000000	25.596000
2150.000000	25.695200
2149.000000	25.794700
2148.000000	25.888900
2147.000000	25.978800
2146.000000	26.094100
2145.000000	26.212700
2144.000000	26.306300
2143.000000	26.391800
2142.000000	26.486100
2141.000000	26.586700
2140.000000	26.681200
2139.000000	26.773700
2138.000000	26.878300
2137.000000	26.978100
2136.000000	27.064800
2135.000000	27.141200
2134.000000	27.201300
2133.000000	27.279500
2132.000000	27.359600
2131.000000	27.432400
2130.000000	27.490100
2129.000000	27.549600
2128.000000	27.618200
2127.000000	27.687400
2126.000000	27.719000
2125.000000	27.773900
2124.000000	27.826500
2123.000000	27.857900
2122.000000	27.899800
2121.000000	27.943100
2120.000000	27.976700
2119.000000	28.004500
2118.000000	28.037100
2117.000000	28.063900
2116.000000	28.078000
2115.000000	28.095800
2114.000000	28.113000
2113.000000	28.136900
2112.000000	28.154200
2111.000000	28.162000
2110.000000	28.163000
2109.000000	28.178800
2108.000000	28.189300
2107.000000	28.199700
2106.000000	28.203200
2105.000000	28.197000
2104.000000	28.198200
2103.000000	28.205300
2102.000000	28.227200
2101.000000	28.237700
2100.000000	28.235900
2099.000000	28.228100
2098.000000	28.236900
2097.000000	28.265500
2096.000000	28.272200
2095.000000	28.282900
2094.000000	28.297200
2093.000000	28.315900
2092.000000	28.332700
2091.000000	28.343700
2090.000000	28.344900
2089.000000	28.353800
2088.000000	28.374200
2087.000000	28.380100
2086.000000	28.370400
2085.000000	28.368300
2084.000000	28.361100
2083.000000	28.346200
2082.000000	28.335500
2081.000000	28.307300
2080.000000	28.249400
2079.000000	28.198400
2078.000000	28.147400
2077.000000	28.089900
2076.000000	28.032700
2075.000000	27.958900
2074.000000	27.881300
2073.000000	27.808100
2072.000000	27.730000
2071.000000	27.622900
2070.000000	27.513100
2069.000000	27.428500
2068.000000	27.328500
2067.000000	27.223800
2066.000000	27.115500
2065.000000	27.010600
2064.000000	26.900200
2063.000000	26.784000
2062.000000	26.688400
2061.000000	26.610600
2060.000000	26.527100
2059.000000	26.456700
2058.000000	26.405400
2057.000000	26.362200
2056.000000	26.318700
2055.000000	26.302900
2054.000000	26.300800
2053.000000	26.302100
2052.000000	26.320600
2051.000000	26.385200
2050.000000	26.487000
2049.000000	26.547200
2048.000000	26.639100
2047.000000	26.755900
2046.000000	26.867900
2045.000000	27.012400
2044.000000	27.161500
2043.000000	27.294400
2042.000000	27.406200
2041.000000	27.552200
2040.000000	27.703400
2039.000000	27.826500
2038.000000	27.954600
2037.000000	28.085000
2036.000000	28.194500
2035.000000	28.320400
2034.000000	28.421600
2033.000000	28.532700
2032.000000	28.646700
2031.000000	28.731600
2030.000000	28.830900
2029.000000	28.908800
2028.000000	28.971300
2027.000000	29.058800
2026.000000	29.132200
2025.000000	29.188900
2024.000000	29.233100
2023.000000	29.293700
2022.000000	29.349800
2021.000000	29.387300
2020.000000	29.449400
2019.000000	29.488000
2018.000000	29.531700
2017.000000	29.574000
2016.000000	29.586000
2015.000000	29.624500
2014.000000	29.649000
2013.000000	29.650900
2012.000000	29.656800
2011.000000	29.666900
2010.000000	29.684900
2009.000000	29.668000
2008.000000	29.658600
2007.000000	29.655900
2006.000000	29.640500
2005.000000	29.622500
2004.000000	29.580100
2003.000000	29.564000
2002.000000	29.516100
2001.000000	29.477800
2000.000000	29.439400
1999.000000	29.380400
1998.000000	29.324100
1997.000000	29.263200
1996.000000	29.207800
1995.000000	29.167400
1994.000000	29.101800
1993.000000	29.032000
1992.000000	28.980300
1991.000000	28.901900
1990.000000	28.842200
1989.000000	28.772100
1988.000000	28.697200
1987.000000	28.618700
1986.000000	28.533800
1985.000000	28.474700
1984.000000	28.398500
1983.000000	28.325100
1982.000000	28.245500
1981.000000	28.155800
1980.000000	28.081900
1979.000000	28.007600
1978.000000	27.929600
1977.000000	27.854400
1976.000000	27.773100
1975.000000	27.705900
1974.000000	27.612200
1973.000000	27.549800
1972.000000	27.476300
1971.000000	27.403600
1970.000000	27.330200
1969.000000	27.268300
1968.000000	27.180100
1967.000000	27.130400
1966.000000	27.047100
1965.000000	26.985300
1964.000000	26.909100
1963.000000	26.816600
1962.000000	26.766300
1961.000000	26.680300
1960.000000	26.598400
1959.000000	26.516500
1958.000000	26.452200
1957.000000	26.358100
1956.000000	26.283400
1955.000000	26.198200
1954.000000	26.135200
1953.000000	26.069400
1952.000000	25.973000
1951.000000	25.918700
1950.000000	25.821300
1949.000000	25.758700
1948.000000	25.703300
1947.000000	25.639300
1946.000000	25.592900
1945.000000	25.528200
1944.000000	25.482000
1943.000000	25.453400
1942.000000	25.412800
1941.000000	25.381500
1940.000000	25.369100
1939.000000	25.356200
1938.000000	25.364900
1937.000000	25.357400
1936.000000	25.363600
1935.000000	25.392500
1934.000000	25.411200
1933.000000	25.441500
1932.000000	25.511000
1931.000000	25.577100
1930.000000	25.624800
1929.000000	25.692100
1928.000000	25.830400
1927.000000	25.947700
1926.000000	26.061600
1925.000000	26.184300
1924.000000	26.291900
1923.000000	26.401400
1922.000000	26.579100
1921.000000	26.812700
1920.000000	27.051600
1919.000000	27.228300
1918.000000	27.442700
1917.000000	27.617800
1916.000000	27.789800
1915.000000	28.009700
1914.000000	28.318800
1913.000000	28.651500
1912.000000	28.993900
1911.000000	29.272100
1910.000000	29.543800
1909.000000	29.740400
1908.000000	30.017900
1907.000000	30.377900
1906.000000	30.799300
1905.000000	31.286100
1904.000000	31.692900
1903.000000	32.064100
1902.000000	32.439400
1901.000000	32.826200
1900.000000	33.304500
1899.000000	33.847200
1898.000000	34.346000
1897.000000	34.750500
1896.000000	35.080200
1895.000000	35.398600
1894.000000	35.794200
1893.000000	36.233100
1892.000000	36.729500
1891.000000	37.225800
1890.000000	37.680300
1889.000000	38.054800
1888.000000	38.437800
1887.000000	38.756200
1886.000000	39.100900
1885.000000	39.486500
1884.000000	39.858900
1883.000000	40.177500
1882.000000	40.486000
1881.000000	40.739500
1880.000000	40.934200
1879.000000	41.136300
1878.000000	41.364000
1877.000000	41.557900
1876.000000	41.753400
1875.000000	41.945800
1874.000000	42.123200
1873.000000	42.358900
1872.000000	42.563500
1871.000000	42.745400
1870.000000	42.922100
1869.000000	43.080600
1868.000000	43.167100
1867.000000	43.221800
1866.000000	43.210200
1865.000000	43.226000
1864.000000	43.229100
1863.000000	43.232200
1862.000000	43.277700
1861.000000	43.351600
1860.000000	43.435800
1859.000000	43.519800
1858.000000	43.573700
1857.000000	43.582200
1856.000000	43.568300
1855.000000	43.605000
1854.000000	43.661900
1853.000000	43.655700
1852.000000	43.652800
1851.000000	43.635400
1850.000000	43.606300
1849.000000	43.646000
1848.000000	43.745600
1847.000000	43.842800
1846.000000	43.814400
1845.000000	43.683300
1844.000000	43.557000
1843.000000	43.521400
1842.000000	43.590300
1841.000000	43.662400
1840.000000	43.661800
1839.000000	43.608600
1838.000000	43.559100
1837.000000	43.581700
1836.000000	43.608800
1835.000000	43.578200
1834.000000	43.481000
1833.000000	43.381400
1832.000000	43.318300
1831.000000	43.306100
1830.000000	43.334500
1829.000000	43.333600
1828.000000	43.280300
1827.000000	43.257900
1826.000000	43.273300
1825.000000	43.244000
1824.000000	43.191200
1823.000000	43.135200
1822.000000	43.168000
1821.000000	43.273700
1820.000000	43.344000
1819.000000	43.317500
1818.000000	43.244600
1817.000000	43.208100
1816.000000	43.232400
1815.000000	43.241800
1814.000000	43.229200
1813.000000	43.211500
1812.000000	43.210300
1811.000000	43.222700
1810.000000	43.184400
1809.000000	43.163200
1808.000000	43.166300
1807.000000	43.163700
1806.000000	43.159300
1805.000000	43.146200
1804.000000	43.123500
1803.000000	43.105300
1802.000000	43.120400
1801.000000	43.129100
1800.000000	43.101800
1799.000000	43.087000
1798.000000	43.081800
1797.000000	43.077500
1796.000000	43.075200
1795.000000	43.065900
1794.000000	43.075900
1793.000000	43.069200
1792.000000	43.050600
1791.000000	43.058100
1790.000000	43.061200
1789.000000	43.063200
1788.000000	43.080700
1787.000000	43.108700
1786.000000	43.117800
1785.000000	43.125200
1784.000000	43.134100
1783.000000	43.147900
1782.000000	43.141400
1781.000000	43.136300
1780.000000	43.129200
1779.000000	43.118400
1778.000000	43.101800
1777.000000	43.086000
1776.000000	43.049400
1775.000000	43.027600
1774.000000	43.016300
1773.000000	42.982900
1772.000000	42.960800
1771.000000	42.929600
1770.000000	42.892900
1769.000000	42.876600
1768.000000	42.861800
1767.000000	42.827800
1766.000000	42.804500
1765.000000	42.792900
1764.000000	42.791500
1763.000000	42.785400
1762.000000	42.763000
1761.000000	42.773000
1760.000000	42.784300
1759.000000	42.776000
1758.000000	42.770400
1757.000000	42.783900
1756.000000	42.770600
1755.000000	42.765500
1754.000000	42.771100
1753.000000	42.758900
1752.000000	42.742300
1751.000000	42.745900
1750.000000	42.704900
1749.000000	42.688900
1748.000000	42.667500
1747.000000	42.609700
1746.000000	42.577000
1745.000000	42.526400
1744.000000	42.473700
1743.000000	42.421300
1742.000000	42.350300
1741.000000	42.282700
1740.000000	42.212300
1739.000000	42.158200
1738.000000	42.104700
1737.000000	42.052100
1736.000000	42.011900
1735.000000	41.986700
1734.000000	41.951900
1733.000000	41.899000
1732.000000	41.878700
1731.000000	41.874000
1730.000000	41.833000
1729.000000	41.811900
1728.000000	41.792600
1727.000000	41.760600
1726.000000	41.756200
1725.000000	41.740800
1724.000000	41.745200
1723.000000	41.756900
1722.000000	41.818500
1721.000000	41.915500
1720.000000	42.032400
1719.000000	42.162500
1718.000000	42.299900
1717.000000	42.475700
1716.000000	42.621800
1715.000000	42.793200
1714.000000	42.913200
1713.000000	43.059700
1712.000000	43.187600
1711.000000	43.285400
1710.000000	43.373300
1709.000000	43.449300
1708.000000	43.524700
1707.000000	43.589100
1706.000000	43.633500
1705.000000	43.669400
1704.000000	43.674500
1703.000000	43.709600
1702.000000	43.736400
1701.000000	43.710800
1700.000000	43.735100
1699.000000	43.714200
1698.000000	43.732500
1697.000000	43.725300
1696.000000	43.699400
1695.000000	43.695300
1694.000000	43.669200
1693.000000	43.650700
1692.000000	43.586800
1691.000000	43.573300
1690.000000	43.575300
1689.000000	43.589500
1688.000000	43.605200
1687.000000	43.683800
1686.000000	43.805300
1685.000000	43.938500
1684.000000	44.143400
1683.000000	44.302700
1682.000000	44.505400
1681.000000	44.698900
1680.000000	44.902600
1679.000000	45.082400
1678.000000	45.259100
1677.000000	45.457600
1676.000000	45.608400
1675.000000	45.740100
1674.000000	45.904500
1673.000000	46.047000
1672.000000	46.189700
1671.000000	46.345200
1670.000000	46.477400
1669.000000	46.631800
1668.000000	46.747300
1667.000000	46.918900
1666.000000	47.020100
1665.000000	47.125800
1664.000000	47.234100
1663.000000	47.323800
1662.000000	47.393700
1661.000000	47.462100
1660.000000	47.554800
1659.000000	47.620800
1658.000000	47.674000
1657.000000	47.723300
1656.000000	47.772400
1655.000000	47.822300
1654.000000	47.838400
1653.000000	47.873700
1652.000000	47.891500
1651.000000	47.916200
1650.000000	47.933400
1649.000000	47.927500
1648.000000	47.953500
1647.000000	47.950000
1646.000000	47.933000
1645.000000	47.942000
1644.000000	47.932500
1643.000000	47.923900
1642.000000	47.926400
1641.000000	47.919500
1640.000000	47.919000
1639.000000	47.911800
1638.000000	47.928900
1637.000000	47.897700
1636.000000	47.901000
1635.000000	47.886900
1634.000000	47.862300
1633.000000	47.849600
1632.000000	47.827200
1631.000000	47.798800
1630.000000	47.770300
1629.000000	47.752100
1628.000000	47.737800
1627.000000	47.692200
1626.000000	47.654600
1625.000000	47.629100
1624.000000	47.599000
1623.000000	47.581100
1622.000000	47.560600
1621.000000	47.529900
1620.000000	47.502700
1619.000000	47.499500
1618.000000	47.484700
1617.000000	47.463000
1616.000000	47.463800
1615.000000	47.435200
1614.000000	47.397500
1613.000000	47.374600
1612.000000	47.350500
1611.000000	47.307200
1610.000000	47.277000
1609.000000	47.245000
1608.000000	47.194500
1607.000000	47.141800
1606.000000	47.090000
1605.000000	47.055000
1604.000000	47.014300
1603.000000	46.949300
1602.000000	46.891100
1601.000000	46.833500
1600.000000	46.775400
1599.000000	46.728900
1598.000000	46.682600
1597.000000	46.633600
1596.000000	46.585500
1595.000000	46.552200
1594.000000	46.507900
1593.000000	46.471300
1592.000000	46.437500
1591.000000	46.402800
1590.000000	46.366100
1589.000000	46.337400
1588.000000	46.313900
1587.000000	46.297000
1586.000000	46.260200
1585.000000	46.223400
1584.000000	46.194000
1583.000000	46.166100
1582.000000	46.145500
1581.000000	46.134500
1580.000000	46.110800
1579.000000	46.090900
1578.000000	46.092300
1577.000000	46.093800
1576.000000	46.096800
1575.000000	46.111500
1574.000000	46.115200
1573.000000	46.104200
1572.000000	46.112800
1571.000000	46.146500
1570.000000	46.170600
1569.000000	46.205300
1568.000000	46.243400
1567.000000	46.275400
1566.000000	46.303400
1565.000000	46.329800
1564.000000	46.352500
1563.000000	46.367300
1562.000000	46.385600
1561.000000	46.406300
1560.000000	46.417700
1559.000000	46.431400
1558.000000	46.432300
1557.000000	46.419200
1556.000000	46.401800
1555.000000	46.382900
1554.000000	46.356900
1553.000000	46.332100
1552.000000	46.304100
1551.000000	46.268200
1550.000000	46.230100
1549.000000	46.187400
1548.000000	46.149100
1547.000000	46.109700
1546.000000	46.066700
1545.000000	46.024600
1544.000000	45.997000
1543.000000	45.983200
1542.000000	45.963900
1541.000000	45.947400
1540.000000	45.946400
1539.000000	45.939500
1538.000000	45.915100
1537.000000	45.893800
1536.000000	45.880900
1535.000000	45.857800
1534.000000	45.833300
1533.000000	45.824800
1532.000000	45.799100
1531.000000	45.760100
1530.000000	45.722100
1529.000000	45.692400
1528.000000	45.654100
1527.000000	45.603000
1526.000000	45.575000
1525.000000	45.545300
1524.000000	45.501200
1523.000000	45.440700
1522.000000	45.394200
1521.000000	45.354100
1520.000000	45.314600
1519.000000	45.263800
1518.000000	45.204500
1517.000000	45.159400
1516.000000	45.105500
1515.000000	45.060000
1514.000000	45.008000
1513.000000	44.954900
1512.000000	44.906400
1511.000000	44.837200
1510.000000	44.767800
1509.000000	44.721700
1508.000000	44.678500
1507.000000	44.620600
1506.000000	44.562500
1505.000000	44.509500
1504.000000	44.470200
1503.000000	44.428000
1502.000000	44.368500
1501.000000	44.332200
1500.000000	44.294100
1499.000000	44.262700
1498.000000	44.226000
1497.000000	44.219000
1496.000000	44.203300
1495.000000	44.191300
1494.000000	44.196000
1493.000000	44.195600
1492.000000	44.209700
1491.000000	44.212400
1490.000000	44.218900
1489.000000	44.246900
1488.000000	44.269100
1487.000000	44.287700
1486.000000	44.304900
1485.000000	44.331100
1484.000000	44.361400
1483.000000	44.381100
1482.000000	44.412900
1481.000000	44.446200
1480.000000	44.467300
1479.000000	44.491700
1478.000000	44.516800
1477.000000	44.566200
1476.000000	44.604700
1475.000000	44.646000
1474.000000	44.718200
1473.000000	44.795300
1472.000000	44.848400
1471.000000	44.907000
1470.000000	44.968400
1469.000000	44.993400
1468.000000	45.075500
1467.000000	45.157200
1466.000000	45.208000
1465.000000	45.260500
1464.000000	45.341200
1463.000000	45.406000
1462.000000	45.479400
1461.000000	45.548200
1460.000000	45.626000
1459.000000	45.708200
1458.000000	45.788700
1457.000000	45.875200
1456.000000	45.978600
1455.000000	46.051800
1454.000000	46.110600
1453.000000	46.198400
1452.000000	46.289600
1451.000000	46.366800
1450.000000	46.467500
1449.000000	46.482000
1448.000000	46.536800
1447.000000	46.631000
1446.000000	46.758000
1445.000000	46.822300
1444.000000	46.864100
1443.000000	46.926000
1442.000000	47.033700
1441.000000	47.114200
1440.000000	47.177900
1439.000000	47.255200
1438.000000	47.362900
1437.000000	47.437700
1436.000000	47.515000
1435.000000	47.630400
1434.000000	47.741300
1433.000000	47.882300
1432.000000	47.968500
1431.000000	48.076600
1430.000000	48.157900
1429.000000	48.299000
1428.000000	48.427500
1427.000000	48.524100
1426.000000	48.687200
1425.000000	48.818000
1424.000000	48.999800
1423.000000	49.151300
1422.000000	49.293200
1421.000000	49.428000
1420.000000	49.621300
1419.000000	49.864000
1418.000000	50.021300
1417.000000	50.110900
1416.000000	50.288300
1415.000000	50.553300
1414.000000	50.839100
1413.000000	50.999100
1412.000000	51.145400
1411.000000	51.364900
1410.000000	51.631900
1409.000000	51.922200
1408.000000	52.151200
1407.000000	52.354600
1406.000000	52.570500
1405.000000	52.805900
1404.000000	52.996100
1403.000000	53.187100
1402.000000	53.338700
1401.000000	53.738500
1400.000000	53.987700
1399.000000	54.072100
1398.000000	54.087100
1397.000000	54.251400
1396.000000	54.572600
1395.000000	54.811900
1394.000000	54.866300
1393.000000	54.939100
1392.000000	55.140900
1391.000000	55.239400
1390.000000	55.294800
1389.000000	55.468000
1388.000000	55.736400
1387.000000	55.821400
1386.000000	55.933100
1385.000000	56.049300
1384.000000	56.182000
1383.000000	56.386900
1382.000000	56.525100
1381.000000	56.629700
1380.000000	56.660900
1379.000000	56.648700
1378.000000	56.634800
1377.000000	56.683000
1376.000000	56.721200
1375.000000	56.785800
1374.000000	56.817000
1373.000000	56.869800
1372.000000	56.971100
1371.000000	57.076500
1370.000000	57.109900
1369.000000	57.149200
1368.000000	57.253700
1367.000000	57.280800
1366.000000	57.308600
1365.000000	57.415000
1364.000000	57.455200
1363.000000	57.454100
1362.000000	57.574600
1361.000000	57.660700
1360.000000	57.634600
1359.000000	57.600100
1358.000000	57.603200
1357.000000	57.606900
1356.000000	57.632200
1355.000000	57.709800
1354.000000	57.783300
1353.000000	57.789800
1352.000000	57.827000
1351.000000	57.910000
1350.000000	57.986500
1349.000000	58.052900
1348.000000	58.126400
1347.000000	58.179000
1346.000000	58.219400
1345.000000	58.301800
1344.000000	58.361000
1343.000000	58.420700
1342.000000	58.466600
1341.000000	58.530000
1340.000000	58.584700
1339.000000	58.624700
1338.000000	58.670200
1337.000000	58.713200
1336.000000	58.754700
1335.000000	58.780000
1334.000000	58.813500
1333.000000	58.834500
1332.000000	58.860600
1331.000000	58.887000
1330.000000	58.891500
1329.000000	58.904200
1328.000000	58.922000
1327.000000	58.924700
1326.000000	58.943400
1325.000000	58.956800
1324.000000	58.955500
1323.000000	58.972500
1322.000000	58.975000
1321.000000	58.977300
1320.000000	58.988800
1319.000000	58.990100
1318.000000	58.990000
1317.000000	58.986200
1316.000000	58.978100
1315.000000	58.988400
1314.000000	58.998100
1313.000000	58.989200
1312.000000	58.978100
1311.000000	58.972400
1310.000000	58.973200
1309.000000	58.966300
1308.000000	58.961000
1307.000000	58.955400
1306.000000	58.940900
1305.000000	58.931500
1304.000000	58.930800
1303.000000	58.915300
1302.000000	58.899100
1301.000000	58.908300
1300.000000	58.920300
1299.000000	58.906800
1298.000000	58.875700
1297.000000	58.855100
1296.000000	58.854300
1295.000000	58.847100
1294.000000	58.838700
1293.000000	58.832500
1292.000000	58.822600
1291.000000	58.808500
1290.000000	58.789100
1289.000000	58.786300
1288.000000	58.781100
1287.000000	58.763600
1286.000000	58.750700
1285.000000	58.746400
1284.000000	58.734600
1283.000000	58.708700
1282.000000	58.687900
1281.000000	58.675500
1280.000000	58.672900
1279.000000	58.666700
1278.000000	58.645600
1277.000000	58.624800
1276.000000	58.620800
1275.000000	58.608200
1274.000000	58.599000
1273.000000	58.594800
1272.000000	58.587600
1271.000000	58.580000
1270.000000	58.567000
1269.000000	58.547400
1268.000000	58.536600
1267.000000	58.514000
1266.000000	58.492100
1265.000000	58.474000
1264.000000	58.461100
1263.000000	58.446000
1262.000000	58.429500
1261.000000	58.397400
1260.000000	58.378700
1259.000000	58.360400
1258.000000	58.345100
1257.000000	58.309100
1256.000000	58.280400
1255.000000	58.269800
1254.000000	58.237200
1253.000000	58.226900
1252.000000	58.184500
1251.000000	58.132900
1250.000000	58.120100
1249.000000	58.090200
1248.000000	58.057400
1247.000000	58.009200
1246.000000	57.988700
1245.000000	57.946500
1244.000000	57.906800
1243.000000	57.880200
1242.000000	57.835700
1241.000000	57.804000
1240.000000	57.781500
1239.000000	57.756100
1238.000000	57.714800
1237.000000	57.698800
1236.000000	57.674900
1235.000000	57.648500
1234.000000	57.638200
1233.000000	57.621200
1232.000000	57.596500
1231.000000	57.576600
1230.000000	57.552600
1229.000000	57.534000
1228.000000	57.515300
1227.000000	57.492800
1226.000000	57.477500
1225.000000	57.453500
1224.000000	57.437900
1223.000000	57.415100
1222.000000	57.415400
1221.000000	57.393200
1220.000000	57.367800
1219.000000	57.342800
1218.000000	57.322000
1217.000000	57.311400
1216.000000	57.286500
1215.000000	57.256200
1214.000000	57.225700
1213.000000	57.205300
1212.000000	57.165500
1211.000000	57.144800
1210.000000	57.092000
1209.000000	57.063500
1208.000000	57.034400
1207.000000	56.991600
1206.000000	56.955800
1205.000000	56.932100
1204.000000	56.910300
1203.000000	56.861200
1202.000000	56.828300
1201.000000	56.797100
1200.000000	56.745300
1199.000000	56.718900
1198.000000	56.667000
1197.000000	56.608800
1196.000000	56.565200
1195.000000	56.511300
1194.000000	56.456400
1193.000000	56.382100
1192.000000	56.329100
1191.000000	56.255900
1190.000000	56.202300
1189.000000	56.163900
1188.000000	56.112300
1187.000000	56.076400
1186.000000	56.053500
1185.000000	56.007500
1184.000000	56.005300
1183.000000	55.978900
1182.000000	55.954300
1181.000000	55.938100
1180.000000	55.931200
1179.000000	55.915700
1178.000000	55.895200
1177.000000	55.880100
1176.000000	55.892200
1175.000000	55.880500
1174.000000	55.886500
1173.000000	55.874900
1172.000000	55.885800
1171.000000	55.896600
1170.000000	55.908500
1169.000000	55.908300
1168.000000	55.917200
1167.000000	55.949400
1166.000000	55.975600
1165.000000	55.993400
1164.000000	56.032500
1163.000000	56.069200
1162.000000	56.090200
1161.000000	56.116800
1160.000000	56.139000
1159.000000	56.166000
1158.000000	56.191500
1157.000000	56.218600
1156.000000	56.220500
1155.000000	56.234500
1154.000000	56.238500
1153.000000	56.247600
1152.000000	56.239700
1151.000000	56.239100
1150.000000	56.230500
1149.000000	56.248300
1148.000000	56.230900
1147.000000	56.245500
1146.000000	56.231800
1145.000000	56.220200
1144.000000	56.213200
1143.000000	56.184500
1142.000000	56.165000
1141.000000	56.173000
1140.000000	56.153300
1139.000000	56.159400
1138.000000	56.164600
1137.000000	56.181600
1136.000000	56.196500
1135.000000	56.196600
1134.000000	56.197100
1133.000000	56.140300
1132.000000	56.109700
1131.000000	56.111200
1130.000000	56.101300
1129.000000	56.120200
1128.000000	56.079200
1127.000000	56.047300
1126.000000	56.029500
1125.000000	56.008300
1124.000000	56.000900
1123.000000	55.982600
1122.000000	55.945900
1121.000000	55.896600
1120.000000	55.854700
1119.000000	55.815200
1118.000000	55.767700
1117.000000	55.754700
1116.000000	55.702300
1115.000000	55.670500
1114.000000	55.655400
1113.000000	55.625600
1112.000000	55.584600
1111.000000	55.541600
1110.000000	55.502700
1109.000000	55.480600
1108.000000	55.446100
1107.000000	55.418700
1106.000000	55.378500
1105.000000	55.345100
1104.000000	55.334600
1103.000000	55.295300
1102.000000	55.260800
1101.000000	55.241200
1100.000000	55.207500
1099.000000	55.189300
1098.000000	55.149200
1097.000000	55.107000
1096.000000	55.080600
1095.000000	55.059800
1094.000000	55.024900
1093.000000	54.984500
1092.000000	54.953300
1091.000000	54.922000
1090.000000	54.883300
1089.000000	54.855100
1088.000000	54.834800
1087.000000	54.797600
1086.000000	54.762900
1085.000000	54.741300
1084.000000	54.696300
1083.000000	54.676100
1082.000000	54.653100
1081.000000	54.630800
1080.000000	54.597800
1079.000000	54.553100
1078.000000	54.534100
1077.000000	54.499700
1076.000000	54.463400
1075.000000	54.432900
1074.000000	54.402500
1073.000000	54.375200
1072.000000	54.356500
1071.000000	54.332800
1070.000000	54.304700
1069.000000	54.280000
1068.000000	54.247500
1067.000000	54.209600
1066.000000	54.185600
1065.000000	54.166300
1064.000000	54.148100
1063.000000	54.134500
1062.000000	54.111100
1061.000000	54.083300
1060.000000	54.063600
1059.000000	54.056300
1058.000000	54.047700
1057.000000	54.023600
1056.000000	54.000400
1055.000000	53.984000
1054.000000	53.977200
1053.000000	53.975700
1052.000000	53.973400
1051.000000	53.967300
1050.000000	53.967900
1049.000000	53.971300
1048.000000	53.980700
1047.000000	53.986200
1046.000000	54.003100
1045.000000	54.033900
1044.000000	54.053300
1043.000000	54.059500
1042.000000	54.085400
1041.000000	54.119100
1040.000000	54.146000
1039.000000	54.183300
1038.000000	54.228200
1037.000000	54.269700
1036.000000	54.304300
1035.000000	54.344100
1034.000000	54.382900
1033.000000	54.438200
1032.000000	54.502500
1031.000000	54.563200
1030.000000	54.622900
1029.000000	54.679500
1028.000000	54.746000
1027.000000	54.827900
1026.000000	54.923500
1025.000000	55.005200
1024.000000	55.085500
1023.000000	55.178500
1022.000000	55.268800
1021.000000	55.357500
1020.000000	55.444700
1019.000000	55.548300
1018.000000	55.655200
1017.000000	55.756100
1016.000000	55.869100
1015.000000	55.979800
1014.000000	56.097800
1013.000000	56.210000
1012.000000	56.320600
1011.000000	56.445200
1010.000000	56.592400
1009.000000	56.729800
1008.000000	56.848300
1007.000000	56.985600
1006.000000	57.129100
1005.000000	57.278300
1004.000000	57.416700
1003.000000	57.552400
1002.000000	57.723900
1001.000000	57.899000
1000.000000	58.063200
999.000000	58.217900
998.000000	58.370200
997.000000	58.534100
996.000000	58.709300
995.000000	58.869200
994.000000	59.035400
993.000000	59.206300
992.000000	59.384000
991.000000	59.569900
990.000000	59.742300
989.000000	59.910800
988.000000	60.091900
987.000000	60.266400
986.000000	60.435100
985.000000	60.611600
984.000000	60.792100
983.000000	60.978800
982.000000	61.149500
981.000000	61.313600
980.000000	61.499100
979.000000	61.696100
978.000000	61.884600
977.000000	62.039700
976.000000	62.202300
975.000000	62.407900
974.000000	62.604800
973.000000	62.757100
972.000000	62.913500
971.000000	63.082400
970.000000	63.253100
969.000000	63.464000
968.000000	63.618400
967.000000	63.768400
966.000000	63.951000
965.000000	64.161000
964.000000	64.342000
963.000000	64.504000
962.000000	64.650200
961.000000	64.826500
960.000000	65.029500
959.000000	65.181200
958.000000	65.355800
957.000000	65.519700
956.000000	65.708100
955.000000	65.866400
954.000000	66.039200
953.000000	66.174900
952.000000	66.336200
951.000000	66.524000
950.000000	66.682700
949.000000	66.815800
948.000000	66.986400
947.000000	67.132900
946.000000	67.265900
945.000000	67.440900
944.000000	67.555800
943.000000	67.698300
942.000000	67.835700
941.000000	67.993900
940.000000	68.148000
939.000000	68.258200
938.000000	68.390300
937.000000	68.536800
936.000000	68.685800
935.000000	68.825600
934.000000	69.029000
933.000000	69.167900
932.000000	69.282700
931.000000	69.452900
930.000000	69.564500
929.000000	69.680400
928.000000	69.786000
927.000000	69.962400
926.000000	70.066200
925.000000	70.201300
924.000000	70.254000
923.000000	70.431700
922.000000	70.547400
921.000000	70.645700
920.000000	70.776900
919.000000	70.862500
918.000000	70.952700
917.000000	71.050500
916.000000	71.131000
915.000000	71.307300
914.000000	71.367900
913.000000	71.408300
912.000000	71.491800
911.000000	71.557500
910.000000	71.751100
909.000000	71.775900
908.000000	71.872900
907.000000	71.929300
906.000000	72.001100
905.000000	72.046800
904.000000	72.104400
903.000000	72.184800
902.000000	72.256600
901.000000	72.345300
900.000000	72.419100
899.000000	72.475100
898.000000	72.553200
897.000000	72.556900
896.000000	72.628800
895.000000	72.711300
894.000000	72.766600
893.000000	72.839400
892.000000	72.909900
891.000000	73.003300
890.000000	73.038900
889.000000	73.065800
888.000000	73.057100
887.000000	73.148300
886.000000	73.226500
885.000000	73.334200
884.000000	73.406500
883.000000	73.440900
882.000000	73.410400
881.000000	73.446100
880.000000	73.513900
879.000000	73.470000
878.000000	73.556100
877.000000	73.672800
876.000000	73.700600
875.000000	73.649300
874.000000	73.682000
873.000000	73.594800
872.000000	73.634600
871.000000	73.557800
870.000000	73.617000
869.000000	73.620500
868.000000	73.537300
867.000000	73.523200
866.000000	73.406200
865.000000	73.391700
864.000000	73.251500
863.000000	73.166500
862.000000	72.899300
861.000000	72.631300
860.000000	72.399900
859.000000	72.111600
858.000000	73.848100
857.000000	72.631880
856.000000	73.031013
855.000000	72.955078
854.000000	73.578056
853.000000	73.969699
852.000000	73.946626
851.000000	74.413429
850.000000	74.532583
849.000000	74.912689
848.000000	75.260252
847.000000	75.371141
846.000000	75.592834
845.000000	75.727227
844.000000	76.215898
843.000000	76.313529
842.000000	76.491486
841.000000	76.803578
840.000000	76.811326
839.000000	77.010979
838.000000	77.339515
837.000000	77.515922
836.000000	77.408390
835.000000	77.633354
834.000000	77.785483
833.000000	78.151297
832.000000	78.107389
831.000000	78.330460
830.000000	78.322367
829.000000	78.387110
828.000000	78.399077
827.000000	78.578239
826.000000	78.591842
825.000000	78.868118
824.000000	78.897046
823.000000	78.825416
822.000000	78.821714
821.000000	78.775739
820.000000	78.778752
819.000000	78.835747
818.000000	78.899801
817.000000	78.856410
816.000000	78.804150
815.000000	78.913232
814.000000	78.932861
813.000000	78.851674
812.000000	78.862436
811.000000	78.838588
810.000000	78.813793
809.000000	78.911079
808.000000	78.835919
807.000000	78.759898
806.000000	78.823694
805.000000	78.814568
804.000000	78.865966
803.000000	78.863900
802.000000	78.798899
801.000000	78.621114
800.000000	78.640227
799.000000	78.549914
798.000000	78.541993
797.000000	78.474065
796.000000	78.457018
795.000000	78.398732
794.000000	78.329254
793.000000	78.229902
792.000000	78.249789
791.000000	78.264856
790.000000	78.214921
789.000000	78.239458
788.000000	78.179364
787.000000	78.118926
786.000000	78.007692
785.000000	77.867617
784.000000	77.848332
783.000000	77.885180
782.000000	77.891465
781.000000	77.913936
780.000000	77.846524
779.000000	77.726164
778.000000	77.691985
777.000000	77.683806
776.000000	77.670978
775.000000	77.634043
774.000000	77.692845
773.000000	77.704726
772.000000	77.728575
771.000000	77.791768
770.000000	77.794437
769.000000	77.728316
768.000000	77.694395
767.000000	77.651434
766.000000	77.642911
765.000000	77.626725
764.000000	77.619579
763.000000	77.635851
762.000000	77.566717
761.000000	77.507140
760.000000	77.432669
759.000000	77.365601
758.000000	77.220102
757.000000	77.094318
756.000000	77.033708
755.000000	76.890963
754.000000	76.708271
753.000000	76.552269
752.000000	76.416154
751.000000	76.251455
750.000000	76.104578
749.000000	75.992914
748.000000	75.758738
747.000000	75.542555
746.000000	75.392493
745.000000	75.147296
744.000000	74.861808
743.000000	74.671023
742.000000	74.440634
741.000000	74.160914
740.000000	73.879644
739.000000	73.553950
738.000000	73.248229
737.000000	72.911428
736.000000	72.540448
735.000000	72.167746
734.000000	71.790911
733.000000	71.421567
732.000000	70.979903
731.000000	70.542716
730.000000	70.139451
729.000000	69.721377
728.000000	69.231673
727.000000	68.777784
726.000000	68.389068
725.000000	67.888688
724.000000	67.431958
723.000000	66.978844
722.000000	66.543121
721.000000	66.091815
720.000000	65.664357
719.000000	65.247575
718.000000	64.808408
717.000000	64.415646
716.000000	64.087799
715.000000	63.783886
714.000000	63.472052
713.000000	63.142914
712.000000	62.826948
711.000000	62.554288
710.000000	62.341979
709.000000	62.050550
708.000000	61.801996
707.000000	61.543799
706.000000	61.338637
705.000000	61.089049
704.000000	60.816389
703.000000	60.616908
702.000000	60.364910
701.000000	60.085190
700.000000	59.838874
699.000000	59.605989
698.000000	59.342713
697.000000	59.114822
696.000000	58.846638
695.000000	58.610051
694.000000	58.302436
693.000000	58.021252
692.000000	57.765810
691.000000	57.518376
690.000000	57.260868
689.000000	56.999485
688.000000	56.809217
687.000000	56.613439
686.000000	56.367640
685.000000	56.187444
684.000000	55.958261
683.000000	55.706952
682.000000	55.531578
681.000000	55.328137
680.000000	55.140280
679.000000	54.951819
678.000000	54.805889
677.000000	54.653933
676.000000	54.481572
675.000000	54.294403
674.000000	54.122645
673.000000	53.983431
672.000000	53.834574
671.000000	53.654293
670.000000	53.464713
669.000000	53.290975
668.000000	53.114223
667.000000	52.973459
666.000000	52.780952
665.000000	52.569763
664.000000	52.399813
663.000000	52.246221
662.000000	52.034859
661.000000	51.804815
660.000000	51.644852
659.000000	51.469823
658.000000	51.280501
657.000000	51.074133
656.000000	50.842454
655.000000	50.657179
654.000000	50.494116
653.000000	50.294464
652.000000	50.159726
651.000000	50.027744
650.000000	49.879317
649.000000	49.771699
648.000000	49.664340
647.000000	49.526503
646.000000	49.519529
645.000000	49.481906
644.000000	49.469595
643.000000	49.485005
642.000000	49.508337
641.000000	49.601663
640.000000	49.666492
639.000000	49.780137
638.000000	49.986677
637.000000	50.158004
636.000000	50.402512
635.000000	50.612668
634.000000	50.838924
633.000000	51.113823
632.000000	51.427206
631.000000	51.708132
630.000000	52.002316
629.000000	52.351858
628.000000	52.678672
627.000000	52.987062
626.000000	53.303200
625.000000	53.652312
624.000000	53.971033
623.000000	54.307490
622.000000	54.683894
621.000000	54.965853
620.000000	55.309024
619.000000	55.622408
618.000000	55.898254
617.000000	56.144397
616.000000	56.423170
615.000000	56.676460
614.000000	56.914941
613.000000	57.228927
612.000000	57.398877
611.000000	57.638735
610.000000	57.833481
609.000000	57.991808
608.000000	58.140321
607.000000	58.303125
606.000000	58.489174
605.000000	58.602475
604.000000	58.738417
603.000000	58.815730
602.000000	58.929202
601.000000	59.013747
600.000000	59.099841
599.000000	59.085549
598.000000	59.144352
597.000000	59.191015
596.000000	59.236214
595.000000	59.247407
594.000000	59.197042
593.000000	59.189724
592.000000	59.235870
591.000000	59.137464
590.000000	59.077887
589.000000	59.016674
588.000000	58.949348
587.000000	58.883400
586.000000	58.754431
585.000000	58.667820
584.000000	58.610223
583.000000	58.470492
582.000000	58.329900
581.000000	58.158142
580.000000	58.014709
579.000000	57.848633
578.000000	57.680061
577.000000	57.504945
576.000000	57.327160
575.000000	57.149117
574.000000	56.922603
573.000000	56.754805
572.000000	56.494715
571.000000	56.269836
570.000000	56.036951
569.000000	55.751291
568.000000	55.545611
567.000000	55.258143
566.000000	55.018887
565.000000	54.704729
564.000000	54.440936
563.000000	54.165176
562.000000	53.856700
561.000000	53.547794
560.000000	53.255246
559.000000	52.972254
558.000000	52.653275
557.000000	52.316990
556.000000	51.949626
555.000000	51.583467
554.000000	51.155923
553.000000	50.754982
552.000000	50.341988
551.000000	49.948881
550.000000	49.508079
549.000000	49.079846
548.000000	48.628798
547.000000	48.161048
546.000000	47.662734
545.000000	47.168639
544.000000	46.667484
543.000000	46.118633
542.000000	45.574604
541.000000	45.012925
540.000000	44.436438
539.000000	43.833347
538.000000	43.240760
537.000000	42.611842
536.000000	41.979565
535.000000	41.337560
534.000000	40.677131
533.000000	40.016616
532.000000	39.326915
531.000000	38.638075
530.000000	37.956897
529.000000	37.256176
528.000000	36.553646
527.000000	35.851117
526.000000	35.150051
525.000000	34.460436
524.000000	33.763503
523.000000	33.071219
522.000000	32.408982
521.000000	31.751222
520.000000	31.115588
519.000000	30.490285
518.000000	29.899679
517.000000	29.318456
516.000000	28.753247
515.000000	28.226781
514.000000	27.722010
513.000000	27.249697
512.000000	26.791245
511.000000	26.370502
510.000000	25.985058
509.000000	25.623807
508.000000	25.288728
507.000000	25.003239
506.000000	24.745042
505.000000	24.520078
504.000000	24.313280
503.000000	24.128952
502.000000	24.004460
501.000000	23.879795
500.000000	23.797058
499.000000	23.733607
498.000000	23.693745
497.000000	23.672824
496.000000	23.663268
495.000000	23.652162
494.000000	23.657672
493.000000	23.668348
492.000000	23.685825
491.000000	23.707434
490.000000	23.731024
489.000000	23.752548
488.000000	23.764687
487.000000	23.789224
486.000000	23.795337
485.000000	23.802396
484.000000	23.833390
483.000000	23.830205
482.000000	23.809973
481.000000	23.751084
480.000000	23.685997
479.000000	23.633565
478.000000	23.608426
477.000000	23.576743
476.000000	23.536537
475.000000	23.498053
474.000000	23.431847
473.000000	23.351607
472.000000	23.277393
471.000000	23.200856
470.000000	23.106841
469.000000	22.990700
468.000000	22.884976
467.000000	22.765563
466.000000	22.637541
465.000000	22.512015
464.000000	22.354979
463.000000	22.215335
462.000000	22.068974
461.000000	21.902210
460.000000	21.723822
459.000000	21.546038
458.000000	21.360419
457.000000	21.166362
456.000000	20.964213
455.000000	20.758620
454.000000	20.541834
453.000000	20.320486
452.000000	20.080369
451.000000	19.813391
450.000000	19.550631
449.000000	19.290282
448.000000	19.023217
447.000000	18.748318
446.000000	18.468426
445.000000	18.158831
444.000000	17.861461
443.000000	17.549025
442.000000	17.205509
441.000000	16.860185
440.000000	16.519768
439.000000	16.172378
438.000000	15.824729
437.000000	15.468299
436.000000	15.101968
435.000000	14.749842
434.000000	14.391001
433.000000	14.027942
432.000000	13.656015
431.000000	13.284948
430.000000	12.914226
429.000000	12.566492
428.000000	12.224697
427.000000	11.879029
426.000000	11.553420
425.000000	11.231170
424.000000	10.904442
423.000000	10.584946
422.000000	10.286371
421.000000	9.990121
420.000000	9.703943
419.000000	9.441786
418.000000	9.195126
417.000000	8.946830
416.000000	8.705852
415.000000	8.485451
414.000000	8.278997
413.000000	8.075556
412.000000	7.885460
411.000000	7.707589
410.000000	7.537037
409.000000	7.373027
408.000000	7.224945
407.000000	7.086591
406.000000	6.956589
405.000000	6.833819
404.000000	6.720777
403.000000	6.612040
402.000000	6.507263
401.000000	6.417208
400.000000	6.329909
399.000000	6.232967
398.000000	6.168654
397.000000	6.107614
396.000000	6.035294
395.000000	5.962286
394.000000	5.898060
393.000000	5.840119
392.000000	5.785793
391.000000	5.741110
390.000000	5.688507
389.000000	5.642102
388.000000	5.603962
387.000000	5.560054
386.000000	5.530351
385.000000	5.491006
384.000000	5.458032
383.000000	5.414038
382.000000	5.378137
381.000000	5.364103
380.000000	5.317096
379.000000	5.289287
378.000000	5.265181
377.000000	5.242108
376.000000	5.344130
375.000000	5.337156
374.000000	5.299447
373.000000	5.305387
372.000000	5.232637
371.000000	5.231260
370.000000	5.208703
369.000000	5.191054
368.000000	5.153345
367.000000	5.132596
366.000000	5.118907
365.000000	5.107198
364.000000	5.069317
363.000000	5.036170
362.000000	5.032899
361.000000	5.049171
360.000000	5.019124
359.000000	4.975302
358.000000	4.970825
357.000000	4.956103
356.000000	4.880512
355.000000	4.914519
354.000000	4.854339
353.000000	4.855458
352.000000	4.820935
351.000000	4.783225
350.000000	4.795451
349.000000	4.761185
348.000000	4.731655
347.000000	4.747238
346.000000	4.693343
345.000000	4.672853
344.000000	4.720290
343.000000	4.691965
342.000000	4.705827
341.000000	4.732430
340.000000	4.732430
339.000000	4.671561
338.000000	4.737509
337.000000	4.710131
336.000000	4.696270
335.000000	4.727264
334.000000	4.688177
333.000000	4.661746
332.000000	4.690071
331.000000	4.658216
330.000000	4.602514
329.000000	4.576341
328.000000	4.579268
327.000000	4.686542
326.000000	4.599672
325.000000	4.592268
324.000000	4.515644
323.000000	4.665879
322.000000	4.642461
321.000000	4.616891
320.000000	4.578235
319.000000	4.684389
318.000000	4.610951
317.000000	4.603805
316.000000	4.608024
315.000000	4.623348
314.000000	4.561791
313.000000	4.579957
312.000000	4.554215
311.000000	4.604494
310.000000	4.597348
309.000000	4.603633
308.000000	4.602858
307.000000	4.565321
306.000000	4.626103
305.000000	4.591493
304.000000	4.624812
303.000000	4.602169
302.000000	4.627136
301.000000	4.602944
300.000000	4.607421
299.000000	4.624726
298.000000	4.641428
297.000000	4.636262
296.000000	4.641170
295.000000	4.621885
294.000000	4.647369
293.000000	4.636090
292.000000	4.623607
291.000000	4.673972
290.000000	4.649263
289.000000	4.616547
288.000000	4.662779
287.000000	4.648230
286.000000	4.621971
285.000000	4.652793
284.000000	4.662952
283.000000	4.668203
282.000000	4.661660
281.000000	4.693860
280.000000	4.698681
279.000000	4.706515
278.000000	4.681376
277.000000	4.696701
276.000000	4.765748
275.000000	4.735357
274.000000	4.741125
273.000000	4.735271
272.000000	4.798034
271.000000	4.806987
270.000000	4.819729
269.000000	4.827564
268.000000	4.838756
267.000000	4.851326
266.000000	4.902122
265.000000	4.941381
264.000000	4.928294
263.000000	4.927261
262.000000	4.958341
261.000000	4.999150
260.000000	5.000269
259.000000	4.997342
258.000000	5.021362
257.000000	5.049601
256.000000	5.042025
255.000000	5.073880
254.000000	5.084211
253.000000	5.102463
252.000000	5.130616
251.000000	5.091615
250.000000	5.116410
