PE UV       SUBTECH     SPECTRUM    ASCII       PEDS        4.00        
   -1
CICIMAUCR0012-3.Sample.ASC
24/04/12
09:39:08.00
24/04/12
09:39:08.00
Vinicio Soto Monge
C. cupreomarginata
250,000000
1
Lambda 1050
1050L1511233
PerkinElmer UV WinLab 6.3.2.0749 / 2.02.05 Lambda 900 UV/VIS/NIR, Aug  7 2015 09:38:08

0
0
3350/servo 860,8/2
0
0
UV/VIS
1
1
1
DoubleDePol,CommonBeamDepol,RBeamAtt,SBeamAtt,60mm sphere, WB InGaAs Detector
0
0
0
0
Program
Program
3350/servo 860,8/2
3350/0,2 860,8/0,2
3350/0,2 860,8/0,2
0
15.00
 
 
 
0
 
860,8
319,2
860,8
Front
100
on
S:100 R:100
0
0
0
0
 
0
 
 
 
0
 
 
0
0
0
0
0
 
 
 
 
0
0


0
0
#HDR
-1
-1
#GR
nm
%R
1.0
0.0
2500,000000
-1,000000
2251
8
59,329800
5,000400
#DATA
2500.000000	6.257500
2499.000000	6.113700
2498.000000	6.230000
2497.000000	6.052600
2496.000000	6.082900
2495.000000	6.041100
2494.000000	6.068500
2493.000000	6.038100
2492.000000	6.073800
2491.000000	5.970200
2490.000000	6.022100
2489.000000	5.995500
2488.000000	5.954200
2487.000000	5.998400
2486.000000	6.007900
2485.000000	6.001500
2484.000000	5.968300
2483.000000	5.984200
2482.000000	5.990300
2481.000000	5.993700
2480.000000	5.956200
2479.000000	5.945100
2478.000000	5.915800
2477.000000	5.913600
2476.000000	5.939000
2475.000000	5.925600
2474.000000	5.905200
2473.000000	5.934700
2472.000000	5.966200
2471.000000	5.895300
2470.000000	5.946500
2469.000000	5.945000
2468.000000	5.916700
2467.000000	5.929700
2466.000000	5.921500
2465.000000	5.929200
2464.000000	5.962800
2463.000000	5.983400
2462.000000	5.995200
2461.000000	5.990000
2460.000000	5.993700
2459.000000	6.009100
2458.000000	6.042100
2457.000000	6.032100
2456.000000	6.042900
2455.000000	6.082600
2454.000000	6.110700
2453.000000	6.135300
2452.000000	6.185800
2451.000000	6.198600
2450.000000	6.218800
2449.000000	6.241700
2448.000000	6.287800
2447.000000	6.289100
2446.000000	6.327300
2445.000000	6.369200
2444.000000	6.414600
2443.000000	6.424500
2442.000000	6.465100
2441.000000	6.489100
2440.000000	6.524600
2439.000000	6.558300
2438.000000	6.565100
2437.000000	6.602000
2436.000000	6.626000
2435.000000	6.642900
2434.000000	6.668200
2433.000000	6.702700
2432.000000	6.733000
2431.000000	6.733500
2430.000000	6.763300
2429.000000	6.785600
2428.000000	6.840500
2427.000000	6.885700
2426.000000	6.946700
2425.000000	6.985100
2424.000000	7.022000
2423.000000	7.040300
2422.000000	7.047700
2421.000000	7.076900
2420.000000	7.076200
2419.000000	7.111500
2418.000000	7.149200
2417.000000	7.151700
2416.000000	7.169200
2415.000000	7.188700
2414.000000	7.226000
2413.000000	7.258000
2412.000000	7.271900
2411.000000	7.280100
2410.000000	7.286200
2409.000000	7.307400
2408.000000	7.337900
2407.000000	7.347500
2406.000000	7.356900
2405.000000	7.400200
2404.000000	7.414700
2403.000000	7.437500
2402.000000	7.465600
2401.000000	7.498900
2400.000000	7.524500
2399.000000	7.532000
2398.000000	7.537200
2397.000000	7.546400
2396.000000	7.583300
2395.000000	7.593500
2394.000000	7.629400
2393.000000	7.660400
2392.000000	7.648400
2391.000000	7.667200
2390.000000	7.701600
2389.000000	7.712100
2388.000000	7.716200
2387.000000	7.712400
2386.000000	7.714200
2385.000000	7.719500
2384.000000	7.737400
2383.000000	7.738300
2382.000000	7.744300
2381.000000	7.737700
2380.000000	7.739000
2379.000000	7.738200
2378.000000	7.728900
2377.000000	7.724200
2376.000000	7.724500
2375.000000	7.712500
2374.000000	7.695600
2373.000000	7.689800
2372.000000	7.681800
2371.000000	7.677700
2370.000000	7.663200
2369.000000	7.635700
2368.000000	7.615000
2367.000000	7.606600
2366.000000	7.569200
2365.000000	7.530700
2364.000000	7.512500
2363.000000	7.493500
2362.000000	7.454800
2361.000000	7.417900
2360.000000	7.399600
2359.000000	7.373900
2358.000000	7.348700
2357.000000	7.326100
2356.000000	7.321000
2355.000000	7.321900
2354.000000	7.310700
2353.000000	7.292200
2352.000000	7.306500
2351.000000	7.326900
2350.000000	7.339700
2349.000000	7.359600
2348.000000	7.389300
2347.000000	7.411800
2346.000000	7.429600
2345.000000	7.469100
2344.000000	7.498200
2343.000000	7.521800
2342.000000	7.556900
2341.000000	7.572800
2340.000000	7.581200
2339.000000	7.603800
2338.000000	7.608300
2337.000000	7.610700
2336.000000	7.604100
2335.000000	7.610600
2334.000000	7.611700
2333.000000	7.580200
2332.000000	7.564600
2331.000000	7.553800
2330.000000	7.532400
2329.000000	7.513900
2328.000000	7.481600
2327.000000	7.441000
2326.000000	7.423400
2325.000000	7.384800
2324.000000	7.350100
2323.000000	7.322300
2322.000000	7.284500
2321.000000	7.247500
2320.000000	7.205500
2319.000000	7.158900
2318.000000	7.110700
2317.000000	7.080100
2316.000000	7.043400
2315.000000	6.987200
2314.000000	6.942000
2313.000000	6.921300
2312.000000	6.883700
2311.000000	6.861100
2310.000000	6.849300
2309.000000	6.830600
2308.000000	6.800300
2307.000000	6.802400
2306.000000	6.814700
2305.000000	6.829400
2304.000000	6.844000
2303.000000	6.875300
2302.000000	6.900500
2301.000000	6.926200
2300.000000	6.984400
2299.000000	7.023300
2298.000000	7.039500
2297.000000	7.084900
2296.000000	7.127600
2295.000000	7.176000
2294.000000	7.200500
2293.000000	7.220100
2292.000000	7.220600
2291.000000	7.250800
2290.000000	7.270800
2289.000000	7.277100
2288.000000	7.257100
2287.000000	7.247100
2286.000000	7.241300
2285.000000	7.239700
2284.000000	7.224500
2283.000000	7.214100
2282.000000	7.182200
2281.000000	7.179400
2280.000000	7.166700
2279.000000	7.146100
2278.000000	7.131600
2277.000000	7.122300
2276.000000	7.115200
2275.000000	7.105100
2274.000000	7.102800
2273.000000	7.101400
2272.000000	7.096200
2271.000000	7.096100
2270.000000	7.115900
2269.000000	7.141600
2268.000000	7.177100
2267.000000	7.225600
2266.000000	7.268500
2265.000000	7.337700
2264.000000	7.422100
2263.000000	7.486800
2262.000000	7.569800
2261.000000	7.686100
2260.000000	7.782100
2259.000000	7.894600
2258.000000	8.040200
2257.000000	8.169100
2256.000000	8.281100
2255.000000	8.449100
2254.000000	8.585200
2253.000000	8.702100
2252.000000	8.841900
2251.000000	8.995200
2250.000000	9.101400
2249.000000	9.212200
2248.000000	9.348500
2247.000000	9.459000
2246.000000	9.585700
2245.000000	9.676800
2244.000000	9.763100
2243.000000	9.859700
2242.000000	9.941800
2241.000000	10.039800
2240.000000	10.117900
2239.000000	10.202600
2238.000000	10.279200
2237.000000	10.345100
2236.000000	10.412900
2235.000000	10.470500
2234.000000	10.512800
2233.000000	10.541900
2232.000000	10.596800
2231.000000	10.661800
2230.000000	10.691000
2229.000000	10.729700
2228.000000	10.753500
2227.000000	10.760300
2226.000000	10.773400
2225.000000	10.767900
2224.000000	10.799400
2223.000000	10.817700
2222.000000	10.820000
2221.000000	10.799100
2220.000000	10.816500
2219.000000	10.805900
2218.000000	10.810800
2217.000000	10.791300
2216.000000	10.780800
2215.000000	10.751200
2214.000000	10.758700
2213.000000	10.749000
2212.000000	10.742700
2211.000000	10.716100
2210.000000	10.725400
2209.000000	10.724400
2208.000000	10.690700
2207.000000	10.687600
2206.000000	10.692400
2205.000000	10.665400
2204.000000	10.673300
2203.000000	10.681100
2202.000000	10.645700
2201.000000	10.639800
2200.000000	10.633200
2199.000000	10.630800
2198.000000	10.625100
2197.000000	10.633400
2196.000000	10.638100
2195.000000	10.616300
2194.000000	10.603700
2193.000000	10.598500
2192.000000	10.586200
2191.000000	10.589500
2190.000000	10.587100
2189.000000	10.551700
2188.000000	10.547000
2187.000000	10.533200
2186.000000	10.542000
2185.000000	10.525500
2184.000000	10.497400
2183.000000	10.502600
2182.000000	10.483400
2181.000000	10.457500
2180.000000	10.467900
2179.000000	10.445000
2178.000000	10.435400
2177.000000	10.429000
2176.000000	10.432600
2175.000000	10.435100
2174.000000	10.438900
2173.000000	10.418500
2172.000000	10.425800
2171.000000	10.445800
2170.000000	10.453700
2169.000000	10.427400
2168.000000	10.443000
2167.000000	10.440100
2166.000000	10.450700
2165.000000	10.465700
2164.000000	10.478200
2163.000000	10.484100
2162.000000	10.505000
2161.000000	10.508200
2160.000000	10.520000
2159.000000	10.525300
2158.000000	10.534700
2157.000000	10.564800
2156.000000	10.605000
2155.000000	10.620000
2154.000000	10.636800
2153.000000	10.662700
2152.000000	10.670400
2151.000000	10.680800
2150.000000	10.704200
2149.000000	10.741400
2148.000000	10.757900
2147.000000	10.754500
2146.000000	10.765700
2145.000000	10.790000
2144.000000	10.820900
2143.000000	10.822900
2142.000000	10.826700
2141.000000	10.847700
2140.000000	10.873200
2139.000000	10.880200
2138.000000	10.895400
2137.000000	10.903900
2136.000000	10.908800
2135.000000	10.912400
2134.000000	10.919600
2133.000000	10.921600
2132.000000	10.921100
2131.000000	10.924200
2130.000000	10.916400
2129.000000	10.927700
2128.000000	10.951400
2127.000000	10.926500
2126.000000	10.909700
2125.000000	10.903900
2124.000000	10.881800
2123.000000	10.876300
2122.000000	10.873600
2121.000000	10.857200
2120.000000	10.823300
2119.000000	10.807000
2118.000000	10.801000
2117.000000	10.794000
2116.000000	10.785100
2115.000000	10.754600
2114.000000	10.737300
2113.000000	10.724800
2112.000000	10.709600
2111.000000	10.687000
2110.000000	10.666000
2109.000000	10.645200
2108.000000	10.622900
2107.000000	10.619800
2106.000000	10.611500
2105.000000	10.587100
2104.000000	10.574900
2103.000000	10.557200
2102.000000	10.536400
2101.000000	10.537600
2100.000000	10.518700
2099.000000	10.488900
2098.000000	10.473900
2097.000000	10.468600
2096.000000	10.478000
2095.000000	10.472600
2094.000000	10.465100
2093.000000	10.463100
2092.000000	10.457000
2091.000000	10.463200
2090.000000	10.467900
2089.000000	10.455600
2088.000000	10.449300
2087.000000	10.450800
2086.000000	10.456100
2085.000000	10.445300
2084.000000	10.419900
2083.000000	10.419900
2082.000000	10.431300
2081.000000	10.413900
2080.000000	10.407100
2079.000000	10.410900
2078.000000	10.398100
2077.000000	10.387700
2076.000000	10.400300
2075.000000	10.381200
2074.000000	10.368100
2073.000000	10.363200
2072.000000	10.357700
2071.000000	10.354800
2070.000000	10.348800
2069.000000	10.343200
2068.000000	10.342900
2067.000000	10.325500
2066.000000	10.325800
2065.000000	10.312400
2064.000000	10.310300
2063.000000	10.325900
2062.000000	10.316500
2061.000000	10.311500
2060.000000	10.337100
2059.000000	10.347800
2058.000000	10.357600
2057.000000	10.377300
2056.000000	10.420000
2055.000000	10.459200
2054.000000	10.485000
2053.000000	10.534000
2052.000000	10.585800
2051.000000	10.635100
2050.000000	10.705800
2049.000000	10.781500
2048.000000	10.862700
2047.000000	10.953900
2046.000000	11.047200
2045.000000	11.132300
2044.000000	11.228300
2043.000000	11.326800
2042.000000	11.416500
2041.000000	11.529500
2040.000000	11.643700
2039.000000	11.738500
2038.000000	11.825900
2037.000000	11.919900
2036.000000	12.039500
2035.000000	12.126100
2034.000000	12.207100
2033.000000	12.283500
2032.000000	12.362900
2031.000000	12.425400
2030.000000	12.513600
2029.000000	12.589800
2028.000000	12.675200
2027.000000	12.738800
2026.000000	12.787700
2025.000000	12.861600
2024.000000	12.915700
2023.000000	12.971400
2022.000000	13.038300
2021.000000	13.086700
2020.000000	13.156100
2019.000000	13.210200
2018.000000	13.247300
2017.000000	13.286700
2016.000000	13.334900
2015.000000	13.379500
2014.000000	13.436300
2013.000000	13.472600
2012.000000	13.492800
2011.000000	13.516100
2010.000000	13.529100
2009.000000	13.544300
2008.000000	13.580700
2007.000000	13.576400
2006.000000	13.573400
2005.000000	13.590200
2004.000000	13.594500
2003.000000	13.581200
2002.000000	13.580100
2001.000000	13.538400
2000.000000	13.534000
1999.000000	13.525000
1998.000000	13.494100
1997.000000	13.483000
1996.000000	13.451000
1995.000000	13.415800
1994.000000	13.384600
1993.000000	13.346600
1992.000000	13.308200
1991.000000	13.270300
1990.000000	13.237500
1989.000000	13.178700
1988.000000	13.144100
1987.000000	13.103000
1986.000000	13.042000
1985.000000	12.992600
1984.000000	12.948100
1983.000000	12.893300
1982.000000	12.850200
1981.000000	12.796500
1980.000000	12.752500
1979.000000	12.667000
1978.000000	12.624200
1977.000000	12.559300
1976.000000	12.530700
1975.000000	12.460800
1974.000000	12.425200
1973.000000	12.374900
1972.000000	12.319800
1971.000000	12.266500
1970.000000	12.241100
1969.000000	12.184000
1968.000000	12.130700
1967.000000	12.111900
1966.000000	12.069300
1965.000000	12.004500
1964.000000	11.942100
1963.000000	11.927200
1962.000000	11.875000
1961.000000	11.826700
1960.000000	11.808000
1959.000000	11.742600
1958.000000	11.693600
1957.000000	11.645100
1956.000000	11.631800
1955.000000	11.577200
1954.000000	11.534500
1953.000000	11.471900
1952.000000	11.445400
1951.000000	11.407100
1950.000000	11.383700
1949.000000	11.367700
1948.000000	11.329900
1947.000000	11.297700
1946.000000	11.257900
1945.000000	11.259600
1944.000000	11.244700
1943.000000	11.220000
1942.000000	11.234200
1941.000000	11.224200
1940.000000	11.242800
1939.000000	11.224400
1938.000000	11.231300
1937.000000	11.230900
1936.000000	11.253800
1935.000000	11.293200
1934.000000	11.343100
1933.000000	11.384000
1932.000000	11.405700
1931.000000	11.474700
1930.000000	11.515800
1929.000000	11.578100
1928.000000	11.651200
1927.000000	11.720500
1926.000000	11.818400
1925.000000	11.895600
1924.000000	12.005600
1923.000000	12.101200
1922.000000	12.192900
1921.000000	12.321200
1920.000000	12.438800
1919.000000	12.543100
1918.000000	12.696000
1917.000000	12.861400
1916.000000	12.993700
1915.000000	13.131400
1914.000000	13.297100
1913.000000	13.452200
1912.000000	13.614400
1911.000000	13.782900
1910.000000	13.982000
1909.000000	14.157400
1908.000000	14.350900
1907.000000	14.530300
1906.000000	14.735100
1905.000000	14.930600
1904.000000	15.131500
1903.000000	15.353700
1902.000000	15.559900
1901.000000	15.795200
1900.000000	16.015800
1899.000000	16.243800
1898.000000	16.481600
1897.000000	16.718100
1896.000000	16.956200
1895.000000	17.201300
1894.000000	17.446900
1893.000000	17.689300
1892.000000	17.931300
1891.000000	18.168000
1890.000000	18.388500
1889.000000	18.665200
1888.000000	18.961300
1887.000000	19.277900
1886.000000	19.624100
1885.000000	20.005100
1884.000000	20.450200
1883.000000	20.866400
1882.000000	21.320700
1881.000000	21.835800
1880.000000	22.277600
1879.000000	22.712200
1878.000000	23.121400
1877.000000	23.508300
1876.000000	23.837200
1875.000000	24.150600
1874.000000	24.457800
1873.000000	24.717200
1872.000000	24.940400
1871.000000	25.162200
1870.000000	25.340700
1869.000000	25.516800
1868.000000	25.686900
1867.000000	25.797800
1866.000000	25.880800
1865.000000	25.970800
1864.000000	26.049200
1863.000000	26.120200
1862.000000	26.167400
1861.000000	26.183200
1860.000000	26.185400
1859.000000	26.152700
1858.000000	26.118800
1857.000000	26.109900
1856.000000	26.086100
1855.000000	26.025500
1854.000000	25.954400
1853.000000	25.874400
1852.000000	25.807500
1851.000000	25.773900
1850.000000	25.736000
1849.000000	25.650800
1848.000000	25.501300
1847.000000	25.356600
1846.000000	25.269000
1845.000000	25.251900
1844.000000	25.251300
1843.000000	25.245500
1842.000000	25.202400
1841.000000	25.111600
1840.000000	25.028500
1839.000000	24.957100
1838.000000	24.893400
1837.000000	24.830200
1836.000000	24.756300
1835.000000	24.659100
1834.000000	24.578900
1833.000000	24.533500
1832.000000	24.471100
1831.000000	24.383400
1830.000000	24.273200
1829.000000	24.159200
1828.000000	24.047500
1827.000000	23.956300
1826.000000	23.883800
1825.000000	23.832900
1824.000000	23.807200
1823.000000	23.818600
1822.000000	23.789700
1821.000000	23.707000
1820.000000	23.635100
1819.000000	23.600400
1818.000000	23.600200
1817.000000	23.626300
1816.000000	23.629000
1815.000000	23.609500
1814.000000	23.601900
1813.000000	23.584100
1812.000000	23.560400
1811.000000	23.511000
1810.000000	23.460100
1809.000000	23.442100
1808.000000	23.423600
1807.000000	23.366500
1806.000000	23.289400
1805.000000	23.229600
1804.000000	23.182100
1803.000000	23.142400
1802.000000	23.087000
1801.000000	23.013600
1800.000000	22.949300
1799.000000	22.889000
1798.000000	22.849800
1797.000000	22.820100
1796.000000	22.773400
1795.000000	22.711700
1794.000000	22.664100
1793.000000	22.594400
1792.000000	22.513400
1791.000000	22.462200
1790.000000	22.397300
1789.000000	22.320200
1788.000000	22.257100
1787.000000	22.171900
1786.000000	22.080800
1785.000000	21.990200
1784.000000	21.888900
1783.000000	21.782400
1782.000000	21.679600
1781.000000	21.586900
1780.000000	21.490600
1779.000000	21.389400
1778.000000	21.255200
1777.000000	21.111900
1776.000000	20.972400
1775.000000	20.823800
1774.000000	20.662800
1773.000000	20.495800
1772.000000	20.339500
1771.000000	20.191600
1770.000000	20.024600
1769.000000	19.883300
1768.000000	19.753500
1767.000000	19.620200
1766.000000	19.504100
1765.000000	19.436600
1764.000000	19.402900
1763.000000	19.379200
1762.000000	19.415200
1761.000000	19.479300
1760.000000	19.551700
1759.000000	19.648200
1758.000000	19.709800
1757.000000	19.779000
1756.000000	19.815700
1755.000000	19.855200
1754.000000	19.870000
1753.000000	19.861300
1752.000000	19.844600
1751.000000	19.784500
1750.000000	19.722800
1749.000000	19.643700
1748.000000	19.531800
1747.000000	19.425100
1746.000000	19.278300
1745.000000	19.112800
1744.000000	18.921100
1743.000000	18.668800
1742.000000	18.428800
1741.000000	18.175100
1740.000000	17.890400
1739.000000	17.623800
1738.000000	17.407500
1737.000000	17.209700
1736.000000	17.062800
1735.000000	17.009100
1734.000000	16.964800
1733.000000	17.004000
1732.000000	17.085400
1731.000000	17.197500
1730.000000	17.306300
1729.000000	17.453500
1728.000000	17.582100
1727.000000	17.711700
1726.000000	17.819300
1725.000000	17.894000
1724.000000	17.937500
1723.000000	17.984000
1722.000000	18.004700
1721.000000	17.975900
1720.000000	17.987600
1719.000000	18.011900
1718.000000	18.054600
1717.000000	18.097000
1716.000000	18.124300
1715.000000	18.212300
1714.000000	18.278800
1713.000000	18.318400
1712.000000	18.373300
1711.000000	18.390300
1710.000000	18.387300
1709.000000	18.386000
1708.000000	18.367200
1707.000000	18.334800
1706.000000	18.278200
1705.000000	18.227400
1704.000000	18.144500
1703.000000	18.057700
1702.000000	17.922500
1701.000000	17.789600
1700.000000	17.620600
1699.000000	17.424900
1698.000000	17.278800
1697.000000	17.182500
1696.000000	17.104100
1695.000000	17.121000
1694.000000	17.216500
1693.000000	17.377800
1692.000000	17.551000
1691.000000	17.759700
1690.000000	17.923600
1689.000000	18.034000
1688.000000	18.074300
1687.000000	18.055300
1686.000000	18.060700
1685.000000	18.094000
1684.000000	18.222600
1683.000000	18.449700
1682.000000	18.867600
1681.000000	19.465400
1680.000000	20.071500
1679.000000	20.720800
1678.000000	21.336900
1677.000000	21.918900
1676.000000	22.416800
1675.000000	22.859100
1674.000000	23.231500
1673.000000	23.591000
1672.000000	23.842900
1671.000000	24.081900
1670.000000	24.286600
1669.000000	24.460200
1668.000000	24.632700
1667.000000	24.784400
1666.000000	24.900500
1665.000000	25.004300
1664.000000	25.077900
1663.000000	25.159900
1662.000000	25.223200
1661.000000	25.268900
1660.000000	25.314900
1659.000000	25.337500
1658.000000	25.368000
1657.000000	25.350000
1656.000000	25.362400
1655.000000	25.368400
1654.000000	25.351800
1653.000000	25.328400
1652.000000	25.283200
1651.000000	25.267200
1650.000000	25.226700
1649.000000	25.181600
1648.000000	25.125100
1647.000000	25.055700
1646.000000	24.984900
1645.000000	24.920400
1644.000000	24.854400
1643.000000	24.774700
1642.000000	24.711400
1641.000000	24.641100
1640.000000	24.565100
1639.000000	24.468800
1638.000000	24.393000
1637.000000	24.326900
1636.000000	24.235700
1635.000000	24.140700
1634.000000	24.026100
1633.000000	23.954000
1632.000000	23.867400
1631.000000	23.762200
1630.000000	23.664400
1629.000000	23.572600
1628.000000	23.469900
1627.000000	23.373000
1626.000000	23.256900
1625.000000	23.162400
1624.000000	23.075800
1623.000000	22.972600
1622.000000	22.878300
1621.000000	22.787600
1620.000000	22.690600
1619.000000	22.602900
1618.000000	22.504200
1617.000000	22.420600
1616.000000	22.341600
1615.000000	22.237000
1614.000000	22.140900
1613.000000	22.062600
1612.000000	21.991000
1611.000000	21.896200
1610.000000	21.822500
1609.000000	21.750800
1608.000000	21.662600
1607.000000	21.589800
1606.000000	21.517000
1605.000000	21.455000
1604.000000	21.362700
1603.000000	21.270500
1602.000000	21.194500
1601.000000	21.127800
1600.000000	21.038400
1599.000000	20.965500
1598.000000	20.907600
1597.000000	20.837700
1596.000000	20.773100
1595.000000	20.718900
1594.000000	20.660200
1593.000000	20.610600
1592.000000	20.566300
1591.000000	20.528600
1590.000000	20.473600
1589.000000	20.431100
1588.000000	20.413900
1587.000000	20.376500
1586.000000	20.325500
1585.000000	20.296200
1584.000000	20.267400
1583.000000	20.248800
1582.000000	20.233100
1581.000000	20.214700
1580.000000	20.199100
1579.000000	20.202100
1578.000000	20.206700
1577.000000	20.203800
1576.000000	20.204200
1575.000000	20.209300
1574.000000	20.207700
1573.000000	20.209500
1572.000000	20.222200
1571.000000	20.249300
1570.000000	20.266100
1569.000000	20.288900
1568.000000	20.327900
1567.000000	20.371200
1566.000000	20.400700
1565.000000	20.423000
1564.000000	20.447200
1563.000000	20.469100
1562.000000	20.497600
1561.000000	20.527600
1560.000000	20.549700
1559.000000	20.573100
1558.000000	20.600700
1557.000000	20.612300
1556.000000	20.633100
1555.000000	20.654300
1554.000000	20.668500
1553.000000	20.666300
1552.000000	20.665000
1551.000000	20.675900
1550.000000	20.685100
1549.000000	20.669700
1548.000000	20.666300
1547.000000	20.672400
1546.000000	20.668000
1545.000000	20.676800
1544.000000	20.678200
1543.000000	20.674500
1542.000000	20.684300
1541.000000	20.693300
1540.000000	20.708700
1539.000000	20.706800
1538.000000	20.705600
1537.000000	20.703000
1536.000000	20.695200
1535.000000	20.695700
1534.000000	20.695300
1533.000000	20.691100
1532.000000	20.681700
1531.000000	20.671400
1530.000000	20.664600
1529.000000	20.649500
1528.000000	20.630100
1527.000000	20.624300
1526.000000	20.609900
1525.000000	20.580200
1524.000000	20.568300
1523.000000	20.536500
1522.000000	20.527800
1521.000000	20.504900
1520.000000	20.505000
1519.000000	20.488600
1518.000000	20.472000
1517.000000	20.448500
1516.000000	20.412700
1515.000000	20.374400
1514.000000	20.350100
1513.000000	20.319600
1512.000000	20.284400
1511.000000	20.280900
1510.000000	20.253600
1509.000000	20.225000
1508.000000	20.193600
1507.000000	20.162100
1506.000000	20.140800
1505.000000	20.119200
1504.000000	20.094600
1503.000000	20.076400
1502.000000	20.066100
1501.000000	20.039000
1500.000000	20.033600
1499.000000	20.018400
1498.000000	20.016300
1497.000000	20.006100
1496.000000	20.006800
1495.000000	19.999700
1494.000000	20.018000
1493.000000	20.025400
1492.000000	20.049700
1491.000000	20.067700
1490.000000	20.088100
1489.000000	20.101000
1488.000000	20.110700
1487.000000	20.122200
1486.000000	20.145000
1485.000000	20.167100
1484.000000	20.199200
1483.000000	20.241700
1482.000000	20.257900
1481.000000	20.283000
1480.000000	20.305100
1479.000000	20.348100
1478.000000	20.396100
1477.000000	20.432400
1476.000000	20.465600
1475.000000	20.524500
1474.000000	20.573100
1473.000000	20.623900
1472.000000	20.658700
1471.000000	20.699600
1470.000000	20.719600
1469.000000	20.750100
1468.000000	20.812200
1467.000000	20.878700
1466.000000	20.883000
1465.000000	20.933700
1464.000000	21.014500
1463.000000	21.097400
1462.000000	21.166300
1461.000000	21.244400
1460.000000	21.314200
1459.000000	21.412800
1458.000000	21.496500
1457.000000	21.606100
1456.000000	21.707400
1455.000000	21.793500
1454.000000	21.910100
1453.000000	22.031500
1452.000000	22.150000
1451.000000	22.271500
1450.000000	22.338600
1449.000000	22.480000
1448.000000	22.641900
1447.000000	22.790800
1446.000000	22.926000
1445.000000	23.015400
1444.000000	23.153300
1443.000000	23.294600
1442.000000	23.440700
1441.000000	23.594500
1440.000000	23.721900
1439.000000	23.884900
1438.000000	24.028700
1437.000000	24.138200
1436.000000	24.288800
1435.000000	24.433100
1434.000000	24.568700
1433.000000	24.741400
1432.000000	24.869400
1431.000000	24.994300
1430.000000	25.175100
1429.000000	25.364900
1428.000000	25.569600
1427.000000	25.786400
1426.000000	26.018400
1425.000000	26.229500
1424.000000	26.483300
1423.000000	26.706800
1422.000000	26.942000
1421.000000	27.244700
1420.000000	27.496100
1419.000000	27.737500
1418.000000	27.940000
1417.000000	28.171300
1416.000000	28.446200
1415.000000	28.719900
1414.000000	28.901800
1413.000000	29.104300
1412.000000	29.327800
1411.000000	29.663700
1410.000000	30.010100
1409.000000	30.322900
1408.000000	30.664600
1407.000000	31.047900
1406.000000	31.433200
1405.000000	31.817300
1404.000000	32.148000
1403.000000	32.547600
1402.000000	32.966400
1401.000000	33.343200
1400.000000	33.615900
1399.000000	33.812900
1398.000000	34.035100
1397.000000	34.341400
1396.000000	34.555400
1395.000000	34.635100
1394.000000	34.739800
1393.000000	34.903700
1392.000000	35.081900
1391.000000	35.277100
1390.000000	35.500200
1389.000000	35.792800
1388.000000	36.080700
1387.000000	36.366900
1386.000000	36.728300
1385.000000	37.171600
1384.000000	37.583500
1383.000000	37.941600
1382.000000	38.204900
1381.000000	38.399700
1380.000000	38.493300
1379.000000	38.628600
1378.000000	38.712600
1377.000000	38.860600
1376.000000	39.034300
1375.000000	39.213900
1374.000000	39.502300
1373.000000	39.862700
1372.000000	40.232400
1371.000000	40.594900
1370.000000	40.903700
1369.000000	41.221100
1368.000000	41.499500
1367.000000	41.735800
1366.000000	41.935900
1365.000000	42.131600
1364.000000	42.304800
1363.000000	42.482800
1362.000000	42.632000
1361.000000	42.726000
1360.000000	42.742800
1359.000000	42.829800
1358.000000	42.990000
1357.000000	43.217900
1356.000000	43.546100
1355.000000	43.975000
1354.000000	44.422300
1353.000000	44.886700
1352.000000	45.453000
1351.000000	45.960700
1350.000000	46.408200
1349.000000	46.807700
1348.000000	47.192400
1347.000000	47.512200
1346.000000	47.796800
1345.000000	48.111600
1344.000000	48.399000
1343.000000	48.648200
1342.000000	48.897300
1341.000000	49.141500
1340.000000	49.374100
1339.000000	49.595100
1338.000000	49.794800
1337.000000	49.983700
1336.000000	50.164900
1335.000000	50.333800
1334.000000	50.506800
1333.000000	50.675900
1332.000000	50.830600
1331.000000	50.976600
1330.000000	51.103700
1329.000000	51.222300
1328.000000	51.340400
1327.000000	51.452200
1326.000000	51.559700
1325.000000	51.659000
1324.000000	51.760300
1323.000000	51.840000
1322.000000	51.921500
1321.000000	52.002100
1320.000000	52.083100
1319.000000	52.161900
1318.000000	52.233100
1317.000000	52.303900
1316.000000	52.368200
1315.000000	52.426300
1314.000000	52.475600
1313.000000	52.532800
1312.000000	52.594700
1311.000000	52.642300
1310.000000	52.674300
1309.000000	52.707200
1308.000000	52.735500
1307.000000	52.754500
1306.000000	52.779200
1305.000000	52.801000
1304.000000	52.819700
1303.000000	52.823200
1302.000000	52.823600
1301.000000	52.821700
1300.000000	52.821300
1299.000000	52.833500
1298.000000	52.831800
1297.000000	52.819300
1296.000000	52.799200
1295.000000	52.780200
1294.000000	52.768100
1293.000000	52.739600
1292.000000	52.714700
1291.000000	52.698000
1290.000000	52.668400
1289.000000	52.625100
1288.000000	52.578000
1287.000000	52.530100
1286.000000	52.473900
1285.000000	52.434300
1284.000000	52.383300
1283.000000	52.323100
1282.000000	52.258400
1281.000000	52.201900
1280.000000	52.152100
1279.000000	52.109400
1278.000000	52.076600
1277.000000	52.058300
1276.000000	52.048900
1275.000000	52.039900
1274.000000	52.009600
1273.000000	51.980200
1272.000000	51.962400
1271.000000	51.943400
1270.000000	51.919400
1269.000000	51.883400
1268.000000	51.842200
1267.000000	51.817100
1266.000000	51.790700
1265.000000	51.764000
1264.000000	51.738700
1263.000000	51.695400
1262.000000	51.664800
1261.000000	51.650900
1260.000000	51.614100
1259.000000	51.580300
1258.000000	51.548000
1257.000000	51.519800
1256.000000	51.460900
1255.000000	51.419400
1254.000000	51.381600
1253.000000	51.323800
1252.000000	51.268800
1251.000000	51.212300
1250.000000	51.150400
1249.000000	51.058600
1248.000000	50.983500
1247.000000	50.891600
1246.000000	50.803300
1245.000000	50.705600
1244.000000	50.599400
1243.000000	50.494100
1242.000000	50.376700
1241.000000	50.272000
1240.000000	50.143800
1239.000000	50.011500
1238.000000	49.865300
1237.000000	49.719600
1236.000000	49.587100
1235.000000	49.455500
1234.000000	49.294300
1233.000000	49.169300
1232.000000	49.029800
1231.000000	48.856900
1230.000000	48.710800
1229.000000	48.551400
1228.000000	48.401600
1227.000000	48.249400
1226.000000	48.081700
1225.000000	47.926200
1224.000000	47.761500
1223.000000	47.590700
1222.000000	47.440500
1221.000000	47.302100
1220.000000	47.150200
1219.000000	47.010300
1218.000000	46.881900
1217.000000	46.773200
1216.000000	46.632700
1215.000000	46.518200
1214.000000	46.392000
1213.000000	46.281400
1212.000000	46.168800
1211.000000	46.063400
1210.000000	45.971500
1209.000000	45.888900
1208.000000	45.825000
1207.000000	45.736000
1206.000000	45.686800
1205.000000	45.640300
1204.000000	45.618100
1203.000000	45.586200
1202.000000	45.561100
1201.000000	45.530400
1200.000000	45.471700
1199.000000	45.394600
1198.000000	45.264500
1197.000000	45.127000
1196.000000	44.924600
1195.000000	44.670400
1194.000000	44.335700
1193.000000	43.956500
1192.000000	43.504400
1191.000000	43.061100
1190.000000	42.626300
1189.000000	42.276400
1188.000000	42.018400
1187.000000	41.861500
1186.000000	41.853600
1185.000000	41.977700
1184.000000	42.231100
1183.000000	42.592900
1182.000000	43.055300
1181.000000	43.568500
1180.000000	44.016600
1179.000000	44.449600
1178.000000	44.811600
1177.000000	45.137100
1176.000000	45.422600
1175.000000	45.690700
1174.000000	45.955700
1173.000000	46.234300
1172.000000	46.527100
1171.000000	46.825600
1170.000000	47.118900
1169.000000	47.441100
1168.000000	47.722600
1167.000000	48.044500
1166.000000	48.376400
1165.000000	48.698600
1164.000000	48.992400
1163.000000	49.299900
1162.000000	49.605700
1161.000000	49.931700
1160.000000	50.181500
1159.000000	50.461900
1158.000000	50.719900
1157.000000	50.963400
1156.000000	51.142600
1155.000000	51.276200
1154.000000	51.398100
1153.000000	51.468100
1152.000000	51.454800
1151.000000	51.453200
1150.000000	51.462300
1149.000000	51.463300
1148.000000	51.511300
1147.000000	51.564300
1146.000000	51.657700
1145.000000	51.833800
1144.000000	52.019600
1143.000000	52.258300
1142.000000	52.507200
1141.000000	52.772500
1140.000000	53.028900
1139.000000	53.284400
1138.000000	53.540800
1137.000000	53.824100
1136.000000	54.125100
1135.000000	54.387400
1134.000000	54.602000
1133.000000	54.774400
1132.000000	54.985900
1131.000000	55.170600
1130.000000	55.309800
1129.000000	55.450000
1128.000000	55.535200
1127.000000	55.612600
1126.000000	55.693400
1125.000000	55.737200
1124.000000	55.799600
1123.000000	55.833700
1122.000000	55.852200
1121.000000	55.865400
1120.000000	55.892500
1119.000000	55.906700
1118.000000	55.902100
1117.000000	55.906100
1116.000000	55.894200
1115.000000	55.876100
1114.000000	55.856100
1113.000000	55.863000
1112.000000	55.860900
1111.000000	55.827200
1110.000000	55.820400
1109.000000	55.800300
1108.000000	55.788400
1107.000000	55.778400
1106.000000	55.759300
1105.000000	55.743800
1104.000000	55.722400
1103.000000	55.707200
1102.000000	55.676900
1101.000000	55.643500
1100.000000	55.636800
1099.000000	55.585700
1098.000000	55.543600
1097.000000	55.512200
1096.000000	55.491900
1095.000000	55.455700
1094.000000	55.419000
1093.000000	55.377900
1092.000000	55.315700
1091.000000	55.288500
1090.000000	55.246200
1089.000000	55.190100
1088.000000	55.122300
1087.000000	55.095500
1086.000000	55.052600
1085.000000	55.000700
1084.000000	54.939800
1083.000000	54.873900
1082.000000	54.839700
1081.000000	54.795400
1080.000000	54.746600
1079.000000	54.699100
1078.000000	54.642600
1077.000000	54.605500
1076.000000	54.554300
1075.000000	54.501700
1074.000000	54.448400
1073.000000	54.393100
1072.000000	54.346600
1071.000000	54.293800
1070.000000	54.252200
1069.000000	54.199200
1068.000000	54.148200
1067.000000	54.091400
1066.000000	54.036900
1065.000000	53.997400
1064.000000	53.958800
1063.000000	53.902400
1062.000000	53.862500
1061.000000	53.808800
1060.000000	53.739700
1059.000000	53.679600
1058.000000	53.637900
1057.000000	53.584300
1056.000000	53.510400
1055.000000	53.446800
1054.000000	53.401600
1053.000000	53.352900
1052.000000	53.297900
1051.000000	53.237800
1050.000000	53.199100
1049.000000	53.151600
1048.000000	53.100500
1047.000000	53.050800
1046.000000	53.019200
1045.000000	52.970200
1044.000000	52.926300
1043.000000	52.885600
1042.000000	52.864100
1041.000000	52.843500
1040.000000	52.801300
1039.000000	52.761200
1038.000000	52.701200
1037.000000	52.655900
1036.000000	52.599900
1035.000000	52.549100
1034.000000	52.503900
1033.000000	52.466800
1032.000000	52.412100
1031.000000	52.335300
1030.000000	52.277500
1029.000000	52.207100
1028.000000	52.134500
1027.000000	52.068600
1026.000000	52.004300
1025.000000	51.932600
1024.000000	51.854300
1023.000000	51.786400
1022.000000	51.730100
1021.000000	51.663700
1020.000000	51.594000
1019.000000	51.528200
1018.000000	51.448100
1017.000000	51.381900
1016.000000	51.329100
1015.000000	51.283100
1014.000000	51.224400
1013.000000	51.178300
1012.000000	51.150700
1011.000000	51.094300
1010.000000	51.061000
1009.000000	51.014800
1008.000000	50.968600
1007.000000	50.942600
1006.000000	50.904600
1005.000000	50.868400
1004.000000	50.820500
1003.000000	50.771900
1002.000000	50.744400
1001.000000	50.699800
1000.000000	50.637500
999.000000	50.592800
998.000000	50.555200
997.000000	50.499700
996.000000	50.448600
995.000000	50.411900
994.000000	50.373000
993.000000	50.343500
992.000000	50.297300
991.000000	50.231800
990.000000	50.198200
989.000000	50.165600
988.000000	50.107600
987.000000	50.087500
986.000000	50.047300
985.000000	50.012300
984.000000	49.987800
983.000000	49.931900
982.000000	49.888800
981.000000	49.850800
980.000000	49.813000
979.000000	49.778600
978.000000	49.735800
977.000000	49.694200
976.000000	49.664000
975.000000	49.649700
974.000000	49.589100
973.000000	49.544900
972.000000	49.496100
971.000000	49.452900
970.000000	49.421800
969.000000	49.383400
968.000000	49.325200
967.000000	49.267000
966.000000	49.252800
965.000000	49.211700
964.000000	49.159200
963.000000	49.142800
962.000000	49.141500
961.000000	49.082700
960.000000	49.048400
959.000000	49.000200
958.000000	48.984900
957.000000	48.949200
956.000000	48.913800
955.000000	48.902300
954.000000	48.844700
953.000000	48.781700
952.000000	48.762100
951.000000	48.696400
950.000000	48.670900
949.000000	48.602000
948.000000	48.527400
947.000000	48.484400
946.000000	48.462000
945.000000	48.456000
944.000000	48.405200
943.000000	48.327500
942.000000	48.268000
941.000000	48.197900
940.000000	48.170800
939.000000	48.091400
938.000000	48.031800
937.000000	47.959600
936.000000	47.978500
935.000000	47.910700
934.000000	47.862000
933.000000	47.819500
932.000000	47.759300
931.000000	47.762000
930.000000	47.738000
929.000000	47.673400
928.000000	47.605700
927.000000	47.544300
926.000000	47.481400
925.000000	47.439400
924.000000	47.424300
923.000000	47.364700
922.000000	47.302100
921.000000	47.255500
920.000000	47.178900
919.000000	47.143100
918.000000	47.087900
917.000000	47.080400
916.000000	47.016300
915.000000	46.963900
914.000000	46.857200
913.000000	46.787400
912.000000	46.798900
911.000000	46.737300
910.000000	46.714900
909.000000	46.671500
908.000000	46.641700
907.000000	46.616300
906.000000	46.610800
905.000000	46.605700
904.000000	46.590000
903.000000	46.600000
902.000000	46.598200
901.000000	46.620200
900.000000	46.598200
899.000000	46.611900
898.000000	46.582800
897.000000	46.594400
896.000000	46.584700
895.000000	46.543600
894.000000	46.532900
893.000000	46.503800
892.000000	46.496900
891.000000	46.517100
890.000000	46.499000
889.000000	46.496600
888.000000	46.480300
887.000000	46.426400
886.000000	46.353800
885.000000	46.328800
884.000000	46.278000
883.000000	46.246000
882.000000	46.165200
881.000000	46.122700
880.000000	46.118000
879.000000	46.072600
878.000000	45.970700
877.000000	45.905500
876.000000	45.881600
875.000000	45.757600
874.000000	45.718100
873.000000	45.605800
872.000000	45.574000
871.000000	45.515300
870.000000	45.401800
869.000000	45.352600
868.000000	45.226000
867.000000	45.169300
866.000000	45.052300
865.000000	44.974100
864.000000	44.836500
863.000000	44.732800
862.000000	44.505700
861.000000	44.320800
860.000000	44.151400
859.000000	43.932900
858.000000	45.414300
857.000000	44.360280
856.000000	44.230802
855.000000	44.328319
854.000000	44.662069
853.000000	44.502510
852.000000	44.792038
851.000000	44.862172
850.000000	45.006609
849.000000	45.224858
848.000000	45.232378
847.000000	45.282649
846.000000	45.665771
845.000000	45.667405
844.000000	45.846664
843.000000	45.933473
842.000000	46.001319
841.000000	45.983990
840.000000	46.146246
839.000000	46.287904
838.000000	46.317985
837.000000	46.376103
836.000000	46.617730
835.000000	46.685739
834.000000	46.759143
833.000000	46.839086
832.000000	46.879956
831.000000	46.918129
830.000000	47.026927
829.000000	47.146351
828.000000	47.164988
827.000000	47.280734
826.000000	47.380377
825.000000	47.489747
824.000000	47.463753
823.000000	47.486804
822.000000	47.525631
821.000000	47.467349
820.000000	47.531762
819.000000	47.700966
818.000000	47.758512
817.000000	47.766196
816.000000	47.813933
815.000000	47.851125
814.000000	47.882677
813.000000	47.894284
812.000000	47.865838
811.000000	47.907118
810.000000	47.888889
809.000000	47.885865
808.000000	47.931722
807.000000	47.990330
806.000000	48.033081
805.000000	48.041337
804.000000	48.102398
803.000000	48.066023
802.000000	48.029893
801.000000	48.036269
800.000000	48.028667
799.000000	47.975453
798.000000	47.974881
797.000000	47.929351
796.000000	47.947334
795.000000	48.049266
794.000000	47.991720
793.000000	47.922649
792.000000	47.881287
791.000000	47.779274
790.000000	47.752790
789.000000	47.726796
788.000000	47.683800
787.000000	47.718214
786.000000	47.601732
785.000000	47.521871
784.000000	47.531516
783.000000	47.464161
782.000000	47.360350
781.000000	47.320215
780.000000	47.287110
779.000000	47.250653
778.000000	47.264304
777.000000	47.145125
776.000000	47.059460
775.000000	47.072948
774.000000	46.997827
773.000000	46.922298
772.000000	46.854371
771.000000	46.743121
770.000000	46.688028
769.000000	46.678709
768.000000	46.630482
767.000000	46.591491
766.000000	46.586178
765.000000	46.496017
764.000000	46.401851
763.000000	46.389672
762.000000	46.374386
761.000000	46.337357
760.000000	46.298530
759.000000	46.339810
758.000000	46.263300
757.000000	46.146655
756.000000	46.139053
755.000000	46.093686
754.000000	46.029683
753.000000	46.010229
752.000000	45.969113
751.000000	45.918678
750.000000	45.828109
749.000000	45.780781
748.000000	45.782824
747.000000	45.705987
746.000000	45.666425
745.000000	45.631766
744.000000	45.565883
743.000000	45.481280
742.000000	45.465504
741.000000	45.441554
740.000000	45.344772
739.000000	45.287145
738.000000	45.273412
737.000000	45.247173
736.000000	45.152517
735.000000	45.074290
734.000000	45.079358
733.000000	45.027207
732.000000	44.932388
731.000000	44.849829
730.000000	44.787133
729.000000	44.724356
728.000000	44.649726
727.000000	44.630926
726.000000	44.622670
725.000000	44.539947
724.000000	44.460822
723.000000	44.396164
722.000000	44.337392
721.000000	44.287612
720.000000	44.271427
719.000000	44.249112
718.000000	44.185844
717.000000	44.167779
716.000000	44.132222
715.000000	44.094702
714.000000	44.045985
713.000000	44.007893
712.000000	43.954353
711.000000	43.868279
710.000000	43.834929
709.000000	43.789644
708.000000	43.708638
707.000000	43.657632
706.000000	43.583247
705.000000	43.551613
704.000000	43.477065
703.000000	43.416331
702.000000	43.374234
701.000000	43.282602
700.000000	43.200779
699.000000	43.160236
698.000000	43.072936
697.000000	43.012774
696.000000	42.944684
695.000000	42.902587
694.000000	42.836377
693.000000	42.769921
692.000000	42.716544
691.000000	42.629734
690.000000	42.533034
689.000000	42.459713
688.000000	42.387126
687.000000	42.344130
686.000000	42.288464
685.000000	42.215633
684.000000	42.108797
683.000000	42.050188
682.000000	42.002533
681.000000	41.963706
680.000000	41.889322
679.000000	41.822130
678.000000	41.778726
677.000000	41.734095
676.000000	41.671971
675.000000	41.625297
674.000000	41.586470
673.000000	41.548951
672.000000	41.465493
671.000000	41.384896
670.000000	41.349584
669.000000	41.296942
668.000000	41.203512
667.000000	41.138037
666.000000	41.059565
665.000000	40.986407
664.000000	40.908998
663.000000	40.836248
662.000000	40.744861
661.000000	40.652412
660.000000	40.497349
659.000000	40.391821
658.000000	40.282205
657.000000	40.171201
656.000000	40.036654
655.000000	39.898185
654.000000	39.740179
653.000000	39.641762
652.000000	39.481386
651.000000	39.298776
650.000000	39.109790
649.000000	38.934781
648.000000	38.763125
647.000000	38.602176
646.000000	38.420465
645.000000	38.218237
644.000000	38.024919
643.000000	37.826042
642.000000	37.621198
641.000000	37.425673
640.000000	37.167861
639.000000	36.967840
638.000000	36.794385
637.000000	36.567880
636.000000	36.378076
635.000000	36.208708
634.000000	36.053236
633.000000	35.910680
632.000000	35.784634
631.000000	35.688915
630.000000	35.558211
629.000000	35.485379
628.000000	35.418924
627.000000	35.377481
626.000000	35.386881
625.000000	35.383284
624.000000	35.396363
623.000000	35.415000
622.000000	35.480720
621.000000	35.583878
620.000000	35.697416
619.000000	35.766651
618.000000	35.873405
617.000000	35.966345
616.000000	36.117322
615.000000	36.245083
614.000000	36.407994
613.000000	36.595263
612.000000	36.779263
611.000000	36.974216
610.000000	37.214535
609.000000	37.442348
608.000000	37.681932
607.000000	37.966801
606.000000	38.218155
605.000000	38.479155
604.000000	38.756258
603.000000	39.043906
602.000000	39.326159
601.000000	39.593371
600.000000	39.875134
599.000000	40.126570
598.000000	40.389532
597.000000	40.627563
596.000000	40.846548
595.000000	41.086622
594.000000	41.301765
593.000000	41.526635
592.000000	41.738754
591.000000	41.941636
590.000000	42.188658
589.000000	42.405436
588.000000	42.626792
587.000000	42.835968
586.000000	43.073018
585.000000	43.291430
584.000000	43.524148
583.000000	43.771824
582.000000	44.038137
581.000000	44.259329
580.000000	44.493927
579.000000	44.755745
578.000000	44.954948
577.000000	45.196984
576.000000	45.411146
575.000000	45.634300
574.000000	45.818218
573.000000	46.026904
572.000000	46.202484
571.000000	46.371035
570.000000	46.547024
569.000000	46.725220
568.000000	46.890419
567.000000	47.022922
566.000000	47.156896
565.000000	47.309670
564.000000	47.422719
563.000000	47.552115
562.000000	47.639170
561.000000	47.755079
560.000000	47.864367
559.000000	48.040847
558.000000	48.112942
557.000000	48.189452
556.000000	48.292692
555.000000	48.352363
554.000000	48.406721
553.000000	48.460098
552.000000	48.471133
551.000000	48.480533
550.000000	48.496963
549.000000	48.486418
548.000000	48.425358
547.000000	48.355878
546.000000	48.305607
545.000000	48.203021
544.000000	48.049511
543.000000	47.889462
542.000000	47.705707
541.000000	47.506422
540.000000	47.279099
539.000000	47.000606
538.000000	46.744184
537.000000	46.439943
536.000000	46.105049
535.000000	45.751926
534.000000	45.354745
533.000000	44.924050
532.000000	44.491230
531.000000	44.032089
530.000000	43.512868
529.000000	42.971004
528.000000	42.448105
527.000000	41.897414
526.000000	41.335279
525.000000	40.736605
524.000000	40.112510
523.000000	39.502884
522.000000	38.885164
521.000000	38.253059
520.000000	37.628637
519.000000	36.992853
518.000000	36.359930
517.000000	35.728642
516.000000	35.094492
515.000000	34.455602
514.000000	33.829545
513.000000	33.197522
512.000000	32.578249
511.000000	31.952029
510.000000	31.337007
509.000000	30.733511
508.000000	30.175872
507.000000	29.618314
506.000000	29.068849
505.000000	28.535078
504.000000	28.019781
503.000000	27.499988
502.000000	27.009213
501.000000	26.530944
500.000000	26.058888
499.000000	25.604734
498.000000	25.181886
497.000000	24.757403
496.000000	24.343383
495.000000	23.928709
494.000000	23.526215
493.000000	23.137944
492.000000	22.760708
491.000000	22.385515
490.000000	22.025363
489.000000	21.651641
488.000000	21.293941
487.000000	20.960437
486.000000	20.609930
485.000000	20.261385
484.000000	19.927145
483.000000	19.578273
482.000000	19.225804
481.000000	18.868758
480.000000	18.515472
479.000000	18.175592
478.000000	17.854594
477.000000	17.530081
476.000000	17.231479
475.000000	16.934432
474.000000	16.654631
473.000000	16.380716
472.000000	16.117345
471.000000	15.867380
470.000000	15.628532
469.000000	15.406523
468.000000	15.197265
467.000000	15.001167
466.000000	14.817822
465.000000	14.644203
464.000000	14.473282
463.000000	14.314295
462.000000	14.174926
461.000000	14.043241
460.000000	13.929539
459.000000	13.820169
458.000000	13.723551
457.000000	13.643771
456.000000	13.566689
455.000000	13.488217
454.000000	13.418083
453.000000	13.366505
452.000000	13.308386
451.000000	13.255255
450.000000	13.192150
449.000000	13.125204
448.000000	13.079184
447.000000	13.024417
446.000000	12.960250
445.000000	12.900170
444.000000	12.828483
443.000000	12.744126
442.000000	12.670968
441.000000	12.590534
440.000000	12.501518
439.000000	12.407352
438.000000	12.307873
437.000000	12.218856
436.000000	12.132783
435.000000	12.043031
434.000000	11.947148
433.000000	11.856661
432.000000	11.764375
431.000000	11.669882
430.000000	11.568768
429.000000	11.462340
428.000000	11.370300
427.000000	11.271066
426.000000	11.165619
425.000000	11.064587
424.000000	10.947288
423.000000	10.827456
422.000000	10.702718
421.000000	10.578390
420.000000	10.457167
419.000000	10.327362
418.000000	10.195922
417.000000	10.068406
416.000000	9.930835
415.000000	9.792856
414.000000	9.653895
413.000000	9.504881
412.000000	9.340090
411.000000	9.182575
410.000000	9.030454
409.000000	8.876699
408.000000	8.713053
407.000000	8.541805
406.000000	8.374562
405.000000	8.218109
404.000000	8.062065
403.000000	7.890572
402.000000	7.740249
401.000000	7.568756
400.000000	7.409524
399.000000	7.256749
398.000000	7.093512
397.000000	6.936487
396.000000	6.788944
395.000000	6.650474
394.000000	6.512903
393.000000	6.377376
392.000000	6.238743
391.000000	6.107466
390.000000	5.985917
389.000000	5.868210
388.000000	5.742982
387.000000	5.641868
386.000000	5.551789
385.000000	5.450430
384.000000	5.356018
383.000000	5.273133
382.000000	5.187631
381.000000	5.116108
380.000000	5.051450
379.000000	4.974286
378.000000	4.893199
377.000000	4.851593
376.000000	4.753830
375.000000	4.611355
374.000000	4.559041
373.000000	4.497735
372.000000	4.470188
371.000000	4.464956
370.000000	4.419508
369.000000	4.353052
368.000000	4.432995
367.000000	4.504356
366.000000	4.421960
365.000000	4.372670
364.000000	4.314307
363.000000	4.295915
362.000000	4.323299
361.000000	4.316187
360.000000	4.269349
359.000000	4.291011
358.000000	4.303599
357.000000	4.280221
356.000000	4.300166
355.000000	4.287905
354.000000	4.351336
353.000000	4.289866
352.000000	4.264036
351.000000	4.187444
350.000000	4.269840
349.000000	4.191041
348.000000	4.266815
347.000000	4.231013
346.000000	4.156546
345.000000	4.180251
344.000000	4.209760
343.000000	4.227416
342.000000	4.231258
341.000000	4.224964
340.000000	4.211722
339.000000	4.239922
338.000000	4.087393
337.000000	4.166846
336.000000	4.284308
335.000000	4.196518
334.000000	4.200687
333.000000	4.285861
332.000000	4.241966
331.000000	4.287578
330.000000	4.426947
329.000000	4.322399
328.000000	4.247524
327.000000	4.338666
326.000000	4.400953
325.000000	4.273600
324.000000	4.203629
323.000000	4.397765
322.000000	4.342835
321.000000	4.460134
320.000000	4.501168
319.000000	4.341772
318.000000	4.223492
317.000000	4.610538
316.000000	4.264527
315.000000	4.180987
314.000000	4.195537
313.000000	4.191940
312.000000	4.170361
311.000000	4.212948
310.000000	4.187363
309.000000	4.228315
308.000000	4.274744
307.000000	4.201994
306.000000	4.160225
305.000000	4.230522
304.000000	4.233056
303.000000	4.164312
302.000000	4.202648
301.000000	4.210577
300.000000	4.234037
299.000000	4.197907
298.000000	4.224719
297.000000	4.191041
296.000000	4.188834
295.000000	4.251121
294.000000	4.269594
293.000000	4.239350
292.000000	4.296487
291.000000	4.305234
290.000000	4.257006
289.000000	4.241557
288.000000	4.288558
287.000000	4.312018
286.000000	4.252919
285.000000	4.291828
284.000000	4.291338
283.000000	4.286351
282.000000	4.270984
281.000000	4.305642
280.000000	4.285371
279.000000	4.320029
278.000000	4.330982
277.000000	4.353298
276.000000	4.310874
275.000000	4.359755
274.000000	4.333925
273.000000	4.361145
272.000000	4.365314
271.000000	4.428091
270.000000	4.417710
269.000000	4.445665
268.000000	4.414277
267.000000	4.413704
266.000000	4.441088
265.000000	4.440679
264.000000	4.448363
263.000000	4.527734
262.000000	4.527488
261.000000	4.572691
260.000000	4.573182
259.000000	4.572610
258.000000	4.598767
257.000000	4.592064
256.000000	4.600810
255.000000	4.587078
254.000000	4.666776
253.000000	4.630809
252.000000	4.629502
251.000000	4.670944
250.000000	4.642498
