PE UV       SUBTECH     SPECTRUM    ASCII       PEDS        4.00        
   -1
CICIMAUCR0014-4.Sample.ASC
24/04/23
10:33:05.00
24/04/23
10:33:05.00
Vinicio Soto Monge
C. cupreomarginata
250,000000
1
Lambda 1050
1050L1511233
PerkinElmer UV WinLab 6.3.2.0749 / 2.02.05 Lambda 900 UV/VIS/NIR, Aug  7 2015 09:38:08

0
0
3350/servo 860,8/2
0
0
UV/VIS
1
1
1
DoubleDePol,CommonBeamDepol,RBeamAtt,SBeamAtt,60mm sphere, WB InGaAs Detector
0
0
0
0
Program
Program
3350/servo 860,8/2
3350/0,2 860,8/0,2
3350/0,2 860,8/0,2
0
15.00
 
 
 
0
 
860,8
319,2
860,8
Front
100
on
S:100 R:100
0
0
0
0
 
0
 
 
 
0
 
 
0
0
0
0
0
 
 
 
 
0
0


0
0
#HDR
-1
-1
#GR
nm
%R
1.0
0.0
2500,000000
-1,000000
2251
8
76,501800
5,863200
#DATA
2500.000000	6.895800
2499.000000	6.855700
2498.000000	6.761400
2497.000000	6.724700
2496.000000	6.792300
2495.000000	6.731400
2494.000000	6.651400
2493.000000	6.703700
2492.000000	6.723400
2491.000000	6.756500
2490.000000	6.638700
2489.000000	6.614000
2488.000000	6.565500
2487.000000	6.666800
2486.000000	6.624800
2485.000000	6.611500
2484.000000	6.650100
2483.000000	6.587600
2482.000000	6.612800
2481.000000	6.595100
2480.000000	6.573500
2479.000000	6.623900
2478.000000	6.629900
2477.000000	6.599100
2476.000000	6.579800
2475.000000	6.606000
2474.000000	6.579500
2473.000000	6.615200
2472.000000	6.571400
2471.000000	6.598000
2470.000000	6.637300
2469.000000	6.615900
2468.000000	6.605100
2467.000000	6.653600
2466.000000	6.658300
2465.000000	6.650500
2464.000000	6.663400
2463.000000	6.712800
2462.000000	6.710600
2461.000000	6.732900
2460.000000	6.746200
2459.000000	6.778400
2458.000000	6.782800
2457.000000	6.840200
2456.000000	6.873900
2455.000000	6.917000
2454.000000	6.981900
2453.000000	6.986700
2452.000000	7.018000
2451.000000	7.074600
2450.000000	7.116000
2449.000000	7.143400
2448.000000	7.189900
2447.000000	7.215300
2446.000000	7.280100
2445.000000	7.314800
2444.000000	7.366000
2443.000000	7.422900
2442.000000	7.448400
2441.000000	7.511800
2440.000000	7.534700
2439.000000	7.564900
2438.000000	7.614800
2437.000000	7.650200
2436.000000	7.680100
2435.000000	7.725400
2434.000000	7.768300
2433.000000	7.793100
2432.000000	7.825200
2431.000000	7.853800
2430.000000	7.895200
2429.000000	7.919600
2428.000000	7.929900
2427.000000	7.989900
2426.000000	8.011400
2425.000000	8.026100
2424.000000	8.034500
2423.000000	8.035400
2422.000000	8.047700
2421.000000	8.057400
2420.000000	8.070000
2419.000000	8.079500
2418.000000	8.098900
2417.000000	8.115800
2416.000000	8.136800
2415.000000	8.143700
2414.000000	8.146000
2413.000000	8.162700
2412.000000	8.179300
2411.000000	8.201600
2410.000000	8.214300
2409.000000	8.226000
2408.000000	8.255700
2407.000000	8.268300
2406.000000	8.287800
2405.000000	8.293100
2404.000000	8.300500
2403.000000	8.326000
2402.000000	8.352500
2401.000000	8.377500
2400.000000	8.385600
2399.000000	8.404700
2398.000000	8.425300
2397.000000	8.448100
2396.000000	8.474100
2395.000000	8.499900
2394.000000	8.516500
2393.000000	8.544700
2392.000000	8.571900
2391.000000	8.577600
2390.000000	8.595600
2389.000000	8.605600
2388.000000	8.625400
2387.000000	8.640900
2386.000000	8.639200
2385.000000	8.642900
2384.000000	8.661600
2383.000000	8.664300
2382.000000	8.666100
2381.000000	8.662800
2380.000000	8.659100
2379.000000	8.667500
2378.000000	8.666300
2377.000000	8.660800
2376.000000	8.663600
2375.000000	8.653500
2374.000000	8.626900
2373.000000	8.616500
2372.000000	8.609800
2371.000000	8.598700
2370.000000	8.591800
2369.000000	8.571600
2368.000000	8.543700
2367.000000	8.504700
2366.000000	8.466300
2365.000000	8.456700
2364.000000	8.445800
2363.000000	8.398500
2362.000000	8.345700
2361.000000	8.325100
2360.000000	8.298400
2359.000000	8.251700
2358.000000	8.209700
2357.000000	8.175500
2356.000000	8.143100
2355.000000	8.123500
2354.000000	8.122300
2353.000000	8.128400
2352.000000	8.129500
2351.000000	8.130300
2350.000000	8.146900
2349.000000	8.165400
2348.000000	8.213300
2347.000000	8.248000
2346.000000	8.264700
2345.000000	8.300100
2344.000000	8.347800
2343.000000	8.387600
2342.000000	8.425000
2341.000000	8.485100
2340.000000	8.505600
2339.000000	8.512200
2338.000000	8.535800
2337.000000	8.557000
2336.000000	8.572400
2335.000000	8.571100
2334.000000	8.559800
2333.000000	8.530600
2332.000000	8.510600
2331.000000	8.503600
2330.000000	8.482500
2329.000000	8.447400
2328.000000	8.407900
2327.000000	8.376300
2326.000000	8.357700
2325.000000	8.315200
2324.000000	8.256200
2323.000000	8.201500
2322.000000	8.149500
2321.000000	8.096800
2320.000000	8.031000
2319.000000	7.971700
2318.000000	7.905300
2317.000000	7.829400
2316.000000	7.758400
2315.000000	7.702600
2314.000000	7.636000
2313.000000	7.574300
2312.000000	7.534100
2311.000000	7.473200
2310.000000	7.438400
2309.000000	7.411300
2308.000000	7.386900
2307.000000	7.362400
2306.000000	7.367100
2305.000000	7.377400
2304.000000	7.381600
2303.000000	7.437600
2302.000000	7.478000
2301.000000	7.506400
2300.000000	7.571600
2299.000000	7.640100
2298.000000	7.704300
2297.000000	7.765800
2296.000000	7.826600
2295.000000	7.892800
2294.000000	7.929800
2293.000000	7.995200
2292.000000	8.035900
2291.000000	8.059600
2290.000000	8.082700
2289.000000	8.097900
2288.000000	8.106000
2287.000000	8.098900
2286.000000	8.084700
2285.000000	8.091300
2284.000000	8.057500
2283.000000	8.048700
2282.000000	8.007400
2281.000000	7.989600
2280.000000	7.925800
2279.000000	7.908800
2278.000000	7.877600
2277.000000	7.851300
2276.000000	7.814600
2275.000000	7.774100
2274.000000	7.767700
2273.000000	7.761400
2272.000000	7.761800
2271.000000	7.786200
2270.000000	7.792400
2269.000000	7.805300
2268.000000	7.857400
2267.000000	7.883700
2266.000000	7.942500
2265.000000	8.013900
2264.000000	8.140400
2263.000000	8.224100
2262.000000	8.344900
2261.000000	8.474000
2260.000000	8.630200
2259.000000	8.808600
2258.000000	8.951500
2257.000000	9.146400
2256.000000	9.317600
2255.000000	9.499600
2254.000000	9.680400
2253.000000	9.858200
2252.000000	10.015900
2251.000000	10.211700
2250.000000	10.360000
2249.000000	10.496600
2248.000000	10.635600
2247.000000	10.787900
2246.000000	10.908400
2245.000000	11.019100
2244.000000	11.119600
2243.000000	11.249500
2242.000000	11.359500
2241.000000	11.439900
2240.000000	11.524500
2239.000000	11.618800
2238.000000	11.688500
2237.000000	11.772200
2236.000000	11.839800
2235.000000	11.900400
2234.000000	11.958400
2233.000000	11.996400
2232.000000	12.079000
2231.000000	12.102200
2230.000000	12.125100
2229.000000	12.169800
2228.000000	12.185400
2227.000000	12.215700
2226.000000	12.232600
2225.000000	12.256500
2224.000000	12.270700
2223.000000	12.264300
2222.000000	12.271800
2221.000000	12.275500
2220.000000	12.260200
2219.000000	12.244900
2218.000000	12.246400
2217.000000	12.247600
2216.000000	12.234800
2215.000000	12.233400
2214.000000	12.214400
2213.000000	12.198400
2212.000000	12.198600
2211.000000	12.181500
2210.000000	12.166700
2209.000000	12.146800
2208.000000	12.161600
2207.000000	12.143900
2206.000000	12.142500
2205.000000	12.128000
2204.000000	12.138000
2203.000000	12.128100
2202.000000	12.121500
2201.000000	12.114700
2200.000000	12.091800
2199.000000	12.102100
2198.000000	12.100200
2197.000000	12.116900
2196.000000	12.112800
2195.000000	12.100800
2194.000000	12.100700
2193.000000	12.092500
2192.000000	12.085500
2191.000000	12.089800
2190.000000	12.091100
2189.000000	12.080000
2188.000000	12.062800
2187.000000	12.065500
2186.000000	12.061700
2185.000000	12.040800
2184.000000	12.041500
2183.000000	12.026000
2182.000000	12.009300
2181.000000	11.993800
2180.000000	11.996200
2179.000000	11.992200
2178.000000	11.996900
2177.000000	11.982300
2176.000000	11.958500
2175.000000	11.963500
2174.000000	11.970000
2173.000000	11.986900
2172.000000	12.004100
2171.000000	12.003900
2170.000000	11.988100
2169.000000	11.999500
2168.000000	12.014400
2167.000000	12.029600
2166.000000	12.030500
2165.000000	12.047000
2164.000000	12.056100
2163.000000	12.064700
2162.000000	12.075400
2161.000000	12.087700
2160.000000	12.104800
2159.000000	12.121000
2158.000000	12.137800
2157.000000	12.146800
2156.000000	12.168500
2155.000000	12.200900
2154.000000	12.219500
2153.000000	12.215900
2152.000000	12.239400
2151.000000	12.264400
2150.000000	12.291100
2149.000000	12.301100
2148.000000	12.323700
2147.000000	12.341400
2146.000000	12.344700
2145.000000	12.362200
2144.000000	12.383100
2143.000000	12.400000
2142.000000	12.415900
2141.000000	12.425000
2140.000000	12.422000
2139.000000	12.445200
2138.000000	12.450900
2137.000000	12.452400
2136.000000	12.449000
2135.000000	12.458300
2134.000000	12.454100
2133.000000	12.457700
2132.000000	12.463100
2131.000000	12.461700
2130.000000	12.462300
2129.000000	12.453000
2128.000000	12.446600
2127.000000	12.442300
2126.000000	12.431400
2125.000000	12.423800
2124.000000	12.405900
2123.000000	12.390700
2122.000000	12.381700
2121.000000	12.363000
2120.000000	12.326800
2119.000000	12.311900
2118.000000	12.297000
2117.000000	12.273100
2116.000000	12.250100
2115.000000	12.221600
2114.000000	12.201500
2113.000000	12.199300
2112.000000	12.158400
2111.000000	12.121100
2110.000000	12.112100
2109.000000	12.097100
2108.000000	12.072400
2107.000000	12.050200
2106.000000	12.032000
2105.000000	12.008800
2104.000000	11.984700
2103.000000	11.975600
2102.000000	11.956000
2101.000000	11.934200
2100.000000	11.911300
2099.000000	11.873900
2098.000000	11.856600
2097.000000	11.853500
2096.000000	11.842800
2095.000000	11.806800
2094.000000	11.775200
2093.000000	11.772300
2092.000000	11.758000
2091.000000	11.745600
2090.000000	11.731700
2089.000000	11.716100
2088.000000	11.701600
2087.000000	11.674200
2086.000000	11.659700
2085.000000	11.643900
2084.000000	11.629400
2083.000000	11.612700
2082.000000	11.594900
2081.000000	11.578200
2080.000000	11.566800
2079.000000	11.545100
2078.000000	11.525200
2077.000000	11.513700
2076.000000	11.491800
2075.000000	11.468900
2074.000000	11.456200
2073.000000	11.451900
2072.000000	11.418800
2071.000000	11.403300
2070.000000	11.401500
2069.000000	11.380600
2068.000000	11.350900
2067.000000	11.333100
2066.000000	11.316700
2065.000000	11.307800
2064.000000	11.296900
2063.000000	11.285500
2062.000000	11.256800
2061.000000	11.252700
2060.000000	11.250600
2059.000000	11.252000
2058.000000	11.259700
2057.000000	11.281400
2056.000000	11.300800
2055.000000	11.300800
2054.000000	11.327300
2053.000000	11.349700
2052.000000	11.392100
2051.000000	11.421100
2050.000000	11.452000
2049.000000	11.512400
2048.000000	11.553000
2047.000000	11.616700
2046.000000	11.676500
2045.000000	11.749500
2044.000000	11.799600
2043.000000	11.867400
2042.000000	11.923900
2041.000000	11.997500
2040.000000	12.051900
2039.000000	12.109700
2038.000000	12.180500
2037.000000	12.259300
2036.000000	12.293700
2035.000000	12.339400
2034.000000	12.390500
2033.000000	12.432500
2032.000000	12.466000
2031.000000	12.528100
2030.000000	12.578600
2029.000000	12.597200
2028.000000	12.622900
2027.000000	12.665000
2026.000000	12.689400
2025.000000	12.738700
2024.000000	12.745300
2023.000000	12.765300
2022.000000	12.790100
2021.000000	12.811000
2020.000000	12.838700
2019.000000	12.854800
2018.000000	12.875900
2017.000000	12.898100
2016.000000	12.920700
2015.000000	12.924400
2014.000000	12.922600
2013.000000	12.907000
2012.000000	12.907600
2011.000000	12.899900
2010.000000	12.885500
2009.000000	12.879400
2008.000000	12.860400
2007.000000	12.847100
2006.000000	12.841000
2005.000000	12.811100
2004.000000	12.763700
2003.000000	12.741200
2002.000000	12.728200
2001.000000	12.701900
2000.000000	12.666700
1999.000000	12.631700
1998.000000	12.584800
1997.000000	12.535600
1996.000000	12.510600
1995.000000	12.452200
1994.000000	12.416400
1993.000000	12.370400
1992.000000	12.307600
1991.000000	12.268600
1990.000000	12.220000
1989.000000	12.148900
1988.000000	12.096600
1987.000000	12.033900
1986.000000	11.985300
1985.000000	11.922600
1984.000000	11.876100
1983.000000	11.816000
1982.000000	11.760700
1981.000000	11.690600
1980.000000	11.655600
1979.000000	11.596300
1978.000000	11.532100
1977.000000	11.480000
1976.000000	11.410100
1975.000000	11.338100
1974.000000	11.297600
1973.000000	11.256000
1972.000000	11.203300
1971.000000	11.138200
1970.000000	11.081600
1969.000000	11.028600
1968.000000	10.990600
1967.000000	10.950400
1966.000000	10.871200
1965.000000	10.840000
1964.000000	10.786800
1963.000000	10.754800
1962.000000	10.685300
1961.000000	10.628700
1960.000000	10.614000
1959.000000	10.577700
1958.000000	10.506100
1957.000000	10.447800
1956.000000	10.411600
1955.000000	10.377000
1954.000000	10.324300
1953.000000	10.284600
1952.000000	10.234700
1951.000000	10.221600
1950.000000	10.196500
1949.000000	10.161500
1948.000000	10.120100
1947.000000	10.097100
1946.000000	10.052600
1945.000000	10.031700
1944.000000	10.000000
1943.000000	10.005500
1942.000000	9.972800
1941.000000	9.997800
1940.000000	9.995000
1939.000000	9.981200
1938.000000	9.967100
1937.000000	9.976500
1936.000000	9.992400
1935.000000	10.013400
1934.000000	10.024100
1933.000000	10.068000
1932.000000	10.101300
1931.000000	10.143400
1930.000000	10.176500
1929.000000	10.226000
1928.000000	10.291700
1927.000000	10.334100
1926.000000	10.396900
1925.000000	10.475400
1924.000000	10.550000
1923.000000	10.644900
1922.000000	10.738200
1921.000000	10.815200
1920.000000	10.887500
1919.000000	10.959300
1918.000000	11.099800
1917.000000	11.230900
1916.000000	11.374900
1915.000000	11.502900
1914.000000	11.656700
1913.000000	11.743600
1912.000000	11.878700
1911.000000	12.044400
1910.000000	12.185400
1909.000000	12.336800
1908.000000	12.524100
1907.000000	12.721500
1906.000000	12.888100
1905.000000	13.045200
1904.000000	13.216700
1903.000000	13.418700
1902.000000	13.610700
1901.000000	13.809900
1900.000000	14.032400
1899.000000	14.225600
1898.000000	14.450800
1897.000000	14.686100
1896.000000	14.930300
1895.000000	15.188900
1894.000000	15.464400
1893.000000	15.722700
1892.000000	16.020600
1891.000000	16.312900
1890.000000	16.630500
1889.000000	16.937500
1888.000000	17.271300
1887.000000	17.658600
1886.000000	18.089600
1885.000000	18.533400
1884.000000	19.025400
1883.000000	19.535100
1882.000000	20.052700
1881.000000	20.614200
1880.000000	21.142000
1879.000000	21.672700
1878.000000	22.178300
1877.000000	22.659400
1876.000000	23.133300
1875.000000	23.586900
1874.000000	24.016900
1873.000000	24.401200
1872.000000	24.750700
1871.000000	25.054200
1870.000000	25.317300
1869.000000	25.594800
1868.000000	25.804600
1867.000000	25.969400
1866.000000	26.133500
1865.000000	26.286600
1864.000000	26.418700
1863.000000	26.558200
1862.000000	26.690600
1861.000000	26.786700
1860.000000	26.866600
1859.000000	26.909500
1858.000000	26.934200
1857.000000	26.969800
1856.000000	26.993500
1855.000000	26.981100
1854.000000	26.933700
1853.000000	26.875100
1852.000000	26.858500
1851.000000	26.858600
1850.000000	26.872200
1849.000000	26.847700
1848.000000	26.735900
1847.000000	26.609500
1846.000000	26.518700
1845.000000	26.495200
1844.000000	26.507900
1843.000000	26.518500
1842.000000	26.492100
1841.000000	26.438300
1840.000000	26.374400
1839.000000	26.334900
1838.000000	26.302600
1837.000000	26.235200
1836.000000	26.139100
1835.000000	26.049800
1834.000000	25.971000
1833.000000	25.912300
1832.000000	25.861800
1831.000000	25.781000
1830.000000	25.677400
1829.000000	25.586700
1828.000000	25.481100
1827.000000	25.389400
1826.000000	25.308000
1825.000000	25.238100
1824.000000	25.214300
1823.000000	25.215200
1822.000000	25.191600
1821.000000	25.122800
1820.000000	25.046800
1819.000000	25.003200
1818.000000	24.997100
1817.000000	25.002600
1816.000000	24.992900
1815.000000	24.969500
1814.000000	24.961700
1813.000000	24.950200
1812.000000	24.932400
1811.000000	24.879900
1810.000000	24.827900
1809.000000	24.802000
1808.000000	24.767400
1807.000000	24.703800
1806.000000	24.633500
1805.000000	24.561300
1804.000000	24.508600
1803.000000	24.459100
1802.000000	24.416300
1801.000000	24.353300
1800.000000	24.283500
1799.000000	24.211400
1798.000000	24.153000
1797.000000	24.114800
1796.000000	24.054100
1795.000000	23.988600
1794.000000	23.939000
1793.000000	23.885100
1792.000000	23.832500
1791.000000	23.773500
1790.000000	23.692100
1789.000000	23.625500
1788.000000	23.559900
1787.000000	23.483900
1786.000000	23.409100
1785.000000	23.304800
1784.000000	23.203300
1783.000000	23.119000
1782.000000	23.032600
1781.000000	22.948200
1780.000000	22.858400
1779.000000	22.753900
1778.000000	22.651200
1777.000000	22.547800
1776.000000	22.446100
1775.000000	22.318200
1774.000000	22.188300
1773.000000	22.049800
1772.000000	21.914100
1771.000000	21.785900
1770.000000	21.637700
1769.000000	21.512200
1768.000000	21.398800
1767.000000	21.287600
1766.000000	21.200100
1765.000000	21.117700
1764.000000	21.057000
1763.000000	21.055500
1762.000000	21.072500
1761.000000	21.121200
1760.000000	21.186500
1759.000000	21.256000
1758.000000	21.334200
1757.000000	21.402700
1756.000000	21.447600
1755.000000	21.491000
1754.000000	21.487800
1753.000000	21.511100
1752.000000	21.503700
1751.000000	21.472900
1750.000000	21.433700
1749.000000	21.366800
1748.000000	21.293700
1747.000000	21.214000
1746.000000	21.091300
1745.000000	20.942200
1744.000000	20.793500
1743.000000	20.612300
1742.000000	20.398500
1741.000000	20.178200
1740.000000	19.930000
1739.000000	19.710400
1738.000000	19.502400
1737.000000	19.315800
1736.000000	19.205700
1735.000000	19.104100
1734.000000	19.070400
1733.000000	19.068600
1732.000000	19.105500
1731.000000	19.199200
1730.000000	19.326300
1729.000000	19.423400
1728.000000	19.549800
1727.000000	19.673400
1726.000000	19.773100
1725.000000	19.870600
1724.000000	19.939500
1723.000000	19.985400
1722.000000	20.001100
1721.000000	20.010600
1720.000000	20.008900
1719.000000	19.990900
1718.000000	20.047500
1717.000000	20.062200
1716.000000	20.112900
1715.000000	20.152200
1714.000000	20.196600
1713.000000	20.253100
1712.000000	20.300600
1711.000000	20.313600
1710.000000	20.304600
1709.000000	20.299200
1708.000000	20.268600
1707.000000	20.218100
1706.000000	20.183700
1705.000000	20.117700
1704.000000	20.035100
1703.000000	19.957100
1702.000000	19.825100
1701.000000	19.681700
1700.000000	19.505100
1699.000000	19.362000
1698.000000	19.208200
1697.000000	19.090500
1696.000000	19.023100
1695.000000	19.032500
1694.000000	19.091400
1693.000000	19.204100
1692.000000	19.371800
1691.000000	19.542700
1690.000000	19.737300
1689.000000	19.845600
1688.000000	19.925400
1687.000000	19.948900
1686.000000	19.979500
1685.000000	20.002400
1684.000000	20.113500
1683.000000	20.323500
1682.000000	20.641800
1681.000000	21.097200
1680.000000	21.636600
1679.000000	22.229700
1678.000000	22.795400
1677.000000	23.345700
1676.000000	23.821500
1675.000000	24.260800
1674.000000	24.655500
1673.000000	24.984400
1672.000000	25.254500
1671.000000	25.495000
1670.000000	25.696900
1669.000000	25.893700
1668.000000	26.056500
1667.000000	26.228400
1666.000000	26.316900
1665.000000	26.417400
1664.000000	26.493100
1663.000000	26.571400
1662.000000	26.635400
1661.000000	26.666700
1660.000000	26.690300
1659.000000	26.745900
1658.000000	26.767300
1657.000000	26.755900
1656.000000	26.753500
1655.000000	26.741300
1654.000000	26.725400
1653.000000	26.708900
1652.000000	26.672000
1651.000000	26.647100
1650.000000	26.609000
1649.000000	26.570200
1648.000000	26.529600
1647.000000	26.466700
1646.000000	26.405500
1645.000000	26.335300
1644.000000	26.271200
1643.000000	26.214500
1642.000000	26.143700
1641.000000	26.074600
1640.000000	25.996400
1639.000000	25.914400
1638.000000	25.846800
1637.000000	25.771100
1636.000000	25.691600
1635.000000	25.608600
1634.000000	25.520300
1633.000000	25.441900
1632.000000	25.366900
1631.000000	25.283200
1630.000000	25.183800
1629.000000	25.084200
1628.000000	24.992300
1627.000000	24.896100
1626.000000	24.812000
1625.000000	24.720600
1624.000000	24.632700
1623.000000	24.553800
1622.000000	24.458200
1621.000000	24.371300
1620.000000	24.282000
1619.000000	24.205800
1618.000000	24.128600
1617.000000	24.033300
1616.000000	23.941100
1615.000000	23.869400
1614.000000	23.796000
1613.000000	23.704700
1612.000000	23.628200
1611.000000	23.561600
1610.000000	23.484800
1609.000000	23.404300
1608.000000	23.336200
1607.000000	23.264100
1606.000000	23.186900
1605.000000	23.120400
1604.000000	23.030900
1603.000000	22.955200
1602.000000	22.903200
1601.000000	22.837900
1600.000000	22.769100
1599.000000	22.706400
1598.000000	22.640700
1597.000000	22.572800
1596.000000	22.501500
1595.000000	22.439400
1594.000000	22.389900
1593.000000	22.347900
1592.000000	22.287700
1591.000000	22.236800
1590.000000	22.185800
1589.000000	22.128500
1588.000000	22.089200
1587.000000	22.047600
1586.000000	21.997000
1585.000000	21.949500
1584.000000	21.921300
1583.000000	21.878300
1582.000000	21.833600
1581.000000	21.806700
1580.000000	21.795300
1579.000000	21.788000
1578.000000	21.760000
1577.000000	21.730700
1576.000000	21.711700
1575.000000	21.702800
1574.000000	21.683300
1573.000000	21.680700
1572.000000	21.687500
1571.000000	21.671100
1570.000000	21.666900
1569.000000	21.677300
1568.000000	21.688600
1567.000000	21.695000
1566.000000	21.704000
1565.000000	21.713000
1564.000000	21.718600
1563.000000	21.722100
1562.000000	21.722000
1561.000000	21.727400
1560.000000	21.741000
1559.000000	21.731000
1558.000000	21.723600
1557.000000	21.719300
1556.000000	21.707500
1555.000000	21.713700
1554.000000	21.703100
1553.000000	21.679200
1552.000000	21.664300
1551.000000	21.648100
1550.000000	21.637300
1549.000000	21.630600
1548.000000	21.607300
1547.000000	21.575200
1546.000000	21.552700
1545.000000	21.532000
1544.000000	21.497300
1543.000000	21.476700
1542.000000	21.475400
1541.000000	21.474000
1540.000000	21.450000
1539.000000	21.420500
1538.000000	21.406200
1537.000000	21.392300
1536.000000	21.371700
1535.000000	21.342000
1534.000000	21.323800
1533.000000	21.292700
1532.000000	21.263300
1531.000000	21.228500
1530.000000	21.199700
1529.000000	21.173200
1528.000000	21.137100
1527.000000	21.104300
1526.000000	21.065300
1525.000000	21.032200
1524.000000	21.006300
1523.000000	20.957300
1522.000000	20.908200
1521.000000	20.868600
1520.000000	20.826700
1519.000000	20.781200
1518.000000	20.743200
1517.000000	20.712800
1516.000000	20.678100
1515.000000	20.630300
1514.000000	20.581800
1513.000000	20.545500
1512.000000	20.491300
1511.000000	20.443100
1510.000000	20.406300
1509.000000	20.349800
1508.000000	20.303100
1507.000000	20.277500
1506.000000	20.222500
1505.000000	20.164500
1504.000000	20.117200
1503.000000	20.093400
1502.000000	20.040000
1501.000000	20.009200
1500.000000	19.966200
1499.000000	19.939000
1498.000000	19.912300
1497.000000	19.872700
1496.000000	19.830100
1495.000000	19.821800
1494.000000	19.806000
1493.000000	19.804400
1492.000000	19.769800
1491.000000	19.752000
1490.000000	19.733300
1489.000000	19.728600
1488.000000	19.717200
1487.000000	19.705700
1486.000000	19.695900
1485.000000	19.674600
1484.000000	19.678300
1483.000000	19.670800
1482.000000	19.684800
1481.000000	19.682000
1480.000000	19.686200
1479.000000	19.695800
1478.000000	19.698500
1477.000000	19.700900
1476.000000	19.709300
1475.000000	19.715200
1474.000000	19.771400
1473.000000	19.794900
1472.000000	19.815000
1471.000000	19.818500
1470.000000	19.823600
1469.000000	19.829000
1468.000000	19.865400
1467.000000	19.866500
1466.000000	19.915900
1465.000000	19.942000
1464.000000	19.981900
1463.000000	20.040300
1462.000000	20.083000
1461.000000	20.122300
1460.000000	20.175200
1459.000000	20.231400
1458.000000	20.319200
1457.000000	20.405800
1456.000000	20.484700
1455.000000	20.558300
1454.000000	20.644500
1453.000000	20.756300
1452.000000	20.865700
1451.000000	20.959400
1450.000000	21.053800
1449.000000	21.118100
1448.000000	21.256600
1447.000000	21.405400
1446.000000	21.520200
1445.000000	21.620700
1444.000000	21.735500
1443.000000	21.872400
1442.000000	21.985500
1441.000000	22.128000
1440.000000	22.246000
1439.000000	22.376900
1438.000000	22.536800
1437.000000	22.657100
1436.000000	22.794200
1435.000000	22.949300
1434.000000	23.083900
1433.000000	23.247600
1432.000000	23.418900
1431.000000	23.531500
1430.000000	23.708200
1429.000000	23.926200
1428.000000	24.104200
1427.000000	24.308000
1426.000000	24.541000
1425.000000	24.804800
1424.000000	25.048500
1423.000000	25.282400
1422.000000	25.489500
1421.000000	25.794100
1420.000000	26.073400
1419.000000	26.326600
1418.000000	26.564400
1417.000000	26.794500
1416.000000	27.114400
1415.000000	27.427000
1414.000000	27.701800
1413.000000	27.942000
1412.000000	28.198700
1411.000000	28.573000
1410.000000	28.981400
1409.000000	29.351400
1408.000000	29.763100
1407.000000	30.192400
1406.000000	30.634200
1405.000000	31.071900
1404.000000	31.502100
1403.000000	31.936100
1402.000000	32.481300
1401.000000	32.974100
1400.000000	33.318900
1399.000000	33.662200
1398.000000	33.995500
1397.000000	34.362700
1396.000000	34.707800
1395.000000	34.953800
1394.000000	35.196800
1393.000000	35.458500
1392.000000	35.765500
1391.000000	36.070400
1390.000000	36.413800
1389.000000	36.837400
1388.000000	37.275400
1387.000000	37.686200
1386.000000	38.180600
1385.000000	38.757400
1384.000000	39.301300
1383.000000	39.801700
1382.000000	40.212200
1381.000000	40.513600
1380.000000	40.709700
1379.000000	40.885500
1378.000000	41.036100
1377.000000	41.195500
1376.000000	41.393400
1375.000000	41.663800
1374.000000	42.025400
1373.000000	42.475000
1372.000000	42.898700
1371.000000	43.333000
1370.000000	43.744900
1369.000000	44.118700
1368.000000	44.483900
1367.000000	44.812300
1366.000000	45.057600
1365.000000	45.306800
1364.000000	45.530600
1363.000000	45.743200
1362.000000	45.954600
1361.000000	46.052700
1360.000000	46.082700
1359.000000	46.250300
1358.000000	46.407800
1357.000000	46.654300
1356.000000	47.057800
1355.000000	47.592000
1354.000000	48.204300
1353.000000	48.833900
1352.000000	49.568400
1351.000000	50.256100
1350.000000	50.855200
1349.000000	51.397300
1348.000000	51.911300
1347.000000	52.383400
1346.000000	52.787500
1345.000000	53.247700
1344.000000	53.655300
1343.000000	54.029800
1342.000000	54.384600
1341.000000	54.738800
1340.000000	55.089900
1339.000000	55.423100
1338.000000	55.736200
1337.000000	56.028100
1336.000000	56.319300
1335.000000	56.603800
1334.000000	56.881500
1333.000000	57.150400
1332.000000	57.393100
1331.000000	57.625200
1330.000000	57.851300
1329.000000	58.064400
1328.000000	58.266300
1327.000000	58.454000
1326.000000	58.627200
1325.000000	58.817700
1324.000000	58.995100
1323.000000	59.150100
1322.000000	59.293500
1321.000000	59.432300
1320.000000	59.581500
1319.000000	59.724800
1318.000000	59.833000
1317.000000	59.956900
1316.000000	60.084800
1315.000000	60.200500
1314.000000	60.315500
1313.000000	60.418200
1312.000000	60.502100
1311.000000	60.586200
1310.000000	60.668600
1309.000000	60.752200
1308.000000	60.817700
1307.000000	60.875700
1306.000000	60.929700
1305.000000	60.968200
1304.000000	60.998700
1303.000000	61.036400
1302.000000	61.065900
1301.000000	61.080700
1300.000000	61.087200
1299.000000	61.095800
1298.000000	61.107000
1297.000000	61.101400
1296.000000	61.091100
1295.000000	61.081700
1294.000000	61.066100
1293.000000	61.054800
1292.000000	61.038700
1291.000000	61.001200
1290.000000	60.957700
1289.000000	60.908600
1288.000000	60.856800
1287.000000	60.801100
1286.000000	60.732400
1285.000000	60.657600
1284.000000	60.580000
1283.000000	60.498000
1282.000000	60.417300
1281.000000	60.341900
1280.000000	60.269200
1279.000000	60.193300
1278.000000	60.116200
1277.000000	60.048900
1276.000000	59.990800
1275.000000	59.927300
1274.000000	59.871500
1273.000000	59.832000
1272.000000	59.782000
1271.000000	59.737500
1270.000000	59.694100
1269.000000	59.644300
1268.000000	59.585900
1267.000000	59.538600
1266.000000	59.480800
1265.000000	59.430600
1264.000000	59.373600
1263.000000	59.315600
1262.000000	59.258500
1261.000000	59.192800
1260.000000	59.125100
1259.000000	59.069300
1258.000000	59.015400
1257.000000	58.945000
1256.000000	58.857000
1255.000000	58.782600
1254.000000	58.703800
1253.000000	58.597900
1252.000000	58.501600
1251.000000	58.405000
1250.000000	58.309500
1249.000000	58.180600
1248.000000	58.052300
1247.000000	57.920900
1246.000000	57.759800
1245.000000	57.617300
1244.000000	57.460200
1243.000000	57.291400
1242.000000	57.113300
1241.000000	56.934800
1240.000000	56.722000
1239.000000	56.526100
1238.000000	56.350800
1237.000000	56.144700
1236.000000	55.926200
1235.000000	55.714700
1234.000000	55.508900
1233.000000	55.292300
1232.000000	55.066800
1231.000000	54.830700
1230.000000	54.607700
1229.000000	54.390600
1228.000000	54.162600
1227.000000	53.933000
1226.000000	53.697100
1225.000000	53.462600
1224.000000	53.233200
1223.000000	53.009600
1222.000000	52.794000
1221.000000	52.578900
1220.000000	52.382800
1219.000000	52.178300
1218.000000	51.966600
1217.000000	51.794000
1216.000000	51.619700
1215.000000	51.454500
1214.000000	51.283500
1213.000000	51.140700
1212.000000	50.994600
1211.000000	50.836500
1210.000000	50.710800
1209.000000	50.595400
1208.000000	50.486700
1207.000000	50.407600
1206.000000	50.352200
1205.000000	50.275500
1204.000000	50.244900
1203.000000	50.217900
1202.000000	50.173200
1201.000000	50.134800
1200.000000	50.057900
1199.000000	49.959900
1198.000000	49.821300
1197.000000	49.639800
1196.000000	49.384700
1195.000000	49.063100
1194.000000	48.645300
1193.000000	48.149700
1192.000000	47.599300
1191.000000	47.008500
1190.000000	46.467200
1189.000000	46.029400
1188.000000	45.703600
1187.000000	45.543000
1186.000000	45.531900
1185.000000	45.687800
1184.000000	46.018800
1183.000000	46.483300
1182.000000	47.080300
1181.000000	47.732700
1180.000000	48.386200
1179.000000	48.999900
1178.000000	49.543100
1177.000000	50.024500
1176.000000	50.428800
1175.000000	50.838600
1174.000000	51.262300
1173.000000	51.649100
1172.000000	52.058100
1171.000000	52.514800
1170.000000	52.988100
1169.000000	53.427300
1168.000000	53.871300
1167.000000	54.326100
1166.000000	54.806200
1165.000000	55.277300
1164.000000	55.758800
1163.000000	56.240300
1162.000000	56.691700
1161.000000	57.174100
1160.000000	57.587900
1159.000000	58.040500
1158.000000	58.446100
1157.000000	58.799000
1156.000000	59.110400
1155.000000	59.359000
1154.000000	59.523500
1153.000000	59.614800
1152.000000	59.664900
1151.000000	59.696800
1150.000000	59.687000
1149.000000	59.727100
1148.000000	59.761300
1147.000000	59.872500
1146.000000	60.053200
1145.000000	60.328900
1144.000000	60.674900
1143.000000	61.084400
1142.000000	61.521100
1141.000000	61.968400
1140.000000	62.410000
1139.000000	62.877500
1138.000000	63.364900
1137.000000	63.858600
1136.000000	64.370600
1135.000000	64.853400
1134.000000	65.279200
1133.000000	65.626500
1132.000000	65.997100
1131.000000	66.338000
1130.000000	66.629000
1129.000000	66.878700
1128.000000	67.075900
1127.000000	67.222900
1126.000000	67.364900
1125.000000	67.462100
1124.000000	67.557400
1123.000000	67.645000
1122.000000	67.719200
1121.000000	67.769500
1120.000000	67.824200
1119.000000	67.854600
1118.000000	67.886000
1117.000000	67.909700
1116.000000	67.910200
1115.000000	67.912400
1114.000000	67.908000
1113.000000	67.905400
1112.000000	67.892700
1111.000000	67.893400
1110.000000	67.881100
1109.000000	67.880300
1108.000000	67.880100
1107.000000	67.873200
1106.000000	67.870800
1105.000000	67.864400
1104.000000	67.858000
1103.000000	67.839800
1102.000000	67.829800
1101.000000	67.805800
1100.000000	67.809600
1099.000000	67.795100
1098.000000	67.765900
1097.000000	67.724500
1096.000000	67.684100
1095.000000	67.677300
1094.000000	67.637300
1093.000000	67.586000
1092.000000	67.549400
1091.000000	67.510800
1090.000000	67.471100
1089.000000	67.434600
1088.000000	67.387400
1087.000000	67.329300
1086.000000	67.269100
1085.000000	67.220700
1084.000000	67.181800
1083.000000	67.128100
1082.000000	67.072800
1081.000000	67.017500
1080.000000	66.974000
1079.000000	66.920500
1078.000000	66.861000
1077.000000	66.815200
1076.000000	66.773100
1075.000000	66.729800
1074.000000	66.690700
1073.000000	66.647800
1072.000000	66.602800
1071.000000	66.550800
1070.000000	66.489500
1069.000000	66.442700
1068.000000	66.398900
1067.000000	66.352700
1066.000000	66.294500
1065.000000	66.256400
1064.000000	66.200800
1063.000000	66.150200
1062.000000	66.116000
1061.000000	66.055100
1060.000000	65.992400
1059.000000	65.924300
1058.000000	65.877400
1057.000000	65.821500
1056.000000	65.768100
1055.000000	65.719900
1054.000000	65.691800
1053.000000	65.650600
1052.000000	65.604800
1051.000000	65.561800
1050.000000	65.532300
1049.000000	65.504200
1048.000000	65.473400
1047.000000	65.467700
1046.000000	65.470300
1045.000000	65.482500
1044.000000	65.481300
1043.000000	65.454500
1042.000000	65.437100
1041.000000	65.443900
1040.000000	65.439100
1039.000000	65.429300
1038.000000	65.419700
1037.000000	65.415700
1036.000000	65.404200
1035.000000	65.389000
1034.000000	65.376800
1033.000000	65.371000
1032.000000	65.355600
1031.000000	65.338900
1030.000000	65.332800
1029.000000	65.316000
1028.000000	65.293000
1027.000000	65.281100
1026.000000	65.269500
1025.000000	65.253000
1024.000000	65.242200
1023.000000	65.231800
1022.000000	65.213800
1021.000000	65.210600
1020.000000	65.200300
1019.000000	65.194400
1018.000000	65.216600
1017.000000	65.224400
1016.000000	65.250700
1015.000000	65.282400
1014.000000	65.292500
1013.000000	65.330200
1012.000000	65.394200
1011.000000	65.450000
1010.000000	65.522700
1009.000000	65.599100
1008.000000	65.660500
1007.000000	65.743500
1006.000000	65.825900
1005.000000	65.905000
1004.000000	65.976700
1003.000000	66.037700
1002.000000	66.100500
1001.000000	66.173100
1000.000000	66.240700
999.000000	66.315600
998.000000	66.395800
997.000000	66.466500
996.000000	66.541200
995.000000	66.600200
994.000000	66.676700
993.000000	66.766000
992.000000	66.829800
991.000000	66.893200
990.000000	66.977300
989.000000	67.073600
988.000000	67.133500
987.000000	67.237300
986.000000	67.324800
985.000000	67.413100
984.000000	67.515300
983.000000	67.597900
982.000000	67.685200
981.000000	67.794300
980.000000	67.878300
979.000000	67.974600
978.000000	68.057200
977.000000	68.165400
976.000000	68.259100
975.000000	68.376200
974.000000	68.471300
973.000000	68.586300
972.000000	68.685900
971.000000	68.793500
970.000000	68.900000
969.000000	69.007400
968.000000	69.121800
967.000000	69.248300
966.000000	69.343400
965.000000	69.462100
964.000000	69.575900
963.000000	69.715100
962.000000	69.842300
961.000000	69.969700
960.000000	70.088500
959.000000	70.199800
958.000000	70.355900
957.000000	70.454900
956.000000	70.587200
955.000000	70.671500
954.000000	70.779100
953.000000	70.883000
952.000000	71.002400
951.000000	71.097900
950.000000	71.212200
949.000000	71.285200
948.000000	71.358500
947.000000	71.486300
946.000000	71.575500
945.000000	71.649000
944.000000	71.752500
943.000000	71.824400
942.000000	71.893700
941.000000	71.955900
940.000000	72.066900
939.000000	72.116100
938.000000	72.177500
937.000000	72.292300
936.000000	72.365600
935.000000	72.421800
934.000000	72.490300
933.000000	72.550600
932.000000	72.656400
931.000000	72.692100
930.000000	72.714600
929.000000	72.802400
928.000000	72.826900
927.000000	72.863800
926.000000	72.891700
925.000000	72.972500
924.000000	72.981700
923.000000	73.026000
922.000000	73.062800
921.000000	73.080900
920.000000	73.097100
919.000000	73.121500
918.000000	73.190900
917.000000	73.186500
916.000000	73.192000
915.000000	73.196400
914.000000	73.198000
913.000000	73.193900
912.000000	73.176800
911.000000	73.188700
910.000000	73.176500
909.000000	73.203100
908.000000	73.211400
907.000000	73.232000
906.000000	73.334900
905.000000	73.355800
904.000000	73.354900
903.000000	73.397600
902.000000	73.439900
901.000000	73.474000
900.000000	73.502800
899.000000	73.551800
898.000000	73.584300
897.000000	73.615400
896.000000	73.639500
895.000000	73.642500
894.000000	73.581800
893.000000	73.574900
892.000000	73.552200
891.000000	73.531100
890.000000	73.522200
889.000000	73.497800
888.000000	73.456000
887.000000	73.385100
886.000000	73.246800
885.000000	73.187100
884.000000	73.134600
883.000000	73.026700
882.000000	72.836200
881.000000	72.760900
880.000000	72.650700
879.000000	72.501000
878.000000	72.269800
877.000000	72.100400
876.000000	71.954900
875.000000	71.710300
874.000000	71.490500
873.000000	71.203300
872.000000	70.995100
871.000000	70.769900
870.000000	70.457400
869.000000	70.175400
868.000000	69.811600
867.000000	69.535500
866.000000	69.171500
865.000000	68.857100
864.000000	68.456400
863.000000	68.095600
862.000000	67.543700
861.000000	67.009700
860.000000	66.544200
859.000000	66.115000
858.000000	67.189900
857.000000	66.587500
856.000000	66.865665
855.000000	66.699643
854.000000	67.129702
853.000000	66.858645
852.000000	67.058099
851.000000	66.678496
850.000000	66.435869
849.000000	66.416740
848.000000	66.637956
847.000000	66.465529
846.000000	66.491151
845.000000	66.145595
844.000000	66.291698
843.000000	66.384273
842.000000	66.188680
841.000000	65.987296
840.000000	66.022922
839.000000	66.004933
838.000000	65.646478
837.000000	65.647794
836.000000	65.686491
835.000000	65.548111
834.000000	65.268542
833.000000	65.076986
832.000000	65.019071
831.000000	65.039166
830.000000	64.905524
829.000000	64.671497
828.000000	64.558914
827.000000	64.370341
826.000000	64.262059
825.000000	64.093493
824.000000	64.065676
823.000000	63.902375
822.000000	63.897724
821.000000	63.769084
820.000000	63.581740
819.000000	63.429232
818.000000	63.218721
817.000000	63.144134
816.000000	63.143783
815.000000	63.002595
814.000000	62.822446
813.000000	62.734346
812.000000	62.509181
811.000000	62.350619
810.000000	62.224523
809.000000	62.123699
808.000000	62.077894
807.000000	61.903888
806.000000	61.708207
805.000000	61.481200
804.000000	61.490501
803.000000	61.445574
802.000000	61.255948
801.000000	61.109319
800.000000	61.042980
799.000000	60.858093
798.000000	60.643634
797.000000	60.566678
796.000000	60.534123
795.000000	60.530876
794.000000	60.335195
793.000000	60.197517
792.000000	60.056504
791.000000	59.961384
790.000000	59.850732
789.000000	59.650752
788.000000	59.562652
787.000000	59.444980
786.000000	59.377676
785.000000	59.272290
784.000000	59.177169
783.000000	59.070554
782.000000	58.992019
781.000000	58.884087
780.000000	58.792302
779.000000	58.705079
778.000000	58.590654
777.000000	58.453765
776.000000	58.394535
775.000000	58.255540
774.000000	58.187446
773.000000	58.144537
772.000000	58.080656
771.000000	57.971847
770.000000	57.828640
769.000000	57.772305
768.000000	57.711407
767.000000	57.643840
766.000000	57.545912
765.000000	57.495105
764.000000	57.381821
763.000000	57.229138
762.000000	57.147706
761.000000	57.053903
760.000000	56.950534
759.000000	56.847780
758.000000	56.743270
757.000000	56.665963
756.000000	56.571809
755.000000	56.404646
754.000000	56.267582
753.000000	56.196769
752.000000	56.079360
751.000000	55.970902
750.000000	55.887891
749.000000	55.702653
748.000000	55.562167
747.000000	55.454147
746.000000	55.309537
745.000000	55.225297
744.000000	55.134126
743.000000	54.976879
742.000000	54.846484
741.000000	54.697135
740.000000	54.589028
739.000000	54.468812
738.000000	54.275062
737.000000	54.096053
736.000000	53.960656
735.000000	53.807446
734.000000	53.637388
733.000000	53.432318
732.000000	53.196712
731.000000	52.994889
730.000000	52.787888
729.000000	52.625991
728.000000	52.423817
727.000000	52.192510
726.000000	51.968311
725.000000	51.750430
724.000000	51.532110
723.000000	51.316422
722.000000	51.100998
721.000000	50.874254
720.000000	50.638297
719.000000	50.428050
718.000000	50.235879
717.000000	50.015453
716.000000	49.809155
715.000000	49.636289
714.000000	49.432886
713.000000	49.218691
712.000000	49.050475
711.000000	48.862604
710.000000	48.653498
709.000000	48.464662
708.000000	48.263014
707.000000	48.095238
706.000000	47.907981
705.000000	47.666846
704.000000	47.465374
703.000000	47.274081
702.000000	47.090685
701.000000	46.921505
700.000000	46.705993
699.000000	46.545763
698.000000	46.418351
697.000000	46.271634
696.000000	46.128164
695.000000	46.044013
694.000000	45.961704
693.000000	45.896156
692.000000	45.833766
691.000000	45.845788
690.000000	45.864917
689.000000	45.861144
688.000000	45.865707
687.000000	45.885011
686.000000	45.898788
685.000000	45.908967
684.000000	45.897296
683.000000	45.877377
682.000000	45.890013
681.000000	45.786118
680.000000	45.687225
679.000000	45.660725
678.000000	45.556128
677.000000	45.445827
676.000000	45.306569
675.000000	45.184159
674.000000	45.021033
673.000000	44.835356
672.000000	44.685568
671.000000	44.506033
670.000000	44.324217
669.000000	44.129940
668.000000	43.919342
667.000000	43.714448
666.000000	43.542196
665.000000	43.388109
664.000000	43.190497
663.000000	42.997010
662.000000	42.827391
661.000000	42.629341
660.000000	42.419972
659.000000	42.199546
658.000000	41.933929
657.000000	41.692707
656.000000	41.437181
655.000000	41.138658
654.000000	40.890591
653.000000	40.595666
652.000000	40.306357
651.000000	40.041355
650.000000	39.748097
649.000000	39.527496
648.000000	39.341643
647.000000	39.208527
646.000000	39.066725
645.000000	39.036188
644.000000	39.057511
643.000000	39.121480
642.000000	39.257228
641.000000	39.458964
640.000000	39.688691
639.000000	39.985722
638.000000	40.337245
637.000000	40.791259
636.000000	41.199819
635.000000	41.693672
634.000000	42.198668
633.000000	42.745346
632.000000	43.271314
631.000000	43.807725
630.000000	44.345540
629.000000	44.870982
628.000000	45.430909
627.000000	45.941083
626.000000	46.474686
625.000000	46.999602
624.000000	47.524166
623.000000	48.061893
622.000000	48.611729
621.000000	49.151650
620.000000	49.629532
619.000000	50.190074
618.000000	50.662516
617.000000	51.175410
616.000000	51.636093
615.000000	52.138106
614.000000	52.601772
613.000000	53.109752
612.000000	53.543584
611.000000	54.008216
610.000000	54.435555
609.000000	54.851223
608.000000	55.214592
607.000000	55.586736
606.000000	55.882012
605.000000	56.171760
604.000000	56.435446
603.000000	56.739234
602.000000	56.976245
601.000000	57.248706
600.000000	57.443948
599.000000	57.700877
598.000000	57.933413
597.000000	58.152522
596.000000	58.332057
595.000000	58.532476
594.000000	58.775805
593.000000	58.993861
592.000000	59.180153
591.000000	59.384696
590.000000	59.554491
589.000000	59.758947
588.000000	59.898292
587.000000	60.069930
586.000000	60.230423
585.000000	60.362661
584.000000	60.514906
583.000000	60.588264
582.000000	60.710323
581.000000	60.774907
580.000000	60.878714
579.000000	60.932241
578.000000	60.971377
577.000000	60.973483
576.000000	60.969622
575.000000	60.962602
574.000000	60.947509
573.000000	60.932504
572.000000	60.901441
571.000000	60.823432
570.000000	60.751390
569.000000	60.683560
568.000000	60.597916
567.000000	60.479016
566.000000	60.382404
565.000000	60.240163
564.000000	60.106609
563.000000	59.959541
562.000000	59.790800
561.000000	59.637765
560.000000	59.474113
559.000000	59.245438
558.000000	59.061165
557.000000	58.854165
556.000000	58.616277
555.000000	58.369614
554.000000	58.104436
553.000000	57.786696
552.000000	57.491245
551.000000	57.109009
550.000000	56.694306
549.000000	56.261703
548.000000	55.781978
547.000000	55.253991
546.000000	54.691782
545.000000	54.100528
544.000000	53.470840
543.000000	52.807720
542.000000	52.121609
541.000000	51.405049
540.000000	50.640315
539.000000	49.882425
538.000000	49.085926
537.000000	48.309170
536.000000	47.473008
535.000000	46.628247
534.000000	45.781116
533.000000	44.921613
532.000000	44.090979
531.000000	43.256660
530.000000	42.428396
529.000000	41.634178
528.000000	40.835222
527.000000	40.091723
526.000000	39.354893
525.000000	38.638158
524.000000	37.935462
523.000000	37.235312
522.000000	36.554027
521.000000	35.896786
520.000000	35.269905
519.000000	34.644342
518.000000	34.034836
517.000000	33.444196
516.000000	32.873124
515.000000	32.297490
514.000000	31.720539
513.000000	31.192552
512.000000	30.663073
511.000000	30.152636
510.000000	29.638163
509.000000	29.139133
508.000000	28.655811
507.000000	28.198550
506.000000	27.717421
505.000000	27.256299
504.000000	26.808164
503.000000	26.363802
502.000000	25.901978
501.000000	25.462882
500.000000	25.021240
499.000000	24.600395
498.000000	24.163843
497.000000	23.736153
496.000000	23.300040
495.000000	22.882090
494.000000	22.463351
493.000000	22.036803
492.000000	21.641142
491.000000	21.260749
490.000000	20.893957
489.000000	20.554280
488.000000	20.242332
487.000000	19.939158
486.000000	19.662398
485.000000	19.419245
484.000000	19.204084
483.000000	19.012527
482.000000	18.839398
481.000000	18.675833
480.000000	18.542718
479.000000	18.440139
478.000000	18.348880
477.000000	18.277891
476.000000	18.223837
475.000000	18.178383
474.000000	18.142143
473.000000	18.117310
472.000000	18.091687
471.000000	18.066240
470.000000	18.047725
469.000000	18.036054
468.000000	18.025963
467.000000	18.008940
466.000000	18.002710
465.000000	17.994198
464.000000	17.965241
463.000000	17.938214
462.000000	17.908379
461.000000	17.868278
460.000000	17.824315
459.000000	17.778949
458.000000	17.732442
457.000000	17.672422
456.000000	17.593184
455.000000	17.512192
454.000000	17.421020
453.000000	17.309228
452.000000	17.191995
451.000000	17.079325
450.000000	16.939979
449.000000	16.794316
448.000000	16.651021
447.000000	16.489650
446.000000	16.333808
445.000000	16.194023
444.000000	16.024580
443.000000	15.838639
442.000000	15.641204
441.000000	15.436572
440.000000	15.253966
439.000000	15.056970
438.000000	14.846196
437.000000	14.640424
436.000000	14.422104
435.000000	14.215981
434.000000	13.997661
433.000000	13.768548
432.000000	13.554440
431.000000	13.337086
430.000000	13.104814
429.000000	12.879561
428.000000	12.654923
427.000000	12.432655
426.000000	12.211702
425.000000	11.989521
424.000000	11.765498
423.000000	11.528575
422.000000	11.299199
421.000000	11.074298
420.000000	10.841323
419.000000	10.621073
418.000000	10.399155
417.000000	10.167673
416.000000	9.953653
415.000000	9.739896
414.000000	9.522717
413.000000	9.311416
412.000000	9.088095
411.000000	8.886272
410.000000	8.684887
409.000000	8.493155
408.000000	8.309233
407.000000	8.116975
406.000000	7.937879
405.000000	7.776683
404.000000	7.616541
403.000000	7.458680
402.000000	7.309858
401.000000	7.172179
400.000000	7.042574
399.000000	6.915337
398.000000	6.795121
397.000000	6.691314
396.000000	6.584962
395.000000	6.488701
394.000000	6.390422
393.000000	6.313641
392.000000	6.236334
391.000000	6.158501
390.000000	6.096725
389.000000	6.036617
388.000000	5.986161
387.000000	5.935706
386.000000	5.883319
385.000000	5.848307
384.000000	5.802327
383.000000	5.768192
382.000000	5.739411
381.000000	5.700362
380.000000	5.673511
379.000000	5.658681
378.000000	5.637095
377.000000	5.607173
376.000000	5.577952
375.000000	5.544344
374.000000	5.505822
373.000000	5.521266
372.000000	5.534692
371.000000	5.513807
370.000000	5.490642
369.000000	5.474935
368.000000	5.454840
367.000000	5.415177
366.000000	5.434921
365.000000	5.436939
364.000000	5.426848
363.000000	5.403156
362.000000	5.435623
361.000000	5.410527
360.000000	5.381745
359.000000	5.425532
358.000000	5.404560
357.000000	5.371303
356.000000	5.339099
355.000000	5.381218
354.000000	5.315494
353.000000	5.294522
352.000000	5.310580
351.000000	5.328569
350.000000	5.296979
349.000000	5.276095
348.000000	5.329534
347.000000	5.301279
346.000000	5.288468
345.000000	5.301893
344.000000	5.330675
343.000000	5.301718
342.000000	5.311809
341.000000	5.258633
340.000000	5.263898
339.000000	5.231869
338.000000	5.285572
337.000000	5.242048
336.000000	5.217303
335.000000	5.337344
334.000000	5.257668
333.000000	5.242750
332.000000	5.356561
331.000000	5.264512
330.000000	5.257141
329.000000	5.144910
328.000000	5.209932
327.000000	5.259861
326.000000	5.287502
325.000000	5.246085
324.000000	5.268987
323.000000	5.339450
322.000000	5.227657
321.000000	5.249419
320.000000	5.352261
319.000000	5.308211
318.000000	5.401840
317.000000	5.309791
316.000000	5.320321
315.000000	5.266618
314.000000	5.284782
313.000000	5.290837
312.000000	5.321549
311.000000	5.312511
310.000000	5.313564
309.000000	5.335413
308.000000	5.308562
307.000000	5.345943
306.000000	5.304789
305.000000	5.344627
304.000000	5.351296
303.000000	5.383851
302.000000	5.372970
301.000000	5.331465
300.000000	5.348664
299.000000	5.373584
298.000000	5.372180
297.000000	5.388151
296.000000	5.383851
295.000000	5.364722
294.000000	5.410088
293.000000	5.404911
292.000000	5.439923
291.000000	5.395873
290.000000	5.397891
289.000000	5.432376
288.000000	5.446416
287.000000	5.447118
286.000000	5.466335
285.000000	5.423250
284.000000	5.453787
283.000000	5.420618
282.000000	5.468617
281.000000	5.467037
280.000000	5.474145
279.000000	5.478971
278.000000	5.501259
277.000000	5.537061
276.000000	5.509683
275.000000	5.525741
274.000000	5.593396
273.000000	5.570406
272.000000	5.560578
271.000000	5.597081
270.000000	5.616913
269.000000	5.633673
268.000000	5.626565
267.000000	5.673599
266.000000	5.722387
265.000000	5.740113
264.000000	5.760734
263.000000	5.772404
262.000000	5.824001
261.000000	5.825580
260.000000	5.855854
259.000000	5.865857
258.000000	5.934214
257.000000	5.958871
256.000000	5.961943
255.000000	5.992392
254.000000	6.015470
253.000000	6.031177
252.000000	6.055044
251.000000	6.037582
250.000000	6.096989
