PE UV       SUBTECH     SPECTRUM    ASCII       PEDS        4.00        
   -1
CICIMAUCR0021-1.Sample.ASC
24/04/17
11:15:20.00
24/04/17
11:15:20.00
Vinicio Soto Monge
C. resplendens. 
250,000000
1
Lambda 1050
1050L1511233
PerkinElmer UV WinLab 6.3.2.0749 / 2.02.05 Lambda 900 UV/VIS/NIR, Aug  7 2015 09:38:08

0
0
3350/servo 860,8/2
0
0
UV/VIS
1
1
1
DoubleDePol,CommonBeamDepol,RBeamAtt,SBeamAtt,60mm sphere, WB InGaAs Detector
0
0
0
0
Program
Program
3350/servo 860,8/2
3350/0,2 860,8/0,2
3350/0,2 860,8/0,2
0
15.00
 
 
 
0
 
860,8
319,2
860,8
Front
100
on
S:100 R:100
0
0
0
0
 
0
 
 
 
0
 
 
0
0
0
0
0
 
 
 
 
0
0


0
0
#HDR
-1
-1
#GR
nm
%R
1.0
0.0
2500,000000
-1,000000
2251
8
50,947000
3,696900
#DATA
2500.000000	5.836400
2499.000000	5.847100
2498.000000	5.838100
2497.000000	5.690800
2496.000000	5.752200
2495.000000	5.621000
2494.000000	5.653600
2493.000000	5.613000
2492.000000	5.548200
2491.000000	5.675900
2490.000000	5.647800
2489.000000	5.538300
2488.000000	5.526800
2487.000000	5.618100
2486.000000	5.592200
2485.000000	5.463600
2484.000000	5.513700
2483.000000	5.512700
2482.000000	5.509300
2481.000000	5.509200
2480.000000	5.462800
2479.000000	5.498900
2478.000000	5.504300
2477.000000	5.451600
2476.000000	5.547000
2475.000000	5.490200
2474.000000	5.490000
2473.000000	5.436300
2472.000000	5.475100
2471.000000	5.475600
2470.000000	5.486700
2469.000000	5.460000
2468.000000	5.452100
2467.000000	5.492700
2466.000000	5.528400
2465.000000	5.548200
2464.000000	5.517300
2463.000000	5.547600
2462.000000	5.580200
2461.000000	5.582700
2460.000000	5.605800
2459.000000	5.624200
2458.000000	5.648800
2457.000000	5.679700
2456.000000	5.713200
2455.000000	5.760000
2454.000000	5.774400
2453.000000	5.809400
2452.000000	5.849500
2451.000000	5.884600
2450.000000	5.903400
2449.000000	5.935700
2448.000000	5.973600
2447.000000	5.997900
2446.000000	6.035000
2445.000000	6.066300
2444.000000	6.109300
2443.000000	6.133200
2442.000000	6.163500
2441.000000	6.200400
2440.000000	6.246700
2439.000000	6.264500
2438.000000	6.287400
2437.000000	6.321600
2436.000000	6.342700
2435.000000	6.368500
2434.000000	6.413300
2433.000000	6.417200
2432.000000	6.449100
2431.000000	6.478400
2430.000000	6.479900
2429.000000	6.497200
2428.000000	6.521500
2427.000000	6.527700
2426.000000	6.564600
2425.000000	6.578100
2424.000000	6.577000
2423.000000	6.612700
2422.000000	6.612200
2421.000000	6.602800
2420.000000	6.549000
2419.000000	6.512400
2418.000000	6.487900
2417.000000	6.508000
2416.000000	6.511200
2415.000000	6.536700
2414.000000	6.545700
2413.000000	6.528500
2412.000000	6.529000
2411.000000	6.540900
2410.000000	6.540400
2409.000000	6.537900
2408.000000	6.517100
2407.000000	6.538300
2406.000000	6.566200
2405.000000	6.561800
2404.000000	6.540800
2403.000000	6.549000
2402.000000	6.566400
2401.000000	6.582900
2400.000000	6.580400
2399.000000	6.565600
2398.000000	6.565200
2397.000000	6.580000
2396.000000	6.585700
2395.000000	6.597200
2394.000000	6.604500
2393.000000	6.602200
2392.000000	6.588900
2391.000000	6.578300
2390.000000	6.588600
2389.000000	6.598100
2388.000000	6.589100
2387.000000	6.586000
2386.000000	6.573300
2385.000000	6.570600
2384.000000	6.558200
2383.000000	6.559500
2382.000000	6.550200
2381.000000	6.524600
2380.000000	6.521200
2379.000000	6.514900
2378.000000	6.503100
2377.000000	6.480000
2376.000000	6.468300
2375.000000	6.454600
2374.000000	6.432800
2373.000000	6.414600
2372.000000	6.409500
2371.000000	6.378500
2370.000000	6.341100
2369.000000	6.313300
2368.000000	6.284400
2367.000000	6.268000
2366.000000	6.235900
2365.000000	6.195200
2364.000000	6.165200
2363.000000	6.118400
2362.000000	6.082400
2361.000000	6.056000
2360.000000	6.028100
2359.000000	6.002800
2358.000000	5.982400
2357.000000	5.968400
2356.000000	5.952200
2355.000000	5.933300
2354.000000	5.910700
2353.000000	5.910600
2352.000000	5.909700
2351.000000	5.921400
2350.000000	5.926800
2349.000000	5.940200
2348.000000	5.961700
2347.000000	5.976500
2346.000000	5.995600
2345.000000	5.995500
2344.000000	5.996900
2343.000000	6.014700
2342.000000	6.029700
2341.000000	6.029000
2340.000000	6.022100
2339.000000	6.013200
2338.000000	6.017100
2337.000000	6.003300
2336.000000	5.982900
2335.000000	5.968700
2334.000000	5.945000
2333.000000	5.924600
2332.000000	5.902200
2331.000000	5.852500
2330.000000	5.823600
2329.000000	5.800800
2328.000000	5.767000
2327.000000	5.726500
2326.000000	5.689400
2325.000000	5.643800
2324.000000	5.606200
2323.000000	5.572500
2322.000000	5.541400
2321.000000	5.478400
2320.000000	5.423300
2319.000000	5.393300
2318.000000	5.360500
2317.000000	5.305000
2316.000000	5.266100
2315.000000	5.200600
2314.000000	5.149800
2313.000000	5.137500
2312.000000	5.115400
2311.000000	5.084800
2310.000000	5.039600
2309.000000	5.042100
2308.000000	5.032400
2307.000000	5.027300
2306.000000	5.054000
2305.000000	5.056200
2304.000000	5.072300
2303.000000	5.101300
2302.000000	5.131900
2301.000000	5.152500
2300.000000	5.185600
2299.000000	5.222100
2298.000000	5.252100
2297.000000	5.264800
2296.000000	5.286700
2295.000000	5.331500
2294.000000	5.329900
2293.000000	5.339500
2292.000000	5.357700
2291.000000	5.343800
2290.000000	5.337700
2289.000000	5.358200
2288.000000	5.358400
2287.000000	5.327400
2286.000000	5.296800
2285.000000	5.297700
2284.000000	5.274300
2283.000000	5.243300
2282.000000	5.225000
2281.000000	5.195000
2280.000000	5.167800
2279.000000	5.143000
2278.000000	5.122100
2277.000000	5.125000
2276.000000	5.117600
2275.000000	5.124300
2274.000000	5.095400
2273.000000	5.090800
2272.000000	5.104300
2271.000000	5.107700
2270.000000	5.110100
2269.000000	5.141900
2268.000000	5.173800
2267.000000	5.217300
2266.000000	5.236900
2265.000000	5.291900
2264.000000	5.365800
2263.000000	5.440400
2262.000000	5.496200
2261.000000	5.596200
2260.000000	5.681400
2259.000000	5.777800
2258.000000	5.874500
2257.000000	5.962600
2256.000000	6.069800
2255.000000	6.162800
2254.000000	6.270100
2253.000000	6.368800
2252.000000	6.454900
2251.000000	6.556200
2250.000000	6.630700
2249.000000	6.727200
2248.000000	6.814400
2247.000000	6.878300
2246.000000	6.960300
2245.000000	7.024900
2244.000000	7.079600
2243.000000	7.153300
2242.000000	7.216100
2241.000000	7.291400
2240.000000	7.342400
2239.000000	7.385900
2238.000000	7.465500
2237.000000	7.536300
2236.000000	7.587700
2235.000000	7.611700
2234.000000	7.675200
2233.000000	7.717700
2232.000000	7.776200
2231.000000	7.812300
2230.000000	7.845900
2229.000000	7.875900
2228.000000	7.907200
2227.000000	7.945400
2226.000000	7.980200
2225.000000	7.999000
2224.000000	8.026300
2223.000000	8.033400
2222.000000	8.066900
2221.000000	8.059500
2220.000000	8.076800
2219.000000	8.104000
2218.000000	8.112300
2217.000000	8.089200
2216.000000	8.114500
2215.000000	8.133100
2214.000000	8.122100
2213.000000	8.126700
2212.000000	8.132700
2211.000000	8.149900
2210.000000	8.136700
2209.000000	8.131500
2208.000000	8.129500
2207.000000	8.127500
2206.000000	8.140800
2205.000000	8.168700
2204.000000	8.132000
2203.000000	8.144800
2202.000000	8.127700
2201.000000	8.149500
2200.000000	8.146600
2199.000000	8.137300
2198.000000	8.137400
2197.000000	8.140100
2196.000000	8.124000
2195.000000	8.106100
2194.000000	8.092800
2193.000000	8.111900
2192.000000	8.100400
2191.000000	8.117800
2190.000000	8.105700
2189.000000	8.102900
2188.000000	8.077500
2187.000000	8.053200
2186.000000	8.074000
2185.000000	8.052800
2184.000000	8.044800
2183.000000	8.038500
2182.000000	8.019700
2181.000000	8.031400
2180.000000	8.000800
2179.000000	7.995600
2178.000000	8.003600
2177.000000	7.998100
2176.000000	8.006700
2175.000000	7.995100
2174.000000	7.999100
2173.000000	8.003400
2172.000000	8.002800
2171.000000	8.024000
2170.000000	8.028900
2169.000000	8.023400
2168.000000	8.017200
2167.000000	8.033900
2166.000000	8.032400
2165.000000	8.035800
2164.000000	8.057900
2163.000000	8.068000
2162.000000	8.070800
2161.000000	8.088400
2160.000000	8.096100
2159.000000	8.105500
2158.000000	8.116800
2157.000000	8.102500
2156.000000	8.133700
2155.000000	8.137900
2154.000000	8.132600
2153.000000	8.128100
2152.000000	8.154700
2151.000000	8.169300
2150.000000	8.159200
2149.000000	8.167400
2148.000000	8.179000
2147.000000	8.191100
2146.000000	8.196500
2145.000000	8.200200
2144.000000	8.199400
2143.000000	8.205100
2142.000000	8.198000
2141.000000	8.197300
2140.000000	8.197100
2139.000000	8.193700
2138.000000	8.185400
2137.000000	8.192800
2136.000000	8.180000
2135.000000	8.149800
2134.000000	8.130000
2133.000000	8.133900
2132.000000	8.118800
2131.000000	8.086800
2130.000000	8.062500
2129.000000	8.041200
2128.000000	8.025500
2127.000000	8.005400
2126.000000	7.976500
2125.000000	7.950500
2124.000000	7.919300
2123.000000	7.901700
2122.000000	7.876000
2121.000000	7.845700
2120.000000	7.826000
2119.000000	7.803200
2118.000000	7.781700
2117.000000	7.768800
2116.000000	7.755900
2115.000000	7.742600
2114.000000	7.724900
2113.000000	7.706500
2112.000000	7.706000
2111.000000	7.707200
2110.000000	7.701400
2109.000000	7.694600
2108.000000	7.692600
2107.000000	7.677400
2106.000000	7.663600
2105.000000	7.659800
2104.000000	7.651600
2103.000000	7.646000
2102.000000	7.644000
2101.000000	7.636400
2100.000000	7.618100
2099.000000	7.612300
2098.000000	7.620300
2097.000000	7.623300
2096.000000	7.618700
2095.000000	7.614700
2094.000000	7.622000
2093.000000	7.642100
2092.000000	7.662000
2091.000000	7.669200
2090.000000	7.679200
2089.000000	7.709800
2088.000000	7.731700
2087.000000	7.743400
2086.000000	7.771200
2085.000000	7.798700
2084.000000	7.809700
2083.000000	7.818600
2082.000000	7.833400
2081.000000	7.851600
2080.000000	7.868000
2079.000000	7.876200
2078.000000	7.874700
2077.000000	7.899000
2076.000000	7.900200
2075.000000	7.911400
2074.000000	7.910600
2073.000000	7.905100
2072.000000	7.924300
2071.000000	7.951000
2070.000000	7.958000
2069.000000	7.971500
2068.000000	7.973000
2067.000000	7.968400
2066.000000	7.967300
2065.000000	7.979500
2064.000000	7.980600
2063.000000	8.000600
2062.000000	8.011400
2061.000000	8.017300
2060.000000	8.009800
2059.000000	8.042400
2058.000000	8.074200
2057.000000	8.074900
2056.000000	8.097700
2055.000000	8.136300
2054.000000	8.160700
2053.000000	8.184600
2052.000000	8.239000
2051.000000	8.280200
2050.000000	8.323500
2049.000000	8.365900
2048.000000	8.419000
2047.000000	8.477800
2046.000000	8.530600
2045.000000	8.585800
2044.000000	8.659800
2043.000000	8.734700
2042.000000	8.800100
2041.000000	8.859700
2040.000000	8.923400
2039.000000	8.991000
2038.000000	9.065500
2037.000000	9.120400
2036.000000	9.158200
2035.000000	9.229200
2034.000000	9.284100
2033.000000	9.329300
2032.000000	9.391000
2031.000000	9.438400
2030.000000	9.490200
2029.000000	9.513200
2028.000000	9.554900
2027.000000	9.585100
2026.000000	9.650900
2025.000000	9.691300
2024.000000	9.720900
2023.000000	9.769600
2022.000000	9.803800
2021.000000	9.858400
2020.000000	9.900100
2019.000000	9.933000
2018.000000	9.968000
2017.000000	9.993100
2016.000000	10.020900
2015.000000	10.044500
2014.000000	10.085100
2013.000000	10.105600
2012.000000	10.131200
2011.000000	10.148900
2010.000000	10.164900
2009.000000	10.167900
2008.000000	10.186500
2007.000000	10.193400
2006.000000	10.200800
2005.000000	10.217100
2004.000000	10.211300
2003.000000	10.201000
2002.000000	10.204600
2001.000000	10.232300
2000.000000	10.185900
1999.000000	10.180500
1998.000000	10.183700
1997.000000	10.168600
1996.000000	10.145900
1995.000000	10.149100
1994.000000	10.128900
1993.000000	10.121200
1992.000000	10.069100
1991.000000	10.077600
1990.000000	10.046200
1989.000000	10.009000
1988.000000	10.008600
1987.000000	9.988800
1986.000000	9.926300
1985.000000	9.926500
1984.000000	9.885400
1983.000000	9.873300
1982.000000	9.827100
1981.000000	9.806700
1980.000000	9.782900
1979.000000	9.772200
1978.000000	9.731800
1977.000000	9.703900
1976.000000	9.677700
1975.000000	9.616100
1974.000000	9.581400
1973.000000	9.562900
1972.000000	9.535100
1971.000000	9.534300
1970.000000	9.494300
1969.000000	9.453700
1968.000000	9.428400
1967.000000	9.382300
1966.000000	9.342600
1965.000000	9.348700
1964.000000	9.297200
1963.000000	9.250300
1962.000000	9.232100
1961.000000	9.209300
1960.000000	9.173800
1959.000000	9.155500
1958.000000	9.126900
1957.000000	9.100800
1956.000000	9.069800
1955.000000	9.042400
1954.000000	9.005200
1953.000000	8.988500
1952.000000	8.971400
1951.000000	8.933800
1950.000000	8.897400
1949.000000	8.893300
1948.000000	8.856000
1947.000000	8.852000
1946.000000	8.843300
1945.000000	8.810800
1944.000000	8.806700
1943.000000	8.793700
1942.000000	8.768300
1941.000000	8.781000
1940.000000	8.770500
1939.000000	8.789200
1938.000000	8.794200
1937.000000	8.815600
1936.000000	8.816200
1935.000000	8.819100
1934.000000	8.840700
1933.000000	8.852600
1932.000000	8.878900
1931.000000	8.887200
1930.000000	8.928700
1929.000000	8.969100
1928.000000	9.009700
1927.000000	9.075200
1926.000000	9.119600
1925.000000	9.171400
1924.000000	9.200000
1923.000000	9.240100
1922.000000	9.300000
1921.000000	9.391200
1920.000000	9.485000
1919.000000	9.583900
1918.000000	9.637100
1917.000000	9.675900
1916.000000	9.719600
1915.000000	9.792500
1914.000000	9.892800
1913.000000	10.059300
1912.000000	10.184200
1911.000000	10.266500
1910.000000	10.351100
1909.000000	10.390300
1908.000000	10.442400
1907.000000	10.534800
1906.000000	10.686600
1905.000000	10.873400
1904.000000	11.016600
1903.000000	11.127700
1902.000000	11.230600
1901.000000	11.339100
1900.000000	11.492000
1899.000000	11.709700
1898.000000	11.912000
1897.000000	12.063600
1896.000000	12.171000
1895.000000	12.275300
1894.000000	12.423300
1893.000000	12.573700
1892.000000	12.787500
1891.000000	13.006300
1890.000000	13.202700
1889.000000	13.374600
1888.000000	13.542600
1887.000000	13.688700
1886.000000	13.845700
1885.000000	14.077200
1884.000000	14.357800
1883.000000	14.626500
1882.000000	14.872000
1881.000000	15.131200
1880.000000	15.333100
1879.000000	15.526400
1878.000000	15.761800
1877.000000	15.967000
1876.000000	16.144600
1875.000000	16.343300
1874.000000	16.508400
1873.000000	16.698900
1872.000000	16.898400
1871.000000	17.066000
1870.000000	17.250200
1869.000000	17.388200
1868.000000	17.489700
1867.000000	17.537900
1866.000000	17.519400
1865.000000	17.509200
1864.000000	17.475800
1863.000000	17.418500
1862.000000	17.377500
1861.000000	17.391200
1860.000000	17.405500
1859.000000	17.434300
1858.000000	17.443800
1857.000000	17.416500
1856.000000	17.341800
1855.000000	17.299500
1854.000000	17.281900
1853.000000	17.244400
1852.000000	17.195400
1851.000000	17.099600
1850.000000	16.954900
1849.000000	16.883800
1848.000000	16.928900
1847.000000	17.011400
1846.000000	16.996600
1845.000000	16.865200
1844.000000	16.707300
1843.000000	16.588900
1842.000000	16.570000
1841.000000	16.628900
1840.000000	16.644300
1839.000000	16.587700
1838.000000	16.520400
1837.000000	16.517700
1836.000000	16.510000
1835.000000	16.476600
1834.000000	16.391300
1833.000000	16.250700
1832.000000	16.150200
1831.000000	16.079800
1830.000000	16.037700
1829.000000	15.980300
1828.000000	15.906900
1827.000000	15.862700
1826.000000	15.829000
1825.000000	15.780800
1824.000000	15.703800
1823.000000	15.596300
1822.000000	15.551600
1821.000000	15.589800
1820.000000	15.634400
1819.000000	15.628600
1818.000000	15.569400
1817.000000	15.508100
1816.000000	15.508000
1815.000000	15.520700
1814.000000	15.524800
1813.000000	15.508000
1812.000000	15.480400
1811.000000	15.466900
1810.000000	15.451600
1809.000000	15.419500
1808.000000	15.384500
1807.000000	15.377000
1806.000000	15.374600
1805.000000	15.347100
1804.000000	15.305800
1803.000000	15.272500
1802.000000	15.251000
1801.000000	15.244400
1800.000000	15.227100
1799.000000	15.212000
1798.000000	15.174000
1797.000000	15.134100
1796.000000	15.119500
1795.000000	15.113800
1794.000000	15.072000
1793.000000	15.042900
1792.000000	15.023500
1791.000000	14.998100
1790.000000	14.953300
1789.000000	14.896600
1788.000000	14.870400
1787.000000	14.839100
1786.000000	14.794000
1785.000000	14.751200
1784.000000	14.684400
1783.000000	14.633100
1782.000000	14.584900
1781.000000	14.532200
1780.000000	14.495800
1779.000000	14.436500
1778.000000	14.372000
1777.000000	14.297300
1776.000000	14.220600
1775.000000	14.148500
1774.000000	14.077300
1773.000000	13.991900
1772.000000	13.888300
1771.000000	13.799700
1770.000000	13.713300
1769.000000	13.621000
1768.000000	13.539500
1767.000000	13.436300
1766.000000	13.371400
1765.000000	13.329300
1764.000000	13.278600
1763.000000	13.252500
1762.000000	13.234700
1761.000000	13.255000
1760.000000	13.283000
1759.000000	13.331200
1758.000000	13.355000
1757.000000	13.381600
1756.000000	13.394100
1755.000000	13.396600
1754.000000	13.384200
1753.000000	13.381900
1752.000000	13.360300
1751.000000	13.323400
1750.000000	13.290400
1749.000000	13.279200
1748.000000	13.232400
1747.000000	13.158400
1746.000000	13.087800
1745.000000	13.022000
1744.000000	12.931400
1743.000000	12.800700
1742.000000	12.680300
1741.000000	12.512800
1740.000000	12.357400
1739.000000	12.194400
1738.000000	12.048800
1737.000000	11.911800
1736.000000	11.803600
1735.000000	11.736300
1734.000000	11.687300
1733.000000	11.658900
1732.000000	11.678600
1731.000000	11.695800
1730.000000	11.742700
1729.000000	11.771000
1728.000000	11.812100
1727.000000	11.863500
1726.000000	11.904100
1725.000000	11.930100
1724.000000	11.944800
1723.000000	11.961700
1722.000000	11.953900
1721.000000	11.946700
1720.000000	11.934700
1719.000000	11.930300
1718.000000	11.929100
1717.000000	11.961700
1716.000000	11.991600
1715.000000	12.043000
1714.000000	12.082300
1713.000000	12.101500
1712.000000	12.149700
1711.000000	12.202700
1710.000000	12.215700
1709.000000	12.247000
1708.000000	12.239600
1707.000000	12.279100
1706.000000	12.259500
1705.000000	12.269100
1704.000000	12.273400
1703.000000	12.268100
1702.000000	12.249000
1701.000000	12.171200
1700.000000	12.105300
1699.000000	12.038300
1698.000000	11.976600
1697.000000	11.913600
1696.000000	11.893200
1695.000000	11.924900
1694.000000	11.961800
1693.000000	12.023700
1692.000000	12.118400
1691.000000	12.205400
1690.000000	12.284600
1689.000000	12.267300
1688.000000	12.225400
1687.000000	12.162600
1686.000000	12.091700
1685.000000	12.060600
1684.000000	12.043800
1683.000000	12.149100
1682.000000	12.367700
1681.000000	12.658100
1680.000000	13.027300
1679.000000	13.410200
1678.000000	13.768100
1677.000000	14.137700
1676.000000	14.473500
1675.000000	14.721100
1674.000000	14.936800
1673.000000	15.124500
1672.000000	15.279500
1671.000000	15.445600
1670.000000	15.537300
1669.000000	15.658000
1668.000000	15.782600
1667.000000	15.911900
1666.000000	16.007400
1665.000000	16.123800
1664.000000	16.245600
1663.000000	16.356800
1662.000000	16.453300
1661.000000	16.548700
1660.000000	16.632300
1659.000000	16.696800
1658.000000	16.741200
1657.000000	16.793000
1656.000000	16.843200
1655.000000	16.877400
1654.000000	16.908500
1653.000000	16.925000
1652.000000	16.917500
1651.000000	16.925500
1650.000000	16.925000
1649.000000	16.909100
1648.000000	16.895500
1647.000000	16.871100
1646.000000	16.851900
1645.000000	16.827300
1644.000000	16.799300
1643.000000	16.766200
1642.000000	16.733100
1641.000000	16.697800
1640.000000	16.631700
1639.000000	16.591300
1638.000000	16.551400
1637.000000	16.500400
1636.000000	16.458200
1635.000000	16.425200
1634.000000	16.388700
1633.000000	16.337400
1632.000000	16.289100
1631.000000	16.244500
1630.000000	16.208300
1629.000000	16.157300
1628.000000	16.099000
1627.000000	16.058600
1626.000000	16.002100
1625.000000	15.937600
1624.000000	15.886500
1623.000000	15.843500
1622.000000	15.782800
1621.000000	15.742200
1620.000000	15.701200
1619.000000	15.650400
1618.000000	15.586900
1617.000000	15.542300
1616.000000	15.500400
1615.000000	15.450600
1614.000000	15.394100
1613.000000	15.359800
1612.000000	15.325600
1611.000000	15.288700
1610.000000	15.245000
1609.000000	15.214300
1608.000000	15.195600
1607.000000	15.150600
1606.000000	15.124400
1605.000000	15.086300
1604.000000	15.046300
1603.000000	15.020100
1602.000000	15.005100
1601.000000	14.974100
1600.000000	14.942700
1599.000000	14.899900
1598.000000	14.876800
1597.000000	14.853200
1596.000000	14.807800
1595.000000	14.785500
1594.000000	14.769300
1593.000000	14.744800
1592.000000	14.723700
1591.000000	14.708000
1590.000000	14.691100
1589.000000	14.679900
1588.000000	14.656500
1587.000000	14.643800
1586.000000	14.630800
1585.000000	14.624600
1584.000000	14.606300
1583.000000	14.596300
1582.000000	14.589900
1581.000000	14.580500
1580.000000	14.577600
1579.000000	14.575700
1578.000000	14.578600
1577.000000	14.578600
1576.000000	14.580200
1575.000000	14.583800
1574.000000	14.588800
1573.000000	14.590200
1572.000000	14.614800
1571.000000	14.642300
1570.000000	14.656700
1569.000000	14.665200
1568.000000	14.684200
1567.000000	14.703200
1566.000000	14.720300
1565.000000	14.743300
1564.000000	14.753400
1563.000000	14.768300
1562.000000	14.806600
1561.000000	14.819900
1560.000000	14.831900
1559.000000	14.852600
1558.000000	14.851200
1557.000000	14.865600
1556.000000	14.886400
1555.000000	14.894000
1554.000000	14.901800
1553.000000	14.905800
1552.000000	14.899000
1551.000000	14.901500
1550.000000	14.910800
1549.000000	14.920800
1548.000000	14.930000
1547.000000	14.927300
1546.000000	14.919400
1545.000000	14.926300
1544.000000	14.933400
1543.000000	14.933500
1542.000000	14.933100
1541.000000	14.938700
1540.000000	14.947700
1539.000000	14.943900
1538.000000	14.951900
1537.000000	14.962200
1536.000000	14.981200
1535.000000	14.988300
1534.000000	14.969900
1533.000000	14.961100
1532.000000	14.964300
1531.000000	14.969400
1530.000000	14.970900
1529.000000	14.969800
1528.000000	14.957200
1527.000000	14.953500
1526.000000	14.951100
1525.000000	14.939100
1524.000000	14.927700
1523.000000	14.928600
1522.000000	14.918500
1521.000000	14.915000
1520.000000	14.906400
1519.000000	14.902900
1518.000000	14.897800
1517.000000	14.899300
1516.000000	14.894500
1515.000000	14.873200
1514.000000	14.866800
1513.000000	14.858500
1512.000000	14.861000
1511.000000	14.847100
1510.000000	14.843400
1509.000000	14.823200
1508.000000	14.810800
1507.000000	14.788900
1506.000000	14.781200
1505.000000	14.777600
1504.000000	14.760100
1503.000000	14.772900
1502.000000	14.751200
1501.000000	14.751500
1500.000000	14.767900
1499.000000	14.747200
1498.000000	14.757700
1497.000000	14.766200
1496.000000	14.776600
1495.000000	14.792400
1494.000000	14.786300
1493.000000	14.779700
1492.000000	14.797900
1491.000000	14.802800
1490.000000	14.824800
1489.000000	14.820100
1488.000000	14.842100
1487.000000	14.857700
1486.000000	14.860700
1485.000000	14.889400
1484.000000	14.890600
1483.000000	14.908900
1482.000000	14.934400
1481.000000	14.955700
1480.000000	14.979600
1479.000000	15.014400
1478.000000	15.033700
1477.000000	15.049900
1476.000000	15.073700
1475.000000	15.099500
1474.000000	15.120500
1473.000000	15.146600
1472.000000	15.173000
1471.000000	15.218100
1470.000000	15.242900
1469.000000	15.260000
1468.000000	15.272000
1467.000000	15.290600
1466.000000	15.337100
1465.000000	15.380600
1464.000000	15.383100
1463.000000	15.425900
1462.000000	15.480500
1461.000000	15.516200
1460.000000	15.564400
1459.000000	15.595700
1458.000000	15.662100
1457.000000	15.705600
1456.000000	15.776100
1455.000000	15.863700
1454.000000	15.907900
1453.000000	15.969300
1452.000000	16.046300
1451.000000	16.108800
1450.000000	16.183100
1449.000000	16.258000
1448.000000	16.301900
1447.000000	16.383300
1446.000000	16.485400
1445.000000	16.622700
1444.000000	16.674800
1443.000000	16.745400
1442.000000	16.823800
1441.000000	16.923900
1440.000000	17.013700
1439.000000	17.100200
1438.000000	17.181200
1437.000000	17.266400
1436.000000	17.354100
1435.000000	17.423700
1434.000000	17.555100
1433.000000	17.608700
1432.000000	17.726400
1431.000000	17.822900
1430.000000	17.902500
1429.000000	18.008700
1428.000000	18.140800
1427.000000	18.254800
1426.000000	18.381100
1425.000000	18.506600
1424.000000	18.636900
1423.000000	18.807900
1422.000000	18.951200
1421.000000	19.060500
1420.000000	19.171300
1419.000000	19.360500
1418.000000	19.532900
1417.000000	19.609100
1416.000000	19.686300
1415.000000	19.849700
1414.000000	20.029900
1413.000000	20.174500
1412.000000	20.260700
1411.000000	20.344700
1410.000000	20.509800
1409.000000	20.744300
1408.000000	20.931100
1407.000000	21.187800
1406.000000	21.367300
1405.000000	21.626700
1404.000000	21.925000
1403.000000	22.152800
1402.000000	22.242600
1401.000000	22.542800
1400.000000	22.913000
1399.000000	23.159400
1398.000000	23.163200
1397.000000	23.204400
1396.000000	23.406900
1395.000000	23.628000
1394.000000	23.688600
1393.000000	23.680800
1392.000000	23.799800
1391.000000	23.925200
1390.000000	23.967100
1389.000000	24.017300
1388.000000	24.225800
1387.000000	24.413200
1386.000000	24.582100
1385.000000	24.776300
1384.000000	25.003000
1383.000000	25.212300
1382.000000	25.483100
1381.000000	25.699600
1380.000000	25.744200
1379.000000	25.773100
1378.000000	25.788300
1377.000000	25.791000
1376.000000	25.853400
1375.000000	25.988300
1374.000000	26.162500
1373.000000	26.363500
1372.000000	26.596400
1371.000000	26.890100
1370.000000	27.136100
1369.000000	27.277700
1368.000000	27.531100
1367.000000	27.772300
1366.000000	27.887100
1365.000000	28.041700
1364.000000	28.236800
1363.000000	28.334000
1362.000000	28.422100
1361.000000	28.650200
1360.000000	28.755500
1359.000000	28.736200
1358.000000	28.781500
1357.000000	28.867600
1356.000000	29.052500
1355.000000	29.385900
1354.000000	29.827300
1353.000000	30.217500
1352.000000	30.619800
1351.000000	31.030100
1350.000000	31.356800
1349.000000	31.672600
1348.000000	31.996000
1347.000000	32.306500
1346.000000	32.562600
1345.000000	32.790000
1344.000000	33.057300
1343.000000	33.295400
1342.000000	33.504400
1341.000000	33.739600
1340.000000	33.952600
1339.000000	34.163900
1338.000000	34.348500
1337.000000	34.527700
1336.000000	34.700900
1335.000000	34.860800
1334.000000	35.014100
1333.000000	35.170000
1332.000000	35.318000
1331.000000	35.462200
1330.000000	35.582000
1329.000000	35.687200
1328.000000	35.783400
1327.000000	35.884900
1326.000000	35.983200
1325.000000	36.062000
1324.000000	36.141300
1323.000000	36.214500
1322.000000	36.284700
1321.000000	36.352000
1320.000000	36.418200
1319.000000	36.489200
1318.000000	36.558800
1317.000000	36.619900
1316.000000	36.661500
1315.000000	36.706500
1314.000000	36.769400
1313.000000	36.825100
1312.000000	36.860400
1311.000000	36.896800
1310.000000	36.928200
1309.000000	36.946700
1308.000000	36.971400
1307.000000	37.011100
1306.000000	37.015900
1305.000000	37.000600
1304.000000	37.002200
1303.000000	37.007900
1302.000000	37.005200
1301.000000	36.981600
1300.000000	36.971600
1299.000000	36.979000
1298.000000	36.978600
1297.000000	36.977600
1296.000000	36.966300
1295.000000	36.957700
1294.000000	36.946100
1293.000000	36.944800
1292.000000	36.922300
1291.000000	36.900400
1290.000000	36.890100
1289.000000	36.855600
1288.000000	36.814800
1287.000000	36.777900
1286.000000	36.739100
1285.000000	36.706300
1284.000000	36.663100
1283.000000	36.617700
1282.000000	36.563400
1281.000000	36.513600
1280.000000	36.463800
1279.000000	36.413000
1278.000000	36.357700
1277.000000	36.307400
1276.000000	36.281200
1275.000000	36.243100
1274.000000	36.189400
1273.000000	36.140600
1272.000000	36.093200
1271.000000	36.068400
1270.000000	36.047400
1269.000000	35.992700
1268.000000	35.953600
1267.000000	35.915200
1266.000000	35.865400
1265.000000	35.806700
1264.000000	35.758900
1263.000000	35.716600
1262.000000	35.646800
1261.000000	35.591200
1260.000000	35.563900
1259.000000	35.522800
1258.000000	35.469300
1257.000000	35.429700
1256.000000	35.369400
1255.000000	35.288300
1254.000000	35.244800
1253.000000	35.203200
1252.000000	35.134400
1251.000000	35.075400
1250.000000	34.987800
1249.000000	34.923100
1248.000000	34.864500
1247.000000	34.778000
1246.000000	34.715700
1245.000000	34.637900
1244.000000	34.534700
1243.000000	34.437500
1242.000000	34.337500
1241.000000	34.234800
1240.000000	34.134300
1239.000000	34.015200
1238.000000	33.910600
1237.000000	33.788700
1236.000000	33.664100
1235.000000	33.542000
1234.000000	33.407200
1233.000000	33.252100
1232.000000	33.125300
1231.000000	32.989500
1230.000000	32.852400
1229.000000	32.725600
1228.000000	32.588500
1227.000000	32.444600
1226.000000	32.303900
1225.000000	32.173300
1224.000000	32.029900
1223.000000	31.904900
1222.000000	31.764600
1221.000000	31.634200
1220.000000	31.504700
1219.000000	31.386300
1218.000000	31.275300
1217.000000	31.153500
1216.000000	31.068200
1215.000000	30.965300
1214.000000	30.866800
1213.000000	30.783500
1212.000000	30.688900
1211.000000	30.593900
1210.000000	30.539800
1209.000000	30.491000
1208.000000	30.435000
1207.000000	30.383000
1206.000000	30.357900
1205.000000	30.340000
1204.000000	30.327900
1203.000000	30.339700
1202.000000	30.344200
1201.000000	30.320000
1200.000000	30.308200
1199.000000	30.272200
1198.000000	30.190900
1197.000000	30.106600
1196.000000	29.980400
1195.000000	29.815400
1194.000000	29.585900
1193.000000	29.280300
1192.000000	28.968000
1191.000000	28.610900
1190.000000	28.271100
1189.000000	27.968400
1188.000000	27.715200
1187.000000	27.564700
1186.000000	27.523500
1185.000000	27.573200
1184.000000	27.684500
1183.000000	27.926800
1182.000000	28.224600
1181.000000	28.569600
1180.000000	28.914100
1179.000000	29.261600
1178.000000	29.541100
1177.000000	29.787200
1176.000000	29.976300
1175.000000	30.194300
1174.000000	30.430300
1173.000000	30.653500
1172.000000	30.895300
1171.000000	31.148000
1170.000000	31.422700
1169.000000	31.683600
1168.000000	31.935800
1167.000000	32.207300
1166.000000	32.498800
1165.000000	32.766400
1164.000000	33.047400
1163.000000	33.330600
1162.000000	33.630400
1161.000000	33.882000
1160.000000	34.153100
1159.000000	34.411300
1158.000000	34.624600
1157.000000	34.849700
1156.000000	35.068800
1155.000000	35.225100
1154.000000	35.338000
1153.000000	35.400400
1152.000000	35.422000
1151.000000	35.443100
1150.000000	35.431300
1149.000000	35.413800
1148.000000	35.415500
1147.000000	35.418900
1146.000000	35.538100
1145.000000	35.686800
1144.000000	35.870100
1143.000000	36.064100
1142.000000	36.281400
1141.000000	36.517900
1140.000000	36.752100
1139.000000	36.999400
1138.000000	37.261000
1137.000000	37.487700
1136.000000	37.736800
1135.000000	38.040700
1134.000000	38.353900
1133.000000	38.544700
1132.000000	38.708800
1131.000000	38.860300
1130.000000	39.007800
1129.000000	39.161600
1128.000000	39.276700
1127.000000	39.357800
1126.000000	39.435700
1125.000000	39.506700
1124.000000	39.542600
1123.000000	39.616800
1122.000000	39.677200
1121.000000	39.710900
1120.000000	39.718900
1119.000000	39.732800
1118.000000	39.752300
1117.000000	39.769300
1116.000000	39.762200
1115.000000	39.727700
1114.000000	39.709300
1113.000000	39.693700
1112.000000	39.670600
1111.000000	39.667000
1110.000000	39.641600
1109.000000	39.621000
1108.000000	39.619000
1107.000000	39.606300
1106.000000	39.597000
1105.000000	39.575200
1104.000000	39.566100
1103.000000	39.529800
1102.000000	39.532600
1101.000000	39.492700
1100.000000	39.461200
1099.000000	39.442700
1098.000000	39.420600
1097.000000	39.378100
1096.000000	39.349800
1095.000000	39.313400
1094.000000	39.299500
1093.000000	39.247600
1092.000000	39.211000
1091.000000	39.186200
1090.000000	39.134700
1089.000000	39.106000
1088.000000	39.069600
1087.000000	39.029800
1086.000000	38.988600
1085.000000	38.950300
1084.000000	38.913600
1083.000000	38.874700
1082.000000	38.835400
1081.000000	38.785200
1080.000000	38.736400
1079.000000	38.705200
1078.000000	38.680100
1077.000000	38.654600
1076.000000	38.609800
1075.000000	38.563300
1074.000000	38.524900
1073.000000	38.488200
1072.000000	38.461500
1071.000000	38.411400
1070.000000	38.362600
1069.000000	38.331700
1068.000000	38.310000
1067.000000	38.262100
1066.000000	38.231800
1065.000000	38.206100
1064.000000	38.158700
1063.000000	38.117800
1062.000000	38.080800
1061.000000	38.036400
1060.000000	38.005100
1059.000000	37.957300
1058.000000	37.904800
1057.000000	37.862300
1056.000000	37.823200
1055.000000	37.790500
1054.000000	37.733100
1053.000000	37.693800
1052.000000	37.670500
1051.000000	37.643700
1050.000000	37.603000
1049.000000	37.567300
1048.000000	37.553200
1047.000000	37.517400
1046.000000	37.469900
1045.000000	37.444500
1044.000000	37.415000
1043.000000	37.395700
1042.000000	37.389000
1041.000000	37.358200
1040.000000	37.325700
1039.000000	37.305100
1038.000000	37.283000
1037.000000	37.242600
1036.000000	37.206400
1035.000000	37.181300
1034.000000	37.152800
1033.000000	37.107200
1032.000000	37.056500
1031.000000	37.026600
1030.000000	36.979700
1029.000000	36.939800
1028.000000	36.908600
1027.000000	36.872600
1026.000000	36.833300
1025.000000	36.784500
1024.000000	36.734600
1023.000000	36.680300
1022.000000	36.629800
1021.000000	36.586800
1020.000000	36.543700
1019.000000	36.508300
1018.000000	36.473900
1017.000000	36.433600
1016.000000	36.406900
1015.000000	36.378600
1014.000000	36.358400
1013.000000	36.335400
1012.000000	36.316500
1011.000000	36.319900
1010.000000	36.330200
1009.000000	36.333800
1008.000000	36.324000
1007.000000	36.329400
1006.000000	36.341800
1005.000000	36.364000
1004.000000	36.385600
1003.000000	36.384900
1002.000000	36.401800
1001.000000	36.411700
1000.000000	36.396100
999.000000	36.407400
998.000000	36.425300
997.000000	36.441600
996.000000	36.450400
995.000000	36.453600
994.000000	36.459100
993.000000	36.470900
992.000000	36.473800
991.000000	36.484400
990.000000	36.495200
989.000000	36.503700
988.000000	36.524100
987.000000	36.539000
986.000000	36.557400
985.000000	36.581100
984.000000	36.600200
983.000000	36.617100
982.000000	36.637100
981.000000	36.649300
980.000000	36.651700
979.000000	36.656100
978.000000	36.661800
977.000000	36.662100
976.000000	36.676900
975.000000	36.695200
974.000000	36.691800
973.000000	36.701100
972.000000	36.723100
971.000000	36.724500
970.000000	36.724900
969.000000	36.727200
968.000000	36.725300
967.000000	36.742600
966.000000	36.751000
965.000000	36.753000
964.000000	36.752400
963.000000	36.750600
962.000000	36.754200
961.000000	36.785500
960.000000	36.811400
959.000000	36.830600
958.000000	36.858200
957.000000	36.866900
956.000000	36.889600
955.000000	36.914600
954.000000	36.909700
953.000000	36.908800
952.000000	36.928100
951.000000	36.919800
950.000000	36.920400
949.000000	36.944500
948.000000	36.969500
947.000000	36.970400
946.000000	36.940500
945.000000	36.959900
944.000000	36.984600
943.000000	36.994400
942.000000	37.007300
941.000000	37.021900
940.000000	36.981500
939.000000	36.984700
938.000000	37.025400
937.000000	37.059800
936.000000	37.116100
935.000000	37.159300
934.000000	37.192200
933.000000	37.245300
932.000000	37.295500
931.000000	37.353500
930.000000	37.369400
929.000000	37.400400
928.000000	37.403900
927.000000	37.442600
926.000000	37.509000
925.000000	37.527900
924.000000	37.562000
923.000000	37.608200
922.000000	37.660300
921.000000	37.741300
920.000000	37.779300
919.000000	37.834400
918.000000	37.868100
917.000000	37.914200
916.000000	37.960000
915.000000	37.996900
914.000000	38.046600
913.000000	38.093500
912.000000	38.140400
911.000000	38.187000
910.000000	38.243700
909.000000	38.307600
908.000000	38.382600
907.000000	38.444500
906.000000	38.541500
905.000000	38.670300
904.000000	38.744500
903.000000	38.824600
902.000000	38.918800
901.000000	39.048800
900.000000	39.136800
899.000000	39.263300
898.000000	39.423900
897.000000	39.513200
896.000000	39.589200
895.000000	39.707300
894.000000	39.846600
893.000000	39.942900
892.000000	40.056000
891.000000	40.175600
890.000000	40.296200
889.000000	40.378600
888.000000	40.490000
887.000000	40.615000
886.000000	40.737100
885.000000	40.854700
884.000000	40.962900
883.000000	41.080700
882.000000	41.195200
881.000000	41.308600
880.000000	41.404300
879.000000	41.519700
878.000000	41.627400
877.000000	41.732000
876.000000	41.854200
875.000000	41.935500
874.000000	42.061700
873.000000	42.173300
872.000000	42.304100
871.000000	42.423200
870.000000	42.518900
869.000000	42.655600
868.000000	42.763100
867.000000	42.888900
866.000000	43.048100
865.000000	43.166500
864.000000	43.298900
863.000000	43.425000
862.000000	43.568000
861.000000	43.695500
860.000000	43.827700
859.000000	43.938900
858.000000	44.312000
857.000000	43.946800
856.000000	43.821361
855.000000	44.107501
854.000000	44.238046
853.000000	44.285158
852.000000	44.641148
851.000000	44.880369
850.000000	45.013708
849.000000	44.972569
848.000000	45.238285
847.000000	45.371335
846.000000	45.582905
845.000000	45.622117
844.000000	45.834651
843.000000	45.797848
842.000000	46.010863
841.000000	46.150947
840.000000	46.350089
839.000000	46.498554
838.000000	46.629485
837.000000	46.699912
836.000000	46.795388
835.000000	46.838936
834.000000	46.807817
833.000000	47.000311
832.000000	47.125269
831.000000	47.237605
830.000000	47.316896
829.000000	47.503513
828.000000	47.632035
827.000000	47.619222
826.000000	47.675872
825.000000	47.834164
824.000000	47.821543
823.000000	47.969334
822.000000	48.005559
821.000000	48.154217
820.000000	48.138320
819.000000	48.152483
818.000000	48.270600
817.000000	48.422919
816.000000	48.450473
815.000000	48.492383
814.000000	48.472054
813.000000	48.610885
812.000000	48.669559
811.000000	48.609440
810.000000	48.723318
809.000000	48.794709
808.000000	48.795287
807.000000	48.734109
806.000000	48.837871
805.000000	48.988263
804.000000	48.951171
803.000000	48.919666
802.000000	48.881033
801.000000	48.994429
800.000000	49.084125
799.000000	48.953483
798.000000	48.906660
797.000000	48.937586
796.000000	48.885464
795.000000	48.884886
794.000000	48.862053
793.000000	48.875637
792.000000	48.804921
791.000000	48.734687
790.000000	48.737770
789.000000	48.675725
788.000000	48.633911
787.000000	48.546143
786.000000	48.530246
785.000000	48.470609
784.000000	48.352203
783.000000	48.252873
782.000000	48.186685
781.000000	48.109610
780.000000	47.953534
779.000000	47.848519
778.000000	47.814125
777.000000	47.777610
776.000000	47.654291
775.000000	47.509775
774.000000	47.396475
773.000000	47.218818
772.000000	47.101375
771.000000	47.027384
770.000000	46.913505
769.000000	46.732283
768.000000	46.617249
767.000000	46.589310
766.000000	46.476780
765.000000	46.376776
764.000000	46.279565
763.000000	46.129269
762.000000	45.980708
761.000000	45.908450
760.000000	45.822030
759.000000	45.651213
758.000000	45.519800
757.000000	45.414882
756.000000	45.281928
755.000000	45.169495
754.000000	45.015153
753.000000	44.902720
752.000000	44.812543
751.000000	44.701555
750.000000	44.599238
749.000000	44.467537
748.000000	44.349034
747.000000	44.221090
746.000000	44.102973
745.000000	43.983796
744.000000	43.863945
743.000000	43.785521
742.000000	43.699583
741.000000	43.585126
740.000000	43.478571
739.000000	43.350337
738.000000	43.243781
737.000000	43.094353
736.000000	42.971129
735.000000	42.897716
734.000000	42.809754
733.000000	42.721889
732.000000	42.591536
731.000000	42.482571
730.000000	42.399138
729.000000	42.287379
728.000000	42.204139
727.000000	42.077929
726.000000	41.964436
725.000000	41.861156
724.000000	41.745447
723.000000	41.671166
722.000000	41.549485
721.000000	41.444374
720.000000	41.329725
719.000000	41.258527
718.000000	41.149659
717.000000	41.037419
716.000000	40.916893
715.000000	40.795308
714.000000	40.714475
713.000000	40.616012
712.000000	40.502905
711.000000	40.398950
710.000000	40.309640
709.000000	40.199616
708.000000	40.089688
707.000000	39.964923
706.000000	39.854321
705.000000	39.770791
704.000000	39.659707
703.000000	39.519431
702.000000	39.383394
701.000000	39.279439
700.000000	39.149086
699.000000	38.956399
698.000000	38.816894
697.000000	38.709664
696.000000	38.528730
695.000000	38.385564
694.000000	38.258583
693.000000	38.026010
692.000000	37.838526
691.000000	37.684280
690.000000	37.471360
689.000000	37.259597
688.000000	37.040031
687.000000	36.881064
686.000000	36.710054
685.000000	36.508407
684.000000	36.327089
683.000000	36.155983
682.000000	35.939402
681.000000	35.765021
680.000000	35.555859
679.000000	35.378683
678.000000	35.165668
677.000000	35.012385
676.000000	34.850432
675.000000	34.685106
674.000000	34.508509
673.000000	34.333067
672.000000	34.213409
671.000000	34.105600
670.000000	33.982473
669.000000	33.902797
668.000000	33.809055
667.000000	33.683808
666.000000	33.609431
665.000000	33.552010
664.000000	33.483896
663.000000	33.425319
662.000000	33.395356
661.000000	33.357878
660.000000	33.337839
659.000000	33.340729
658.000000	33.335912
657.000000	33.367416
656.000000	33.391598
655.000000	33.415395
654.000000	33.463856
653.000000	33.560103
652.000000	33.616464
651.000000	33.686891
650.000000	33.760305
649.000000	33.891332
648.000000	34.010316
647.000000	34.142885
646.000000	34.278248
645.000000	34.364475
644.000000	34.479798
643.000000	34.590882
642.000000	34.717285
641.000000	34.854478
640.000000	34.978472
639.000000	35.140426
638.000000	35.289084
637.000000	35.470113
636.000000	35.619157
635.000000	35.773981
634.000000	35.937379
633.000000	36.108004
632.000000	36.322561
631.000000	36.542609
630.000000	36.772966
629.000000	36.969603
628.000000	37.206416
627.000000	37.425501
626.000000	37.637938
625.000000	37.867236
624.000000	38.077843
623.000000	38.312439
622.000000	38.525840
621.000000	38.739048
620.000000	38.989252
619.000000	39.202364
618.000000	39.431854
617.000000	39.656527
616.000000	39.881875
615.000000	40.167148
614.000000	40.326982
613.000000	40.544718
612.000000	40.767946
611.000000	40.985201
610.000000	41.186173
609.000000	41.424623
608.000000	41.670588
607.000000	41.883797
606.000000	42.065789
605.000000	42.268303
604.000000	42.518411
603.000000	42.732486
602.000000	42.969106
601.000000	43.153026
600.000000	43.371051
599.000000	43.531367
598.000000	43.713552
597.000000	43.951328
596.000000	44.141992
595.000000	44.355682
594.000000	44.556558
593.000000	44.689223
592.000000	44.822273
591.000000	45.008024
590.000000	45.125081
589.000000	45.293682
588.000000	45.418158
587.000000	45.575102
586.000000	45.674046
585.000000	45.726746
584.000000	45.778386
583.000000	45.876560
582.000000	45.925021
581.000000	45.969436
580.000000	46.029458
579.000000	46.070885
578.000000	46.102197
577.000000	46.114240
576.000000	46.091406
575.000000	46.115203
574.000000	46.123392
573.000000	46.145455
572.000000	46.140638
571.000000	46.100655
570.000000	46.055663
569.000000	46.009996
568.000000	45.912593
567.000000	45.879354
566.000000	45.779061
565.000000	45.691677
564.000000	45.583676
563.000000	45.477217
562.000000	45.424324
561.000000	45.300137
560.000000	45.224508
559.000000	45.790718
558.000000	45.665857
557.000000	45.503807
556.000000	45.323260
555.000000	45.140111
554.000000	44.939331
553.000000	44.742983
552.000000	44.551934
551.000000	44.291421
550.000000	44.041698
549.000000	43.773382
548.000000	43.495431
547.000000	43.206015
546.000000	42.910722
545.000000	42.629495
544.000000	42.263968
543.000000	41.970120
542.000000	41.605267
541.000000	41.250531
540.000000	40.870745
539.000000	40.465042
538.000000	40.070612
537.000000	39.652674
536.000000	39.224427
535.000000	38.807259
534.000000	38.372461
533.000000	37.950766
532.000000	37.518761
531.000000	37.064213
530.000000	36.626332
529.000000	36.190088
528.000000	35.747197
527.000000	35.336196
526.000000	34.890511
525.000000	34.468237
524.000000	34.033343
523.000000	33.601338
522.000000	33.193516
521.000000	32.766233
520.000000	32.354557
519.000000	31.945579
518.000000	31.534096
517.000000	31.124347
516.000000	30.725966
515.000000	30.301284
514.000000	29.872845
513.000000	29.439684
512.000000	29.026756
511.000000	28.585117
510.000000	28.153499
509.000000	27.717930
508.000000	27.279759
507.000000	26.836772
506.000000	26.413920
505.000000	25.978833
504.000000	25.532570
503.000000	25.106057
502.000000	24.710182
501.000000	24.304383
500.000000	23.887601
499.000000	23.479972
498.000000	23.101631
497.000000	22.731093
496.000000	22.369035
495.000000	22.042526
494.000000	21.702723
493.000000	21.359355
492.000000	21.054813
491.000000	20.755763
490.000000	20.460855
489.000000	20.212771
488.000000	19.979619
487.000000	19.736352
486.000000	19.500503
485.000000	19.286332
484.000000	19.084010
483.000000	18.881785
482.000000	18.662989
481.000000	18.464618
480.000000	18.279735
479.000000	18.118648
478.000000	18.017584
477.000000	17.912280
476.000000	17.814010
475.000000	17.724603
474.000000	17.628453
473.000000	17.541647
472.000000	17.472761
471.000000	17.407441
470.000000	17.342890
469.000000	17.282098
468.000000	17.227375
467.000000	17.170243
466.000000	17.132476
465.000000	17.101068
464.000000	17.076308
463.000000	17.041817
462.000000	17.015901
461.000000	16.995476
460.000000	16.981121
459.000000	16.971679
458.000000	16.968981
457.000000	16.942101
456.000000	16.912909
455.000000	16.902601
454.000000	16.884103
453.000000	16.857030
452.000000	16.831981
451.000000	16.811941
450.000000	16.760494
449.000000	16.712418
448.000000	16.671472
447.000000	16.614148
446.000000	16.553259
445.000000	16.504798
444.000000	16.447763
443.000000	16.346024
442.000000	16.243900
441.000000	16.157673
440.000000	16.040712
439.000000	15.912189
438.000000	15.785594
437.000000	15.653892
436.000000	15.515158
435.000000	15.360719
434.000000	15.205413
433.000000	15.039799
432.000000	14.876304
431.000000	14.710400
430.000000	14.546617
429.000000	14.390733
428.000000	14.233596
427.000000	14.060564
426.000000	13.873754
425.000000	13.690990
424.000000	13.498688
423.000000	13.282493
422.000000	13.068225
421.000000	12.872166
420.000000	12.659344
419.000000	12.461936
418.000000	12.267707
417.000000	12.068565
416.000000	11.873277
415.000000	11.659491
414.000000	11.459771
413.000000	11.272479
412.000000	11.066593
411.000000	10.838837
410.000000	10.625051
409.000000	10.434387
408.000000	10.221275
407.000000	10.006718
406.000000	9.785032
405.000000	9.561900
404.000000	9.346476
403.000000	9.121032
402.000000	8.894721
401.000000	8.687679
400.000000	8.476976
399.000000	8.257120
398.000000	8.049500
397.000000	7.834750
396.000000	7.616628
395.000000	7.415367
394.000000	7.213527
393.000000	7.005329
392.000000	6.826226
391.000000	6.643366
390.000000	6.461470
389.000000	6.292291
388.000000	6.130048
387.000000	5.959905
386.000000	5.821556
385.000000	5.683592
384.000000	5.543894
383.000000	5.424525
382.000000	5.309587
381.000000	5.192240
380.000000	5.090694
379.000000	5.003600
378.000000	4.910917
377.000000	4.829507
376.000000	4.827099
375.000000	4.819584
374.000000	4.835577
373.000000	4.692025
372.000000	4.735380
371.000000	4.618997
370.000000	4.535563
369.000000	4.554061
368.000000	4.554157
367.000000	4.440472
366.000000	4.415904
365.000000	4.431319
364.000000	4.428911
363.000000	4.348946
362.000000	4.316574
361.000000	4.293163
360.000000	4.183909
359.000000	4.181308
358.000000	4.127163
357.000000	4.149996
356.000000	4.055483
355.000000	4.093539
354.000000	3.996907
353.000000	3.974844
352.000000	4.011551
351.000000	4.023401
350.000000	4.000953
349.000000	3.928310
348.000000	3.968871
347.000000	3.844780
346.000000	3.938233
345.000000	3.893048
344.000000	3.848923
343.000000	3.939486
342.000000	3.809422
341.000000	3.895650
340.000000	3.923300
339.000000	3.923396
338.000000	3.904899
337.000000	4.020029
336.000000	3.869348
335.000000	3.678491
334.000000	3.767127
333.000000	3.849116
332.000000	3.695351
331.000000	3.764333
330.000000	3.717607
329.000000	3.815492
328.000000	3.963764
327.000000	3.926769
326.000000	3.962608
325.000000	4.001916
324.000000	4.027736
323.000000	3.868770
322.000000	3.977734
321.000000	4.189594
320.000000	3.968967
319.000000	3.824644
318.000000	4.168205
317.000000	3.913473
316.000000	3.561723
315.000000	3.678202
314.000000	3.599008
313.000000	3.623190
312.000000	3.644193
311.000000	3.617024
310.000000	3.647083
309.000000	3.669339
308.000000	3.665196
307.000000	3.684079
306.000000	3.664714
305.000000	3.668857
304.000000	3.643519
303.000000	3.646698
302.000000	3.694677
301.000000	3.650455
300.000000	3.611918
299.000000	3.614519
298.000000	3.665100
297.000000	3.711826
296.000000	3.657103
295.000000	3.641303
294.000000	3.686199
293.000000	3.687066
292.000000	3.720401
291.000000	3.667026
290.000000	3.679744
289.000000	3.696219
288.000000	3.655273
287.000000	3.689089
286.000000	3.701036
285.000000	3.712693
284.000000	3.697086
283.000000	3.681382
282.000000	3.643037
281.000000	3.685717
280.000000	3.637738
279.000000	3.723098
278.000000	3.758167
277.000000	3.717029
276.000000	3.714331
275.000000	3.734371
274.000000	3.664136
273.000000	3.702095
272.000000	3.787167
271.000000	3.757300
270.000000	3.753736
269.000000	3.780712
268.000000	3.802196
267.000000	3.822139
266.000000	3.773101
265.000000	3.806339
264.000000	3.842950
263.000000	3.862893
262.000000	3.921759
261.000000	3.935536
260.000000	3.912799
259.000000	3.962319
258.000000	3.892278
257.000000	3.959140
256.000000	3.910679
255.000000	3.976482
254.000000	3.966077
253.000000	3.942954
252.000000	3.909041
251.000000	3.943532
250.000000	3.927636
