PE UV       SUBTECH     SPECTRUM    ASCII       PEDS        4.00        
   -1
CICIMAUCR0100-2.Sample.ASC
24/04/18
16:04:25.00
24/04/18
16:04:25.00
Vinicio Soto Monge
C. cupreomarginata
250,000000
1
Lambda 1050
1050L1511233
PerkinElmer UV WinLab 6.3.2.0749 / 2.02.05 Lambda 900 UV/VIS/NIR, Aug  7 2015 09:38:08

0
0
3350/servo 860,8/2
0
0
UV/VIS
1
1
1
DoubleDePol,CommonBeamDepol,RBeamAtt,SBeamAtt,60mm sphere, WB InGaAs Detector
0
0
0
0
Program
Program
3350/servo 860,8/2
3350/0,2 860,8/0,2
3350/0,2 860,8/0,2
0
15.00
 
 
 
0
 
860,8
319,2
860,8
Front
100
on
S:100 R:100
0
0
0
0
 
0
 
 
 
0
 
 
0
0
0
0
0
 
 
 
 
0
0


0
0
#HDR
-1
-1
#GR
nm
%R
1.0
0.0
2500,000000
-1,000000
2251
8
65,493400
4,757100
#DATA
2500.000000	10.787500
2499.000000	10.838300
2498.000000	10.709100
2497.000000	10.827400
2496.000000	10.713500
2495.000000	10.662300
2494.000000	10.641800
2493.000000	10.640000
2492.000000	10.637500
2491.000000	10.538100
2490.000000	10.614200
2489.000000	10.591700
2488.000000	10.562200
2487.000000	10.550500
2486.000000	10.518100
2485.000000	10.546500
2484.000000	10.593000
2483.000000	10.620300
2482.000000	10.576700
2481.000000	10.579300
2480.000000	10.564300
2479.000000	10.604700
2478.000000	10.559900
2477.000000	10.593400
2476.000000	10.597100
2475.000000	10.567700
2474.000000	10.568400
2473.000000	10.647000
2472.000000	10.599400
2471.000000	10.620100
2470.000000	10.639500
2469.000000	10.645400
2468.000000	10.678900
2467.000000	10.692300
2466.000000	10.747000
2465.000000	10.754400
2464.000000	10.792500
2463.000000	10.864500
2462.000000	10.878600
2461.000000	10.927400
2460.000000	11.008800
2459.000000	11.039700
2458.000000	11.127300
2457.000000	11.214500
2456.000000	11.287200
2455.000000	11.362600
2454.000000	11.455300
2453.000000	11.535800
2452.000000	11.646900
2451.000000	11.721800
2450.000000	11.810300
2449.000000	11.925700
2448.000000	12.020300
2447.000000	12.124300
2446.000000	12.226100
2445.000000	12.311900
2444.000000	12.423200
2443.000000	12.511800
2442.000000	12.621900
2441.000000	12.719900
2440.000000	12.804200
2439.000000	12.902800
2438.000000	13.001100
2437.000000	13.086500
2436.000000	13.179100
2435.000000	13.261300
2434.000000	13.349800
2433.000000	13.420200
2432.000000	13.504600
2431.000000	13.580700
2430.000000	13.656200
2429.000000	13.717700
2428.000000	13.789300
2427.000000	13.868700
2426.000000	13.912800
2425.000000	13.974800
2424.000000	14.037900
2423.000000	14.080400
2422.000000	14.136300
2421.000000	14.194200
2420.000000	14.256800
2419.000000	14.304700
2418.000000	14.358900
2417.000000	14.399300
2416.000000	14.436300
2415.000000	14.468100
2414.000000	14.504400
2413.000000	14.539100
2412.000000	14.576000
2411.000000	14.604200
2410.000000	14.647700
2409.000000	14.691900
2408.000000	14.713100
2407.000000	14.746300
2406.000000	14.771200
2405.000000	14.794100
2404.000000	14.830500
2403.000000	14.856300
2402.000000	14.904600
2401.000000	14.934600
2400.000000	14.953900
2399.000000	14.986700
2398.000000	15.014900
2397.000000	15.039000
2396.000000	15.080000
2395.000000	15.098100
2394.000000	15.116700
2393.000000	15.135800
2392.000000	15.176800
2391.000000	15.200100
2390.000000	15.201300
2389.000000	15.212600
2388.000000	15.229900
2387.000000	15.244300
2386.000000	15.245200
2385.000000	15.246000
2384.000000	15.240800
2383.000000	15.240100
2382.000000	15.242600
2381.000000	15.231800
2380.000000	15.216900
2379.000000	15.207000
2378.000000	15.183800
2377.000000	15.147000
2376.000000	15.122400
2375.000000	15.106200
2374.000000	15.085700
2373.000000	15.043100
2372.000000	15.012100
2371.000000	14.986200
2370.000000	14.949200
2369.000000	14.913000
2368.000000	14.859600
2367.000000	14.797900
2366.000000	14.745500
2365.000000	14.690300
2364.000000	14.622700
2363.000000	14.571800
2362.000000	14.513600
2361.000000	14.432700
2360.000000	14.358700
2359.000000	14.296000
2358.000000	14.234100
2357.000000	14.179300
2356.000000	14.125400
2355.000000	14.086300
2354.000000	14.058600
2353.000000	14.027900
2352.000000	14.011300
2351.000000	14.013700
2350.000000	14.020200
2349.000000	14.032500
2348.000000	14.062200
2347.000000	14.099700
2346.000000	14.133100
2345.000000	14.181700
2344.000000	14.221700
2343.000000	14.264300
2342.000000	14.309400
2341.000000	14.331600
2340.000000	14.357000
2339.000000	14.385600
2338.000000	14.396300
2337.000000	14.405900
2336.000000	14.396800
2335.000000	14.369500
2334.000000	14.348500
2333.000000	14.337400
2332.000000	14.299100
2331.000000	14.261100
2330.000000	14.211300
2329.000000	14.165800
2328.000000	14.103100
2327.000000	14.030700
2326.000000	13.981800
2325.000000	13.906700
2324.000000	13.822000
2323.000000	13.725700
2322.000000	13.646300
2321.000000	13.535400
2320.000000	13.428800
2319.000000	13.330600
2318.000000	13.198200
2317.000000	13.047100
2316.000000	12.944000
2315.000000	12.820100
2314.000000	12.696800
2313.000000	12.581300
2312.000000	12.453300
2311.000000	12.320200
2310.000000	12.224500
2309.000000	12.149800
2308.000000	12.095800
2307.000000	12.046800
2306.000000	12.016800
2305.000000	12.013100
2304.000000	12.047700
2303.000000	12.072500
2302.000000	12.120000
2301.000000	12.185500
2300.000000	12.263900
2299.000000	12.351800
2298.000000	12.453100
2297.000000	12.565100
2296.000000	12.664000
2295.000000	12.752100
2294.000000	12.842700
2293.000000	12.925600
2292.000000	12.973900
2291.000000	13.026400
2290.000000	13.051300
2289.000000	13.093500
2288.000000	13.108100
2287.000000	13.086800
2286.000000	13.074100
2285.000000	13.076200
2284.000000	13.040300
2283.000000	13.009600
2282.000000	12.955100
2281.000000	12.919500
2280.000000	12.880300
2279.000000	12.815200
2278.000000	12.770100
2277.000000	12.727900
2276.000000	12.699100
2275.000000	12.652100
2274.000000	12.641400
2273.000000	12.602600
2272.000000	12.607400
2271.000000	12.626300
2270.000000	12.651400
2269.000000	12.685200
2268.000000	12.754300
2267.000000	12.854200
2266.000000	12.951100
2265.000000	13.085100
2264.000000	13.230500
2263.000000	13.409700
2262.000000	13.624200
2261.000000	13.851300
2260.000000	14.081400
2259.000000	14.333700
2258.000000	14.629600
2257.000000	14.861900
2256.000000	15.133500
2255.000000	15.432400
2254.000000	15.709700
2253.000000	15.982100
2252.000000	16.238800
2251.000000	16.491900
2250.000000	16.738400
2249.000000	16.948900
2248.000000	17.178500
2247.000000	17.378700
2246.000000	17.540200
2245.000000	17.732200
2244.000000	17.872500
2243.000000	18.039400
2242.000000	18.174200
2241.000000	18.287600
2240.000000	18.406600
2239.000000	18.520300
2238.000000	18.606500
2237.000000	18.710700
2236.000000	18.783600
2235.000000	18.853700
2234.000000	18.916400
2233.000000	18.974900
2232.000000	19.028700
2231.000000	19.055700
2230.000000	19.099700
2229.000000	19.127500
2228.000000	19.127100
2227.000000	19.137200
2226.000000	19.140700
2225.000000	19.138700
2224.000000	19.132600
2223.000000	19.123100
2222.000000	19.085300
2221.000000	19.074600
2220.000000	19.047700
2219.000000	19.007100
2218.000000	18.965400
2217.000000	18.920600
2216.000000	18.905300
2215.000000	18.853400
2214.000000	18.796300
2213.000000	18.765100
2212.000000	18.734300
2211.000000	18.680800
2210.000000	18.673700
2209.000000	18.615800
2208.000000	18.574800
2207.000000	18.562100
2206.000000	18.530900
2205.000000	18.494400
2204.000000	18.475100
2203.000000	18.448100
2202.000000	18.408200
2201.000000	18.386400
2200.000000	18.394900
2199.000000	18.360500
2198.000000	18.338000
2197.000000	18.328800
2196.000000	18.328800
2195.000000	18.294700
2194.000000	18.275200
2193.000000	18.250700
2192.000000	18.241600
2191.000000	18.227900
2190.000000	18.210500
2189.000000	18.205900
2188.000000	18.171100
2187.000000	18.164500
2186.000000	18.147000
2185.000000	18.139800
2184.000000	18.123500
2183.000000	18.096200
2182.000000	18.067700
2181.000000	18.066000
2180.000000	18.055900
2179.000000	18.028600
2178.000000	18.015400
2177.000000	18.017400
2176.000000	18.005800
2175.000000	18.013500
2174.000000	18.012300
2173.000000	17.990300
2172.000000	18.004300
2171.000000	18.015300
2170.000000	18.025600
2169.000000	18.043200
2168.000000	18.077000
2167.000000	18.094900
2166.000000	18.129100
2165.000000	18.137900
2164.000000	18.168700
2163.000000	18.208900
2162.000000	18.239100
2161.000000	18.270400
2160.000000	18.323700
2159.000000	18.350200
2158.000000	18.419900
2157.000000	18.454400
2156.000000	18.514200
2155.000000	18.582100
2154.000000	18.645100
2153.000000	18.699700
2152.000000	18.767300
2151.000000	18.835100
2150.000000	18.887500
2149.000000	18.949100
2148.000000	19.034400
2147.000000	19.090700
2146.000000	19.151500
2145.000000	19.216100
2144.000000	19.284000
2143.000000	19.350000
2142.000000	19.392100
2141.000000	19.442200
2140.000000	19.503500
2139.000000	19.557900
2138.000000	19.599400
2137.000000	19.649700
2136.000000	19.703300
2135.000000	19.742700
2134.000000	19.765200
2133.000000	19.801600
2132.000000	19.840700
2131.000000	19.866700
2130.000000	19.895900
2129.000000	19.906600
2128.000000	19.925500
2127.000000	19.941500
2126.000000	19.937700
2125.000000	19.939400
2124.000000	19.944200
2123.000000	19.947700
2122.000000	19.969600
2121.000000	19.975400
2120.000000	19.943400
2119.000000	19.930900
2118.000000	19.928600
2117.000000	19.915600
2116.000000	19.910600
2115.000000	19.890800
2114.000000	19.880600
2113.000000	19.880400
2112.000000	19.858300
2111.000000	19.836800
2110.000000	19.831200
2109.000000	19.804600
2108.000000	19.770500
2107.000000	19.762700
2106.000000	19.742800
2105.000000	19.711200
2104.000000	19.683000
2103.000000	19.660100
2102.000000	19.647000
2101.000000	19.626800
2100.000000	19.599200
2099.000000	19.571100
2098.000000	19.554100
2097.000000	19.530800
2096.000000	19.501300
2095.000000	19.483900
2094.000000	19.481400
2093.000000	19.483600
2092.000000	19.480200
2091.000000	19.465400
2090.000000	19.463700
2089.000000	19.455000
2088.000000	19.449000
2087.000000	19.452500
2086.000000	19.439200
2085.000000	19.426900
2084.000000	19.419400
2083.000000	19.407800
2082.000000	19.369300
2081.000000	19.337100
2080.000000	19.309100
2079.000000	19.268300
2078.000000	19.248300
2077.000000	19.224600
2076.000000	19.171600
2075.000000	19.101800
2074.000000	19.068900
2073.000000	19.025900
2072.000000	18.961600
2071.000000	18.904300
2070.000000	18.847600
2069.000000	18.785400
2068.000000	18.730500
2067.000000	18.671500
2066.000000	18.602600
2065.000000	18.538200
2064.000000	18.479000
2063.000000	18.430800
2062.000000	18.373500
2061.000000	18.317300
2060.000000	18.272300
2059.000000	18.245700
2058.000000	18.206300
2057.000000	18.193900
2056.000000	18.190500
2055.000000	18.217600
2054.000000	18.234800
2053.000000	18.271700
2052.000000	18.318800
2051.000000	18.380500
2050.000000	18.462100
2049.000000	18.548600
2048.000000	18.655600
2047.000000	18.766900
2046.000000	18.892200
2045.000000	19.012600
2044.000000	19.162000
2043.000000	19.297600
2042.000000	19.434600
2041.000000	19.576700
2040.000000	19.717700
2039.000000	19.848700
2038.000000	20.001800
2037.000000	20.121700
2036.000000	20.244200
2035.000000	20.361000
2034.000000	20.467700
2033.000000	20.578800
2032.000000	20.691100
2031.000000	20.788000
2030.000000	20.883600
2029.000000	20.977900
2028.000000	21.052200
2027.000000	21.138000
2026.000000	21.221600
2025.000000	21.308800
2024.000000	21.358400
2023.000000	21.429500
2022.000000	21.486600
2021.000000	21.550900
2020.000000	21.620700
2019.000000	21.671100
2018.000000	21.728800
2017.000000	21.766700
2016.000000	21.791400
2015.000000	21.832600
2014.000000	21.872000
2013.000000	21.881000
2012.000000	21.889700
2011.000000	21.927000
2010.000000	21.935900
2009.000000	21.932200
2008.000000	21.938800
2007.000000	21.915400
2006.000000	21.908400
2005.000000	21.906800
2004.000000	21.885900
2003.000000	21.871500
2002.000000	21.836400
2001.000000	21.789900
2000.000000	21.753700
1999.000000	21.712600
1998.000000	21.655300
1997.000000	21.602400
1996.000000	21.562100
1995.000000	21.489500
1994.000000	21.426400
1993.000000	21.363800
1992.000000	21.286900
1991.000000	21.194900
1990.000000	21.118200
1989.000000	21.055300
1988.000000	20.958900
1987.000000	20.867500
1986.000000	20.811700
1985.000000	20.713200
1984.000000	20.615500
1983.000000	20.529800
1982.000000	20.434800
1981.000000	20.367400
1980.000000	20.277800
1979.000000	20.166800
1978.000000	20.065900
1977.000000	19.972400
1976.000000	19.895500
1975.000000	19.806200
1974.000000	19.720900
1973.000000	19.626900
1972.000000	19.555200
1971.000000	19.445400
1970.000000	19.377200
1969.000000	19.279900
1968.000000	19.201900
1967.000000	19.114200
1966.000000	19.038500
1965.000000	18.964400
1964.000000	18.869600
1963.000000	18.801800
1962.000000	18.725700
1961.000000	18.635100
1960.000000	18.535500
1959.000000	18.471400
1958.000000	18.385800
1957.000000	18.310500
1956.000000	18.201000
1955.000000	18.137600
1954.000000	18.046300
1953.000000	17.976600
1952.000000	17.881800
1951.000000	17.794100
1950.000000	17.758900
1949.000000	17.696500
1948.000000	17.623000
1947.000000	17.567700
1946.000000	17.509600
1945.000000	17.465200
1944.000000	17.408700
1943.000000	17.388400
1942.000000	17.355600
1941.000000	17.322600
1940.000000	17.332200
1939.000000	17.331200
1938.000000	17.330000
1937.000000	17.336700
1936.000000	17.332300
1935.000000	17.340200
1934.000000	17.371800
1933.000000	17.421500
1932.000000	17.480800
1931.000000	17.554500
1930.000000	17.615600
1929.000000	17.714700
1928.000000	17.819600
1927.000000	17.920800
1926.000000	18.026300
1925.000000	18.132400
1924.000000	18.278700
1923.000000	18.414600
1922.000000	18.583600
1921.000000	18.760200
1920.000000	18.934500
1919.000000	19.144700
1918.000000	19.323400
1917.000000	19.502500
1916.000000	19.696100
1915.000000	19.913000
1914.000000	20.180900
1913.000000	20.460200
1912.000000	20.720200
1911.000000	20.950700
1910.000000	21.231300
1909.000000	21.455700
1908.000000	21.730500
1907.000000	22.040700
1906.000000	22.384200
1905.000000	22.753100
1904.000000	23.093100
1903.000000	23.426400
1902.000000	23.771200
1901.000000	24.100900
1900.000000	24.471300
1899.000000	24.898700
1898.000000	25.283100
1897.000000	25.689100
1896.000000	26.036200
1895.000000	26.385000
1894.000000	26.783800
1893.000000	27.195900
1892.000000	27.645800
1891.000000	28.076600
1890.000000	28.494000
1889.000000	28.881300
1888.000000	29.307200
1887.000000	29.712200
1886.000000	30.130200
1885.000000	30.585100
1884.000000	31.073900
1883.000000	31.546700
1882.000000	31.995900
1881.000000	32.482600
1880.000000	32.920700
1879.000000	33.343600
1878.000000	33.764400
1877.000000	34.145800
1876.000000	34.506600
1875.000000	34.835100
1874.000000	35.140400
1873.000000	35.431300
1872.000000	35.689300
1871.000000	35.911900
1870.000000	36.087000
1869.000000	36.241800
1868.000000	36.368200
1867.000000	36.451400
1866.000000	36.512700
1865.000000	36.586900
1864.000000	36.664500
1863.000000	36.731600
1862.000000	36.810600
1861.000000	36.884100
1860.000000	36.943000
1859.000000	36.985200
1858.000000	37.000200
1857.000000	37.006500
1856.000000	37.011800
1855.000000	37.012400
1854.000000	36.999800
1853.000000	36.949300
1852.000000	36.904900
1851.000000	36.898700
1850.000000	36.921100
1849.000000	36.947900
1848.000000	36.905600
1847.000000	36.817600
1846.000000	36.719200
1845.000000	36.648200
1844.000000	36.610400
1843.000000	36.625900
1842.000000	36.651000
1841.000000	36.616800
1840.000000	36.559100
1839.000000	36.508400
1838.000000	36.467500
1837.000000	36.419600
1836.000000	36.337400
1835.000000	36.239700
1834.000000	36.155200
1833.000000	36.090600
1832.000000	36.033500
1831.000000	35.984900
1830.000000	35.918200
1829.000000	35.846700
1828.000000	35.761900
1827.000000	35.684800
1826.000000	35.622200
1825.000000	35.559500
1824.000000	35.517600
1823.000000	35.521000
1822.000000	35.541800
1821.000000	35.536800
1820.000000	35.486400
1819.000000	35.403500
1818.000000	35.378400
1817.000000	35.385000
1816.000000	35.379000
1815.000000	35.349100
1814.000000	35.334500
1813.000000	35.349200
1812.000000	35.339700
1811.000000	35.300600
1810.000000	35.254300
1809.000000	35.208400
1808.000000	35.171200
1807.000000	35.167000
1806.000000	35.126100
1805.000000	35.071000
1804.000000	35.023500
1803.000000	34.999300
1802.000000	34.976800
1801.000000	34.951000
1800.000000	34.898500
1799.000000	34.827700
1798.000000	34.786900
1797.000000	34.766400
1796.000000	34.734200
1795.000000	34.690400
1794.000000	34.661300
1793.000000	34.624400
1792.000000	34.580700
1791.000000	34.531200
1790.000000	34.480400
1789.000000	34.441700
1788.000000	34.386900
1787.000000	34.351600
1786.000000	34.302600
1785.000000	34.232000
1784.000000	34.166700
1783.000000	34.109000
1782.000000	34.057200
1781.000000	34.005600
1780.000000	33.937400
1779.000000	33.844800
1778.000000	33.756800
1777.000000	33.659300
1776.000000	33.562300
1775.000000	33.448300
1774.000000	33.325300
1773.000000	33.210300
1772.000000	33.086600
1771.000000	32.969400
1770.000000	32.838800
1769.000000	32.721300
1768.000000	32.597200
1767.000000	32.480500
1766.000000	32.385900
1765.000000	32.308400
1764.000000	32.233200
1763.000000	32.195100
1762.000000	32.175500
1761.000000	32.193100
1760.000000	32.208600
1759.000000	32.236200
1758.000000	32.275800
1757.000000	32.307500
1756.000000	32.316600
1755.000000	32.333400
1754.000000	32.318400
1753.000000	32.301800
1752.000000	32.283400
1751.000000	32.250800
1750.000000	32.183300
1749.000000	32.110300
1748.000000	32.044500
1747.000000	31.964100
1746.000000	31.855100
1745.000000	31.717400
1744.000000	31.581700
1743.000000	31.424900
1742.000000	31.231200
1741.000000	31.025700
1740.000000	30.809900
1739.000000	30.605400
1738.000000	30.403500
1737.000000	30.236700
1736.000000	30.088400
1735.000000	29.961900
1734.000000	29.911100
1733.000000	29.889100
1732.000000	29.881400
1731.000000	29.917000
1730.000000	29.960900
1729.000000	30.045100
1728.000000	30.105400
1727.000000	30.176300
1726.000000	30.246800
1725.000000	30.294000
1724.000000	30.331300
1723.000000	30.354600
1722.000000	30.401100
1721.000000	30.441000
1720.000000	30.501600
1719.000000	30.561800
1718.000000	30.640600
1717.000000	30.733100
1716.000000	30.852400
1715.000000	30.961000
1714.000000	31.069200
1713.000000	31.156400
1712.000000	31.235000
1711.000000	31.330400
1710.000000	31.386700
1709.000000	31.418900
1708.000000	31.447900
1707.000000	31.456100
1706.000000	31.447900
1705.000000	31.427300
1704.000000	31.407600
1703.000000	31.358900
1702.000000	31.271800
1701.000000	31.186400
1700.000000	31.053400
1699.000000	30.926700
1698.000000	30.833900
1697.000000	30.722000
1696.000000	30.667800
1695.000000	30.641800
1694.000000	30.679400
1693.000000	30.738100
1692.000000	30.833700
1691.000000	30.949700
1690.000000	31.057900
1689.000000	31.123500
1688.000000	31.196500
1687.000000	31.193000
1686.000000	31.226800
1685.000000	31.290300
1684.000000	31.383800
1683.000000	31.630700
1682.000000	31.919100
1681.000000	32.326700
1680.000000	32.800000
1679.000000	33.280100
1678.000000	33.774100
1677.000000	34.236600
1676.000000	34.623700
1675.000000	35.004800
1674.000000	35.337200
1673.000000	35.624500
1672.000000	35.886000
1671.000000	36.113100
1670.000000	36.315900
1669.000000	36.531500
1668.000000	36.711300
1667.000000	36.932800
1666.000000	37.069100
1665.000000	37.194600
1664.000000	37.356800
1663.000000	37.509500
1662.000000	37.607700
1661.000000	37.729600
1660.000000	37.850900
1659.000000	37.949200
1658.000000	38.020900
1657.000000	38.084500
1656.000000	38.145100
1655.000000	38.188200
1654.000000	38.219900
1653.000000	38.223600
1652.000000	38.246800
1651.000000	38.260000
1650.000000	38.257300
1649.000000	38.235400
1648.000000	38.218300
1647.000000	38.203400
1646.000000	38.166900
1645.000000	38.139100
1644.000000	38.099700
1643.000000	38.062000
1642.000000	38.029300
1641.000000	37.988200
1640.000000	37.952400
1639.000000	37.909800
1638.000000	37.861900
1637.000000	37.813700
1636.000000	37.781800
1635.000000	37.723800
1634.000000	37.659500
1633.000000	37.612300
1632.000000	37.548700
1631.000000	37.482900
1630.000000	37.418300
1629.000000	37.336400
1628.000000	37.273700
1627.000000	37.219400
1626.000000	37.152300
1625.000000	37.080600
1624.000000	37.001500
1623.000000	36.931500
1622.000000	36.863500
1621.000000	36.800700
1620.000000	36.729000
1619.000000	36.668400
1618.000000	36.593500
1617.000000	36.528000
1616.000000	36.462400
1615.000000	36.407400
1614.000000	36.340600
1613.000000	36.278000
1612.000000	36.213000
1611.000000	36.151800
1610.000000	36.077000
1609.000000	36.016900
1608.000000	35.949100
1607.000000	35.873500
1606.000000	35.811400
1605.000000	35.744600
1604.000000	35.661300
1603.000000	35.582400
1602.000000	35.514700
1601.000000	35.447200
1600.000000	35.365300
1599.000000	35.280200
1598.000000	35.218900
1597.000000	35.174100
1596.000000	35.109700
1595.000000	35.038000
1594.000000	34.973700
1593.000000	34.922300
1592.000000	34.862200
1591.000000	34.807300
1590.000000	34.754200
1589.000000	34.718400
1588.000000	34.661300
1587.000000	34.608300
1586.000000	34.583000
1585.000000	34.543100
1584.000000	34.492500
1583.000000	34.453200
1582.000000	34.425900
1581.000000	34.400400
1580.000000	34.373600
1579.000000	34.342300
1578.000000	34.329800
1577.000000	34.317400
1576.000000	34.297200
1575.000000	34.293300
1574.000000	34.297600
1573.000000	34.310800
1572.000000	34.313600
1571.000000	34.320600
1570.000000	34.337700
1569.000000	34.351600
1568.000000	34.382300
1567.000000	34.408500
1566.000000	34.429800
1565.000000	34.445600
1564.000000	34.468900
1563.000000	34.491600
1562.000000	34.503700
1561.000000	34.516400
1560.000000	34.517500
1559.000000	34.513000
1558.000000	34.518400
1557.000000	34.513200
1556.000000	34.496200
1555.000000	34.489100
1554.000000	34.469400
1553.000000	34.446800
1552.000000	34.420000
1551.000000	34.395900
1550.000000	34.365200
1549.000000	34.326000
1548.000000	34.281600
1547.000000	34.246200
1546.000000	34.200200
1545.000000	34.174000
1544.000000	34.163400
1543.000000	34.137000
1542.000000	34.118100
1541.000000	34.109500
1540.000000	34.098100
1539.000000	34.088000
1538.000000	34.078800
1537.000000	34.079100
1536.000000	34.066100
1535.000000	34.054900
1534.000000	34.025700
1533.000000	34.000300
1532.000000	33.987000
1531.000000	33.974300
1530.000000	33.946000
1529.000000	33.917900
1528.000000	33.889700
1527.000000	33.868600
1526.000000	33.849400
1525.000000	33.813600
1524.000000	33.782900
1523.000000	33.759200
1522.000000	33.724100
1521.000000	33.674200
1520.000000	33.642500
1519.000000	33.607800
1518.000000	33.577400
1517.000000	33.542400
1516.000000	33.500900
1515.000000	33.478700
1514.000000	33.448100
1513.000000	33.416500
1512.000000	33.367800
1511.000000	33.332300
1510.000000	33.288100
1509.000000	33.246200
1508.000000	33.220100
1507.000000	33.187700
1506.000000	33.148700
1505.000000	33.103200
1504.000000	33.077400
1503.000000	33.045700
1502.000000	33.015200
1501.000000	32.977700
1500.000000	32.951000
1499.000000	32.934500
1498.000000	32.912900
1497.000000	32.899200
1496.000000	32.896600
1495.000000	32.885100
1494.000000	32.891500
1493.000000	32.896400
1492.000000	32.902500
1491.000000	32.931600
1490.000000	32.941000
1489.000000	32.954200
1488.000000	32.976200
1487.000000	32.994000
1486.000000	33.008500
1485.000000	33.016200
1484.000000	33.039300
1483.000000	33.092800
1482.000000	33.124200
1481.000000	33.154900
1480.000000	33.173600
1479.000000	33.226100
1478.000000	33.257700
1477.000000	33.282100
1476.000000	33.312800
1475.000000	33.353800
1474.000000	33.401300
1473.000000	33.455700
1472.000000	33.509300
1471.000000	33.583200
1470.000000	33.606900
1469.000000	33.633000
1468.000000	33.689800
1467.000000	33.736900
1466.000000	33.815700
1465.000000	33.850600
1464.000000	33.900400
1463.000000	33.961000
1462.000000	34.042600
1461.000000	34.108800
1460.000000	34.189900
1459.000000	34.249300
1458.000000	34.332500
1457.000000	34.445000
1456.000000	34.541600
1455.000000	34.633400
1454.000000	34.726500
1453.000000	34.826300
1452.000000	34.971900
1451.000000	35.106400
1450.000000	35.181200
1449.000000	35.258900
1448.000000	35.354300
1447.000000	35.477500
1446.000000	35.624100
1445.000000	35.729200
1444.000000	35.852600
1443.000000	35.951200
1442.000000	36.078100
1441.000000	36.213100
1440.000000	36.342500
1439.000000	36.460500
1438.000000	36.595100
1437.000000	36.736300
1436.000000	36.844500
1435.000000	36.951400
1434.000000	37.129900
1433.000000	37.249100
1432.000000	37.414400
1431.000000	37.541400
1430.000000	37.645000
1429.000000	37.831200
1428.000000	38.044100
1427.000000	38.197900
1426.000000	38.373900
1425.000000	38.594400
1424.000000	38.829200
1423.000000	39.029200
1422.000000	39.219400
1421.000000	39.452400
1420.000000	39.736700
1419.000000	39.972800
1418.000000	40.166100
1417.000000	40.350000
1416.000000	40.622300
1415.000000	40.889600
1414.000000	41.159500
1413.000000	41.354100
1412.000000	41.584700
1411.000000	41.868100
1410.000000	42.188600
1409.000000	42.543200
1408.000000	42.829300
1407.000000	43.194600
1406.000000	43.542700
1405.000000	43.896300
1404.000000	44.198800
1403.000000	44.577500
1402.000000	44.907000
1401.000000	45.319100
1400.000000	45.654600
1399.000000	45.863300
1398.000000	46.036600
1397.000000	46.329100
1396.000000	46.627900
1395.000000	46.816000
1394.000000	46.963300
1393.000000	47.109400
1392.000000	47.314300
1391.000000	47.455900
1390.000000	47.648000
1389.000000	47.913400
1388.000000	48.211500
1387.000000	48.424100
1386.000000	48.696500
1385.000000	49.029600
1384.000000	49.421200
1383.000000	49.715700
1382.000000	49.975200
1381.000000	50.143500
1380.000000	50.218900
1379.000000	50.340900
1378.000000	50.431000
1377.000000	50.524600
1376.000000	50.658600
1375.000000	50.814300
1374.000000	50.998400
1373.000000	51.236400
1372.000000	51.522800
1371.000000	51.750200
1370.000000	51.971200
1369.000000	52.187400
1368.000000	52.446700
1367.000000	52.608700
1366.000000	52.782000
1365.000000	52.990500
1364.000000	53.163600
1363.000000	53.276300
1362.000000	53.447800
1361.000000	53.555700
1360.000000	53.580800
1359.000000	53.635300
1358.000000	53.723500
1357.000000	53.863900
1356.000000	54.058700
1355.000000	54.328200
1354.000000	54.658600
1353.000000	54.977900
1352.000000	55.322100
1351.000000	55.677700
1350.000000	56.013800
1349.000000	56.324400
1348.000000	56.634100
1347.000000	56.905600
1346.000000	57.151000
1345.000000	57.396700
1344.000000	57.670300
1343.000000	57.903900
1342.000000	58.123200
1341.000000	58.330500
1340.000000	58.532200
1339.000000	58.714800
1338.000000	58.887600
1337.000000	59.071700
1336.000000	59.236600
1335.000000	59.358800
1334.000000	59.502000
1333.000000	59.656100
1332.000000	59.782200
1331.000000	59.883300
1330.000000	59.991000
1329.000000	60.092700
1328.000000	60.190400
1327.000000	60.285700
1326.000000	60.372600
1325.000000	60.464500
1324.000000	60.549200
1323.000000	60.609000
1322.000000	60.662500
1321.000000	60.719100
1320.000000	60.781600
1319.000000	60.834900
1318.000000	60.893300
1317.000000	60.958400
1316.000000	61.012600
1315.000000	61.058000
1314.000000	61.109400
1313.000000	61.166200
1312.000000	61.206300
1311.000000	61.231100
1310.000000	61.260300
1309.000000	61.284100
1308.000000	61.299000
1307.000000	61.320300
1306.000000	61.341700
1305.000000	61.356300
1304.000000	61.360900
1303.000000	61.374400
1302.000000	61.377600
1301.000000	61.370600
1300.000000	61.368100
1299.000000	61.362100
1298.000000	61.356500
1297.000000	61.351500
1296.000000	61.335100
1295.000000	61.327800
1294.000000	61.324300
1293.000000	61.308000
1292.000000	61.284500
1291.000000	61.269600
1290.000000	61.249400
1289.000000	61.216300
1288.000000	61.179000
1287.000000	61.138800
1286.000000	61.108500
1285.000000	61.072000
1284.000000	61.025500
1283.000000	60.979200
1282.000000	60.935000
1281.000000	60.888900
1280.000000	60.848300
1279.000000	60.805100
1278.000000	60.768800
1277.000000	60.740900
1276.000000	60.719200
1275.000000	60.702400
1274.000000	60.682600
1273.000000	60.659600
1272.000000	60.645400
1271.000000	60.638300
1270.000000	60.628000
1269.000000	60.617800
1268.000000	60.600400
1267.000000	60.588200
1266.000000	60.577300
1265.000000	60.555800
1264.000000	60.532400
1263.000000	60.526400
1262.000000	60.512200
1261.000000	60.486100
1260.000000	60.466400
1259.000000	60.441000
1258.000000	60.423900
1257.000000	60.407900
1256.000000	60.370900
1255.000000	60.323600
1254.000000	60.297300
1253.000000	60.267600
1252.000000	60.222300
1251.000000	60.162100
1250.000000	60.088500
1249.000000	60.039100
1248.000000	59.994400
1247.000000	59.911800
1246.000000	59.834300
1245.000000	59.762000
1244.000000	59.687500
1243.000000	59.602100
1242.000000	59.532100
1241.000000	59.436100
1240.000000	59.353900
1239.000000	59.263200
1238.000000	59.172600
1237.000000	59.087200
1236.000000	59.002700
1235.000000	58.915500
1234.000000	58.808600
1233.000000	58.707200
1232.000000	58.606100
1231.000000	58.506500
1230.000000	58.405300
1229.000000	58.309800
1228.000000	58.193900
1227.000000	58.092000
1226.000000	57.998400
1225.000000	57.889500
1224.000000	57.772800
1223.000000	57.663600
1222.000000	57.552100
1221.000000	57.449300
1220.000000	57.333700
1219.000000	57.236400
1218.000000	57.156400
1217.000000	57.064300
1216.000000	56.958700
1215.000000	56.865400
1214.000000	56.766400
1213.000000	56.674200
1212.000000	56.581800
1211.000000	56.493700
1210.000000	56.396300
1209.000000	56.314200
1208.000000	56.236600
1207.000000	56.177900
1206.000000	56.087600
1205.000000	56.043300
1204.000000	56.011700
1203.000000	55.972300
1202.000000	55.892500
1201.000000	55.840100
1200.000000	55.790400
1199.000000	55.711100
1198.000000	55.625000
1197.000000	55.483800
1196.000000	55.361400
1195.000000	55.177500
1194.000000	54.969000
1193.000000	54.722800
1192.000000	54.442900
1191.000000	54.118400
1190.000000	53.817100
1189.000000	53.553000
1188.000000	53.347900
1187.000000	53.232700
1186.000000	53.188900
1185.000000	53.226600
1184.000000	53.347500
1183.000000	53.535800
1182.000000	53.800400
1181.000000	54.087000
1180.000000	54.395700
1179.000000	54.687900
1178.000000	54.958400
1177.000000	55.195200
1176.000000	55.399600
1175.000000	55.613600
1174.000000	55.813200
1173.000000	56.033600
1172.000000	56.228900
1171.000000	56.474400
1170.000000	56.710800
1169.000000	56.953500
1168.000000	57.191500
1167.000000	57.440300
1166.000000	57.683700
1165.000000	57.938500
1164.000000	58.189200
1163.000000	58.464800
1162.000000	58.704500
1161.000000	58.950900
1160.000000	59.184000
1159.000000	59.418100
1158.000000	59.630100
1157.000000	59.826700
1156.000000	60.003400
1155.000000	60.134300
1154.000000	60.255700
1153.000000	60.327400
1152.000000	60.375600
1151.000000	60.414300
1150.000000	60.449300
1149.000000	60.463400
1148.000000	60.484200
1147.000000	60.550000
1146.000000	60.626800
1145.000000	60.730600
1144.000000	60.849700
1143.000000	60.998600
1142.000000	61.178000
1141.000000	61.359000
1140.000000	61.545700
1139.000000	61.732000
1138.000000	61.951900
1137.000000	62.175600
1136.000000	62.424000
1135.000000	62.649800
1134.000000	62.839300
1133.000000	62.996900
1132.000000	63.134500
1131.000000	63.311100
1130.000000	63.486500
1129.000000	63.623000
1128.000000	63.717200
1127.000000	63.816200
1126.000000	63.889900
1125.000000	63.966600
1124.000000	64.014800
1123.000000	64.059900
1122.000000	64.104200
1121.000000	64.117500
1120.000000	64.137900
1119.000000	64.163300
1118.000000	64.179300
1117.000000	64.172300
1116.000000	64.167000
1115.000000	64.167600
1114.000000	64.149600
1113.000000	64.145800
1112.000000	64.142900
1111.000000	64.117900
1110.000000	64.108300
1109.000000	64.118000
1108.000000	64.092000
1107.000000	64.074900
1106.000000	64.073700
1105.000000	64.062100
1104.000000	64.044900
1103.000000	64.031000
1102.000000	64.010400
1101.000000	63.993100
1100.000000	63.975400
1099.000000	63.968800
1098.000000	63.951200
1097.000000	63.930000
1096.000000	63.890000
1095.000000	63.855400
1094.000000	63.829800
1093.000000	63.804000
1092.000000	63.767400
1091.000000	63.726400
1090.000000	63.695200
1089.000000	63.675200
1088.000000	63.630200
1087.000000	63.605000
1086.000000	63.547300
1085.000000	63.498900
1084.000000	63.457100
1083.000000	63.421800
1082.000000	63.375400
1081.000000	63.328200
1080.000000	63.284700
1079.000000	63.245700
1078.000000	63.198300
1077.000000	63.165200
1076.000000	63.122900
1075.000000	63.081000
1074.000000	63.037300
1073.000000	63.003300
1072.000000	62.954800
1071.000000	62.906300
1070.000000	62.857700
1069.000000	62.818300
1068.000000	62.791500
1067.000000	62.743100
1066.000000	62.696000
1065.000000	62.651000
1064.000000	62.609100
1063.000000	62.554900
1062.000000	62.510300
1061.000000	62.483800
1060.000000	62.446100
1059.000000	62.398800
1058.000000	62.360700
1057.000000	62.317900
1056.000000	62.282200
1055.000000	62.239300
1054.000000	62.198900
1053.000000	62.144600
1052.000000	62.117500
1051.000000	62.093200
1050.000000	62.054400
1049.000000	62.021200
1048.000000	61.986300
1047.000000	61.959300
1046.000000	61.933700
1045.000000	61.898600
1044.000000	61.865400
1043.000000	61.829600
1042.000000	61.806500
1041.000000	61.779000
1040.000000	61.744300
1039.000000	61.712900
1038.000000	61.685200
1037.000000	61.651100
1036.000000	61.604900
1035.000000	61.571200
1034.000000	61.530500
1033.000000	61.486800
1032.000000	61.453500
1031.000000	61.414900
1030.000000	61.373100
1029.000000	61.325100
1028.000000	61.291800
1027.000000	61.255000
1026.000000	61.204600
1025.000000	61.159600
1024.000000	61.111200
1023.000000	61.082100
1022.000000	61.047900
1021.000000	60.987700
1020.000000	60.940700
1019.000000	60.906900
1018.000000	60.868900
1017.000000	60.842500
1016.000000	60.818500
1015.000000	60.789100
1014.000000	60.777200
1013.000000	60.771300
1012.000000	60.759500
1011.000000	60.756400
1010.000000	60.750400
1009.000000	60.757500
1008.000000	60.768300
1007.000000	60.780300
1006.000000	60.797300
1005.000000	60.823200
1004.000000	60.830900
1003.000000	60.840200
1002.000000	60.864700
1001.000000	60.888400
1000.000000	60.898700
999.000000	60.911200
998.000000	60.951800
997.000000	60.979100
996.000000	61.007000
995.000000	61.036000
994.000000	61.060500
993.000000	61.085900
992.000000	61.127100
991.000000	61.162200
990.000000	61.196200
989.000000	61.235300
988.000000	61.282800
987.000000	61.314900
986.000000	61.357400
985.000000	61.401200
984.000000	61.427700
983.000000	61.462600
982.000000	61.500900
981.000000	61.530200
980.000000	61.575100
979.000000	61.620800
978.000000	61.631600
977.000000	61.656700
976.000000	61.708700
975.000000	61.729300
974.000000	61.740700
973.000000	61.751100
972.000000	61.787300
971.000000	61.810700
970.000000	61.828900
969.000000	61.844900
968.000000	61.864400
967.000000	61.863900
966.000000	61.884900
965.000000	61.891200
964.000000	61.907700
963.000000	61.943000
962.000000	61.940900
961.000000	61.973700
960.000000	61.992800
959.000000	62.018800
958.000000	62.044000
957.000000	62.069400
956.000000	62.077600
955.000000	62.119100
954.000000	62.124800
953.000000	62.143300
952.000000	62.149900
951.000000	62.181400
950.000000	62.215500
949.000000	62.221300
948.000000	62.257700
947.000000	62.311500
946.000000	62.340400
945.000000	62.360000
944.000000	62.399000
943.000000	62.428700
942.000000	62.469000
941.000000	62.530500
940.000000	62.548300
939.000000	62.607200
938.000000	62.650700
937.000000	62.714500
936.000000	62.757500
935.000000	62.805200
934.000000	62.850600
933.000000	62.900300
932.000000	62.968500
931.000000	63.006800
930.000000	63.036800
929.000000	63.117100
928.000000	63.147500
927.000000	63.186500
926.000000	63.252100
925.000000	63.294400
924.000000	63.349600
923.000000	63.364500
922.000000	63.423400
921.000000	63.462400
920.000000	63.534900
919.000000	63.548200
918.000000	63.567600
917.000000	63.589400
916.000000	63.640500
915.000000	63.635300
914.000000	63.638300
913.000000	63.651600
912.000000	63.667300
911.000000	63.704000
910.000000	63.702700
909.000000	63.708800
908.000000	63.751700
907.000000	63.770800
906.000000	63.782800
905.000000	63.815900
904.000000	63.826800
903.000000	63.859100
902.000000	63.867500
901.000000	63.903400
900.000000	63.942000
899.000000	63.957400
898.000000	63.992700
897.000000	64.041200
896.000000	64.059500
895.000000	64.066100
894.000000	64.087500
893.000000	64.099700
892.000000	64.119100
891.000000	64.147400
890.000000	64.159200
889.000000	64.181700
888.000000	64.193100
887.000000	64.206100
886.000000	64.236800
885.000000	64.215100
884.000000	64.211400
883.000000	64.225000
882.000000	64.224000
881.000000	64.191100
880.000000	64.193800
879.000000	64.182900
878.000000	64.141600
877.000000	64.114200
876.000000	64.126300
875.000000	64.095200
874.000000	64.061000
873.000000	64.050700
872.000000	64.009900
871.000000	63.971000
870.000000	63.923000
869.000000	63.873800
868.000000	63.850100
867.000000	63.812100
866.000000	63.749200
865.000000	63.702600
864.000000	63.631900
863.000000	63.570800
862.000000	63.448900
861.000000	63.318100
860.000000	63.178200
859.000000	63.050900
858.000000	63.237800
857.000000	63.164660
856.000000	63.356344
855.000000	63.855835
854.000000	63.486604
853.000000	63.383547
852.000000	63.263135
851.000000	63.502691
850.000000	63.408897
849.000000	63.509711
848.000000	63.406557
847.000000	63.681701
846.000000	63.641336
845.000000	63.503861
844.000000	63.352834
843.000000	63.380817
842.000000	63.165050
841.000000	63.453844
840.000000	63.299892
839.000000	63.140090
838.000000	62.998423
837.000000	63.009733
836.000000	62.880254
835.000000	62.924421
834.000000	62.770469
833.000000	62.764034
832.000000	62.834624
831.000000	62.764229
830.000000	62.718502
829.000000	62.646254
828.000000	62.589022
827.000000	62.725717
826.000000	62.558797
825.000000	62.359020
824.000000	62.271758
823.000000	62.358143
822.000000	62.207311
821.000000	62.153686
820.000000	62.071786
819.000000	62.076759
818.000000	61.867817
817.000000	61.814680
816.000000	61.907792
815.000000	61.881467
814.000000	61.703628
813.000000	61.629236
812.000000	61.554941
811.000000	61.455784
810.000000	61.440086
809.000000	61.312264
808.000000	61.262149
807.000000	61.210475
806.000000	61.116777
805.000000	60.975500
804.000000	60.817258
803.000000	60.688071
802.000000	60.662039
801.000000	60.552254
800.000000	60.347798
799.000000	60.268238
798.000000	60.237233
797.000000	60.055494
796.000000	59.871902
795.000000	59.772647
794.000000	59.703130
793.000000	59.516808
792.000000	59.377579
791.000000	59.202567
790.000000	59.099900
789.000000	58.959403
788.000000	58.810618
787.000000	58.650621
786.000000	58.450259
785.000000	58.180283
784.000000	58.050706
783.000000	57.977386
782.000000	57.832892
781.000000	57.681572
780.000000	57.478870
779.000000	57.347343
778.000000	57.158292
777.000000	57.037880
776.000000	56.896603
775.000000	56.639886
774.000000	56.437379
773.000000	56.359672
772.000000	56.226877
771.000000	56.064736
770.000000	55.929699
769.000000	55.796222
768.000000	55.612825
767.000000	55.455363
766.000000	55.366151
765.000000	55.213174
764.000000	54.999162
763.000000	54.846965
762.000000	54.767015
761.000000	54.644068
760.000000	54.518781
759.000000	54.371849
758.000000	54.203760
757.000000	54.082958
756.000000	53.964398
755.000000	53.875381
754.000000	53.770959
753.000000	53.655129
752.000000	53.523505
751.000000	53.415573
750.000000	53.375793
749.000000	53.309298
748.000000	53.216966
747.000000	53.133506
746.000000	53.015532
745.000000	52.952644
744.000000	52.976434
743.000000	52.927099
742.000000	52.848710
741.000000	52.788747
740.000000	52.748090
739.000000	52.682375
738.000000	52.599793
737.000000	52.614125
736.000000	52.580098
735.000000	52.537881
734.000000	52.554553
733.000000	52.502098
732.000000	52.441649
731.000000	52.399529
730.000000	52.373009
729.000000	52.366769
728.000000	52.295009
727.000000	52.267027
726.000000	52.252694
725.000000	52.205797
724.000000	52.159680
723.000000	52.070955
722.000000	52.041705
721.000000	51.975893
720.000000	51.900136
719.000000	51.890483
718.000000	51.855481
717.000000	51.774166
716.000000	51.679494
715.000000	51.629867
714.000000	51.580532
713.000000	51.509942
712.000000	51.409517
711.000000	51.341950
710.000000	51.298368
709.000000	51.223781
708.000000	51.143733
707.000000	51.060274
706.000000	50.963456
705.000000	50.829102
704.000000	50.685680
703.000000	50.661500
702.000000	50.554348
701.000000	50.439981
700.000000	50.346576
699.000000	50.224019
698.000000	50.135099
697.000000	49.995382
696.000000	49.868145
695.000000	49.818031
694.000000	49.750073
693.000000	49.662421
692.000000	49.535672
691.000000	49.468787
690.000000	49.400635
689.000000	49.299430
688.000000	49.233618
687.000000	49.200078
686.000000	49.187988
685.000000	49.189353
684.000000	49.157373
683.000000	49.134753
682.000000	49.109306
681.000000	49.119056
680.000000	49.123053
679.000000	49.185940
678.000000	49.175703
677.000000	49.223868
676.000000	49.287730
675.000000	49.343597
674.000000	49.368362
673.000000	49.437392
672.000000	49.529529
671.000000	49.609186
670.000000	49.666126
669.000000	49.732621
668.000000	49.794143
667.000000	49.896615
666.000000	49.916603
665.000000	49.953848
664.000000	50.002890
663.000000	49.987290
662.000000	50.011177
661.000000	50.016052
660.000000	49.998502
659.000000	49.970423
658.000000	49.963695
657.000000	49.882185
656.000000	49.769183
655.000000	49.670904
654.000000	49.605286
653.000000	49.441292
652.000000	49.297577
651.000000	49.142261
650.000000	48.927371
649.000000	48.742707
648.000000	48.524210
647.000000	48.284751
646.000000	48.020625
645.000000	47.762445
644.000000	47.429777
643.000000	47.133670
642.000000	46.776042
641.000000	46.462873
640.000000	46.109534
639.000000	45.758925
638.000000	45.498894
637.000000	45.222190
636.000000	44.998818
635.000000	44.788999
634.000000	44.645869
633.000000	44.564944
632.000000	44.498937
631.000000	44.526725
630.000000	44.592342
629.000000	44.719189
628.000000	44.938856
627.000000	45.198887
626.000000	45.520539
625.000000	45.873487
624.000000	46.300438
623.000000	46.810264
622.000000	47.300200
621.000000	47.844735
620.000000	48.442408
619.000000	49.011903
618.000000	49.616304
617.000000	50.174684
616.000000	50.773527
615.000000	51.285595
614.000000	51.809071
613.000000	52.375641
612.000000	52.885272
611.000000	53.410308
610.000000	53.880548
609.000000	54.392032
608.000000	54.892400
607.000000	55.328028
606.000000	55.742792
605.000000	56.172278
604.000000	56.563349
603.000000	56.941452
602.000000	57.305906
601.000000	57.658367
600.000000	57.971926
599.000000	58.226790
598.000000	58.503494
597.000000	58.718091
596.000000	58.909385
595.000000	59.008932
594.000000	59.151282
593.000000	59.283881
592.000000	59.375044
591.000000	59.524121
590.000000	59.597635
589.000000	59.744470
588.000000	59.870927
587.000000	59.996994
586.000000	60.139441
585.000000	60.331418
584.000000	60.511695
583.000000	60.684366
582.000000	60.900621
581.000000	61.084505
580.000000	61.311484
579.000000	61.465826
578.000000	61.661020
577.000000	61.770318
576.000000	61.870937
575.000000	61.968924
574.000000	62.000514
573.000000	61.974092
572.000000	61.983354
571.000000	61.931679
570.000000	61.849292
569.000000	61.776168
568.000000	61.704408
567.000000	61.628358
566.000000	61.561961
565.000000	61.481329
564.000000	61.463096
563.000000	61.390361
562.000000	61.397089
561.000000	61.396504
560.000000	61.355944
559.000000	61.422244
558.000000	61.384609
557.000000	61.312167
556.000000	61.184442
555.000000	61.039070
554.000000	60.837148
553.000000	60.624014
552.000000	60.366810
551.000000	60.024976
550.000000	59.724970
549.000000	59.362466
548.000000	58.969055
547.000000	58.563067
546.000000	58.116226
545.000000	57.685667
544.000000	57.210844
543.000000	56.692146
542.000000	56.139908
541.000000	55.535702
540.000000	54.888597
539.000000	54.164467
538.000000	53.409430
537.000000	52.638110
536.000000	51.763539
535.000000	50.846944
534.000000	49.915530
533.000000	48.901534
532.000000	47.899725
531.000000	46.839709
530.000000	45.778035
529.000000	44.732546
528.000000	43.693785
527.000000	42.671209
526.000000	41.662770
525.000000	40.690016
524.000000	39.744367
523.000000	38.844445
522.000000	37.981476
521.000000	37.182564
520.000000	36.439714
519.000000	35.734499
518.000000	35.067504
517.000000	34.427809
516.000000	33.840861
515.000000	33.268635
514.000000	32.745647
513.000000	32.231921
512.000000	31.739061
511.000000	31.272037
510.000000	30.836214
509.000000	30.415210
508.000000	30.003079
507.000000	29.600698
506.000000	29.211480
505.000000	28.847806
504.000000	28.469020
503.000000	28.113731
502.000000	27.753373
501.000000	27.391161
500.000000	27.041138
499.000000	26.699499
498.000000	26.350450
497.000000	26.026166
496.000000	25.699250
495.000000	25.358391
494.000000	25.056045
493.000000	24.730786
492.000000	24.410110
491.000000	24.097526
490.000000	23.800932
489.000000	23.519840
488.000000	23.242746
487.000000	22.972770
486.000000	22.717516
485.000000	22.473572
484.000000	22.225825
483.000000	21.987926
482.000000	21.765529
481.000000	21.521585
480.000000	21.303283
479.000000	21.090832
478.000000	20.879940
477.000000	20.683576
476.000000	20.486041
475.000000	20.288507
474.000000	20.073618
473.000000	19.862628
472.000000	19.664899
471.000000	19.455470
470.000000	19.238436
469.000000	19.037294
468.000000	18.823575
467.000000	18.626528
466.000000	18.433674
465.000000	18.231849
464.000000	18.055375
463.000000	17.885823
462.000000	17.723194
461.000000	17.566219
460.000000	17.422602
459.000000	17.285518
458.000000	17.161498
457.000000	17.049471
456.000000	16.956554
455.000000	16.872607
454.000000	16.783687
453.000000	16.686870
452.000000	16.610333
451.000000	16.542473
450.000000	16.471298
449.000000	16.385596
448.000000	16.313349
447.000000	16.266256
446.000000	16.207074
445.000000	16.128782
444.000000	16.057997
443.000000	15.983702
442.000000	15.894685
441.000000	15.801378
440.000000	15.704366
439.000000	15.596531
438.000000	15.469197
437.000000	15.353465
436.000000	15.241438
435.000000	15.107376
434.000000	14.970486
433.000000	14.834377
432.000000	14.690565
431.000000	14.531348
430.000000	14.398651
429.000000	14.249769
428.000000	14.100107
427.000000	13.960682
426.000000	13.792398
425.000000	13.628306
424.000000	13.455147
423.000000	13.282377
422.000000	13.108243
421.000000	12.914121
420.000000	12.725947
419.000000	12.542940
418.000000	12.363930
417.000000	12.183264
416.000000	11.983194
415.000000	11.801650
414.000000	11.604213
413.000000	11.379282
412.000000	11.186037
411.000000	10.991915
410.000000	10.778391
409.000000	10.565939
408.000000	10.356218
407.000000	10.145326
406.000000	9.913862
405.000000	9.694488
404.000000	9.478233
403.000000	9.255252
402.000000	9.023398
401.000000	8.807728
400.000000	8.584649
399.000000	8.370442
398.000000	8.169398
397.000000	7.955581
396.000000	7.769747
395.000000	7.589275
394.000000	7.390668
393.000000	7.218387
392.000000	7.044935
391.000000	6.884840
390.000000	6.718311
389.000000	6.563969
388.000000	6.419084
387.000000	6.290677
386.000000	6.192203
385.000000	6.076763
384.000000	5.968051
383.000000	5.888394
382.000000	5.803374
381.000000	5.712212
380.000000	5.629825
379.000000	5.574152
378.000000	5.510388
377.000000	5.453740
376.000000	5.358386
375.000000	5.279703
374.000000	5.182009
373.000000	5.161826
372.000000	5.171381
371.000000	5.182009
370.000000	5.110834
369.000000	5.089482
368.000000	5.139694
367.000000	5.134624
366.000000	5.154319
365.000000	5.105862
364.000000	5.000172
363.000000	5.023572
362.000000	5.092602
361.000000	5.081974
360.000000	5.004852
359.000000	5.022889
358.000000	5.008849
357.000000	4.968582
356.000000	4.968777
355.000000	4.977650
354.000000	4.935627
353.000000	4.983110
352.000000	5.003877
351.000000	4.815508
350.000000	4.840468
349.000000	4.797080
348.000000	4.884732
347.000000	4.947035
346.000000	4.855288
345.000000	4.950350
344.000000	4.856458
343.000000	4.872545
342.000000	4.892532
341.000000	4.834228
340.000000	4.883172
339.000000	4.957662
338.000000	4.850803
337.000000	4.890485
336.000000	4.897505
335.000000	4.889510
334.000000	4.700751
333.000000	4.725710
332.000000	4.836665
331.000000	4.907840
330.000000	4.831303
329.000000	5.057892
328.000000	4.848658
327.000000	4.921392
326.000000	4.881612
325.000000	4.888242
324.000000	4.810243
323.000000	4.919345
322.000000	4.938065
321.000000	4.863867
320.000000	4.860845
319.000000	5.059842
318.000000	5.106642
317.000000	4.961465
316.000000	4.779238
315.000000	4.707186
314.000000	4.742578
313.000000	4.725613
312.000000	4.667406
311.000000	4.696266
310.000000	4.687491
309.000000	4.679788
308.000000	4.713036
307.000000	4.723078
306.000000	4.657753
305.000000	4.638156
304.000000	4.693146
303.000000	4.742968
302.000000	4.710501
301.000000	4.707283
300.000000	4.652683
299.000000	4.742870
298.000000	4.759738
297.000000	4.714986
296.000000	4.724443
295.000000	4.717326
294.000000	4.753790
293.000000	4.717911
292.000000	4.756423
291.000000	4.717911
290.000000	4.752523
289.000000	4.752913
288.000000	4.795325
287.000000	4.735948
286.000000	4.760323
285.000000	4.706016
284.000000	4.788793
283.000000	4.766270
282.000000	4.751743
281.000000	4.787818
280.000000	4.787818
279.000000	4.836470
278.000000	4.787330
277.000000	4.762370
276.000000	4.848658
275.000000	4.870692
274.000000	4.831693
273.000000	4.873812
272.000000	4.871570
271.000000	4.904427
270.000000	4.858505
269.000000	4.891557
268.000000	4.872740
267.000000	4.915640
266.000000	4.955225
265.000000	4.947522
264.000000	5.002902
263.000000	4.931435
262.000000	5.011092
261.000000	5.035272
260.000000	5.064717
259.000000	5.064229
258.000000	5.063352
257.000000	5.052529
256.000000	5.098452
255.000000	5.097964
254.000000	5.136769
253.000000	5.120292
252.000000	5.103619
251.000000	5.095332
250.000000	5.091919
