PE UV       SUBTECH     SPECTRUM    ASCII       PEDS        4.00        
   -1
CICIMAUCR0097-3.Sample.ASC
24/04/18
13:31:23.00
24/04/18
13:31:23.00
Vinicio Soto Monge
C. kalinini
250,000000
1
Lambda 1050
1050L1511233
PerkinElmer UV WinLab 6.3.2.0749 / 2.02.05 Lambda 900 UV/VIS/NIR, Aug  7 2015 09:38:08

0
0
3350/servo 860,8/2
0
0
UV/VIS
1
1
1
DoubleDePol,CommonBeamDepol,RBeamAtt,SBeamAtt,60mm sphere, WB InGaAs Detector
0
0
0
0
Program
Program
3350/servo 860,8/2
3350/0,2 860,8/0,2
3350/0,2 860,8/0,2
0
15.00
 
 
 
0
 
860,8
319,2
860,8
Front
100
on
S:100 R:100
0
0
0
0
 
0
 
 
 
0
 
 
0
0
0
0
0
 
 
 
 
0
0


0
0
#HDR
-1
-1
#GR
nm
%R
1.0
0.0
2500,000000
-1,000000
2251
8
97,988000
5,671400
#DATA
2500.000000	15.488000
2499.000000	15.501800
2498.000000	15.494400
2497.000000	15.519500
2496.000000	15.462300
2495.000000	15.472700
2494.000000	15.413400
2493.000000	15.408800
2492.000000	15.435400
2491.000000	15.400500
2490.000000	15.402900
2489.000000	15.377600
2488.000000	15.428200
2487.000000	15.303000
2486.000000	15.344500
2485.000000	15.393700
2484.000000	15.385800
2483.000000	15.416900
2482.000000	15.415000
2481.000000	15.465700
2480.000000	15.439300
2479.000000	15.474200
2478.000000	15.445400
2477.000000	15.534400
2476.000000	15.499500
2475.000000	15.504300
2474.000000	15.569500
2473.000000	15.589600
2472.000000	15.655100
2471.000000	15.693700
2470.000000	15.719000
2469.000000	15.763200
2468.000000	15.815300
2467.000000	15.861600
2466.000000	15.891700
2465.000000	15.957000
2464.000000	15.977000
2463.000000	16.060300
2462.000000	16.137400
2461.000000	16.218200
2460.000000	16.292400
2459.000000	16.349300
2458.000000	16.404900
2457.000000	16.495600
2456.000000	16.609000
2455.000000	16.667400
2454.000000	16.775600
2453.000000	16.869600
2452.000000	16.973500
2451.000000	17.050200
2450.000000	17.187100
2449.000000	17.285700
2448.000000	17.408400
2447.000000	17.528900
2446.000000	17.624300
2445.000000	17.726300
2444.000000	17.855800
2443.000000	17.983100
2442.000000	18.092200
2441.000000	18.199200
2440.000000	18.329100
2439.000000	18.441100
2438.000000	18.568300
2437.000000	18.671500
2436.000000	18.770200
2435.000000	18.885100
2434.000000	18.992800
2433.000000	19.094100
2432.000000	19.206200
2431.000000	19.307900
2430.000000	19.403100
2429.000000	19.495200
2428.000000	19.584900
2427.000000	19.666800
2426.000000	19.773900
2425.000000	19.861500
2424.000000	19.944400
2423.000000	20.065200
2422.000000	20.181400
2421.000000	20.326800
2420.000000	20.466400
2419.000000	20.557300
2418.000000	20.644400
2417.000000	20.712400
2416.000000	20.799900
2415.000000	20.869500
2414.000000	20.947000
2413.000000	21.023800
2412.000000	21.101900
2411.000000	21.165600
2410.000000	21.236200
2409.000000	21.278000
2408.000000	21.340500
2407.000000	21.423000
2406.000000	21.488000
2405.000000	21.520400
2404.000000	21.552800
2403.000000	21.599400
2402.000000	21.670900
2401.000000	21.728200
2400.000000	21.734300
2399.000000	21.750700
2398.000000	21.807800
2397.000000	21.861400
2396.000000	21.866600
2395.000000	21.889800
2394.000000	21.931000
2393.000000	21.960200
2392.000000	21.977600
2391.000000	21.990300
2390.000000	22.011300
2389.000000	22.022700
2388.000000	22.036100
2387.000000	22.043100
2386.000000	22.057300
2385.000000	22.063300
2384.000000	22.044600
2383.000000	22.041500
2382.000000	22.041500
2381.000000	22.047500
2380.000000	22.028300
2379.000000	22.024500
2378.000000	22.021800
2377.000000	21.990400
2376.000000	21.967400
2375.000000	21.960900
2374.000000	21.954400
2373.000000	21.911800
2372.000000	21.880600
2371.000000	21.886100
2370.000000	21.888300
2369.000000	21.875300
2368.000000	21.861800
2367.000000	21.858400
2366.000000	21.861300
2365.000000	21.843500
2364.000000	21.837200
2363.000000	21.831700
2362.000000	21.817300
2361.000000	21.806800
2360.000000	21.802200
2359.000000	21.790100
2358.000000	21.771300
2357.000000	21.758500
2356.000000	21.767200
2355.000000	21.756000
2354.000000	21.720100
2353.000000	21.703200
2352.000000	21.699700
2351.000000	21.681400
2350.000000	21.661000
2349.000000	21.661400
2348.000000	21.659300
2347.000000	21.638300
2346.000000	21.620700
2345.000000	21.622500
2344.000000	21.611500
2343.000000	21.628400
2342.000000	21.625200
2341.000000	21.601300
2340.000000	21.587900
2339.000000	21.590500
2338.000000	21.607000
2337.000000	21.608000
2336.000000	21.605400
2335.000000	21.602600
2334.000000	21.623000
2333.000000	21.661500
2332.000000	21.664800
2331.000000	21.661700
2330.000000	21.647700
2329.000000	21.691500
2328.000000	21.736800
2327.000000	21.757900
2326.000000	21.785900
2325.000000	21.795600
2324.000000	21.817800
2323.000000	21.840600
2322.000000	21.846700
2321.000000	21.823300
2320.000000	21.808700
2319.000000	21.819200
2318.000000	21.805100
2317.000000	21.776100
2316.000000	21.749600
2315.000000	21.722800
2314.000000	21.669800
2313.000000	21.644300
2312.000000	21.597800
2311.000000	21.544400
2310.000000	21.480100
2309.000000	21.446400
2308.000000	21.417000
2307.000000	21.390900
2306.000000	21.349000
2305.000000	21.334500
2304.000000	21.306100
2303.000000	21.298500
2302.000000	21.290700
2301.000000	21.284400
2300.000000	21.276800
2299.000000	21.284600
2298.000000	21.286200
2297.000000	21.295100
2296.000000	21.338800
2295.000000	21.363400
2294.000000	21.387500
2293.000000	21.402000
2292.000000	21.443700
2291.000000	21.470700
2290.000000	21.495600
2289.000000	21.539000
2288.000000	21.585400
2287.000000	21.617200
2286.000000	21.645200
2285.000000	21.708500
2284.000000	21.728300
2283.000000	21.767800
2282.000000	21.794600
2281.000000	21.864100
2280.000000	21.885000
2279.000000	21.905200
2278.000000	21.944600
2277.000000	21.984600
2276.000000	22.013300
2275.000000	22.034900
2274.000000	22.063100
2273.000000	22.103700
2272.000000	22.129100
2271.000000	22.181200
2270.000000	22.218700
2269.000000	22.295300
2268.000000	22.337900
2267.000000	22.414400
2266.000000	22.477300
2265.000000	22.576800
2264.000000	22.688300
2263.000000	22.797600
2262.000000	22.937500
2261.000000	23.073300
2260.000000	23.228600
2259.000000	23.404900
2258.000000	23.568700
2257.000000	23.774200
2256.000000	23.956400
2255.000000	24.146300
2254.000000	24.321300
2253.000000	24.529800
2252.000000	24.710900
2251.000000	24.936300
2250.000000	25.098300
2249.000000	25.280900
2248.000000	25.445200
2247.000000	25.597700
2246.000000	25.758700
2245.000000	25.880600
2244.000000	26.014000
2243.000000	26.111200
2242.000000	26.206300
2241.000000	26.320100
2240.000000	26.386900
2239.000000	26.467200
2238.000000	26.495300
2237.000000	26.528800
2236.000000	26.585700
2235.000000	26.581300
2234.000000	26.610100
2233.000000	26.603200
2232.000000	26.572000
2231.000000	26.559500
2230.000000	26.542600
2229.000000	26.498300
2228.000000	26.449900
2227.000000	26.389600
2226.000000	26.320100
2225.000000	26.273700
2224.000000	26.214100
2223.000000	26.116800
2222.000000	26.067100
2221.000000	25.978000
2220.000000	25.872000
2219.000000	25.797700
2218.000000	25.717800
2217.000000	25.614400
2216.000000	25.533700
2215.000000	25.428500
2214.000000	25.339700
2213.000000	25.260600
2212.000000	25.182200
2211.000000	25.102100
2210.000000	25.036300
2209.000000	24.947500
2208.000000	24.897000
2207.000000	24.841900
2206.000000	24.801000
2205.000000	24.758000
2204.000000	24.723800
2203.000000	24.658300
2202.000000	24.615800
2201.000000	24.576700
2200.000000	24.532700
2199.000000	24.489100
2198.000000	24.461300
2197.000000	24.433800
2196.000000	24.430400
2195.000000	24.400500
2194.000000	24.369300
2193.000000	24.345700
2192.000000	24.329000
2191.000000	24.305200
2190.000000	24.286500
2189.000000	24.264200
2188.000000	24.249000
2187.000000	24.208900
2186.000000	24.202400
2185.000000	24.186200
2184.000000	24.159700
2183.000000	24.137100
2182.000000	24.118900
2181.000000	24.095300
2180.000000	24.068900
2179.000000	24.060000
2178.000000	24.050000
2177.000000	24.014100
2176.000000	24.020700
2175.000000	24.025300
2174.000000	24.013900
2173.000000	24.027700
2172.000000	24.047000
2171.000000	24.045600
2170.000000	24.056000
2169.000000	24.099800
2168.000000	24.123200
2167.000000	24.149700
2166.000000	24.187100
2165.000000	24.246300
2164.000000	24.301100
2163.000000	24.338600
2162.000000	24.402100
2161.000000	24.478200
2160.000000	24.550300
2159.000000	24.631900
2158.000000	24.705200
2157.000000	24.811800
2156.000000	24.920000
2155.000000	25.005100
2154.000000	25.119300
2153.000000	25.221100
2152.000000	25.314100
2151.000000	25.430600
2150.000000	25.551800
2149.000000	25.651900
2148.000000	25.765600
2147.000000	25.894700
2146.000000	26.003800
2145.000000	26.108500
2144.000000	26.229800
2143.000000	26.337200
2142.000000	26.460000
2141.000000	26.557100
2140.000000	26.663500
2139.000000	26.775100
2138.000000	26.886100
2137.000000	26.990700
2136.000000	27.107600
2135.000000	27.186600
2134.000000	27.273500
2133.000000	27.364000
2132.000000	27.444100
2131.000000	27.522300
2130.000000	27.580900
2129.000000	27.671400
2128.000000	27.740400
2127.000000	27.782600
2126.000000	27.824500
2125.000000	27.876700
2124.000000	27.939300
2123.000000	27.979100
2122.000000	28.030200
2121.000000	28.069100
2120.000000	28.096800
2119.000000	28.128600
2118.000000	28.144800
2117.000000	28.178300
2116.000000	28.196900
2115.000000	28.214300
2114.000000	28.234700
2113.000000	28.226000
2112.000000	28.245800
2111.000000	28.269000
2110.000000	28.277400
2109.000000	28.287500
2108.000000	28.285100
2107.000000	28.287400
2106.000000	28.291600
2105.000000	28.283300
2104.000000	28.289000
2103.000000	28.294300
2102.000000	28.302200
2101.000000	28.316800
2100.000000	28.298500
2099.000000	28.281900
2098.000000	28.297400
2097.000000	28.325000
2096.000000	28.337600
2095.000000	28.340000
2094.000000	28.338500
2093.000000	28.342400
2092.000000	28.384400
2091.000000	28.413200
2090.000000	28.417300
2089.000000	28.427300
2088.000000	28.436200
2087.000000	28.436500
2086.000000	28.438500
2085.000000	28.431100
2084.000000	28.414200
2083.000000	28.400100
2082.000000	28.379300
2081.000000	28.343000
2080.000000	28.303800
2079.000000	28.242600
2078.000000	28.170100
2077.000000	28.121000
2076.000000	28.052500
2075.000000	27.967500
2074.000000	27.879000
2073.000000	27.788300
2072.000000	27.690700
2071.000000	27.580500
2070.000000	27.459800
2069.000000	27.336900
2068.000000	27.227200
2067.000000	27.104400
2066.000000	26.973500
2065.000000	26.852200
2064.000000	26.713600
2063.000000	26.601400
2062.000000	26.496000
2061.000000	26.374400
2060.000000	26.280000
2059.000000	26.196800
2058.000000	26.105200
2057.000000	26.041300
2056.000000	25.999000
2055.000000	25.978800
2054.000000	25.967600
2053.000000	26.001100
2052.000000	26.027500
2051.000000	26.073700
2050.000000	26.177200
2049.000000	26.276400
2048.000000	26.406500
2047.000000	26.540800
2046.000000	26.696000
2045.000000	26.847000
2044.000000	27.031100
2043.000000	27.215100
2042.000000	27.375000
2041.000000	27.550000
2040.000000	27.714700
2039.000000	27.875900
2038.000000	28.051300
2037.000000	28.229800
2036.000000	28.365600
2035.000000	28.511400
2034.000000	28.653400
2033.000000	28.776700
2032.000000	28.899600
2031.000000	29.033600
2030.000000	29.132300
2029.000000	29.228300
2028.000000	29.340000
2027.000000	29.448800
2026.000000	29.533600
2025.000000	29.611900
2024.000000	29.671100
2023.000000	29.750600
2022.000000	29.835700
2021.000000	29.889400
2020.000000	29.921500
2019.000000	29.963000
2018.000000	30.029200
2017.000000	30.057600
2016.000000	30.086800
2015.000000	30.104300
2014.000000	30.138200
2013.000000	30.165700
2012.000000	30.180900
2011.000000	30.165400
2010.000000	30.166000
2009.000000	30.163200
2008.000000	30.143800
2007.000000	30.123500
2006.000000	30.089400
2005.000000	30.046600
2004.000000	30.032300
2003.000000	29.988100
2002.000000	29.936500
2001.000000	29.867000
2000.000000	29.793000
1999.000000	29.759100
1998.000000	29.685800
1997.000000	29.611200
1996.000000	29.523200
1995.000000	29.443000
1994.000000	29.382600
1993.000000	29.292700
1992.000000	29.205500
1991.000000	29.115300
1990.000000	29.016800
1989.000000	28.920500
1988.000000	28.830900
1987.000000	28.728800
1986.000000	28.640600
1985.000000	28.533300
1984.000000	28.423900
1983.000000	28.328700
1982.000000	28.215100
1981.000000	28.117400
1980.000000	28.002700
1979.000000	27.899100
1978.000000	27.799500
1977.000000	27.690800
1976.000000	27.557700
1975.000000	27.470100
1974.000000	27.359900
1973.000000	27.262800
1972.000000	27.155500
1971.000000	27.065300
1970.000000	26.946300
1969.000000	26.855500
1968.000000	26.748000
1967.000000	26.634100
1966.000000	26.541000
1965.000000	26.445600
1964.000000	26.374200
1963.000000	26.234300
1962.000000	26.143600
1961.000000	26.051400
1960.000000	25.927900
1959.000000	25.836800
1958.000000	25.725400
1957.000000	25.609000
1956.000000	25.502500
1955.000000	25.405300
1954.000000	25.300900
1953.000000	25.200800
1952.000000	25.079000
1951.000000	24.996800
1950.000000	24.892300
1949.000000	24.807500
1948.000000	24.729800
1947.000000	24.634000
1946.000000	24.576200
1945.000000	24.499700
1944.000000	24.440800
1943.000000	24.379000
1942.000000	24.308400
1941.000000	24.275100
1940.000000	24.266600
1939.000000	24.236700
1938.000000	24.212600
1937.000000	24.200900
1936.000000	24.213900
1935.000000	24.224000
1934.000000	24.247400
1933.000000	24.294500
1932.000000	24.347500
1931.000000	24.414500
1930.000000	24.496900
1929.000000	24.573000
1928.000000	24.691300
1927.000000	24.795000
1926.000000	24.923900
1925.000000	25.079200
1924.000000	25.235200
1923.000000	25.368000
1922.000000	25.555200
1921.000000	25.799900
1920.000000	26.037500
1919.000000	26.270200
1918.000000	26.503900
1917.000000	26.753100
1916.000000	26.997300
1915.000000	27.270600
1914.000000	27.608800
1913.000000	27.996700
1912.000000	28.354900
1911.000000	28.702800
1910.000000	29.060400
1909.000000	29.385300
1908.000000	29.751200
1907.000000	30.183400
1906.000000	30.677400
1905.000000	31.209800
1904.000000	31.740800
1903.000000	32.224400
1902.000000	32.741000
1901.000000	33.236500
1900.000000	33.818000
1899.000000	34.460000
1898.000000	35.048400
1897.000000	35.648700
1896.000000	36.187400
1895.000000	36.675700
1894.000000	37.233200
1893.000000	37.827600
1892.000000	38.472200
1891.000000	39.113500
1890.000000	39.699600
1889.000000	40.238500
1888.000000	40.793700
1887.000000	41.294400
1886.000000	41.796600
1885.000000	42.303500
1884.000000	42.836800
1883.000000	43.313800
1882.000000	43.708300
1881.000000	44.090600
1880.000000	44.452100
1879.000000	44.783900
1878.000000	45.128100
1877.000000	45.440900
1876.000000	45.735800
1875.000000	46.016300
1874.000000	46.289900
1873.000000	46.573300
1872.000000	46.842800
1871.000000	47.071700
1870.000000	47.288700
1869.000000	47.481000
1868.000000	47.656200
1867.000000	47.769400
1866.000000	47.818100
1865.000000	47.899200
1864.000000	47.970800
1863.000000	48.027400
1862.000000	48.117700
1861.000000	48.235200
1860.000000	48.346600
1859.000000	48.434400
1858.000000	48.515900
1857.000000	48.570000
1856.000000	48.592000
1855.000000	48.622500
1854.000000	48.685000
1853.000000	48.716500
1852.000000	48.714900
1851.000000	48.739200
1850.000000	48.751500
1849.000000	48.785400
1848.000000	48.840600
1847.000000	48.892300
1846.000000	48.855800
1845.000000	48.778500
1844.000000	48.701800
1843.000000	48.674500
1842.000000	48.721300
1841.000000	48.766800
1840.000000	48.744100
1839.000000	48.681200
1838.000000	48.629600
1837.000000	48.615500
1836.000000	48.604500
1835.000000	48.563600
1834.000000	48.475100
1833.000000	48.384800
1832.000000	48.324800
1831.000000	48.307400
1830.000000	48.306100
1829.000000	48.284100
1828.000000	48.225400
1827.000000	48.180600
1826.000000	48.172800
1825.000000	48.142800
1824.000000	48.104300
1823.000000	48.078400
1822.000000	48.105600
1821.000000	48.168700
1820.000000	48.207900
1819.000000	48.169800
1818.000000	48.115000
1817.000000	48.096200
1816.000000	48.106800
1815.000000	48.105300
1814.000000	48.077900
1813.000000	48.070200
1812.000000	48.064400
1811.000000	48.053400
1810.000000	47.999300
1809.000000	47.952100
1808.000000	47.925200
1807.000000	47.912000
1806.000000	47.903100
1805.000000	47.875800
1804.000000	47.842200
1803.000000	47.817300
1802.000000	47.813000
1801.000000	47.820100
1800.000000	47.779800
1799.000000	47.745700
1798.000000	47.725500
1797.000000	47.703500
1796.000000	47.695100
1795.000000	47.671700
1794.000000	47.648600
1793.000000	47.634500
1792.000000	47.618000
1791.000000	47.607600
1790.000000	47.589800
1789.000000	47.601000
1788.000000	47.604400
1787.000000	47.608400
1786.000000	47.621300
1785.000000	47.631400
1784.000000	47.643400
1783.000000	47.626600
1782.000000	47.616300
1781.000000	47.607400
1780.000000	47.591000
1779.000000	47.578900
1778.000000	47.565100
1777.000000	47.538900
1776.000000	47.497000
1775.000000	47.450500
1774.000000	47.417300
1773.000000	47.392800
1772.000000	47.352100
1771.000000	47.304300
1770.000000	47.279800
1769.000000	47.245900
1768.000000	47.206500
1767.000000	47.176500
1766.000000	47.140000
1765.000000	47.129300
1764.000000	47.108600
1763.000000	47.091000
1762.000000	47.086900
1761.000000	47.087300
1760.000000	47.098800
1759.000000	47.104900
1758.000000	47.120200
1757.000000	47.122500
1756.000000	47.123000
1755.000000	47.132900
1754.000000	47.124000
1753.000000	47.130900
1752.000000	47.138500
1751.000000	47.115800
1750.000000	47.100700
1749.000000	47.072700
1748.000000	47.022800
1747.000000	46.977000
1746.000000	46.914500
1745.000000	46.849900
1744.000000	46.768500
1743.000000	46.696600
1742.000000	46.609600
1741.000000	46.526600
1740.000000	46.443900
1739.000000	46.351400
1738.000000	46.297400
1737.000000	46.234300
1736.000000	46.176600
1735.000000	46.119900
1734.000000	46.087700
1733.000000	46.059000
1732.000000	46.025700
1731.000000	45.990100
1730.000000	45.956200
1729.000000	45.913700
1728.000000	45.885700
1727.000000	45.857300
1726.000000	45.817100
1725.000000	45.798300
1724.000000	45.803100
1723.000000	45.831000
1722.000000	45.892000
1721.000000	46.022400
1720.000000	46.176400
1719.000000	46.393100
1718.000000	46.602800
1717.000000	46.840900
1716.000000	47.071200
1715.000000	47.298600
1714.000000	47.496400
1713.000000	47.684600
1712.000000	47.858600
1711.000000	48.007400
1710.000000	48.150300
1709.000000	48.256900
1708.000000	48.368300
1707.000000	48.443700
1706.000000	48.518000
1705.000000	48.563000
1704.000000	48.601700
1703.000000	48.610000
1702.000000	48.612500
1701.000000	48.639500
1700.000000	48.616700
1699.000000	48.612500
1698.000000	48.602400
1697.000000	48.593700
1696.000000	48.585900
1695.000000	48.553600
1694.000000	48.501400
1693.000000	48.439800
1692.000000	48.395300
1691.000000	48.346700
1690.000000	48.299800
1689.000000	48.297000
1688.000000	48.333800
1687.000000	48.424800
1686.000000	48.543800
1685.000000	48.728400
1684.000000	48.954600
1683.000000	49.191400
1682.000000	49.452300
1681.000000	49.712400
1680.000000	49.978400
1679.000000	50.232800
1678.000000	50.478200
1677.000000	50.717900
1676.000000	50.925900
1675.000000	51.135900
1674.000000	51.337500
1673.000000	51.522300
1672.000000	51.717200
1671.000000	51.902000
1670.000000	52.098500
1669.000000	52.286500
1668.000000	52.477200
1667.000000	52.633300
1666.000000	52.769800
1665.000000	52.913100
1664.000000	53.027800
1663.000000	53.165700
1662.000000	53.268100
1661.000000	53.371600
1660.000000	53.451700
1659.000000	53.532000
1658.000000	53.608300
1657.000000	53.658400
1656.000000	53.725100
1655.000000	53.766300
1654.000000	53.808700
1653.000000	53.838200
1652.000000	53.862600
1651.000000	53.865800
1650.000000	53.866500
1649.000000	53.882100
1648.000000	53.872900
1647.000000	53.860500
1646.000000	53.865200
1645.000000	53.854700
1644.000000	53.829900
1643.000000	53.809600
1642.000000	53.800600
1641.000000	53.775500
1640.000000	53.762400
1639.000000	53.761200
1638.000000	53.752600
1637.000000	53.732900
1636.000000	53.746900
1635.000000	53.707100
1634.000000	53.690800
1633.000000	53.650700
1632.000000	53.626300
1631.000000	53.595500
1630.000000	53.543600
1629.000000	53.503300
1628.000000	53.467000
1627.000000	53.432800
1626.000000	53.393500
1625.000000	53.343600
1624.000000	53.322500
1623.000000	53.294900
1622.000000	53.264300
1621.000000	53.227700
1620.000000	53.204400
1619.000000	53.178800
1618.000000	53.151800
1617.000000	53.128100
1616.000000	53.096700
1615.000000	53.068800
1614.000000	53.045300
1613.000000	53.011600
1612.000000	52.964000
1611.000000	52.912900
1610.000000	52.862500
1609.000000	52.805400
1608.000000	52.753500
1607.000000	52.697000
1606.000000	52.622900
1605.000000	52.553700
1604.000000	52.480200
1603.000000	52.398800
1602.000000	52.344900
1601.000000	52.274400
1600.000000	52.188200
1599.000000	52.114700
1598.000000	52.048200
1597.000000	51.983900
1596.000000	51.918500
1595.000000	51.851200
1594.000000	51.786000
1593.000000	51.730300
1592.000000	51.678700
1591.000000	51.633500
1590.000000	51.587900
1589.000000	51.523600
1588.000000	51.470600
1587.000000	51.418900
1586.000000	51.374100
1585.000000	51.330500
1584.000000	51.293700
1583.000000	51.248200
1582.000000	51.202900
1581.000000	51.168100
1580.000000	51.135200
1579.000000	51.107600
1578.000000	51.087200
1577.000000	51.074200
1576.000000	51.077500
1575.000000	51.079500
1574.000000	51.066500
1573.000000	51.068800
1572.000000	51.081300
1571.000000	51.099200
1570.000000	51.110300
1569.000000	51.130500
1568.000000	51.169200
1567.000000	51.203700
1566.000000	51.224000
1565.000000	51.248800
1564.000000	51.277500
1563.000000	51.302100
1562.000000	51.310800
1561.000000	51.313100
1560.000000	51.310300
1559.000000	51.304800
1558.000000	51.292300
1557.000000	51.261400
1556.000000	51.220700
1555.000000	51.180500
1554.000000	51.127300
1553.000000	51.074200
1552.000000	51.021000
1551.000000	50.949000
1550.000000	50.867000
1549.000000	50.792200
1548.000000	50.709100
1547.000000	50.645300
1546.000000	50.595700
1545.000000	50.540700
1544.000000	50.490400
1543.000000	50.450000
1542.000000	50.421600
1541.000000	50.394300
1540.000000	50.357300
1539.000000	50.332100
1538.000000	50.302400
1537.000000	50.276900
1536.000000	50.250700
1535.000000	50.212700
1534.000000	50.180500
1533.000000	50.145500
1532.000000	50.099200
1531.000000	50.044900
1530.000000	50.005600
1529.000000	49.959700
1528.000000	49.907200
1527.000000	49.844100
1526.000000	49.788600
1525.000000	49.737000
1524.000000	49.674600
1523.000000	49.621800
1522.000000	49.569300
1521.000000	49.509400
1520.000000	49.448400
1519.000000	49.383800
1518.000000	49.318500
1517.000000	49.250700
1516.000000	49.182300
1515.000000	49.119500
1514.000000	49.043100
1513.000000	48.976200
1512.000000	48.898100
1511.000000	48.829400
1510.000000	48.771900
1509.000000	48.691500
1508.000000	48.628600
1507.000000	48.556500
1506.000000	48.495100
1505.000000	48.421000
1504.000000	48.359600
1503.000000	48.307000
1502.000000	48.255600
1501.000000	48.197300
1500.000000	48.142700
1499.000000	48.095900
1498.000000	48.072900
1497.000000	48.044500
1496.000000	48.033500
1495.000000	48.018400
1494.000000	48.009600
1493.000000	48.012800
1492.000000	48.021300
1491.000000	48.038600
1490.000000	48.041900
1489.000000	48.065000
1488.000000	48.098000
1487.000000	48.115100
1486.000000	48.141200
1485.000000	48.144600
1484.000000	48.174600
1483.000000	48.197400
1482.000000	48.231800
1481.000000	48.267500
1480.000000	48.297300
1479.000000	48.318700
1478.000000	48.367300
1477.000000	48.400700
1476.000000	48.433800
1475.000000	48.487100
1474.000000	48.567300
1473.000000	48.638600
1472.000000	48.727500
1471.000000	48.809500
1470.000000	48.858700
1469.000000	48.912900
1468.000000	48.989200
1467.000000	49.078400
1466.000000	49.181100
1465.000000	49.252900
1464.000000	49.339700
1463.000000	49.431900
1462.000000	49.507500
1461.000000	49.602300
1460.000000	49.721600
1459.000000	49.802000
1458.000000	49.893800
1457.000000	50.005000
1456.000000	50.092200
1455.000000	50.206000
1454.000000	50.294800
1453.000000	50.390800
1452.000000	50.530100
1451.000000	50.632300
1450.000000	50.730400
1449.000000	50.770400
1448.000000	50.844200
1447.000000	50.973700
1446.000000	51.114800
1445.000000	51.203500
1444.000000	51.265300
1443.000000	51.345900
1442.000000	51.461900
1441.000000	51.571900
1440.000000	51.664000
1439.000000	51.776700
1438.000000	51.915600
1437.000000	51.997300
1436.000000	52.127300
1435.000000	52.238300
1434.000000	52.411500
1433.000000	52.538900
1432.000000	52.687100
1431.000000	52.834000
1430.000000	52.967000
1429.000000	53.129900
1428.000000	53.328900
1427.000000	53.498200
1426.000000	53.695800
1425.000000	53.885200
1424.000000	54.133900
1423.000000	54.356500
1422.000000	54.539600
1421.000000	54.766800
1420.000000	55.049500
1419.000000	55.356100
1418.000000	55.581200
1417.000000	55.755500
1416.000000	56.039600
1415.000000	56.356600
1414.000000	56.737300
1413.000000	57.024000
1412.000000	57.236500
1411.000000	57.585500
1410.000000	57.963000
1409.000000	58.381100
1408.000000	58.690600
1407.000000	59.023400
1406.000000	59.333400
1405.000000	59.707100
1404.000000	59.976900
1403.000000	60.324100
1402.000000	60.583000
1401.000000	61.024400
1400.000000	61.431100
1399.000000	61.641300
1398.000000	61.708500
1397.000000	62.009700
1396.000000	62.419500
1395.000000	62.767700
1394.000000	62.900900
1393.000000	63.053400
1392.000000	63.345300
1391.000000	63.555800
1390.000000	63.721900
1389.000000	63.958200
1388.000000	64.306700
1387.000000	64.480700
1386.000000	64.669600
1385.000000	64.890200
1384.000000	65.163200
1383.000000	65.339500
1382.000000	65.546000
1381.000000	65.657600
1380.000000	65.656100
1379.000000	65.769800
1378.000000	65.810800
1377.000000	65.868800
1376.000000	65.927100
1375.000000	66.004200
1374.000000	66.081300
1373.000000	66.208400
1372.000000	66.324300
1371.000000	66.451100
1370.000000	66.495700
1369.000000	66.567800
1368.000000	66.713000
1367.000000	66.747900
1366.000000	66.799700
1365.000000	66.905500
1364.000000	66.989000
1363.000000	67.025800
1362.000000	67.179100
1361.000000	67.209800
1360.000000	67.195000
1359.000000	67.175400
1358.000000	67.174900
1357.000000	67.211200
1356.000000	67.262300
1355.000000	67.365000
1354.000000	67.475100
1353.000000	67.495400
1352.000000	67.571100
1351.000000	67.697100
1350.000000	67.807900
1349.000000	67.921600
1348.000000	68.054200
1347.000000	68.177600
1346.000000	68.230900
1345.000000	68.344300
1344.000000	68.474100
1343.000000	68.563400
1342.000000	68.632300
1341.000000	68.726600
1340.000000	68.814300
1339.000000	68.886600
1338.000000	68.954100
1337.000000	69.012300
1336.000000	69.068800
1335.000000	69.126400
1334.000000	69.187600
1333.000000	69.236700
1332.000000	69.275400
1331.000000	69.308000
1330.000000	69.343400
1329.000000	69.367300
1328.000000	69.399700
1327.000000	69.421900
1326.000000	69.447300
1325.000000	69.466100
1324.000000	69.477200
1323.000000	69.493500
1322.000000	69.515600
1321.000000	69.520200
1320.000000	69.527900
1319.000000	69.553700
1318.000000	69.562400
1317.000000	69.564500
1316.000000	69.575600
1315.000000	69.596000
1314.000000	69.601200
1313.000000	69.603400
1312.000000	69.606400
1311.000000	69.611000
1310.000000	69.623200
1309.000000	69.625200
1308.000000	69.614700
1307.000000	69.619400
1306.000000	69.632000
1305.000000	69.621500
1304.000000	69.610900
1303.000000	69.609100
1302.000000	69.602400
1301.000000	69.598200
1300.000000	69.595000
1299.000000	69.585300
1298.000000	69.576300
1297.000000	69.566600
1296.000000	69.555100
1295.000000	69.547500
1294.000000	69.529500
1293.000000	69.501000
1292.000000	69.484400
1291.000000	69.465500
1290.000000	69.433700
1289.000000	69.412900
1288.000000	69.406200
1287.000000	69.393200
1286.000000	69.367000
1285.000000	69.343900
1284.000000	69.306700
1283.000000	69.263300
1282.000000	69.239000
1281.000000	69.214600
1280.000000	69.189800
1279.000000	69.164000
1278.000000	69.149000
1277.000000	69.124100
1276.000000	69.091800
1275.000000	69.068700
1274.000000	69.050900
1273.000000	69.040600
1272.000000	69.028300
1271.000000	69.014100
1270.000000	69.000000
1269.000000	68.988700
1268.000000	68.959900
1267.000000	68.941500
1266.000000	68.927500
1265.000000	68.896800
1264.000000	68.871900
1263.000000	68.865600
1262.000000	68.837300
1261.000000	68.802300
1260.000000	68.786000
1259.000000	68.774700
1258.000000	68.755500
1257.000000	68.717800
1256.000000	68.694000
1255.000000	68.667400
1254.000000	68.637000
1253.000000	68.623800
1252.000000	68.590200
1251.000000	68.545300
1250.000000	68.493800
1249.000000	68.471000
1248.000000	68.416500
1247.000000	68.366400
1246.000000	68.323900
1245.000000	68.272700
1244.000000	68.216500
1243.000000	68.169100
1242.000000	68.127600
1241.000000	68.079100
1240.000000	68.037100
1239.000000	67.998600
1238.000000	67.965600
1237.000000	67.935500
1236.000000	67.896700
1235.000000	67.851000
1234.000000	67.809900
1233.000000	67.783600
1232.000000	67.760500
1231.000000	67.727200
1230.000000	67.701400
1229.000000	67.656600
1228.000000	67.630500
1227.000000	67.608900
1226.000000	67.580000
1225.000000	67.559200
1224.000000	67.529500
1223.000000	67.503300
1222.000000	67.485900
1221.000000	67.454400
1220.000000	67.426000
1219.000000	67.385200
1218.000000	67.378400
1217.000000	67.343800
1216.000000	67.322900
1215.000000	67.284200
1214.000000	67.231500
1213.000000	67.206600
1212.000000	67.148100
1211.000000	67.112700
1210.000000	67.074800
1209.000000	67.035600
1208.000000	66.968900
1207.000000	66.897000
1206.000000	66.860200
1205.000000	66.793400
1204.000000	66.739500
1203.000000	66.676500
1202.000000	66.616300
1201.000000	66.557300
1200.000000	66.494400
1199.000000	66.422600
1198.000000	66.357300
1197.000000	66.300800
1196.000000	66.219400
1195.000000	66.139200
1194.000000	66.045800
1193.000000	65.988500
1192.000000	65.899400
1191.000000	65.835200
1190.000000	65.761700
1189.000000	65.687500
1188.000000	65.625300
1187.000000	65.572600
1186.000000	65.550500
1185.000000	65.511500
1184.000000	65.491500
1183.000000	65.491600
1182.000000	65.489900
1181.000000	65.502300
1180.000000	65.515100
1179.000000	65.514600
1178.000000	65.531500
1177.000000	65.542700
1176.000000	65.564500
1175.000000	65.561300
1174.000000	65.589200
1173.000000	65.586300
1172.000000	65.620200
1171.000000	65.641200
1170.000000	65.663900
1169.000000	65.716000
1168.000000	65.734700
1167.000000	65.807100
1166.000000	65.832800
1165.000000	65.884500
1164.000000	65.955700
1163.000000	66.024000
1162.000000	66.071200
1161.000000	66.110000
1160.000000	66.144600
1159.000000	66.201000
1158.000000	66.236000
1157.000000	66.274300
1156.000000	66.312000
1155.000000	66.338000
1154.000000	66.358100
1153.000000	66.366700
1152.000000	66.394600
1151.000000	66.402700
1150.000000	66.374500
1149.000000	66.345800
1148.000000	66.363200
1147.000000	66.367500
1146.000000	66.372000
1145.000000	66.364400
1144.000000	66.335600
1143.000000	66.333300
1142.000000	66.317800
1141.000000	66.327100
1140.000000	66.339900
1139.000000	66.331700
1138.000000	66.344200
1137.000000	66.346600
1136.000000	66.386400
1135.000000	66.423900
1134.000000	66.457900
1133.000000	66.396500
1132.000000	66.383200
1131.000000	66.369200
1130.000000	66.397900
1129.000000	66.390400
1128.000000	66.374700
1127.000000	66.356800
1126.000000	66.329500
1125.000000	66.335500
1124.000000	66.311000
1123.000000	66.284000
1122.000000	66.262200
1121.000000	66.227400
1120.000000	66.189000
1119.000000	66.126600
1118.000000	66.113800
1117.000000	66.083800
1116.000000	66.045700
1115.000000	66.005500
1114.000000	65.957200
1113.000000	65.920200
1112.000000	65.894700
1111.000000	65.854500
1110.000000	65.826300
1109.000000	65.786100
1108.000000	65.753100
1107.000000	65.706400
1106.000000	65.664900
1105.000000	65.638400
1104.000000	65.601500
1103.000000	65.565200
1102.000000	65.519900
1101.000000	65.477400
1100.000000	65.452100
1099.000000	65.396800
1098.000000	65.362000
1097.000000	65.312500
1096.000000	65.275100
1095.000000	65.235200
1094.000000	65.191300
1093.000000	65.158700
1092.000000	65.090200
1091.000000	65.057200
1090.000000	65.014700
1089.000000	64.960300
1088.000000	64.919200
1087.000000	64.881500
1086.000000	64.839600
1085.000000	64.793600
1084.000000	64.743400
1083.000000	64.703500
1082.000000	64.663000
1081.000000	64.623600
1080.000000	64.573000
1079.000000	64.531200
1078.000000	64.481000
1077.000000	64.434800
1076.000000	64.409300
1075.000000	64.371400
1074.000000	64.328900
1073.000000	64.286600
1072.000000	64.247900
1071.000000	64.215800
1070.000000	64.170900
1069.000000	64.130500
1068.000000	64.092900
1067.000000	64.052700
1066.000000	64.026400
1065.000000	63.990400
1064.000000	63.949600
1063.000000	63.910000
1062.000000	63.868700
1061.000000	63.834600
1060.000000	63.811000
1059.000000	63.790400
1058.000000	63.754500
1057.000000	63.717700
1056.000000	63.677700
1055.000000	63.628400
1054.000000	63.590000
1053.000000	63.574700
1052.000000	63.548700
1051.000000	63.519500
1050.000000	63.490300
1049.000000	63.463300
1048.000000	63.437000
1047.000000	63.412100
1046.000000	63.387600
1045.000000	63.371600
1044.000000	63.353300
1043.000000	63.332700
1042.000000	63.311400
1041.000000	63.285500
1040.000000	63.269500
1039.000000	63.255800
1038.000000	63.248100
1037.000000	63.256800
1036.000000	63.248700
1035.000000	63.221600
1034.000000	63.203000
1033.000000	63.211600
1032.000000	63.221200
1031.000000	63.223700
1030.000000	63.223400
1029.000000	63.236800
1028.000000	63.244100
1027.000000	63.259100
1026.000000	63.289300
1025.000000	63.309700
1024.000000	63.336100
1023.000000	63.377800
1022.000000	63.419600
1021.000000	63.471300
1020.000000	63.518900
1019.000000	63.560200
1018.000000	63.621300
1017.000000	63.697700
1016.000000	63.764700
1015.000000	63.841500
1014.000000	63.934700
1013.000000	64.013700
1012.000000	64.100600
1011.000000	64.184300
1010.000000	64.280900
1009.000000	64.398200
1008.000000	64.513500
1007.000000	64.606700
1006.000000	64.705200
1005.000000	64.820100
1004.000000	64.949500
1003.000000	65.068000
1002.000000	65.177500
1001.000000	65.296100
1000.000000	65.403300
999.000000	65.522400
998.000000	65.648500
997.000000	65.766400
996.000000	65.875500
995.000000	66.001100
994.000000	66.125200
993.000000	66.254200
992.000000	66.392600
991.000000	66.519800
990.000000	66.654600
989.000000	66.794100
988.000000	66.965300
987.000000	67.121400
986.000000	67.260200
985.000000	67.396000
984.000000	67.559600
983.000000	67.711400
982.000000	67.866600
981.000000	68.023900
980.000000	68.196500
979.000000	68.358200
978.000000	68.523500
977.000000	68.670000
976.000000	68.835000
975.000000	68.991700
974.000000	69.161400
973.000000	69.308400
972.000000	69.485500
971.000000	69.658800
970.000000	69.806000
969.000000	69.983600
968.000000	70.160300
967.000000	70.311800
966.000000	70.469700
965.000000	70.661000
964.000000	70.817000
963.000000	70.966500
962.000000	71.170700
961.000000	71.359000
960.000000	71.506800
959.000000	71.655500
958.000000	71.800800
957.000000	71.988000
956.000000	72.160600
955.000000	72.317900
954.000000	72.448300
953.000000	72.593100
952.000000	72.744300
951.000000	72.919500
950.000000	73.088300
949.000000	73.225900
948.000000	73.349900
947.000000	73.485900
946.000000	73.681200
945.000000	73.824100
944.000000	73.939600
943.000000	74.137000
942.000000	74.263000
941.000000	74.398700
940.000000	74.575000
939.000000	74.682400
938.000000	74.808900
937.000000	74.932200
936.000000	75.059900
935.000000	75.256800
934.000000	75.375400
933.000000	75.497200
932.000000	75.588500
931.000000	75.768400
930.000000	75.852700
929.000000	76.018800
928.000000	76.113200
927.000000	76.206800
926.000000	76.303800
925.000000	76.387300
924.000000	76.540400
923.000000	76.608800
922.000000	76.687700
921.000000	76.774300
920.000000	76.884000
919.000000	76.952100
918.000000	77.098400
917.000000	77.134900
916.000000	77.190700
915.000000	77.258600
914.000000	77.334900
913.000000	77.399800
912.000000	77.475300
911.000000	77.549600
910.000000	77.605400
909.000000	77.650500
908.000000	77.703000
907.000000	77.878100
906.000000	77.932600
905.000000	77.928900
904.000000	77.982300
903.000000	78.033600
902.000000	78.102900
901.000000	78.159100
900.000000	78.203800
899.000000	78.259500
898.000000	78.313500
897.000000	78.373100
896.000000	78.423500
895.000000	78.462000
894.000000	78.518300
893.000000	78.527500
892.000000	78.462100
891.000000	78.508400
890.000000	78.533100
889.000000	78.580700
888.000000	78.595600
887.000000	78.647800
886.000000	78.682100
885.000000	78.679300
884.000000	78.622700
883.000000	78.676900
882.000000	78.683200
881.000000	78.635600
880.000000	78.686000
879.000000	78.711600
878.000000	78.761500
877.000000	78.750400
876.000000	78.692300
875.000000	78.667200
874.000000	78.566600
873.000000	78.536300
872.000000	78.543100
871.000000	78.412500
870.000000	78.343500
869.000000	78.199700
868.000000	78.124500
867.000000	77.972700
866.000000	77.895200
865.000000	77.704100
864.000000	77.612200
863.000000	77.412600
862.000000	77.298600
861.000000	76.971800
860.000000	76.684100
859.000000	76.489700
858.000000	78.054700
857.000000	76.919340
856.000000	77.347057
855.000000	77.725324
854.000000	78.135974
853.000000	78.325195
852.000000	78.788008
851.000000	78.908700
850.000000	79.135642
849.000000	79.657532
848.000000	79.899704
847.000000	80.183973
846.000000	80.182923
845.000000	80.634620
844.000000	80.844584
843.000000	81.269062
842.000000	81.728812
841.000000	81.897028
840.000000	81.920834
839.000000	82.395112
838.000000	82.613127
837.000000	82.740558
836.000000	82.952972
835.000000	83.371850
834.000000	83.415435
833.000000	83.661458
832.000000	83.948615
831.000000	83.957367
830.000000	84.188248
829.000000	84.244087
828.000000	84.342899
827.000000	84.641259
826.000000	84.696747
825.000000	84.875903
824.000000	85.078865
823.000000	85.198420
822.000000	85.147132
821.000000	85.336703
820.000000	85.501506
819.000000	85.530738
818.000000	85.483914
817.000000	85.621148
816.000000	85.567584
815.000000	85.701317
814.000000	85.760394
813.000000	85.655193
812.000000	85.562246
811.000000	85.556644
810.000000	85.617822
809.000000	85.685651
808.000000	85.613446
807.000000	85.756543
806.000000	85.727048
805.000000	85.730987
804.000000	85.713307
803.000000	85.742627
802.000000	85.645216
801.000000	85.603118
800.000000	85.537127
799.000000	85.508595
798.000000	85.449781
797.000000	85.438753
796.000000	85.386328
795.000000	85.248919
794.000000	85.298456
793.000000	85.248132
792.000000	85.140130
791.000000	85.100833
790.000000	84.973402
789.000000	84.898571
788.000000	84.869252
787.000000	84.772453
786.000000	84.758712
785.000000	84.848159
784.000000	84.769478
783.000000	84.665502
782.000000	84.588396
781.000000	84.502100
780.000000	84.426131
779.000000	84.329945
778.000000	84.294587
777.000000	84.238048
776.000000	84.179496
775.000000	84.187461
774.000000	84.183347
773.000000	84.126896
772.000000	84.121557
771.000000	84.061430
770.000000	84.012156
769.000000	83.913256
768.000000	83.834137
767.000000	83.826523
766.000000	83.785300
765.000000	83.758081
764.000000	83.808231
763.000000	83.760357
762.000000	83.695328
761.000000	83.536040
760.000000	83.439241
759.000000	83.409221
758.000000	83.308572
757.000000	83.210985
756.000000	83.107973
755.000000	82.996471
754.000000	82.894158
753.000000	82.801211
752.000000	82.698723
751.000000	82.573743
750.000000	82.497074
749.000000	82.388898
748.000000	82.313717
747.000000	82.165281
746.000000	81.906830
745.000000	81.727411
744.000000	81.595167
743.000000	81.393518
742.000000	81.208147
741.000000	80.979017
740.000000	80.733607
739.000000	80.542285
738.000000	80.307640
737.000000	80.001491
736.000000	79.682301
735.000000	79.397069
734.000000	79.106760
733.000000	78.807700
732.000000	78.520980
731.000000	78.164331
730.000000	77.769960
729.000000	77.391693
728.000000	77.018414
727.000000	76.679707
726.000000	76.364455
725.000000	75.980586
724.000000	75.572999
723.000000	75.164100
722.000000	74.783907
721.000000	74.434522
720.000000	73.991052
719.000000	73.604995
718.000000	73.225328
717.000000	72.807501
716.000000	72.459866
715.000000	71.999679
714.000000	71.531790
713.000000	71.077379
712.000000	70.712065
711.000000	70.328109
710.000000	69.867572
709.000000	69.439155
708.000000	69.018790
707.000000	68.600438
706.000000	68.204929
705.000000	67.870685
704.000000	67.480428
703.000000	67.112663
702.000000	66.716192
701.000000	66.333899
700.000000	65.995366
699.000000	65.623313
698.000000	65.277166
697.000000	64.973730
696.000000	64.669943
695.000000	64.317495
694.000000	64.035589
693.000000	63.663886
692.000000	63.404647
691.000000	63.141733
690.000000	62.767667
689.000000	62.487774
688.000000	62.161757
687.000000	61.839766
686.000000	61.540356
685.000000	61.262913
684.000000	60.971205
683.000000	60.673720
682.000000	60.394702
681.000000	60.143690
680.000000	59.879989
679.000000	59.578565
678.000000	59.321690
677.000000	59.035408
676.000000	58.819755
675.000000	58.563318
674.000000	58.331649
673.000000	58.111008
672.000000	57.855270
671.000000	57.662461
670.000000	57.467026
669.000000	57.334431
668.000000	57.135583
667.000000	56.964916
666.000000	56.830746
665.000000	56.708128
664.000000	56.599339
663.000000	56.471208
662.000000	56.328723
661.000000	56.234638
660.000000	56.099418
659.000000	56.007958
658.000000	55.870462
657.000000	55.717737
656.000000	55.580591
655.000000	55.465938
654.000000	55.270328
653.000000	55.123117
652.000000	54.970568
651.000000	54.793687
650.000000	54.598952
649.000000	54.419796
648.000000	54.265671
647.000000	54.094042
646.000000	53.967223
645.000000	53.834716
644.000000	53.731528
643.000000	53.652584
642.000000	53.562525
641.000000	53.539069
640.000000	53.546246
639.000000	53.588518
638.000000	53.659848
637.000000	53.741681
636.000000	53.792968
635.000000	53.995317
634.000000	54.183138
633.000000	54.351617
632.000000	54.618644
631.000000	54.872719
630.000000	55.090209
629.000000	55.354611
628.000000	55.680716
627.000000	56.026775
626.000000	56.368983
625.000000	56.720206
624.000000	57.024606
623.000000	57.387731
622.000000	57.721975
621.000000	58.097704
620.000000	58.490500
619.000000	58.812229
618.000000	59.196535
617.000000	59.588280
616.000000	59.995517
615.000000	60.313394
614.000000	60.733059
613.000000	61.107300
612.000000	61.444432
611.000000	61.781915
610.000000	62.083163
609.000000	62.385199
608.000000	62.699488
607.000000	62.932382
606.000000	63.220152
605.000000	63.380141
604.000000	63.585379
603.000000	63.775650
602.000000	63.929775
601.000000	64.088802
600.000000	64.164683
599.000000	64.281961
598.000000	64.392676
597.000000	64.387512
596.000000	64.452015
595.000000	64.433461
594.000000	64.436786
593.000000	64.411230
592.000000	64.433811
591.000000	64.363093
590.000000	64.354516
589.000000	64.294914
588.000000	64.224635
587.000000	64.130549
586.000000	64.069897
585.000000	63.945442
584.000000	63.850043
583.000000	63.715348
582.000000	63.611985
581.000000	63.465475
580.000000	63.300672
579.000000	63.173591
578.000000	63.003625
577.000000	62.869367
576.000000	62.679096
575.000000	62.522695
574.000000	62.311419
573.000000	62.088239
572.000000	61.845017
571.000000	61.579565
570.000000	61.280505
569.000000	61.048398
568.000000	60.769468
567.000000	60.472596
566.000000	60.162508
565.000000	59.839641
564.000000	59.495770
563.000000	59.161439
562.000000	58.787110
561.000000	58.416282
560.000000	58.050968
559.000000	57.678565
558.000000	57.246735
557.000000	56.844837
556.000000	56.417733
555.000000	55.967873
554.000000	55.518801
553.000000	55.056776
552.000000	54.559742
551.000000	54.046255
550.000000	53.503623
549.000000	52.980158
548.000000	52.462994
547.000000	51.881590
546.000000	51.327230
545.000000	50.738036
544.000000	50.158995
543.000000	49.557899
542.000000	48.961266
541.000000	48.367609
540.000000	47.761961
539.000000	47.146949
538.000000	46.548041
537.000000	45.946244
536.000000	45.343835
535.000000	44.747552
534.000000	44.132190
533.000000	43.534244
532.000000	42.939887
531.000000	42.339490
530.000000	41.732355
529.000000	41.101414
528.000000	40.489640
527.000000	39.900709
526.000000	39.306351
525.000000	38.714445
524.000000	38.107047
523.000000	37.480569
522.000000	36.846389
521.000000	36.245381
520.000000	35.630281
519.000000	35.007829
518.000000	34.405245
517.000000	33.801698
516.000000	33.183009
515.000000	32.554956
514.000000	31.950447
513.000000	31.322831
512.000000	30.724448
511.000000	30.128865
510.000000	29.543173
509.000000	28.962644
508.000000	28.408809
507.000000	27.871340
506.000000	27.366517
505.000000	26.896703
504.000000	26.430127
503.000000	26.000835
502.000000	25.603400
501.000000	25.257341
500.000000	24.935175
499.000000	24.629375
498.000000	24.381253
497.000000	24.204459
496.000000	24.018214
495.000000	23.880280
494.000000	23.776918
493.000000	23.713465
492.000000	23.673643
491.000000	23.641085
490.000000	23.637584
489.000000	23.640297
488.000000	23.681957
487.000000	23.736833
486.000000	23.791534
485.000000	23.837745
484.000000	23.892271
483.000000	23.960275
482.000000	24.002723
481.000000	24.021540
480.000000	24.038344
479.000000	24.061712
478.000000	24.090157
477.000000	24.094708
476.000000	24.117201
475.000000	24.146958
474.000000	24.154310
473.000000	24.148008
472.000000	24.136893
471.000000	24.127266
470.000000	24.106786
469.000000	24.091907
468.000000	24.058824
467.000000	24.012613
466.000000	23.972440
465.000000	23.919227
464.000000	23.867415
463.000000	23.799411
462.000000	23.715128
461.000000	23.633733
460.000000	23.536497
459.000000	23.434972
458.000000	23.329159
457.000000	23.217657
456.000000	23.089000
455.000000	22.950454
454.000000	22.805956
453.000000	22.660671
452.000000	22.500157
451.000000	22.318375
450.000000	22.135805
449.000000	21.948160
448.000000	21.738809
447.000000	21.513179
446.000000	21.287724
445.000000	21.058943
444.000000	20.813533
443.000000	20.545456
442.000000	20.267575
441.000000	19.984619
440.000000	19.691247
439.000000	19.379759
438.000000	19.058118
437.000000	18.745142
436.000000	18.427877
435.000000	18.087244
434.000000	17.728057
433.000000	17.365368
432.000000	17.011870
431.000000	16.644018
430.000000	16.253410
429.000000	15.871467
428.000000	15.496350
427.000000	15.119396
426.000000	14.731151
425.000000	14.340281
424.000000	13.957551
423.000000	13.572282
422.000000	13.187100
421.000000	12.810846
420.000000	12.449646
419.000000	12.092121
418.000000	11.742211
417.000000	11.398777
416.000000	11.076261
415.000000	10.764598
414.000000	10.466237
413.000000	10.169190
412.000000	9.875906
411.000000	9.608091
410.000000	9.338263
409.000000	9.093465
408.000000	8.867398
407.000000	8.638705
406.000000	8.435130
405.000000	8.237157
404.000000	8.038834
403.000000	7.870005
402.000000	7.710629
401.000000	7.555978
400.000000	7.404129
399.000000	7.267771
398.000000	7.136489
397.000000	7.025774
396.000000	6.921274
395.000000	6.796818
394.000000	6.694418
393.000000	6.608473
392.000000	6.508086
391.000000	6.442182
390.000000	6.380129
389.000000	6.312038
388.000000	6.262151
387.000000	6.193621
386.000000	6.112139
385.000000	6.071354
384.000000	6.035033
383.000000	5.983395
382.000000	5.932108
381.000000	5.890448
380.000000	5.862616
379.000000	5.820868
378.000000	5.763892
377.000000	5.733259
376.000000	5.748838
375.000000	5.711904
374.000000	5.724770
373.000000	5.716718
372.000000	5.646613
371.000000	5.580622
370.000000	5.560667
369.000000	5.541675
368.000000	5.509642
367.000000	5.495026
366.000000	5.488375
365.000000	5.499490
364.000000	5.463081
363.000000	5.458705
362.000000	5.423259
361.000000	5.400066
360.000000	5.411531
359.000000	5.332849
358.000000	5.283575
357.000000	5.298191
356.000000	5.302829
355.000000	5.309394
354.000000	5.358843
353.000000	5.246553
352.000000	5.216183
351.000000	5.158507
350.000000	5.206031
349.000000	5.139690
348.000000	5.143103
347.000000	5.194566
346.000000	5.198942
345.000000	5.170322
344.000000	5.114834
343.000000	5.132688
342.000000	5.148267
341.000000	5.149755
340.000000	5.877582
339.000000	5.279986
338.000000	5.086389
337.000000	5.294515
336.000000	5.240777
335.000000	5.041316
334.000000	5.078775
333.000000	5.043241
332.000000	5.062321
331.000000	5.178987
330.000000	5.132338
329.000000	5.113521
328.000000	5.150892
327.000000	5.234563
326.000000	5.020836
325.000000	4.963684
324.000000	5.194653
323.000000	5.310269
322.000000	5.279111
321.000000	5.039478
320.000000	5.100305
319.000000	5.023461
318.000000	5.145816
317.000000	5.307030
316.000000	5.032564
315.000000	5.029063
314.000000	5.010858
313.000000	5.040353
312.000000	4.977338
311.000000	5.011383
310.000000	4.979351
309.000000	4.979701
308.000000	5.017597
307.000000	5.037640
306.000000	5.029063
305.000000	5.047180
304.000000	5.040003
303.000000	5.015409
302.000000	4.992041
301.000000	5.044817
300.000000	5.041316
299.000000	5.054269
298.000000	5.030813
297.000000	5.107482
296.000000	5.022586
295.000000	5.019873
294.000000	4.997905
293.000000	5.087965
292.000000	5.046392
291.000000	5.051906
290.000000	5.105294
289.000000	5.081400
288.000000	5.100830
287.000000	5.088840
286.000000	5.081751
285.000000	5.100830
284.000000	5.102493
283.000000	5.095491
282.000000	5.081488
281.000000	5.110195
280.000000	5.181175
279.000000	5.135751
278.000000	5.139165
277.000000	5.154218
276.000000	5.163933
275.000000	5.191677
274.000000	5.194566
273.000000	5.225461
272.000000	5.229924
271.000000	5.285500
270.000000	5.263095
269.000000	5.258194
268.000000	5.317358
267.000000	5.347465
266.000000	5.412144
265.000000	5.378710
264.000000	5.411881
263.000000	5.452403
262.000000	5.431311
261.000000	5.453191
260.000000	5.489687
259.000000	5.531523
258.000000	5.579834
257.000000	5.588674
256.000000	5.573620
255.000000	5.584035
254.000000	5.554016
253.000000	5.601715
252.000000	5.622457
251.000000	5.645738
250.000000	5.667443
