PE UV       SUBTECH     SPECTRUM    ASCII       PEDS        4.00        
   -1
CICIMAUCR0001-4.Sample.ASC
24/04/23
10:01:06.00
24/04/23
10:01:06.00
Vinicio Soto Monge
C. kalinini
250,000000
1
Lambda 1050
1050L1511233
PerkinElmer UV WinLab 6.3.2.0749 / 2.02.05 Lambda 900 UV/VIS/NIR, Aug  7 2015 09:38:08

0
0
3350/servo 860,8/2
0
0
UV/VIS
1
1
1
DoubleDePol,CommonBeamDepol,RBeamAtt,SBeamAtt,60mm sphere, WB InGaAs Detector
0
0
0
0
Program
Program
3350/servo 860,8/2
3350/0,2 860,8/0,2
3350/0,2 860,8/0,2
0
15.00
 
 
 
0
 
860,8
319,2
860,8
Front
100
on
S:100 R:100
0
0
0
0
 
0
 
 
 
0
 
 
0
0
0
0
0
 
 
 
 
0
0


0
0
#HDR
-1
-1
#GR
nm
%R
1.0
0.0
2500,000000
-1,000000
2251
8
99,252700
5,560900
#DATA
2500.000000	15.539661
2499.000000	15.534031
2498.000000	15.527387
2497.000000	15.501040
2496.000000	15.477957
2495.000000	15.518492
2494.000000	15.445529
2493.000000	15.431680
2492.000000	15.419519
2491.000000	15.457014
2490.000000	15.439224
2489.000000	15.383376
2488.000000	15.405332
2487.000000	15.336760
2486.000000	15.427964
2485.000000	15.454312
2484.000000	15.419181
2483.000000	15.418393
2482.000000	15.459041
2481.000000	15.381687
2480.000000	15.413664
2479.000000	15.450596
2478.000000	15.504080
2477.000000	15.519618
2476.000000	15.546304
2475.000000	15.593369
2474.000000	15.631202
2473.000000	15.680632
2472.000000	15.709232
2471.000000	15.734566
2470.000000	15.790978
2469.000000	15.820028
2468.000000	15.891752
2467.000000	15.964377
2466.000000	15.989487
2465.000000	16.082379
2464.000000	16.135413
2463.000000	16.188108
2462.000000	16.247222
2461.000000	16.301831
2460.000000	16.391234
2459.000000	16.459242
2458.000000	16.538286
2457.000000	16.624648
2456.000000	16.722157
2455.000000	16.825409
2454.000000	16.924494
2453.000000	17.008379
2452.000000	17.091476
2451.000000	17.210604
2450.000000	17.324552
2449.000000	17.433884
2448.000000	17.563146
2447.000000	17.664146
2446.000000	17.788791
2445.000000	17.893844
2444.000000	18.001937
2443.000000	18.138518
2442.000000	18.249088
2441.000000	18.376323
2440.000000	18.500631
2439.000000	18.620322
2438.000000	18.726951
2437.000000	18.842589
2436.000000	18.952371
2435.000000	19.082533
2434.000000	19.199860
2433.000000	19.312007
2432.000000	19.421113
2431.000000	19.526279
2430.000000	19.630657
2429.000000	19.732670
2428.000000	19.847407
2427.000000	19.938385
2426.000000	20.029476
2425.000000	20.087576
2424.000000	20.177767
2423.000000	20.293742
2422.000000	20.382356
2421.000000	20.461512
2420.000000	20.537290
2419.000000	20.616221
2418.000000	20.687720
2417.000000	20.784666
2416.000000	20.864272
2415.000000	20.942077
2414.000000	21.005582
2413.000000	21.062556
2412.000000	21.131916
2411.000000	21.208032
2410.000000	21.272888
2409.000000	21.320179
2408.000000	21.366681
2407.000000	21.418476
2406.000000	21.459687
2405.000000	21.502811
2404.000000	21.559673
2403.000000	21.620476
2402.000000	21.657407
2401.000000	21.693213
2400.000000	21.728344
2399.000000	21.776986
2398.000000	21.807837
2397.000000	21.848035
2396.000000	21.876972
2395.000000	21.903432
2394.000000	21.950160
2393.000000	21.975495
2392.000000	21.992835
2391.000000	22.011188
2390.000000	22.018282
2389.000000	22.031456
2388.000000	22.048345
2387.000000	22.068838
2386.000000	22.085840
2385.000000	22.081224
2384.000000	22.086741
2383.000000	22.094285
2382.000000	22.082913
2381.000000	22.090794
2380.000000	22.094172
2379.000000	22.106671
2378.000000	22.115453
2377.000000	22.094285
2376.000000	22.067487
2375.000000	22.050485
2374.000000	22.054876
2373.000000	22.046769
2372.000000	22.035622
2371.000000	22.036522
2370.000000	22.047107
2369.000000	22.025826
2368.000000	22.017719
2367.000000	22.035734
2366.000000	22.047107
2365.000000	22.049359
2364.000000	22.059042
2363.000000	22.064221
2362.000000	22.058141
2361.000000	22.060956
2360.000000	22.073567
2359.000000	22.080098
2358.000000	22.067824
2357.000000	22.074580
2356.000000	22.061969
2355.000000	22.046769
2354.000000	22.032244
2353.000000	22.019858
2352.000000	22.019633
2351.000000	22.014341
2350.000000	22.000604
2349.000000	21.996776
2348.000000	21.974594
2347.000000	21.944530
2346.000000	21.930005
2345.000000	21.932708
2344.000000	21.929555
2343.000000	21.921561
2342.000000	21.927979
2341.000000	21.918971
2340.000000	21.911652
2339.000000	21.919196
2338.000000	21.921223
2337.000000	21.917845
2336.000000	21.930118
2335.000000	21.952750
2334.000000	21.981012
2333.000000	21.976733
2332.000000	21.993060
2331.000000	22.041589
2330.000000	22.069176
2329.000000	22.092033
2328.000000	22.120970
2327.000000	22.160605
2326.000000	22.196861
2325.000000	22.231766
2324.000000	22.254736
2323.000000	22.300676
2322.000000	22.326010
2321.000000	22.343350
2320.000000	22.352020
2319.000000	22.344814
2318.000000	22.340873
2317.000000	22.336256
2316.000000	22.328712
2315.000000	22.306531
2314.000000	22.260028
2313.000000	22.229627
2312.000000	22.199225
2311.000000	22.189204
2310.000000	22.163645
2309.000000	22.117930
2308.000000	22.083701
2307.000000	22.035171
2306.000000	22.010850
2305.000000	21.978422
2304.000000	21.955903
2303.000000	21.959168
2302.000000	21.935861
2301.000000	21.927866
2300.000000	21.903770
2299.000000	21.876071
2298.000000	21.896902
2297.000000	21.910751
2296.000000	21.929330
2295.000000	21.942842
2294.000000	21.953651
2293.000000	21.974481
2292.000000	21.998465
2291.000000	22.042040
2290.000000	22.096312
2289.000000	22.105882
2288.000000	22.148669
2287.000000	22.207220
2286.000000	22.235369
2285.000000	22.278944
2284.000000	22.336819
2283.000000	22.373526
2282.000000	22.419241
2281.000000	22.460113
2280.000000	22.503013
2279.000000	22.558861
2278.000000	22.608404
2277.000000	22.631374
2276.000000	22.647137
2275.000000	22.700846
2274.000000	22.724154
2273.000000	22.767616
2272.000000	22.791487
2271.000000	22.808151
2270.000000	22.881677
2269.000000	22.911854
2268.000000	22.975021
2267.000000	23.005647
2266.000000	23.110926
2265.000000	23.162495
2264.000000	23.258878
2263.000000	23.376430
2262.000000	23.503665
2261.000000	23.630562
2260.000000	23.769619
2259.000000	23.919486
2258.000000	24.072394
2257.000000	24.248270
2256.000000	24.424936
2255.000000	24.605654
2254.000000	24.790201
2253.000000	24.976662
2252.000000	25.165037
2251.000000	25.336861
2250.000000	25.507783
2249.000000	25.699762
2248.000000	25.858073
2247.000000	26.029672
2246.000000	26.160510
2245.000000	26.291460
2244.000000	26.411039
2243.000000	26.566423
2242.000000	26.659879
2241.000000	26.756262
2240.000000	26.838120
2239.000000	26.897797
2238.000000	26.978867
2237.000000	26.989901
2236.000000	27.043497
2235.000000	27.042934
2234.000000	27.072548
2233.000000	27.057234
2232.000000	27.048677
2231.000000	27.065566
2230.000000	27.021991
2229.000000	26.977853
2228.000000	26.928648
2227.000000	26.873138
2226.000000	26.823482
2225.000000	26.761329
2224.000000	26.689942
2223.000000	26.614277
2222.000000	26.527239
2221.000000	26.440877
2220.000000	26.337963
2219.000000	26.268828
2218.000000	26.167716
2217.000000	26.064352
2216.000000	25.963802
2215.000000	25.886561
2214.000000	25.802788
2213.000000	25.698523
2212.000000	25.625560
2211.000000	25.561155
2210.000000	25.461281
2209.000000	25.417480
2208.000000	25.345981
2207.000000	25.289120
2206.000000	25.243067
2205.000000	25.190259
2204.000000	25.130132
2203.000000	25.084755
2202.000000	25.035550
2201.000000	25.004248
2200.000000	25.002897
2199.000000	24.962024
2198.000000	24.926894
2197.000000	24.878365
2196.000000	24.860011
2195.000000	24.821953
2194.000000	24.814635
2193.000000	24.805289
2192.000000	24.788737
2191.000000	24.753494
2190.000000	24.739983
2189.000000	24.731538
2188.000000	24.732326
2187.000000	24.722418
2186.000000	24.691791
2185.000000	24.662854
2184.000000	24.647090
2183.000000	24.636055
2182.000000	24.637744
2181.000000	24.632790
2180.000000	24.610158
2179.000000	24.573564
2178.000000	24.584711
2177.000000	24.577505
2176.000000	24.567033
2175.000000	24.584598
2174.000000	24.608919
2173.000000	24.596421
2172.000000	24.606105
2171.000000	24.623782
2170.000000	24.628511
2169.000000	24.676478
2168.000000	24.724106
2167.000000	24.749216
2166.000000	24.784909
2165.000000	24.833213
2164.000000	24.887710
2163.000000	24.953129
2162.000000	25.021926
2161.000000	25.094777
2160.000000	25.157156
2159.000000	25.244193
2158.000000	25.336298
2157.000000	25.436622
2156.000000	25.539085
2155.000000	25.650332
2154.000000	25.767883
2153.000000	25.885322
2152.000000	26.007715
2151.000000	26.116259
2150.000000	26.257456
2149.000000	26.382101
2148.000000	26.496387
2147.000000	26.642201
2146.000000	26.763581
2145.000000	26.882596
2144.000000	26.998796
2143.000000	27.127270
2142.000000	27.242457
2141.000000	27.367890
2140.000000	27.490509
2139.000000	27.603669
2138.000000	27.719869
2137.000000	27.817941
2136.000000	27.914775
2135.000000	28.033678
2134.000000	28.134565
2133.000000	28.229259
2132.000000	28.341181
2131.000000	28.446122
2130.000000	28.514918
2129.000000	28.589345
2128.000000	28.652174
2127.000000	28.720521
2126.000000	28.799677
2125.000000	28.866897
2124.000000	28.930177
2123.000000	29.011585
2122.000000	29.064506
2121.000000	29.107067
2120.000000	29.121029
2119.000000	29.162578
2118.000000	29.220678
2117.000000	29.243310
2116.000000	29.273599
2115.000000	29.303099
2114.000000	29.333838
2113.000000	29.351291
2112.000000	29.366379
2111.000000	29.385858
2110.000000	29.398920
2109.000000	29.399595
2108.000000	29.408153
2107.000000	29.415021
2106.000000	29.423015
2105.000000	29.421552
2104.000000	29.428758
2103.000000	29.430334
2102.000000	29.424141
2101.000000	29.427857
2100.000000	29.427181
2099.000000	29.433374
2098.000000	29.453417
2097.000000	29.463438
2096.000000	29.472783
2095.000000	29.481341
2094.000000	29.498230
2093.000000	29.519061
2092.000000	29.529307
2091.000000	29.557006
2090.000000	29.576711
2089.000000	29.587295
2088.000000	29.599680
2087.000000	29.593262
2086.000000	29.592249
2085.000000	29.570743
2084.000000	29.565901
2083.000000	29.558470
2082.000000	29.511404
2081.000000	29.474585
2080.000000	29.427407
2079.000000	29.359510
2078.000000	29.298145
2077.000000	29.223493
2076.000000	29.135104
2075.000000	29.057074
2074.000000	28.974428
2073.000000	28.861493
2072.000000	28.737523
2071.000000	28.637086
2070.000000	28.513117
2069.000000	28.386895
2068.000000	28.259548
2067.000000	28.116887
2066.000000	27.987175
2065.000000	27.862643
2064.000000	27.731579
2063.000000	27.603444
2062.000000	27.495238
2061.000000	27.390522
2060.000000	27.288509
2059.000000	27.189761
2058.000000	27.104525
2057.000000	27.067931
2056.000000	27.036291
2055.000000	27.006003
2054.000000	27.026495
2053.000000	27.047551
2052.000000	27.093491
2051.000000	27.172646
2050.000000	27.277137
2049.000000	27.405835
2048.000000	27.532170
2047.000000	27.660643
2046.000000	27.808033
2045.000000	28.016113
2044.000000	28.192215
2043.000000	28.355706
2042.000000	28.543631
2041.000000	28.702956
2040.000000	28.854737
2039.000000	29.036694
2038.000000	29.200861
2037.000000	29.347800
2036.000000	29.516021
2035.000000	29.642242
2034.000000	29.780174
2033.000000	29.909323
2032.000000	30.006044
2031.000000	30.130577
2030.000000	30.235630
2029.000000	30.338431
2028.000000	30.427045
2027.000000	30.520050
2026.000000	30.611592
2025.000000	30.684893
2024.000000	30.761121
2023.000000	30.811677
2022.000000	30.866963
2021.000000	30.938462
2020.000000	31.000278
2019.000000	31.027639
2018.000000	31.059729
2017.000000	31.086077
2016.000000	31.114564
2015.000000	31.136520
2014.000000	31.134831
2013.000000	31.143952
2012.000000	31.154986
2011.000000	31.122221
2010.000000	31.117492
2009.000000	31.103417
2008.000000	31.067386
2007.000000	31.021896
2006.000000	30.969539
2005.000000	30.932945
2004.000000	30.862346
2003.000000	30.804246
2002.000000	30.746934
2001.000000	30.663837
2000.000000	30.584794
1999.000000	30.491451
1998.000000	30.408804
1997.000000	30.335729
1996.000000	30.227072
1995.000000	30.113124
1994.000000	30.026424
1993.000000	29.920583
1992.000000	29.792785
1991.000000	29.670955
1990.000000	29.569054
1989.000000	29.456569
1988.000000	29.332600
1987.000000	29.196582
1986.000000	29.084661
1985.000000	28.943126
1984.000000	28.833569
1983.000000	28.687980
1982.000000	28.568740
1981.000000	28.471681
1980.000000	28.334875
1979.000000	28.199534
1978.000000	28.067795
1977.000000	27.953058
1976.000000	27.843726
1975.000000	27.739123
1974.000000	27.622022
1973.000000	27.508975
1972.000000	27.393562
1971.000000	27.278150
1970.000000	27.163414
1969.000000	27.060612
1968.000000	26.921555
1967.000000	26.848704
1966.000000	26.707395
1965.000000	26.616303
1964.000000	26.495036
1963.000000	26.398428
1962.000000	26.257569
1961.000000	26.158145
1960.000000	26.032149
1959.000000	25.914935
1958.000000	25.808531
1957.000000	25.696384
1956.000000	25.594033
1955.000000	25.488079
1954.000000	25.377283
1953.000000	25.258831
1952.000000	25.128668
1951.000000	25.037577
1950.000000	24.917436
1949.000000	24.839406
1948.000000	24.756647
1947.000000	24.680982
1946.000000	24.591579
1945.000000	24.531565
1944.000000	24.436420
1943.000000	24.390593
1942.000000	24.338236
1941.000000	24.309974
1940.000000	24.268425
1939.000000	24.237799
1938.000000	24.212465
1937.000000	24.195462
1936.000000	24.209199
1935.000000	24.234308
1934.000000	24.273605
1933.000000	24.313689
1932.000000	24.390030
1931.000000	24.443852
1930.000000	24.516252
1929.000000	24.609820
1928.000000	24.728836
1927.000000	24.831299
1926.000000	24.970807
1925.000000	25.122813
1924.000000	25.284503
1923.000000	25.452611
1922.000000	25.667784
1921.000000	25.912683
1920.000000	26.152853
1919.000000	26.366225
1918.000000	26.632855
1917.000000	26.909169
1916.000000	27.193252
1915.000000	27.528116
1914.000000	27.919617
1913.000000	28.296367
1912.000000	28.699128
1911.000000	29.068784
1910.000000	29.463550
1909.000000	29.852011
1908.000000	30.332126
1907.000000	30.873268
1906.000000	31.484896
1905.000000	32.093485
1904.000000	32.701735
1903.000000	33.284651
1902.000000	33.853943
1901.000000	34.521532
1900.000000	35.244181
1899.000000	35.989012
1898.000000	36.729114
1897.000000	37.383416
1896.000000	37.998535
1895.000000	38.677384
1894.000000	39.394854
1893.000000	40.110635
1892.000000	40.925501
1891.000000	41.664139
1890.000000	42.317316
1889.000000	42.990310
1888.000000	43.650130
1887.000000	44.264685
1886.000000	44.868432
1885.000000	45.475331
1884.000000	46.086960
1883.000000	46.594435
1882.000000	47.077590
1881.000000	47.540590
1880.000000	47.959790
1879.000000	48.385633
1878.000000	48.800553
1877.000000	49.198585
1876.000000	49.573646
1875.000000	49.944654
1874.000000	50.277154
1873.000000	50.611117
1872.000000	50.905334
1871.000000	51.165434
1870.000000	51.369685
1869.000000	51.563465
1868.000000	51.713219
1867.000000	51.821876
1866.000000	51.908688
1865.000000	52.015656
1864.000000	52.129942
1863.000000	52.248957
1862.000000	52.391055
1861.000000	52.533941
1860.000000	52.654082
1859.000000	52.737066
1858.000000	52.824780
1857.000000	52.891662
1856.000000	52.941205
1855.000000	53.010002
1854.000000	53.037701
1853.000000	53.038264
1852.000000	53.068553
1851.000000	53.099855
1850.000000	53.174619
1849.000000	53.273254
1848.000000	53.278884
1847.000000	53.221572
1846.000000	53.140840
1845.000000	53.078574
1844.000000	53.049974
1843.000000	53.097378
1842.000000	53.166062
1841.000000	53.156604
1840.000000	53.095463
1839.000000	53.041079
1838.000000	53.014056
1837.000000	52.978362
1836.000000	52.913957
1835.000000	52.830522
1834.000000	52.743597
1833.000000	52.676264
1832.000000	52.654533
1831.000000	52.648002
1830.000000	52.619853
1829.000000	52.575602
1828.000000	52.509282
1827.000000	52.480682
1826.000000	52.467171
1825.000000	52.418754
1824.000000	52.393870
1823.000000	52.482146
1822.000000	52.552407
1821.000000	52.537994
1820.000000	52.506017
1819.000000	52.461428
1818.000000	52.419429
1817.000000	52.408170
1816.000000	52.418416
1815.000000	52.405693
1814.000000	52.377656
1813.000000	52.362793
1812.000000	52.340274
1811.000000	52.305706
1810.000000	52.262807
1809.000000	52.218669
1808.000000	52.195248
1807.000000	52.186466
1806.000000	52.143454
1805.000000	52.080962
1804.000000	52.052813
1803.000000	52.050336
1802.000000	52.038175
1801.000000	52.014304
1800.000000	51.952939
1799.000000	51.912066
1798.000000	51.900581
1797.000000	51.873445
1796.000000	51.856443
1795.000000	51.808139
1794.000000	51.772220
1793.000000	51.773346
1792.000000	51.746999
1791.000000	51.719525
1790.000000	51.706351
1789.000000	51.687660
1788.000000	51.693740
1787.000000	51.701622
1786.000000	51.706914
1785.000000	51.701960
1784.000000	51.681917
1783.000000	51.650390
1782.000000	51.645886
1781.000000	51.621227
1780.000000	51.575175
1779.000000	51.547138
1778.000000	51.508518
1777.000000	51.463028
1776.000000	51.418102
1775.000000	51.353021
1774.000000	51.280621
1773.000000	51.230515
1772.000000	51.182661
1771.000000	51.124448
1770.000000	51.058579
1769.000000	50.998002
1768.000000	50.954201
1767.000000	50.908262
1766.000000	50.846784
1765.000000	50.798592
1764.000000	50.770555
1763.000000	50.744095
1762.000000	50.725967
1761.000000	50.691737
1760.000000	50.660435
1759.000000	50.648162
1758.000000	50.637578
1757.000000	50.623053
1756.000000	50.596818
1755.000000	50.587697
1754.000000	50.572834
1753.000000	50.551441
1752.000000	50.528471
1751.000000	50.481518
1750.000000	50.455846
1749.000000	50.393692
1748.000000	50.345050
1747.000000	50.275127
1746.000000	50.187527
1745.000000	50.110623
1744.000000	50.022121
1743.000000	49.921910
1742.000000	49.825639
1741.000000	49.754928
1740.000000	49.653816
1739.000000	49.581190
1738.000000	49.497418
1737.000000	49.429972
1736.000000	49.375025
1735.000000	49.309493
1734.000000	49.276727
1733.000000	49.207930
1732.000000	49.147015
1731.000000	49.113799
1730.000000	49.073602
1729.000000	49.003566
1728.000000	48.962919
1727.000000	48.946592
1726.000000	48.927113
1725.000000	48.911349
1724.000000	48.915403
1723.000000	48.996923
1722.000000	49.110083
1721.000000	49.275714
1720.000000	49.482330
1719.000000	49.728805
1718.000000	49.982825
1717.000000	50.228062
1716.000000	50.485797
1715.000000	50.730245
1714.000000	50.955890
1713.000000	51.159128
1712.000000	51.349080
1711.000000	51.509869
1710.000000	51.676851
1709.000000	51.793389
1708.000000	51.912854
1707.000000	52.016782
1706.000000	52.093460
1705.000000	52.169013
1704.000000	52.199077
1703.000000	52.237247
1702.000000	52.252785
1701.000000	52.284876
1700.000000	52.289380
1699.000000	52.278232
1698.000000	52.296361
1697.000000	52.283525
1696.000000	52.252223
1695.000000	52.200540
1694.000000	52.110913
1693.000000	52.035585
1692.000000	51.963298
1691.000000	51.891123
1690.000000	51.845071
1689.000000	51.860159
1688.000000	51.918484
1687.000000	52.024776
1686.000000	52.201216
1685.000000	52.407607
1684.000000	52.635616
1683.000000	52.885470
1682.000000	53.159419
1681.000000	53.438885
1680.000000	53.715987
1679.000000	53.945911
1678.000000	54.170655
1677.000000	54.412288
1676.000000	54.610572
1675.000000	54.834753
1674.000000	55.043621
1673.000000	55.267690
1672.000000	55.474531
1671.000000	55.670225
1670.000000	55.912647
1669.000000	56.130410
1668.000000	56.338602
1667.000000	56.540714
1666.000000	56.713664
1665.000000	56.914425
1664.000000	57.069359
1663.000000	57.223279
1662.000000	57.393526
1661.000000	57.536412
1660.000000	57.650248
1659.000000	57.763183
1658.000000	57.865984
1657.000000	57.950207
1656.000000	58.020017
1655.000000	58.069110
1654.000000	58.145563
1653.000000	58.186098
1652.000000	58.195106
1651.000000	58.213572
1650.000000	58.235641
1649.000000	58.212108
1648.000000	58.197133
1647.000000	58.195556
1646.000000	58.165155
1645.000000	58.170447
1644.000000	58.139708
1643.000000	58.128674
1642.000000	58.118652
1641.000000	58.115274
1640.000000	58.096471
1639.000000	58.073276
1638.000000	58.055035
1637.000000	58.026548
1636.000000	57.999975
1635.000000	57.964507
1634.000000	57.935231
1633.000000	57.892782
1632.000000	57.839073
1631.000000	57.794147
1630.000000	57.745505
1629.000000	57.695624
1628.000000	57.648559
1627.000000	57.581000
1626.000000	57.527517
1625.000000	57.484167
1624.000000	57.439803
1623.000000	57.393864
1622.000000	57.327431
1621.000000	57.300070
1620.000000	57.265165
1619.000000	57.212920
1618.000000	57.168332
1617.000000	57.126445
1616.000000	57.087149
1615.000000	57.037268
1614.000000	57.003940
1613.000000	56.949105
1612.000000	56.883235
1611.000000	56.821307
1610.000000	56.767710
1609.000000	56.697112
1608.000000	56.624712
1607.000000	56.536548
1606.000000	56.473043
1605.000000	56.391073
1604.000000	56.300770
1603.000000	56.204837
1602.000000	56.125005
1601.000000	56.043823
1600.000000	55.947552
1599.000000	55.870423
1598.000000	55.794307
1597.000000	55.726298
1596.000000	55.647593
1595.000000	55.573842
1594.000000	55.516755
1593.000000	55.453813
1592.000000	55.397627
1591.000000	55.351462
1590.000000	55.295501
1589.000000	55.239878
1588.000000	55.189097
1587.000000	55.137753
1586.000000	55.083481
1585.000000	55.029772
1584.000000	55.001059
1583.000000	54.946900
1582.000000	54.900960
1581.000000	54.874613
1580.000000	54.850742
1579.000000	54.819553
1578.000000	54.791516
1577.000000	54.785210
1576.000000	54.778455
1575.000000	54.775189
1574.000000	54.772712
1573.000000	54.776203
1572.000000	54.787125
1571.000000	54.807843
1570.000000	54.814598
1569.000000	54.833402
1568.000000	54.867406
1567.000000	54.893529
1566.000000	54.914134
1565.000000	54.935303
1564.000000	54.948589
1563.000000	54.960524
1562.000000	54.967956
1561.000000	54.954219
1560.000000	54.930911
1559.000000	54.902987
1558.000000	54.856710
1557.000000	54.809869
1556.000000	54.756611
1555.000000	54.687814
1554.000000	54.608658
1553.000000	54.518693
1552.000000	54.442464
1551.000000	54.356778
1550.000000	54.250486
1549.000000	54.150500
1548.000000	54.058395
1547.000000	53.970569
1546.000000	53.902223
1545.000000	53.833538
1544.000000	53.765192
1543.000000	53.702250
1542.000000	53.641898
1541.000000	53.605529
1540.000000	53.553847
1539.000000	53.498674
1538.000000	53.470863
1537.000000	53.434494
1536.000000	53.376731
1535.000000	53.322797
1534.000000	53.274043
1533.000000	53.216280
1532.000000	53.151086
1531.000000	53.090622
1530.000000	53.038151
1529.000000	52.978813
1528.000000	52.910016
1527.000000	52.840656
1526.000000	52.769269
1525.000000	52.695180
1524.000000	52.633589
1523.000000	52.568283
1522.000000	52.501175
1521.000000	52.432040
1520.000000	52.363131
1519.000000	52.291632
1518.000000	52.215178
1517.000000	52.138274
1516.000000	52.065987
1515.000000	51.978161
1514.000000	51.902383
1513.000000	51.833023
1512.000000	51.736527
1511.000000	51.656020
1510.000000	51.588687
1509.000000	51.506266
1508.000000	51.432177
1507.000000	51.348629
1506.000000	51.264182
1505.000000	51.213288
1504.000000	51.150121
1503.000000	51.078396
1502.000000	51.023674
1501.000000	50.983477
1500.000000	50.942041
1499.000000	50.894863
1498.000000	50.866826
1497.000000	50.851175
1496.000000	50.829331
1495.000000	50.824151
1494.000000	50.818184
1493.000000	50.843518
1492.000000	50.887656
1491.000000	50.890471
1490.000000	50.907473
1489.000000	50.944405
1488.000000	50.975707
1487.000000	51.005095
1486.000000	51.039663
1485.000000	51.042478
1484.000000	51.089656
1483.000000	51.119381
1482.000000	51.169149
1481.000000	51.194596
1480.000000	51.226461
1479.000000	51.284224
1478.000000	51.329826
1477.000000	51.351782
1476.000000	51.397722
1475.000000	51.476427
1474.000000	51.561438
1473.000000	51.660637
1472.000000	51.728307
1471.000000	51.823002
1470.000000	51.861735
1469.000000	51.927267
1468.000000	52.044931
1467.000000	52.153813
1466.000000	52.236571
1465.000000	52.308859
1464.000000	52.432829
1463.000000	52.508269
1462.000000	52.634941
1461.000000	52.756208
1460.000000	52.857433
1459.000000	52.972282
1458.000000	53.093324
1457.000000	53.213578
1456.000000	53.315816
1455.000000	53.426049
1454.000000	53.544389
1453.000000	53.679280
1452.000000	53.807303
1451.000000	53.937916
1450.000000	54.007726
1449.000000	54.059521
1448.000000	54.204321
1447.000000	54.360944
1446.000000	54.528714
1445.000000	54.607307
1444.000000	54.700763
1443.000000	54.824507
1442.000000	54.959624
1441.000000	55.082805
1440.000000	55.252489
1439.000000	55.376684
1438.000000	55.546706
1437.000000	55.667635
1436.000000	55.822231
1435.000000	56.026032
1434.000000	56.226230
1433.000000	56.441741
1432.000000	56.615366
1431.000000	56.762531
1430.000000	57.001913
1429.000000	57.262688
1428.000000	57.495427
1427.000000	57.704294
1426.000000	57.997047
1425.000000	58.305451
1424.000000	58.610252
1423.000000	58.887129
1422.000000	59.150494
1421.000000	59.570819
1420.000000	59.970765
1419.000000	60.306417
1418.000000	60.639255
1417.000000	60.970178
1416.000000	61.371812
1415.000000	61.906424
1414.000000	62.312450
1413.000000	62.658461
1412.000000	63.093875
1411.000000	63.597522
1410.000000	64.180438
1409.000000	64.658076
1408.000000	65.151139
1407.000000	65.631930
1406.000000	66.091439
1405.000000	66.596213
1404.000000	67.102225
1403.000000	67.510390
1402.000000	68.075628
1401.000000	68.706060
1400.000000	69.115689
1399.000000	69.375564
1398.000000	69.730808
1397.000000	70.262492
1396.000000	70.835612
1395.000000	71.188379
1394.000000	71.460302
1393.000000	71.836714
1392.000000	72.232156
1391.000000	72.548329
1390.000000	72.878689
1389.000000	73.318382
1388.000000	73.726209
1387.000000	74.033825
1386.000000	74.343918
1385.000000	74.716389
1384.000000	75.044385
1383.000000	75.373845
1382.000000	75.611312
1381.000000	75.766359
1380.000000	75.863981
1379.000000	75.995494
1378.000000	76.104939
1377.000000	76.260999
1376.000000	76.382716
1375.000000	76.472231
1374.000000	76.643041
1373.000000	76.824660
1372.000000	77.019116
1371.000000	77.169658
1370.000000	77.292840
1369.000000	77.494276
1368.000000	77.637387
1367.000000	77.713954
1366.000000	77.858078
1365.000000	78.013575
1364.000000	78.072351
1363.000000	78.229649
1362.000000	78.414196
1361.000000	78.470945
1360.000000	78.467229
1359.000000	78.529608
1358.000000	78.617434
1357.000000	78.726879
1356.000000	78.886654
1355.000000	79.052622
1354.000000	79.148893
1353.000000	79.258675
1352.000000	79.509092
1351.000000	79.722464
1350.000000	79.930656
1349.000000	80.164520
1348.000000	80.369222
1347.000000	80.535866
1346.000000	80.744284
1345.000000	80.982427
1344.000000	81.173955
1343.000000	81.333505
1342.000000	81.530325
1341.000000	81.710143
1340.000000	81.865302
1339.000000	82.013705
1338.000000	82.161095
1337.000000	82.311750
1336.000000	82.464319
1335.000000	82.579732
1334.000000	82.709218
1333.000000	82.810331
1332.000000	82.911894
1331.000000	83.028432
1330.000000	83.111078
1329.000000	83.205097
1328.000000	83.293373
1327.000000	83.356878
1326.000000	83.435133
1325.000000	83.521383
1324.000000	83.589166
1323.000000	83.644001
1322.000000	83.712573
1321.000000	83.781144
1320.000000	83.825846
1319.000000	83.869421
1318.000000	83.929773
1317.000000	83.982468
1316.000000	84.024917
1315.000000	84.076149
1314.000000	84.115671
1313.000000	84.139429
1312.000000	84.188972
1311.000000	84.235024
1310.000000	84.249887
1309.000000	84.273645
1308.000000	84.303371
1307.000000	84.319134
1306.000000	84.330281
1305.000000	84.358768
1304.000000	84.381851
1303.000000	84.377685
1302.000000	84.374419
1301.000000	84.381513
1300.000000	84.381063
1299.000000	84.371267
1298.000000	84.361808
1297.000000	84.364623
1296.000000	84.358093
1295.000000	84.339064
1294.000000	84.343005
1293.000000	84.320035
1292.000000	84.284905
1291.000000	84.258895
1290.000000	84.224890
1289.000000	84.192237
1288.000000	84.177149
1287.000000	84.144834
1286.000000	84.097543
1285.000000	84.067817
1284.000000	84.045748
1283.000000	84.000822
1282.000000	83.960399
1281.000000	83.931011
1280.000000	83.904101
1279.000000	83.874713
1278.000000	83.844199
1277.000000	83.825283
1276.000000	83.808506
1275.000000	83.794093
1274.000000	83.787337
1273.000000	83.789364
1272.000000	83.788351
1271.000000	83.802650
1270.000000	83.816838
1269.000000	83.815937
1268.000000	83.818414
1267.000000	83.817063
1266.000000	83.813798
1265.000000	83.815937
1264.000000	83.812784
1263.000000	83.791391
1262.000000	83.784185
1261.000000	83.784973
1260.000000	83.773037
1259.000000	83.758062
1258.000000	83.752432
1257.000000	83.755697
1256.000000	83.739033
1255.000000	83.698723
1254.000000	83.671925
1253.000000	83.659314
1252.000000	83.589391
1251.000000	83.546267
1250.000000	83.504943
1249.000000	83.470714
1248.000000	83.376019
1247.000000	83.311276
1246.000000	83.254527
1245.000000	83.203520
1244.000000	83.134611
1243.000000	83.059058
1242.000000	82.997693
1241.000000	82.944434
1240.000000	82.881717
1239.000000	82.815961
1238.000000	82.762927
1237.000000	82.721604
1236.000000	82.670935
1235.000000	82.627135
1234.000000	82.582547
1233.000000	82.528162
1232.000000	82.480421
1231.000000	82.441350
1230.000000	82.381786
1229.000000	82.341138
1228.000000	82.287992
1227.000000	82.242165
1226.000000	82.207373
1225.000000	82.138125
1224.000000	82.088582
1223.000000	82.033973
1222.000000	81.977336
1221.000000	81.934662
1220.000000	81.882192
1219.000000	81.835464
1218.000000	81.783444
1217.000000	81.714309
1216.000000	81.657222
1215.000000	81.578967
1214.000000	81.518277
1213.000000	81.461078
1212.000000	81.390254
1211.000000	81.321682
1210.000000	81.231717
1209.000000	81.148057
1208.000000	81.073631
1207.000000	80.975221
1206.000000	80.881540
1205.000000	80.807113
1204.000000	80.731560
1203.000000	80.636078
1202.000000	80.552418
1201.000000	80.469772
1200.000000	80.358863
1199.000000	80.287251
1198.000000	80.186477
1197.000000	80.083450
1196.000000	79.998552
1195.000000	79.898115
1194.000000	79.783491
1193.000000	79.694877
1192.000000	79.604349
1191.000000	79.508304
1190.000000	79.441871
1189.000000	79.367557
1188.000000	79.311033
1187.000000	79.304390
1186.000000	79.268359
1185.000000	79.276916
1184.000000	79.306754
1183.000000	79.343686
1182.000000	79.396382
1181.000000	79.427571
1180.000000	79.505038
1179.000000	79.578789
1178.000000	79.630246
1177.000000	79.693751
1176.000000	79.760071
1175.000000	79.843168
1174.000000	79.900818
1173.000000	79.978735
1172.000000	80.085477
1171.000000	80.165534
1170.000000	80.286013
1169.000000	80.401087
1168.000000	80.532038
1167.000000	80.659948
1166.000000	80.800695
1165.000000	80.940203
1164.000000	81.101442
1163.000000	81.220570
1162.000000	81.353773
1161.000000	81.509382
1160.000000	81.648890
1159.000000	81.765090
1158.000000	81.888722
1157.000000	82.004247
1156.000000	82.115155
1155.000000	82.217394
1154.000000	82.295761
1153.000000	82.384488
1152.000000	82.450245
1151.000000	82.503166
1150.000000	82.570048
1149.000000	82.629387
1148.000000	82.694468
1147.000000	82.736242
1146.000000	82.818325
1145.000000	82.861788
1144.000000	82.890387
1143.000000	82.967854
1142.000000	83.026968
1141.000000	83.121212
1140.000000	83.200368
1139.000000	83.278848
1138.000000	83.382888
1137.000000	83.516541
1136.000000	83.628012
1135.000000	83.752320
1134.000000	83.830462
1133.000000	83.826972
1132.000000	83.903087
1131.000000	83.967605
1130.000000	84.056445
1129.000000	84.094615
1128.000000	84.128507
1127.000000	84.165101
1126.000000	84.202934
1125.000000	84.207212
1124.000000	84.221400
1123.000000	84.217008
1122.000000	84.205186
1121.000000	84.186044
1120.000000	84.144721
1119.000000	84.118035
1118.000000	84.079865
1117.000000	84.050139
1116.000000	84.021990
1115.000000	84.011068
1114.000000	83.966817
1113.000000	83.929548
1112.000000	83.910181
1111.000000	83.880568
1110.000000	83.830124
1109.000000	83.799385
1108.000000	83.772249
1107.000000	83.733628
1106.000000	83.708632
1105.000000	83.676542
1104.000000	83.632966
1103.000000	83.617203
1102.000000	83.586914
1101.000000	83.522846
1100.000000	83.503480
1099.000000	83.478145
1098.000000	83.423085
1097.000000	83.376920
1096.000000	83.330305
1095.000000	83.299679
1094.000000	83.264210
1093.000000	83.203520
1092.000000	83.148010
1091.000000	83.120311
1090.000000	83.052865
1089.000000	83.011993
1088.000000	82.955806
1087.000000	82.908290
1086.000000	82.863589
1085.000000	82.824293
1084.000000	82.778916
1083.000000	82.722280
1082.000000	82.670372
1081.000000	82.628937
1080.000000	82.570161
1079.000000	82.514313
1078.000000	82.461955
1077.000000	82.414326
1076.000000	82.374467
1075.000000	82.312313
1074.000000	82.262545
1073.000000	82.208836
1072.000000	82.154902
1071.000000	82.114255
1070.000000	82.073720
1069.000000	82.020574
1068.000000	81.969454
1067.000000	81.920024
1066.000000	81.856407
1065.000000	81.817673
1064.000000	81.770270
1063.000000	81.697532
1062.000000	81.652155
1061.000000	81.601374
1060.000000	81.554871
1059.000000	81.508707
1058.000000	81.454322
1057.000000	81.419867
1056.000000	81.379220
1055.000000	81.327650
1054.000000	81.275067
1053.000000	81.228452
1052.000000	81.190957
1051.000000	81.156727
1050.000000	81.111463
1049.000000	81.064961
1048.000000	81.031182
1047.000000	80.990534
1046.000000	80.944932
1045.000000	80.910815
1044.000000	80.869830
1043.000000	80.819386
1042.000000	80.778063
1041.000000	80.743721
1040.000000	80.702172
1039.000000	80.647675
1038.000000	80.607253
1037.000000	80.578878
1036.000000	80.528547
1035.000000	80.478329
1034.000000	80.428448
1033.000000	80.389602
1032.000000	80.357062
1031.000000	80.322157
1030.000000	80.280496
1029.000000	80.238384
1028.000000	80.189967
1027.000000	80.150784
1026.000000	80.115090
1025.000000	80.075343
1024.000000	80.030192
1023.000000	79.989544
1022.000000	79.958017
1021.000000	79.914554
1020.000000	79.891472
1019.000000	79.850824
1018.000000	79.826053
1017.000000	79.828530
1016.000000	79.799930
1015.000000	79.782816
1014.000000	79.780902
1013.000000	79.758607
1012.000000	79.737664
1011.000000	79.720662
1010.000000	79.688910
1009.000000	79.693639
1008.000000	79.697129
1007.000000	79.659747
1006.000000	79.642970
1005.000000	79.634750
1004.000000	79.629233
1003.000000	79.619324
1002.000000	79.609078
1001.000000	79.587234
1000.000000	79.580253
999.000000	79.579352
998.000000	79.573948
997.000000	79.560436
996.000000	79.528909
995.000000	79.517762
994.000000	79.511006
993.000000	79.494567
992.000000	79.475763
991.000000	79.449077
990.000000	79.419464
989.000000	79.420478
988.000000	79.410569
987.000000	79.367332
986.000000	79.343461
985.000000	79.312610
984.000000	79.321505
983.000000	79.303940
982.000000	79.268471
981.000000	79.235818
980.000000	79.246740
979.000000	79.226473
978.000000	79.185600
977.000000	79.182109
976.000000	79.178506
975.000000	79.152271
974.000000	79.116127
973.000000	79.123784
972.000000	79.137633
971.000000	79.101602
970.000000	79.067598
969.000000	79.088541
968.000000	79.098675
967.000000	79.091694
966.000000	79.084487
965.000000	79.076831
964.000000	79.093157
963.000000	79.091581
962.000000	79.085726
961.000000	79.089667
960.000000	79.098900
959.000000	79.128513
958.000000	79.109259
957.000000	79.125473
956.000000	79.115790
955.000000	79.116578
954.000000	79.109371
953.000000	79.128063
952.000000	79.130540
951.000000	79.109597
950.000000	79.122320
949.000000	79.103179
948.000000	79.103854
947.000000	79.082010
946.000000	79.095297
945.000000	79.076493
944.000000	79.086852
943.000000	79.099576
942.000000	79.052172
941.000000	79.013776
940.000000	79.029202
939.000000	78.983375
938.000000	78.981911
937.000000	78.978533
936.000000	78.960518
935.000000	78.941264
934.000000	78.933269
933.000000	78.941602
932.000000	78.943065
931.000000	78.909962
930.000000	78.864472
929.000000	78.853213
928.000000	78.813916
927.000000	78.790721
926.000000	78.780362
925.000000	78.771242
924.000000	78.756379
923.000000	78.741066
922.000000	78.754578
921.000000	78.749623
920.000000	78.710327
919.000000	78.710552
918.000000	78.678800
917.000000	78.685555
916.000000	78.680601
915.000000	78.757955
914.000000	78.699517
913.000000	78.707287
912.000000	78.695914
911.000000	78.705598
910.000000	78.739264
909.000000	78.760207
908.000000	78.755591
907.000000	78.778673
906.000000	78.787118
905.000000	78.847020
904.000000	78.835310
903.000000	78.840039
902.000000	78.798265
901.000000	78.821010
900.000000	78.829004
899.000000	78.948695
898.000000	78.907485
897.000000	78.929666
896.000000	78.958041
895.000000	78.874381
894.000000	78.903318
893.000000	78.887780
892.000000	78.902868
891.000000	78.917731
890.000000	78.920996
889.000000	78.933607
888.000000	78.904895
887.000000	78.865486
886.000000	78.881475
885.000000	78.884515
884.000000	78.864810
883.000000	78.815493
882.000000	78.781713
881.000000	78.795338
880.000000	78.799954
879.000000	78.776984
878.000000	78.667652
877.000000	78.640967
876.000000	78.542219
875.000000	78.373323
874.000000	78.177629
873.000000	77.944553
872.000000	77.825312
871.000000	77.598879
870.000000	77.417147
869.000000	77.192178
868.000000	77.009207
867.000000	76.759467
866.000000	76.584828
865.000000	76.291625
864.000000	76.050329
863.000000	75.680109
862.000000	75.263950
861.000000	74.960050
860.000000	74.687564
859.000000	74.270392
858.000000	75.616267
857.000000	75.399600
856.000000	75.542100
855.000000	75.907100
854.000000	76.369500
853.000000	76.201000
852.000000	76.661900
851.000000	76.637900
850.000000	76.837400
849.000000	76.798000
848.000000	76.959600
847.000000	77.563100
846.000000	77.630400
845.000000	77.550000
844.000000	77.908800
843.000000	78.150600
842.000000	78.114000
841.000000	78.354100
840.000000	78.519200
839.000000	78.652700
838.000000	78.913100
837.000000	79.336100
836.000000	79.558800
835.000000	79.447100
834.000000	79.775900
833.000000	80.034300
832.000000	80.501800
831.000000	80.803500
830.000000	81.003000
829.000000	81.278900
828.000000	81.558200
827.000000	82.034900
826.000000	82.314000
825.000000	82.416000
824.000000	82.936900
823.000000	83.251900
822.000000	83.668800
821.000000	83.970900
820.000000	84.259400
819.000000	84.727900
818.000000	85.007000
817.000000	85.301700
816.000000	85.675100
815.000000	86.115900
814.000000	86.570600
813.000000	86.861700
812.000000	87.196900
811.000000	87.773900
810.000000	88.152500
809.000000	88.657600
808.000000	88.932400
807.000000	89.330500
806.000000	89.754000
805.000000	90.082000
804.000000	90.374200
803.000000	90.623500
802.000000	91.077300
801.000000	91.487900
800.000000	91.723000
799.000000	92.119100
798.000000	92.448000
797.000000	92.778000
796.000000	93.080100
795.000000	93.313000
794.000000	93.659400
793.000000	93.959900
792.000000	94.322400
791.000000	94.488000
790.000000	94.778600
789.000000	95.059400
788.000000	95.252900
787.000000	95.475800
786.000000	95.657600
785.000000	95.843100
784.000000	96.095400
783.000000	96.213500
782.000000	96.487900
781.000000	96.793300
780.000000	96.950400
779.000000	97.103200
778.000000	97.357400
777.000000	97.609200
776.000000	97.651800
775.000000	97.786400
774.000000	97.984100
773.000000	98.109900
772.000000	98.270600
771.000000	98.337400
770.000000	98.424700
769.000000	98.619900
768.000000	98.663600
767.000000	98.729100
766.000000	98.797400
765.000000	98.944000
764.000000	98.972000
763.000000	98.964400
762.000000	99.083500
761.000000	99.098100
760.000000	99.099000
759.000000	99.127100
758.000000	99.185800
757.000000	99.252700
756.000000	99.144800
755.000000	99.026200
754.000000	99.009500
753.000000	98.985600
752.000000	98.886800
751.000000	98.723400
750.000000	98.637800
749.000000	98.613800
748.000000	98.506300
747.000000	98.256200
746.000000	98.065400
745.000000	98.024300
744.000000	97.860900
743.000000	97.734200
742.000000	97.621700
741.000000	97.444600
740.000000	97.337900
739.000000	97.189200
738.000000	97.049800
737.000000	96.949800
736.000000	96.821000
735.000000	96.658600
734.000000	96.445200
733.000000	96.200700
732.000000	96.019300
731.000000	95.878000
730.000000	95.631500
729.000000	95.409900
728.000000	95.132600
727.000000	94.840200
726.000000	94.600300
725.000000	94.288800
724.000000	93.998900
723.000000	93.711600
722.000000	93.412900
721.000000	93.105800
720.000000	92.735700
719.000000	92.383800
718.000000	92.009400
717.000000	91.684800
716.000000	91.441800
715.000000	91.076700
714.000000	90.720700
713.000000	90.476700
712.000000	90.166600
711.000000	89.819300
710.000000	89.498100
709.000000	89.155600
708.000000	88.785600
707.000000	88.374500
706.000000	87.945700
705.000000	87.579600
704.000000	87.145700
703.000000	86.700500
702.000000	86.259600
701.000000	85.717500
700.000000	85.274100
699.000000	84.779500
698.000000	84.261000
697.000000	83.724200
696.000000	83.175700
695.000000	82.696800
694.000000	82.159100
693.000000	81.633100
692.000000	81.158200
691.000000	80.670300
690.000000	80.170800
689.000000	79.706100
688.000000	79.279200
687.000000	78.903200
686.000000	78.518000
685.000000	78.139000
684.000000	77.719900
683.000000	77.346100
682.000000	76.950500
681.000000	76.467000
680.000000	76.020900
679.000000	75.635300
678.000000	75.148800
677.000000	74.637800
676.000000	74.123800
675.000000	73.619600
674.000000	73.122000
673.000000	72.562600
672.000000	72.048000
671.000000	71.434400
670.000000	70.901800
669.000000	70.342800
668.000000	69.921100
667.000000	69.401400
666.000000	68.934700
665.000000	68.495400
664.000000	68.081800
663.000000	67.768900
662.000000	67.466600
661.000000	67.146200
660.000000	66.859500
659.000000	66.505700
658.000000	66.241600
657.000000	65.947700
656.000000	65.665400
655.000000	65.376800
654.000000	65.071900
653.000000	64.739400
652.000000	64.402600
651.000000	64.058400
650.000000	63.714100
649.000000	63.374700
648.000000	62.997600
647.000000	62.656200
646.000000	62.321800
645.000000	61.984400
644.000000	61.716200
643.000000	61.424900
642.000000	61.168200
641.000000	60.950200
640.000000	60.746700
639.000000	60.480200
638.000000	60.377500
637.000000	60.254900
636.000000	60.146200
635.000000	60.016300
634.000000	59.931500
633.000000	59.796200
632.000000	59.697000
631.000000	59.543900
630.000000	59.439500
629.000000	59.275600
628.000000	59.122300
627.000000	58.947100
626.000000	58.777900
625.000000	58.602000
624.000000	58.363400
623.000000	58.215400
622.000000	58.072200
621.000000	57.964700
620.000000	57.882600
619.000000	57.814000
618.000000	57.784200
617.000000	57.789200
616.000000	57.834100
615.000000	57.940100
614.000000	58.005800
613.000000	58.113700
612.000000	58.231600
611.000000	58.368200
610.000000	58.525500
609.000000	58.647600
608.000000	58.828000
607.000000	58.961900
606.000000	59.145400
605.000000	59.351600
604.000000	59.538400
603.000000	59.825800
602.000000	60.095400
601.000000	60.427700
600.000000	60.741900
599.000000	61.089200
598.000000	61.504800
597.000000	61.931400
596.000000	62.392600
595.000000	62.864200
594.000000	63.318700
593.000000	63.840300
592.000000	64.345300
591.000000	64.856100
590.000000	65.395500
589.000000	65.901500
588.000000	66.394600
587.000000	66.906000
586.000000	67.381700
585.000000	67.848500
584.000000	68.281700
583.000000	68.707400
582.000000	69.060000
581.000000	69.479200
580.000000	69.829300
579.000000	70.168200
578.000000	70.517000
577.000000	70.813000
576.000000	71.072100
575.000000	71.307000
574.000000	71.570200
573.000000	71.779400
572.000000	72.018700
571.000000	72.166800
570.000000	72.338500
569.000000	72.444200
568.000000	72.538300
567.000000	72.691300
566.000000	72.731500
565.000000	72.792700
564.000000	72.791700
563.000000	72.786200
562.000000	72.831700
561.000000	72.795500
560.000000	72.729100
559.000000	72.670200
558.000000	72.530600
557.000000	72.447100
556.000000	72.356800
555.000000	72.233500
554.000000	72.056800
553.000000	71.825600
552.000000	71.657500
551.000000	71.434500
550.000000	71.218300
549.000000	70.942600
548.000000	70.703800
547.000000	70.428600
546.000000	70.121100
545.000000	69.807300
544.000000	69.436400
543.000000	69.084300
542.000000	68.684800
541.000000	68.283000
540.000000	67.809200
539.000000	67.326700
538.000000	66.825300
537.000000	66.295900
536.000000	65.712600
535.000000	65.112200
534.000000	64.463700
533.000000	63.780200
532.000000	63.053900
531.000000	62.319000
530.000000	61.516900
529.000000	60.731600
528.000000	59.896300
527.000000	59.073700
526.000000	58.209400
525.000000	57.294200
524.000000	56.394700
523.000000	55.506500
522.000000	54.626900
521.000000	53.723600
520.000000	52.851200
519.000000	51.975500
518.000000	51.109800
517.000000	50.288500
516.000000	49.508400
515.000000	48.731300
514.000000	47.968500
513.000000	47.208700
512.000000	46.487800
511.000000	45.792000
510.000000	45.126300
509.000000	44.487900
508.000000	43.840500
507.000000	43.209400
506.000000	42.627400
505.000000	42.052400
504.000000	41.475400
503.000000	40.918200
502.000000	40.370200
501.000000	39.817200
500.000000	39.305500
499.000000	38.809800
498.000000	38.326300
497.000000	37.862900
496.000000	37.440600
495.000000	37.022500
494.000000	36.577900
493.000000	36.184900
492.000000	35.806700
491.000000	35.435800
490.000000	35.087600
489.000000	34.773400
488.000000	34.459400
487.000000	34.144000
486.000000	33.851500
485.000000	33.558600
484.000000	33.260200
483.000000	32.997800
482.000000	32.724000
481.000000	32.438100
480.000000	32.151000
479.000000	31.889500
478.000000	31.617000
477.000000	31.349500
476.000000	31.094600
475.000000	30.833200
474.000000	30.569500
473.000000	30.327300
472.000000	30.098900
471.000000	29.852400
470.000000	29.600500
469.000000	29.372400
468.000000	29.144200
467.000000	28.917100
466.000000	28.693200
465.000000	28.448500
464.000000	28.205500
463.000000	27.972800
462.000000	27.738200
461.000000	27.462900
460.000000	27.182600
459.000000	26.924200
458.000000	26.654800
457.000000	26.358300
456.000000	26.059900
455.000000	25.744000
454.000000	25.411000
453.000000	25.078000
452.000000	24.728500
451.000000	24.357600
450.000000	23.981700
449.000000	23.595500
448.000000	23.215000
447.000000	22.828600
446.000000	22.412400
445.000000	21.975700
444.000000	21.537100
443.000000	21.098700
442.000000	20.644600
441.000000	20.181300
440.000000	19.706600
439.000000	19.251500
438.000000	18.801100
437.000000	18.343500
436.000000	17.868400
435.000000	17.395300
434.000000	16.931300
433.000000	16.474200
432.000000	16.013300
431.000000	15.556300
430.000000	15.119200
429.000000	14.683900
428.000000	14.276400
427.000000	13.868300
426.000000	13.455700
425.000000	13.069800
424.000000	12.694600
423.000000	12.335800
422.000000	11.997900
421.000000	11.661400
420.000000	11.334200
419.000000	11.037200
418.000000	10.751800
417.000000	10.478600
416.000000	10.222600
415.000000	9.968100
414.000000	9.730300
413.000000	9.527200
412.000000	9.315200
411.000000	9.115900
410.000000	8.935600
409.000000	8.775600
408.000000	8.619500
407.000000	8.472800
406.000000	8.347700
405.000000	8.235300
404.000000	8.114500
403.000000	8.003600
402.000000	7.912200
401.000000	7.822700
400.000000	7.743900
399.000000	7.666900
398.000000	7.596200
397.000000	7.545000
396.000000	7.483100
395.000000	7.421300
394.000000	7.379600
393.000000	7.330000
392.000000	7.281600
391.000000	7.224900
390.000000	7.167800
389.000000	7.122900
388.000000	7.079100
387.000000	7.047500
386.000000	7.021800
385.000000	6.980800
384.000000	6.952700
383.000000	6.917600
382.000000	6.871200
381.000000	6.838400
380.000000	6.810700
379.000000	6.789600
378.000000	6.740300
377.000000	6.713400
376.000000	6.652900
375.000000	6.630100
374.000000	6.521900
373.000000	6.440500
372.000000	6.479200
371.000000	6.470900
370.000000	6.391400
369.000000	6.429900
368.000000	6.416400
367.000000	6.365200
366.000000	6.327000
365.000000	6.277000
364.000000	6.262300
363.000000	6.294300
362.000000	6.223400
361.000000	6.188900
360.000000	6.171700
359.000000	6.165600
358.000000	6.084800
357.000000	6.077600
356.000000	6.034500
355.000000	6.019000
354.000000	6.006100
353.000000	6.013100
352.000000	5.936600
351.000000	5.917700
350.000000	5.881700
349.000000	5.872900
348.000000	5.834400
347.000000	5.789000
346.000000	5.750000
345.000000	5.815800
344.000000	5.842900
343.000000	5.779000
342.000000	5.745600
341.000000	5.734400
340.000000	5.781700
339.000000	5.795600
338.000000	5.805100
337.000000	5.737500
336.000000	5.760100
335.000000	5.782900
334.000000	5.640700
333.000000	5.788600
332.000000	5.758200
331.000000	5.759100
330.000000	5.775500
329.000000	5.736100
328.000000	5.797600
327.000000	5.791700
326.000000	5.718300
325.000000	5.846300
324.000000	5.792100
323.000000	5.709100
322.000000	5.809200
321.000000	5.622800
320.000000	5.842200
319.000000	5.718000
318.000000	5.560900
317.000000	5.589400
316.000000	5.647500
315.000000	5.574700
314.000000	5.612600
313.000000	5.616200
312.000000	5.592600
311.000000	5.638900
310.000000	5.630400
309.000000	5.585200
308.000000	5.658000
307.000000	5.631600
306.000000	5.619300
305.000000	5.612400
304.000000	5.621400
303.000000	5.608800
302.000000	5.631100
301.000000	5.649500
300.000000	5.661300
299.000000	5.649000
298.000000	5.679900
297.000000	5.677300
296.000000	5.661300
295.000000	5.645800
294.000000	5.652900
293.000000	5.661700
292.000000	5.675700
291.000000	5.690300
290.000000	5.662700
289.000000	5.631600
288.000000	5.631800
287.000000	5.626700
286.000000	5.619900
285.000000	5.710100
284.000000	5.650500
283.000000	5.666400
282.000000	5.659000
281.000000	5.652300
280.000000	5.683200
279.000000	5.655400
278.000000	5.688600
277.000000	5.667500
276.000000	5.699800
275.000000	5.717100
274.000000	5.745000
273.000000	5.763100
272.000000	5.789100
271.000000	5.772100
270.000000	5.748200
269.000000	5.780400
268.000000	5.836800
267.000000	5.832300
266.000000	5.882100
265.000000	5.865200
264.000000	5.893200
263.000000	5.958700
262.000000	5.982300
261.000000	6.011400
260.000000	6.006600
259.000000	6.059600
258.000000	6.046300
257.000000	6.039200
256.000000	6.057500
255.000000	6.116800
254.000000	6.091500
253.000000	6.141000
252.000000	6.169500
251.000000	6.194400
250.000000	6.163600
