PE UV       SUBTECH     SPECTRUM    ASCII       PEDS        4.00        
   -1
CICIMAUCR0101-1.Sample.ASC
24/04/19
09:59:09.00
24/04/19
09:59:09.00
Vinicio Soto Monge
C. resplendens
250,000000
1
Lambda 1050
1050L1511233
PerkinElmer UV WinLab 6.3.2.0749 / 2.02.05 Lambda 900 UV/VIS/NIR, Aug  7 2015 09:38:08

0
0
3350/servo 860,8/2
0
0
UV/VIS
1
1
1
DoubleDePol,CommonBeamDepol,RBeamAtt,SBeamAtt,60mm sphere, WB InGaAs Detector
0
0
0
0
Program
Program
3350/servo 860,8/2
3350/0,2 860,8/0,2
3350/0,2 860,8/0,2
0
15.00
 
 
 
0
 
860,8
319,2
860,8
Front
100
on
S:100 R:100
0
0
0
0
 
0
 
 
 
0
 
 
0
0
0
0
0
 
 
 
 
0
0


0
0
#HDR
-1
-1
#GR
nm
%R
1.0
0.0
2500,000000
-1,000000
2251
8
92,662600
5,537600
#DATA
2500.000000	6.988343
2499.000000	6.973534
2498.000000	6.959864
2497.000000	6.886339
2496.000000	6.942881
2495.000000	6.937703
2494.000000	6.839738
2493.000000	6.849680
2492.000000	6.818716
2491.000000	6.851337
2490.000000	6.762485
2489.000000	6.774497
2488.000000	6.757514
2487.000000	6.679535
2486.000000	6.728829
2485.000000	6.712466
2484.000000	6.700350
2483.000000	6.763313
2482.000000	6.744776
2481.000000	6.728621
2480.000000	6.661827
2479.000000	6.644119
2478.000000	6.670629
2477.000000	6.624650
2476.000000	6.671044
2475.000000	6.653232
2474.000000	6.673529
2473.000000	6.664416
2472.000000	6.634799
2471.000000	6.683263
2470.000000	6.650643
2469.000000	6.639045
2468.000000	6.639148
2467.000000	6.648468
2466.000000	6.635627
2465.000000	6.644533
2464.000000	6.639252
2463.000000	6.660584
2462.000000	6.686784
2461.000000	6.720440
2460.000000	6.754407
2459.000000	6.767870
2458.000000	6.786303
2457.000000	6.831350
2456.000000	6.876604
2455.000000	6.911089
2454.000000	6.939567
2453.000000	6.988032
2452.000000	7.024795
2451.000000	7.064353
2450.000000	7.119135
2449.000000	7.173088
2448.000000	7.222382
2447.000000	7.240297
2446.000000	7.276749
2445.000000	7.335155
2444.000000	7.394183
2443.000000	7.434259
2442.000000	7.485106
2441.000000	7.541130
2440.000000	7.597776
2439.000000	7.614138
2438.000000	7.653697
2437.000000	7.706822
2436.000000	7.745034
2435.000000	7.764192
2434.000000	7.798987
2433.000000	7.835025
2432.000000	7.869924
2431.000000	7.892707
2430.000000	7.923774
2429.000000	7.949559
2428.000000	7.983526
2427.000000	8.008483
2426.000000	8.040172
2425.000000	8.054670
2424.000000	8.076003
2423.000000	8.084287
2422.000000	8.079731
2421.000000	8.090293
2420.000000	8.100131
2419.000000	8.107691
2418.000000	8.126746
2417.000000	8.137619
2416.000000	8.120532
2415.000000	8.133270
2414.000000	8.144868
2413.000000	8.148907
2412.000000	8.165579
2411.000000	8.186394
2410.000000	8.175314
2409.000000	8.156052
2408.000000	8.182873
2407.000000	8.200892
2406.000000	8.219740
2405.000000	8.214873
2404.000000	8.223882
2403.000000	8.241797
2402.000000	8.249771
2401.000000	8.261784
2400.000000	8.263441
2399.000000	8.271933
2398.000000	8.297097
2397.000000	8.319258
2396.000000	8.328578
2395.000000	8.338313
2394.000000	8.352811
2393.000000	8.362338
2392.000000	8.378079
2391.000000	8.375283
2390.000000	8.393819
2389.000000	8.412667
2388.000000	8.406764
2387.000000	8.408524
2386.000000	8.408731
2385.000000	8.393716
2384.000000	8.392059
2383.000000	8.384603
2382.000000	8.371140
2381.000000	8.359749
2380.000000	8.350947
2379.000000	8.335620
2378.000000	8.311491
2377.000000	8.291091
2376.000000	8.270069
2375.000000	8.262509
2374.000000	8.248943
2373.000000	8.215390
2372.000000	8.194886
2371.000000	8.165683
2370.000000	8.122189
2369.000000	8.090293
2368.000000	8.060158
2367.000000	8.015215
2366.000000	7.971410
2365.000000	7.930091
2364.000000	7.872202
2363.000000	7.819699
2362.000000	7.784075
2361.000000	7.725462
2360.000000	7.663017
2359.000000	7.616002
2358.000000	7.579343
2357.000000	7.546412
2356.000000	7.511409
2355.000000	7.490905
2354.000000	7.489973
2353.000000	7.489041
2352.000000	7.470815
2351.000000	7.477028
2350.000000	7.498568
2349.000000	7.513584
2348.000000	7.545790
2347.000000	7.593427
2346.000000	7.600676
2345.000000	7.615174
2344.000000	7.665399
2343.000000	7.689838
2342.000000	7.710550
2341.000000	7.725980
2340.000000	7.743791
2339.000000	7.765746
2338.000000	7.766367
2337.000000	7.753422
2336.000000	7.735714
2335.000000	7.697191
2334.000000	7.685178
2333.000000	7.667366
2332.000000	7.645723
2331.000000	7.604507
2330.000000	7.550243
2329.000000	7.510374
2328.000000	7.472368
2327.000000	7.412202
2326.000000	7.360112
2325.000000	7.306159
2324.000000	7.253552
2323.000000	7.180648
2322.000000	7.108883
2321.000000	7.041882
2320.000000	6.974673
2319.000000	6.907257
2318.000000	6.841188
2317.000000	6.766109
2316.000000	6.695069
2315.000000	6.635316
2314.000000	6.568004
2313.000000	6.501624
2312.000000	6.471696
2311.000000	6.416293
2310.000000	6.364722
2309.000000	6.334483
2308.000000	6.328891
2307.000000	6.325577
2306.000000	6.327545
2305.000000	6.317707
2304.000000	6.343596
2303.000000	6.377977
2302.000000	6.416915
2301.000000	6.467554
2300.000000	6.518711
2299.000000	6.559306
2298.000000	6.610256
2297.000000	6.661102
2296.000000	6.718680
2295.000000	6.757410
2294.000000	6.780814
2293.000000	6.818923
2292.000000	6.833835
2291.000000	6.854754
2290.000000	6.875465
2289.000000	6.869148
2288.000000	6.857136
2287.000000	6.835803
2286.000000	6.808775
2285.000000	6.808878
2284.000000	6.785681
2283.000000	6.746537
2282.000000	6.722822
2281.000000	6.697244
2280.000000	6.650125
2279.000000	6.635109
2278.000000	6.617298
2277.000000	6.571525
2276.000000	6.567590
2275.000000	6.560652
2274.000000	6.544393
2273.000000	6.540665
2272.000000	6.535280
2271.000000	6.537559
2270.000000	6.549053
2269.000000	6.587162
2268.000000	6.623822
2267.000000	6.675807
2266.000000	6.748815
2265.000000	6.835389
2264.000000	6.928176
2263.000000	7.029558
2262.000000	7.138604
2261.000000	7.290315
2260.000000	7.435088
2259.000000	7.573337
2258.000000	7.737474
2257.000000	7.896227
2256.000000	8.078281
2255.000000	8.273486
2254.000000	8.423229
2253.000000	8.580429
2252.000000	8.734833
2251.000000	8.880952
2250.000000	9.068390
2249.000000	9.184167
2248.000000	9.332978
2247.000000	9.446373
2246.000000	9.586900
2245.000000	9.703713
2244.000000	9.816383
2243.000000	9.895190
2242.000000	9.986217
2241.000000	10.083560
2240.000000	10.161021
2239.000000	10.231854
2238.000000	10.314389
2237.000000	10.391850
2236.000000	10.449531
2235.000000	10.502449
2234.000000	10.571935
2233.000000	10.603002
2232.000000	10.655609
2231.000000	10.686987
2230.000000	10.719401
2229.000000	10.742597
2228.000000	10.742805
2227.000000	10.769315
2226.000000	10.765173
2225.000000	10.784434
2224.000000	10.797276
2223.000000	10.790855
2222.000000	10.799243
2221.000000	10.782467
2220.000000	10.758752
2219.000000	10.759063
2218.000000	10.745808
2217.000000	10.744358
2216.000000	10.724061
2215.000000	10.680153
2214.000000	10.692579
2213.000000	10.667415
2212.000000	10.663894
2211.000000	10.659959
2210.000000	10.645979
2209.000000	10.639351
2208.000000	10.615015
2207.000000	10.610044
2206.000000	10.587055
2205.000000	10.583637
2204.000000	10.576388
2203.000000	10.573178
2202.000000	10.577838
2201.000000	10.564790
2200.000000	10.564169
2199.000000	10.564997
2198.000000	10.531030
2197.000000	10.541593
2196.000000	10.522021
2195.000000	10.527716
2194.000000	10.543146
2193.000000	10.532584
2192.000000	10.516429
2191.000000	10.522849
2190.000000	10.527509
2189.000000	10.526577
2188.000000	10.505037
2187.000000	10.502759
2186.000000	10.500585
2185.000000	10.477491
2184.000000	10.493232
2183.000000	10.469621
2182.000000	10.476352
2181.000000	10.448599
2180.000000	10.449738
2179.000000	10.461958
2178.000000	10.450049
2177.000000	10.463822
2176.000000	10.469207
2175.000000	10.472417
2174.000000	10.469725
2173.000000	10.486501
2172.000000	10.524196
2171.000000	10.519639
2170.000000	10.521814
2169.000000	10.541490
2168.000000	10.561373
2167.000000	10.582602
2166.000000	10.595236
2165.000000	10.634484
2164.000000	10.656438
2163.000000	10.667208
2162.000000	10.681499
2161.000000	10.722714
2160.000000	10.755956
2159.000000	10.766726
2158.000000	10.801625
2157.000000	10.840045
2156.000000	10.863138
2155.000000	10.892652
2154.000000	10.935110
2153.000000	10.960792
2152.000000	10.992998
2151.000000	11.026240
2150.000000	11.074601
2149.000000	11.085061
2148.000000	11.113953
2147.000000	11.158172
2146.000000	11.189757
2145.000000	11.204462
2144.000000	11.238843
2143.000000	11.257276
2142.000000	11.297974
2141.000000	11.325727
2140.000000	11.334426
2139.000000	11.360315
2138.000000	11.362076
2137.000000	11.380302
2136.000000	11.407952
2135.000000	11.405259
2134.000000	11.419964
2133.000000	11.434152
2132.000000	11.426281
2131.000000	11.431770
2130.000000	11.440883
2129.000000	11.445439
2128.000000	11.427835
2127.000000	11.411266
2126.000000	11.415511
2125.000000	11.402152
2124.000000	11.380923
2123.000000	11.368704
2122.000000	11.358348
2121.000000	11.334840
2120.000000	11.321274
2119.000000	11.303670
2118.000000	11.277366
2117.000000	11.251166
2116.000000	11.211193
2115.000000	11.190585
2114.000000	11.167285
2113.000000	11.141603
2112.000000	11.108465
2111.000000	11.080918
2110.000000	11.067870
2109.000000	11.034939
2108.000000	11.009775
2107.000000	10.986578
2106.000000	10.965038
2105.000000	10.934385
2104.000000	10.898762
2103.000000	10.883539
2102.000000	10.861067
2101.000000	10.837041
2100.000000	10.796758
2099.000000	10.764862
2098.000000	10.751918
2097.000000	10.740009
2096.000000	10.721679
2095.000000	10.705938
2094.000000	10.700035
2093.000000	10.676839
2092.000000	10.660166
2091.000000	10.650639
2090.000000	10.628788
2089.000000	10.609837
2088.000000	10.601863
2087.000000	10.593579
2086.000000	10.574007
2085.000000	10.570071
2084.000000	10.568725
2083.000000	10.568725
2082.000000	10.550706
2081.000000	10.522332
2080.000000	10.490850
2079.000000	10.472313
2078.000000	10.469414
2077.000000	10.454398
2076.000000	10.421053
2075.000000	10.403552
2074.000000	10.395060
2073.000000	10.375798
2072.000000	10.363786
2071.000000	10.346388
2070.000000	10.317910
2069.000000	10.304240
2068.000000	10.296681
2067.000000	10.289639
2066.000000	10.266442
2065.000000	10.247595
2064.000000	10.231025
2063.000000	10.237342
2062.000000	10.240967
2061.000000	10.233511
2060.000000	10.225433
2059.000000	10.231543
2058.000000	10.235064
2057.000000	10.251633
2056.000000	10.298959
2055.000000	10.334790
2054.000000	10.370724
2053.000000	10.413389
2052.000000	10.453880
2051.000000	10.511976
2050.000000	10.603106
2049.000000	10.687816
2048.000000	10.784331
2047.000000	10.883228
2046.000000	10.982539
2045.000000	11.083300
2044.000000	11.201045
2043.000000	11.322621
2042.000000	11.440779
2041.000000	11.565773
2040.000000	11.676993
2039.000000	11.791838
2038.000000	11.927601
2037.000000	12.033954
2036.000000	12.130055
2035.000000	12.237962
2034.000000	12.350114
2033.000000	12.441244
2032.000000	12.541902
2031.000000	12.649498
2030.000000	12.726648
2029.000000	12.813118
2028.000000	12.913775
2027.000000	12.992479
2026.000000	13.068075
2025.000000	13.142326
2024.000000	13.230039
2023.000000	13.316716
2022.000000	13.384753
2021.000000	13.465631
2020.000000	13.530147
2019.000000	13.614339
2018.000000	13.679062
2017.000000	13.730116
2016.000000	13.811512
2015.000000	13.863808
2014.000000	13.910616
2013.000000	13.942718
2012.000000	13.985073
2011.000000	14.040890
2010.000000	14.062120
2009.000000	14.129846
2008.000000	14.149833
2007.000000	14.166195
2006.000000	14.192705
2005.000000	14.217662
2004.000000	14.224083
2003.000000	14.221390
2002.000000	14.226465
2001.000000	14.243345
2000.000000	14.236096
1999.000000	14.224911
1998.000000	14.213106
1997.000000	14.198608
1996.000000	14.182971
1995.000000	14.159049
1994.000000	14.138131
1993.000000	14.099814
1992.000000	14.092048
1991.000000	14.052903
1990.000000	14.037680
1989.000000	13.978446
1988.000000	13.944479
1987.000000	13.903884
1986.000000	13.857077
1985.000000	13.798670
1984.000000	13.759629
1983.000000	13.721210
1982.000000	13.655658
1981.000000	13.620449
1980.000000	13.562250
1979.000000	13.513681
1978.000000	13.464078
1977.000000	13.402979
1976.000000	13.368909
1975.000000	13.295383
1974.000000	13.255617
1973.000000	13.217301
1972.000000	13.159620
1971.000000	13.103595
1970.000000	13.078120
1969.000000	13.007494
1968.000000	12.991029
1967.000000	12.917917
1966.000000	12.868624
1965.000000	12.837247
1964.000000	12.796859
1963.000000	12.747980
1962.000000	12.671555
1961.000000	12.651051
1960.000000	12.591402
1959.000000	12.559299
1958.000000	12.508971
1957.000000	12.468790
1956.000000	12.412973
1955.000000	12.375796
1954.000000	12.309520
1953.000000	12.262090
1952.000000	12.237237
1951.000000	12.190118
1950.000000	12.147763
1949.000000	12.130884
1948.000000	12.103441
1947.000000	12.073409
1946.000000	12.035508
1945.000000	12.002991
1944.000000	11.991185
1943.000000	11.985593
1942.000000	11.986836
1941.000000	11.976584
1940.000000	11.992531
1939.000000	11.995638
1938.000000	11.991185
1937.000000	12.021631
1936.000000	12.043378
1935.000000	12.066057
1934.000000	12.116593
1933.000000	12.145485
1932.000000	12.217975
1931.000000	12.292018
1930.000000	12.343486
1929.000000	12.423329
1928.000000	12.494783
1927.000000	12.589124
1926.000000	12.660682
1925.000000	12.780911
1924.000000	12.878359
1923.000000	12.988543
1922.000000	13.118922
1921.000000	13.262763
1920.000000	13.395212
1919.000000	13.543299
1918.000000	13.664564
1917.000000	13.786969
1916.000000	13.941061
1915.000000	14.126532
1914.000000	14.327536
1913.000000	14.515389
1912.000000	14.688329
1911.000000	14.863652
1910.000000	15.008528
1909.000000	15.190063
1908.000000	15.378227
1907.000000	15.603153
1906.000000	15.841955
1905.000000	16.074027
1904.000000	16.261361
1903.000000	16.469097
1902.000000	16.680146
1901.000000	16.893474
1900.000000	17.151227
1899.000000	17.385577
1898.000000	17.606154
1897.000000	17.787171
1896.000000	17.961562
1895.000000	18.174268
1894.000000	18.382728
1893.000000	18.602166
1892.000000	18.847803
1891.000000	19.066516
1890.000000	19.251572
1889.000000	19.469560
1888.000000	19.708570
1887.000000	19.961974
1886.000000	20.256594
1885.000000	20.590565
1884.000000	20.959953
1883.000000	21.343218
1882.000000	21.742534
1881.000000	22.117929
1880.000000	22.476133
1879.000000	22.847695
1878.000000	23.207038
1877.000000	23.538421
1876.000000	23.825896
1875.000000	24.112749
1874.000000	24.396392
1873.000000	24.632087
1872.000000	24.839512
1871.000000	25.026226
1870.000000	25.191089
1869.000000	25.308626
1868.000000	25.369828
1867.000000	25.401309
1866.000000	25.422021
1865.000000	25.444286
1864.000000	25.453399
1863.000000	25.472143
1862.000000	25.489540
1861.000000	25.500206
1860.000000	25.509630
1859.000000	25.491922
1858.000000	25.451224
1857.000000	25.383601
1856.000000	25.310593
1855.000000	25.262025
1854.000000	25.189225
1853.000000	25.091984
1852.000000	25.008517
1851.000000	24.930746
1850.000000	24.867783
1849.000000	24.810931
1848.000000	24.737819
1847.000000	24.631155
1846.000000	24.525320
1845.000000	24.454176
1844.000000	24.390282
1843.000000	24.400948
1842.000000	24.383033
1841.000000	24.317378
1840.000000	24.273884
1839.000000	24.221691
1838.000000	24.165252
1837.000000	24.079921
1836.000000	24.000286
1835.000000	23.917336
1834.000000	23.807152
1833.000000	23.716436
1832.000000	23.640528
1831.000000	23.548673
1830.000000	23.466345
1829.000000	23.381429
1828.000000	23.292473
1827.000000	23.221847
1826.000000	23.146250
1825.000000	23.076764
1824.000000	23.032338
1823.000000	23.037205
1822.000000	23.042901
1821.000000	23.017943
1820.000000	22.980248
1819.000000	22.940793
1818.000000	22.922567
1817.000000	22.922671
1816.000000	22.916147
1815.000000	22.906930
1814.000000	22.905687
1813.000000	22.887979
1812.000000	22.870167
1811.000000	22.838065
1810.000000	22.789600
1809.000000	22.741135
1808.000000	22.694534
1807.000000	22.653215
1806.000000	22.590045
1805.000000	22.516831
1804.000000	22.464016
1803.000000	22.423215
1802.000000	22.382724
1801.000000	22.322868
1800.000000	22.252656
1799.000000	22.206263
1798.000000	22.156659
1797.000000	22.103327
1796.000000	22.052377
1795.000000	21.990036
1794.000000	21.941674
1793.000000	21.878919
1792.000000	21.817199
1791.000000	21.741188
1790.000000	21.670976
1789.000000	21.601800
1788.000000	21.536145
1787.000000	21.459306
1786.000000	21.355645
1785.000000	21.256437
1784.000000	21.187054
1783.000000	21.096338
1782.000000	20.989467
1781.000000	20.894712
1780.000000	20.792605
1779.000000	20.684181
1778.000000	20.591704
1777.000000	20.466193
1776.000000	20.330741
1775.000000	20.177890
1774.000000	20.039227
1773.000000	19.894869
1772.000000	19.725656
1771.000000	19.594450
1770.000000	19.442014
1769.000000	19.315467
1768.000000	19.208700
1767.000000	19.099654
1766.000000	18.989987
1765.000000	18.933445
1764.000000	18.920707
1763.000000	18.911491
1762.000000	18.931684
1761.000000	18.978906
1760.000000	19.051707
1759.000000	19.120987
1758.000000	19.180946
1757.000000	19.246187
1756.000000	19.269798
1755.000000	19.302004
1754.000000	19.286057
1753.000000	19.289578
1752.000000	19.236556
1751.000000	19.179807
1750.000000	19.105764
1749.000000	19.031617
1748.000000	18.920397
1747.000000	18.798096
1746.000000	18.668546
1745.000000	18.493741
1744.000000	18.295740
1743.000000	18.072368
1742.000000	17.846820
1741.000000	17.595280
1740.000000	17.351818
1739.000000	17.127616
1738.000000	16.932308
1737.000000	16.753050
1736.000000	16.670101
1735.000000	16.609417
1734.000000	16.610349
1733.000000	16.622051
1732.000000	16.688224
1731.000000	16.797580
1730.000000	16.906419
1729.000000	17.018985
1728.000000	17.132794
1727.000000	17.226410
1726.000000	17.302214
1725.000000	17.339287
1724.000000	17.392515
1723.000000	17.412191
1722.000000	17.446572
1721.000000	17.441705
1720.000000	17.463141
1719.000000	17.493691
1718.000000	17.564938
1717.000000	17.610710
1716.000000	17.663731
1715.000000	17.720066
1714.000000	17.807054
1713.000000	17.850445
1712.000000	17.880684
1711.000000	17.925834
1710.000000	17.929873
1709.000000	17.930080
1708.000000	17.927284
1707.000000	17.900152
1706.000000	17.866496
1705.000000	17.813061
1704.000000	17.775884
1703.000000	17.666527
1702.000000	17.552200
1701.000000	17.438909
1700.000000	17.277360
1699.000000	17.145325
1698.000000	17.027166
1697.000000	16.940903
1696.000000	16.925784
1695.000000	16.930340
1694.000000	17.006248
1693.000000	17.170386
1692.000000	17.316919
1691.000000	17.458792
1690.000000	17.593209
1689.000000	17.673052
1688.000000	17.681233
1687.000000	17.665388
1686.000000	17.674916
1685.000000	17.732183
1684.000000	17.878509
1683.000000	18.154592
1682.000000	18.533818
1681.000000	19.033481
1680.000000	19.634423
1679.000000	20.143716
1678.000000	20.690912
1677.000000	21.182083
1676.000000	21.602421
1675.000000	22.062836
1674.000000	22.400329
1673.000000	22.678172
1672.000000	22.928366
1671.000000	23.126368
1670.000000	23.302104
1669.000000	23.458268
1668.000000	23.593721
1667.000000	23.736733
1666.000000	23.822685
1665.000000	23.899007
1664.000000	23.977503
1663.000000	24.032388
1662.000000	24.087481
1661.000000	24.123933
1660.000000	24.155518
1659.000000	24.187620
1658.000000	24.203050
1657.000000	24.198908
1656.000000	24.209264
1655.000000	24.200772
1654.000000	24.171880
1653.000000	24.167634
1652.000000	24.139156
1651.000000	24.089759
1650.000000	24.075779
1649.000000	24.020169
1648.000000	23.978539
1647.000000	23.922721
1646.000000	23.856859
1645.000000	23.798764
1644.000000	23.747606
1643.000000	23.700074
1642.000000	23.617539
1641.000000	23.548052
1640.000000	23.483329
1639.000000	23.409493
1638.000000	23.332135
1637.000000	23.258196
1636.000000	23.191608
1635.000000	23.118290
1634.000000	23.030577
1633.000000	22.959537
1632.000000	22.877416
1631.000000	22.793121
1630.000000	22.711725
1629.000000	22.628465
1628.000000	22.556700
1627.000000	22.469505
1626.000000	22.386970
1625.000000	22.287555
1624.000000	22.217861
1623.000000	22.134498
1622.000000	22.049270
1621.000000	21.971913
1620.000000	21.886479
1619.000000	21.811089
1618.000000	21.740360
1617.000000	21.683921
1616.000000	21.607910
1615.000000	21.516469
1614.000000	21.462827
1613.000000	21.400899
1612.000000	21.341251
1611.000000	21.279841
1610.000000	21.218535
1609.000000	21.160647
1608.000000	21.092714
1607.000000	21.038346
1606.000000	20.981286
1605.000000	20.918531
1604.000000	20.851322
1603.000000	20.785356
1602.000000	20.727364
1601.000000	20.694329
1600.000000	20.633852
1599.000000	20.577517
1598.000000	20.533091
1597.000000	20.487940
1596.000000	20.440304
1595.000000	20.394014
1594.000000	20.357665
1593.000000	20.325770
1592.000000	20.310029
1591.000000	20.288075
1590.000000	20.251830
1589.000000	20.232672
1588.000000	20.213825
1587.000000	20.182447
1586.000000	20.162978
1585.000000	20.163496
1584.000000	20.148377
1583.000000	20.130150
1582.000000	20.126422
1581.000000	20.117620
1580.000000	20.114720
1579.000000	20.120105
1578.000000	20.132222
1577.000000	20.142681
1576.000000	20.152726
1575.000000	20.165671
1574.000000	20.176233
1573.000000	20.214032
1572.000000	20.249034
1571.000000	20.266121
1570.000000	20.286936
1569.000000	20.319142
1568.000000	20.358494
1567.000000	20.385004
1566.000000	20.429016
1565.000000	20.462465
1564.000000	20.475617
1563.000000	20.498399
1562.000000	20.535369
1561.000000	20.570682
1560.000000	20.590151
1559.000000	20.615523
1558.000000	20.632299
1557.000000	20.632713
1556.000000	20.632092
1555.000000	20.633852
1554.000000	20.643379
1553.000000	20.648661
1552.000000	20.654253
1551.000000	20.659845
1550.000000	20.654046
1549.000000	20.646797
1548.000000	20.645658
1547.000000	20.646486
1546.000000	20.636337
1545.000000	20.627846
1544.000000	20.624428
1543.000000	20.630849
1542.000000	20.629088
1541.000000	20.627017
1540.000000	20.628881
1539.000000	20.641930
1538.000000	20.650628
1537.000000	20.646486
1536.000000	20.633231
1535.000000	20.635095
1534.000000	20.646175
1533.000000	20.640894
1532.000000	20.632195
1531.000000	20.630124
1530.000000	20.616455
1529.000000	20.613348
1528.000000	20.611484
1527.000000	20.589426
1526.000000	20.570475
1525.000000	20.555563
1524.000000	20.547278
1523.000000	20.552042
1522.000000	20.534748
1521.000000	20.510723
1520.000000	20.508237
1519.000000	20.481934
1518.000000	20.470128
1517.000000	20.473960
1516.000000	20.455423
1515.000000	20.445585
1514.000000	20.441339
1513.000000	20.405716
1512.000000	20.415554
1511.000000	20.397224
1510.000000	20.370403
1509.000000	20.347931
1508.000000	20.350106
1507.000000	20.328669
1506.000000	20.313032
1505.000000	20.300709
1504.000000	20.310133
1503.000000	20.300295
1502.000000	20.293667
1501.000000	20.296256
1500.000000	20.288075
1499.000000	20.286625
1498.000000	20.299881
1497.000000	20.314171
1496.000000	20.330948
1495.000000	20.357044
1494.000000	20.366571
1493.000000	20.389975
1492.000000	20.413897
1491.000000	20.427670
1490.000000	20.451074
1489.000000	20.473649
1488.000000	20.507616
1487.000000	20.538683
1486.000000	20.560741
1485.000000	20.590047
1484.000000	20.622875
1483.000000	20.676518
1482.000000	20.714627
1481.000000	20.753875
1480.000000	20.807103
1479.000000	20.862195
1478.000000	20.897508
1477.000000	20.944420
1476.000000	21.006347
1475.000000	21.050048
1474.000000	21.100584
1473.000000	21.179701
1472.000000	21.231273
1471.000000	21.277977
1470.000000	21.337212
1469.000000	21.367968
1468.000000	21.445325
1467.000000	21.488612
1466.000000	21.540805
1465.000000	21.593826
1464.000000	21.680089
1463.000000	21.750094
1462.000000	21.833250
1461.000000	21.930283
1460.000000	21.990450
1459.000000	22.104363
1458.000000	22.199635
1457.000000	22.299671
1456.000000	22.390802
1455.000000	22.499226
1454.000000	22.599883
1453.000000	22.718353
1452.000000	22.855359
1451.000000	22.961298
1450.000000	23.087741
1449.000000	23.177421
1448.000000	23.334621
1447.000000	23.480843
1446.000000	23.619299
1445.000000	23.746157
1444.000000	23.854995
1443.000000	24.007431
1442.000000	24.128904
1441.000000	24.297080
1440.000000	24.422488
1439.000000	24.566743
1438.000000	24.717833
1437.000000	24.823461
1436.000000	24.940480
1435.000000	25.079972
1434.000000	25.209315
1433.000000	25.386604
1432.000000	25.510873
1431.000000	25.655749
1430.000000	25.814295
1429.000000	26.012918
1428.000000	26.224381
1427.000000	26.399703
1426.000000	26.628047
1425.000000	26.875134
1424.000000	27.079866
1423.000000	27.293504
1422.000000	27.535932
1421.000000	27.794721
1420.000000	28.046882
1419.000000	28.258553
1418.000000	28.453240
1417.000000	28.636640
1416.000000	28.864258
1415.000000	29.141273
1414.000000	29.295470
1413.000000	29.473795
1412.000000	29.668690
1411.000000	29.916812
1410.000000	30.270874
1409.000000	30.545922
1408.000000	30.900398
1407.000000	31.245243
1406.000000	31.655639
1405.000000	32.012083
1404.000000	32.375050
1403.000000	32.742885
1402.000000	33.170265
1401.000000	33.546178
1400.000000	33.854467
1399.000000	34.020469
1398.000000	34.195584
1397.000000	34.433455
1396.000000	34.633838
1395.000000	34.721861
1394.000000	34.810506
1393.000000	34.934360
1392.000000	35.062150
1391.000000	35.175027
1390.000000	35.324046
1389.000000	35.578382
1388.000000	35.814285
1387.000000	36.101138
1386.000000	36.422475
1385.000000	36.838361
1384.000000	37.197186
1383.000000	37.553733
1382.000000	37.800095
1381.000000	37.915872
1380.000000	37.934720
1379.000000	37.965062
1378.000000	37.983391
1377.000000	38.079389
1376.000000	38.245080
1375.000000	38.495378
1374.000000	38.831420
1373.000000	39.231151
1372.000000	39.660395
1371.000000	40.096163
1370.000000	40.462030
1369.000000	40.814435
1368.000000	41.134426
1367.000000	41.388555
1366.000000	41.630568
1365.000000	41.847210
1364.000000	42.012694
1363.000000	42.214423
1362.000000	42.363131
1361.000000	42.423401
1360.000000	42.404243
1359.000000	42.515153
1358.000000	42.681983
1357.000000	42.971425
1356.000000	43.456901
1355.000000	44.107964
1354.000000	44.798794
1353.000000	45.499357
1352.000000	46.304203
1351.000000	47.026928
1350.000000	47.677059
1349.000000	48.290324
1348.000000	48.870347
1347.000000	49.342361
1346.000000	49.789934
1345.000000	50.273132
1344.000000	50.696162
1343.000000	51.088851
1342.000000	51.487753
1341.000000	51.866564
1340.000000	52.225286
1339.000000	52.566610
1338.000000	52.898304
1337.000000	53.230204
1336.000000	53.520267
1335.000000	53.804635
1334.000000	54.077508
1333.000000	54.331119
1332.000000	54.582142
1331.000000	54.813799
1330.000000	55.032615
1329.000000	55.238590
1328.000000	55.425718
1327.000000	55.609117
1326.000000	55.778640
1325.000000	55.938740
1324.000000	56.098942
1323.000000	56.241748
1322.000000	56.380928
1321.000000	56.525390
1320.000000	56.648623
1319.000000	56.744931
1318.000000	56.860087
1317.000000	56.972239
1316.000000	57.077764
1315.000000	57.166719
1314.000000	57.252258
1313.000000	57.329822
1312.000000	57.400241
1311.000000	57.468795
1310.000000	57.525752
1309.000000	57.579809
1308.000000	57.623613
1307.000000	57.650020
1306.000000	57.679741
1305.000000	57.680777
1304.000000	57.680570
1303.000000	57.692479
1302.000000	57.680777
1301.000000	57.657580
1300.000000	57.645567
1299.000000	57.618643
1298.000000	57.579602
1297.000000	57.556923
1296.000000	57.530205
1295.000000	57.488161
1294.000000	57.454401
1293.000000	57.410596
1292.000000	57.348876
1291.000000	57.283014
1290.000000	57.217877
1289.000000	57.133374
1288.000000	57.038102
1287.000000	56.938997
1286.000000	56.824774
1285.000000	56.709929
1284.000000	56.611032
1283.000000	56.503126
1282.000000	56.384242
1281.000000	56.282238
1280.000000	56.162319
1279.000000	56.042918
1278.000000	55.941743
1277.000000	55.839118
1276.000000	55.739806
1275.000000	55.651783
1274.000000	55.567384
1273.000000	55.490337
1272.000000	55.407492
1271.000000	55.325475
1270.000000	55.237140
1269.000000	55.147978
1268.000000	55.067617
1267.000000	54.988293
1266.000000	54.901719
1265.000000	54.822705
1264.000000	54.748662
1263.000000	54.679485
1262.000000	54.596536
1261.000000	54.520732
1260.000000	54.454974
1259.000000	54.386522
1258.000000	54.308026
1257.000000	54.210475
1256.000000	54.139539
1255.000000	54.060525
1254.000000	53.977058
1253.000000	53.875675
1252.000000	53.768494
1251.000000	53.672496
1250.000000	53.541704
1249.000000	53.417228
1248.000000	53.285193
1247.000000	53.126854
1246.000000	52.980114
1245.000000	52.805931
1244.000000	52.612279
1243.000000	52.393049
1242.000000	52.198154
1241.000000	51.992076
1240.000000	51.771292
1239.000000	51.535596
1238.000000	51.302696
1237.000000	51.065136
1236.000000	50.809454
1235.000000	50.579143
1234.000000	50.330502
1233.000000	50.081240
1232.000000	49.831357
1231.000000	49.568115
1230.000000	49.296485
1229.000000	49.047430
1228.000000	48.805314
1227.000000	48.551392
1226.000000	48.306583
1225.000000	48.072647
1224.000000	47.830013
1223.000000	47.590485
1222.000000	47.372291
1221.000000	47.167765
1220.000000	46.961894
1219.000000	46.776009
1218.000000	46.588571
1217.000000	46.422465
1216.000000	46.264437
1215.000000	46.130331
1214.000000	46.007408
1213.000000	45.861911
1212.000000	45.730497
1211.000000	45.611510
1210.000000	45.511681
1209.000000	45.436395
1208.000000	45.354584
1207.000000	45.307362
1206.000000	45.274638
1205.000000	45.261280
1204.000000	45.254548
1203.000000	45.257241
1202.000000	45.252581
1201.000000	45.199559
1200.000000	45.160208
1199.000000	45.047745
1198.000000	44.889717
1197.000000	44.678150
1196.000000	44.383633
1195.000000	44.013313
1194.000000	43.543889
1193.000000	42.980642
1192.000000	42.383739
1191.000000	41.772027
1190.000000	41.236741
1189.000000	40.811225
1188.000000	40.556578
1187.000000	40.444425
1186.000000	40.504281
1185.000000	40.730864
1184.000000	41.120757
1183.000000	41.655525
1182.000000	42.277593
1181.000000	42.956617
1180.000000	43.614308
1179.000000	44.171238
1178.000000	44.678460
1177.000000	45.113193
1176.000000	45.506813
1175.000000	45.904990
1174.000000	46.304514
1173.000000	46.736761
1172.000000	47.172322
1171.000000	47.642989
1170.000000	48.097397
1169.000000	48.589293
1168.000000	49.051158
1167.000000	49.606949
1166.000000	50.075441
1165.000000	50.579246
1164.000000	51.087090
1163.000000	51.613057
1162.000000	52.139127
1161.000000	52.626052
1160.000000	53.107592
1159.000000	53.587787
1158.000000	54.001187
1157.000000	54.370264
1156.000000	54.697297
1155.000000	54.885978
1154.000000	55.002584
1153.000000	55.061197
1152.000000	55.028680
1151.000000	54.996784
1150.000000	54.951012
1149.000000	54.912592
1148.000000	54.922534
1147.000000	55.003412
1146.000000	55.241179
1145.000000	55.581882
1144.000000	55.988861
1143.000000	56.466881
1142.000000	56.942104
1141.000000	57.457818
1140.000000	57.965352
1139.000000	58.503331
1138.000000	59.068027
1137.000000	59.648051
1136.000000	60.207673
1135.000000	60.757458
1134.000000	61.188980
1133.000000	61.611596
1132.000000	62.026860
1131.000000	62.395938
1130.000000	62.715515
1129.000000	62.987974
1128.000000	63.180797
1127.000000	63.348042
1126.000000	63.493022
1125.000000	63.607349
1124.000000	63.720122
1123.000000	63.815498
1122.000000	63.900001
1121.000000	63.953747
1120.000000	64.000969
1119.000000	64.045084
1118.000000	64.061343
1117.000000	64.059686
1116.000000	64.043738
1115.000000	64.021059
1114.000000	64.008839
1113.000000	63.982639
1112.000000	63.967417
1111.000000	63.918641
1110.000000	63.898448
1109.000000	63.881361
1108.000000	63.848533
1107.000000	63.810010
1106.000000	63.788470
1105.000000	63.746322
1104.000000	63.711631
1103.000000	63.679839
1102.000000	63.618326
1101.000000	63.566547
1100.000000	63.508244
1099.000000	63.454498
1098.000000	63.402098
1097.000000	63.346799
1096.000000	63.275862
1095.000000	63.206686
1094.000000	63.137924
1093.000000	63.066677
1092.000000	62.994498
1091.000000	62.936506
1090.000000	62.875614
1089.000000	62.807681
1088.000000	62.731670
1087.000000	62.649342
1086.000000	62.565357
1085.000000	62.495146
1084.000000	62.434565
1083.000000	62.368495
1082.000000	62.296109
1081.000000	62.239774
1080.000000	62.202286
1079.000000	62.146055
1078.000000	62.113848
1077.000000	62.064555
1076.000000	62.005424
1075.000000	61.968765
1074.000000	61.924442
1073.000000	61.870179
1072.000000	61.832484
1071.000000	61.798310
1070.000000	61.751295
1069.000000	61.703659
1068.000000	61.656022
1067.000000	61.600412
1066.000000	61.560232
1065.000000	61.526058
1064.000000	61.474073
1063.000000	61.409764
1062.000000	61.357467
1061.000000	61.300200
1060.000000	61.240448
1059.000000	61.165783
1058.000000	61.075585
1057.000000	61.007341
1056.000000	60.930709
1055.000000	60.858840
1054.000000	60.784590
1053.000000	60.718210
1052.000000	60.641784
1051.000000	60.567327
1050.000000	60.485724
1049.000000	60.413545
1048.000000	60.357210
1047.000000	60.285962
1046.000000	60.227245
1045.000000	60.152374
1044.000000	60.081851
1043.000000	60.027070
1042.000000	59.969388
1041.000000	59.913364
1040.000000	59.855890
1039.000000	59.784435
1038.000000	59.705318
1037.000000	59.638938
1036.000000	59.577735
1035.000000	59.504935
1034.000000	59.429338
1033.000000	59.362854
1032.000000	59.295335
1031.000000	59.219531
1030.000000	59.157915
1029.000000	59.092053
1028.000000	59.017388
1027.000000	58.936303
1026.000000	58.852525
1025.000000	58.772372
1024.000000	58.704335
1023.000000	58.639405
1022.000000	58.574578
1021.000000	58.523835
1020.000000	58.472988
1019.000000	58.424317
1018.000000	58.394596
1017.000000	58.376577
1016.000000	58.347477
1015.000000	58.344060
1014.000000	58.344785
1013.000000	58.360525
1012.000000	58.403191
1011.000000	58.437365
1010.000000	58.490282
1009.000000	58.548378
1008.000000	58.602953
1007.000000	58.657320
1006.000000	58.721008
1005.000000	58.780139
1004.000000	58.832642
1003.000000	58.870233
1002.000000	58.904821
1001.000000	58.957843
1000.000000	59.012935
999.000000	59.067924
998.000000	59.108932
997.000000	59.156776
996.000000	59.213007
995.000000	59.267271
994.000000	59.320292
993.000000	59.386051
992.000000	59.435862
991.000000	59.500689
990.000000	59.567587
989.000000	59.631482
988.000000	59.711117
987.000000	59.771905
986.000000	59.848434
985.000000	59.921441
984.000000	59.981504
983.000000	60.044260
982.000000	60.116646
981.000000	60.184062
980.000000	60.248164
979.000000	60.293729
978.000000	60.351825
977.000000	60.413959
976.000000	60.482203
975.000000	60.532739
974.000000	60.594666
973.000000	60.651726
972.000000	60.717899
971.000000	60.758700
970.000000	60.810272
969.000000	60.846724
968.000000	60.915693
967.000000	60.959498
966.000000	61.000506
965.000000	61.075896
964.000000	61.152942
963.000000	61.234442
962.000000	61.324329
961.000000	61.423951
960.000000	61.524194
959.000000	61.641317
958.000000	61.745806
957.000000	61.852781
956.000000	61.978085
955.000000	62.090134
954.000000	62.184267
953.000000	62.303358
952.000000	62.402151
951.000000	62.517928
950.000000	62.655038
949.000000	62.757456
948.000000	62.881828
947.000000	62.996983
946.000000	63.119595
945.000000	63.259500
944.000000	63.399924
943.000000	63.540451
942.000000	63.683877
941.000000	63.827511
940.000000	63.956750
939.000000	64.107219
938.000000	64.262968
937.000000	64.450303
936.000000	64.579025
935.000000	64.733635
934.000000	64.898291
933.000000	65.033537
932.000000	65.190219
931.000000	65.321840
930.000000	65.427054
929.000000	65.530196
928.000000	65.653015
927.000000	65.772416
926.000000	65.912426
925.000000	66.006145
924.000000	66.075942
923.000000	66.182295
922.000000	66.300765
921.000000	66.406704
920.000000	66.516785
919.000000	66.599941
918.000000	66.673052
917.000000	66.782098
916.000000	66.840711
915.000000	66.935466
914.000000	67.006920
913.000000	67.102089
912.000000	67.196016
911.000000	67.310136
910.000000	67.426223
909.000000	67.543139
908.000000	67.755017
907.000000	67.898340
906.000000	68.065274
905.000000	68.254680
904.000000	68.471321
903.000000	68.675121
902.000000	68.904500
901.000000	69.129634
900.000000	69.358909
899.000000	69.583835
898.000000	69.821395
897.000000	70.032030
896.000000	70.257991
895.000000	70.468730
894.000000	70.677501
893.000000	70.857173
892.000000	71.061698
891.000000	71.267984
890.000000	71.429740
889.000000	71.622356
888.000000	71.781730
887.000000	71.910245
886.000000	72.061024
885.000000	72.224126
884.000000	72.353573
883.000000	72.446670
882.000000	72.565243
881.000000	72.718922
880.000000	72.818440
879.000000	72.901390
878.000000	72.969116
877.000000	73.043677
876.000000	73.165978
875.000000	73.269121
874.000000	73.360976
873.000000	73.408301
872.000000	73.482345
871.000000	73.527806
870.000000	73.607960
869.000000	73.624839
868.000000	73.701161
867.000000	73.743309
866.000000	73.793637
865.000000	73.746415
864.000000	73.703232
863.000000	73.694844
862.000000	73.660256
861.000000	73.590769
860.000000	73.518590
859.000000	73.561877
858.000000	74.243800
857.000000	74.564400
856.000000	74.057300
855.000000	74.109700
854.000000	74.264000
853.000000	74.721700
852.000000	74.922400
851.000000	75.220700
850.000000	75.450700
849.000000	75.697700
848.000000	75.881500
847.000000	75.897800
846.000000	76.314700
845.000000	76.487400
844.000000	76.537700
843.000000	76.948700
842.000000	77.077600
841.000000	77.187800
840.000000	77.280400
839.000000	77.299000
838.000000	77.595700
837.000000	77.844100
836.000000	77.889800
835.000000	78.168200
834.000000	78.092400
833.000000	78.137900
832.000000	78.166000
831.000000	78.254200
830.000000	78.464000
829.000000	78.449500
828.000000	78.280600
827.000000	78.256100
826.000000	78.395700
825.000000	78.510300
824.000000	78.543900
823.000000	78.480500
822.000000	78.423000
821.000000	78.521400
820.000000	78.483900
819.000000	78.495400
818.000000	78.406200
817.000000	78.394900
816.000000	78.519600
815.000000	78.736000
814.000000	78.776600
813.000000	78.754600
812.000000	78.855900
811.000000	78.997200
810.000000	78.984400
809.000000	78.916200
808.000000	79.030400
807.000000	79.091400
806.000000	79.260700
805.000000	79.460900
804.000000	79.656400
803.000000	79.666000
802.000000	79.805300
801.000000	80.115200
800.000000	80.425000
799.000000	80.669700
798.000000	80.864100
797.000000	81.101900
796.000000	81.397100
795.000000	81.580100
794.000000	81.891600
793.000000	82.235800
792.000000	82.450100
791.000000	82.750100
790.000000	83.045100
789.000000	83.345700
788.000000	83.572000
787.000000	83.857900
786.000000	84.166100
785.000000	84.365700
784.000000	84.498800
783.000000	84.806600
782.000000	85.007000
781.000000	85.117700
780.000000	85.167100
779.000000	85.383500
778.000000	85.541500
777.000000	85.559100
776.000000	85.606600
775.000000	85.650400
774.000000	85.599900
773.000000	85.601500
772.000000	85.595500
771.000000	85.589100
770.000000	85.619500
769.000000	85.591100
768.000000	85.624700
767.000000	85.678800
766.000000	85.849600
765.000000	85.927400
764.000000	85.930200
763.000000	86.076100
762.000000	86.244700
761.000000	86.375100
760.000000	86.510400
759.000000	86.744300
758.000000	86.992300
757.000000	87.175400
756.000000	87.422400
755.000000	87.591600
754.000000	87.714100
753.000000	87.921500
752.000000	88.112700
751.000000	88.316700
750.000000	88.524900
749.000000	88.730900
748.000000	88.853100
747.000000	88.998900
746.000000	89.153200
745.000000	89.214300
744.000000	89.283200
743.000000	89.277700
742.000000	89.356300
741.000000	89.416900
740.000000	89.334200
739.000000	89.334300
738.000000	89.298400
737.000000	89.291300
736.000000	89.350300
735.000000	89.368400
734.000000	89.349500
733.000000	89.323000
732.000000	89.307900
731.000000	89.262100
730.000000	89.281300
729.000000	89.320400
728.000000	89.241400
727.000000	89.109300
726.000000	89.074100
725.000000	89.021800
724.000000	88.920600
723.000000	88.793900
722.000000	88.612300
721.000000	88.484400
720.000000	88.441700
719.000000	88.260900
718.000000	88.048700
717.000000	87.828600
716.000000	87.575400
715.000000	87.367500
714.000000	87.087700
713.000000	86.790000
712.000000	86.510700
711.000000	86.226000
710.000000	85.932300
709.000000	85.559200
708.000000	85.234300
707.000000	84.992300
706.000000	84.679400
705.000000	84.381300
704.000000	84.118000
703.000000	83.808400
702.000000	83.607900
701.000000	83.436200
700.000000	83.265200
699.000000	83.115600
698.000000	82.928100
697.000000	82.758400
696.000000	82.613200
695.000000	82.462500
694.000000	82.333200
693.000000	82.235300
692.000000	82.103900
691.000000	81.907400
690.000000	81.739100
689.000000	81.668200
688.000000	81.615500
687.000000	81.553100
686.000000	81.446400
685.000000	81.301500
684.000000	81.293800
683.000000	81.137400
682.000000	81.054000
681.000000	81.001700
680.000000	80.967300
679.000000	80.831700
678.000000	80.761800
677.000000	80.698100
676.000000	80.560100
675.000000	80.410100
674.000000	80.233700
673.000000	80.060500
672.000000	79.946800
671.000000	79.804300
670.000000	79.640100
669.000000	79.458400
668.000000	79.346700
667.000000	79.165100
666.000000	78.925800
665.000000	78.693600
664.000000	78.474300
663.000000	78.226700
662.000000	77.899000
661.000000	77.489600
660.000000	77.060600
659.000000	76.648800
658.000000	76.186800
657.000000	75.621500
656.000000	74.969200
655.000000	74.405800
654.000000	73.731000
653.000000	73.088000
652.000000	72.444400
651.000000	71.714600
650.000000	71.078900
649.000000	70.350700
648.000000	69.723500
647.000000	69.097800
646.000000	68.562000
645.000000	68.086100
644.000000	67.624700
643.000000	67.209400
642.000000	66.925500
641.000000	66.696600
640.000000	66.575200
639.000000	66.469700
638.000000	66.506600
637.000000	66.615900
636.000000	66.839200
635.000000	66.996000
634.000000	67.354100
633.000000	67.739100
632.000000	68.141900
631.000000	68.601800
630.000000	69.071700
629.000000	69.616800
628.000000	70.139100
627.000000	70.729000
626.000000	71.327200
625.000000	71.899100
624.000000	72.474400
623.000000	73.116500
622.000000	73.745300
621.000000	74.383000
620.000000	75.046700
619.000000	75.718200
618.000000	76.394100
617.000000	77.028200
616.000000	77.760400
615.000000	78.489800
614.000000	79.177200
613.000000	79.926700
612.000000	80.657800
611.000000	81.363000
610.000000	82.070800
609.000000	82.803600
608.000000	83.485100
607.000000	84.202300
606.000000	84.887900
605.000000	85.509700
604.000000	86.213900
603.000000	86.853800
602.000000	87.409900
601.000000	88.044600
600.000000	88.593200
599.000000	89.106500
598.000000	89.536800
597.000000	89.975300
596.000000	90.358700
595.000000	90.739900
594.000000	91.097100
593.000000	91.374000
592.000000	91.667500
591.000000	91.870100
590.000000	92.061200
589.000000	92.186200
588.000000	92.331100
587.000000	92.421700
586.000000	92.494100
585.000000	92.600200
584.000000	92.623200
583.000000	92.662600
582.000000	92.588300
581.000000	92.613800
580.000000	92.573300
579.000000	92.488600
578.000000	92.402100
577.000000	92.340100
576.000000	92.162400
575.000000	92.082400
574.000000	91.961300
573.000000	91.762300
572.000000	91.601400
571.000000	91.379900
570.000000	91.237500
569.000000	90.975400
568.000000	90.709000
567.000000	90.428900
566.000000	90.160800
565.000000	89.856600
564.000000	89.499500
563.000000	89.122000
562.000000	88.749500
561.000000	88.311700
560.000000	87.918900
559.000000	87.402800
558.000000	86.904300
557.000000	86.441700
556.000000	85.921800
555.000000	85.361500
554.000000	84.758400
553.000000	84.142600
552.000000	83.506800
551.000000	82.902500
550.000000	82.211500
549.000000	81.527700
548.000000	80.828900
547.000000	80.115600
546.000000	79.346700
545.000000	78.531500
544.000000	77.699500
543.000000	76.815400
542.000000	75.971100
541.000000	75.013300
540.000000	74.071500
539.000000	73.089700
538.000000	72.106100
537.000000	71.101300
536.000000	70.052900
535.000000	68.968100
534.000000	67.879300
533.000000	66.730500
532.000000	65.536000
531.000000	64.306300
530.000000	63.086700
529.000000	61.858300
528.000000	60.607000
527.000000	59.388700
526.000000	58.174100
525.000000	56.962000
524.000000	55.744200
523.000000	54.598500
522.000000	53.436500
521.000000	52.322000
520.000000	51.265800
519.000000	50.260400
518.000000	49.271900
517.000000	48.337400
516.000000	47.452900
515.000000	46.609400
514.000000	45.819200
513.000000	45.042600
512.000000	44.345400
511.000000	43.668800
510.000000	43.012700
509.000000	42.409000
508.000000	41.792100
507.000000	41.236800
506.000000	40.690500
505.000000	40.149800
504.000000	39.625800
503.000000	39.078500
502.000000	38.542300
501.000000	37.997900
500.000000	37.456500
499.000000	36.922200
498.000000	36.403600
497.000000	35.878700
496.000000	35.364500
495.000000	34.807100
494.000000	34.281700
493.000000	33.767700
492.000000	33.236900
491.000000	32.711000
490.000000	32.198500
489.000000	31.720700
488.000000	31.243600
487.000000	30.816100
486.000000	30.413400
485.000000	30.024500
484.000000	29.650900
483.000000	29.310800
482.000000	29.016500
481.000000	28.752200
480.000000	28.505000
479.000000	28.275900
478.000000	28.051600
477.000000	27.861700
476.000000	27.719900
475.000000	27.569400
474.000000	27.440900
473.000000	27.336800
472.000000	27.220900
471.000000	27.108100
470.000000	27.015800
469.000000	26.956900
468.000000	26.876100
467.000000	26.802700
466.000000	26.725000
465.000000	26.625400
464.000000	26.544300
463.000000	26.462400
462.000000	26.369500
461.000000	26.265100
460.000000	26.159500
459.000000	26.051500
458.000000	25.965100
457.000000	25.879400
456.000000	25.739600
455.000000	25.619100
454.000000	25.528700
453.000000	25.426000
452.000000	25.292500
451.000000	25.159100
450.000000	25.028100
449.000000	24.893100
448.000000	24.751100
447.000000	24.580300
446.000000	24.425300
445.000000	24.276800
444.000000	24.097000
443.000000	23.906700
442.000000	23.686200
441.000000	23.461500
440.000000	23.224300
439.000000	22.973400
438.000000	22.726400
437.000000	22.450500
436.000000	22.165800
435.000000	21.892000
434.000000	21.582100
433.000000	21.254700
432.000000	20.932700
431.000000	20.596200
430.000000	20.259600
429.000000	19.918100
428.000000	19.567400
427.000000	19.205300
426.000000	18.826500
425.000000	18.442900
424.000000	18.067500
423.000000	17.694400
422.000000	17.305600
421.000000	16.903000
420.000000	16.515000
419.000000	16.127800
418.000000	15.730800
417.000000	15.356500
416.000000	14.974200
415.000000	14.605500
414.000000	14.230600
413.000000	13.848800
412.000000	13.494200
411.000000	13.146500
410.000000	12.795600
409.000000	12.462900
408.000000	12.125900
407.000000	11.810300
406.000000	11.502200
405.000000	11.178400
404.000000	10.882100
403.000000	10.599400
402.000000	10.332900
401.000000	10.054600
400.000000	9.792800
399.000000	9.575000
398.000000	9.337500
397.000000	9.119500
396.000000	8.888600
395.000000	8.683800
394.000000	8.484700
393.000000	8.294900
392.000000	8.129400
391.000000	7.978800
390.000000	7.804700
389.000000	7.638800
388.000000	7.507200
387.000000	7.383200
386.000000	7.251200
385.000000	7.155200
384.000000	7.043800
383.000000	6.937000
382.000000	6.844600
381.000000	6.740500
380.000000	6.676600
379.000000	6.622300
378.000000	6.530400
377.000000	6.473400
376.000000	6.394000
375.000000	6.084900
374.000000	6.034800
373.000000	6.079800
372.000000	6.051100
371.000000	6.008100
370.000000	6.046900
369.000000	6.054800
368.000000	5.998900
367.000000	5.998500
366.000000	5.905400
365.000000	5.882500
364.000000	6.001900
363.000000	5.948700
362.000000	5.882900
361.000000	5.918800
360.000000	5.890100
359.000000	5.844200
358.000000	5.910300
357.000000	5.912400
356.000000	5.824300
355.000000	5.729200
354.000000	5.744700
353.000000	5.776000
352.000000	5.861200
351.000000	5.723200
350.000000	5.691200
349.000000	5.667700
348.000000	5.614600
347.000000	5.552500
346.000000	5.680900
345.000000	5.680300
344.000000	5.671100
343.000000	5.740600
342.000000	5.710100
341.000000	5.537600
340.000000	5.641500
339.000000	5.669200
338.000000	5.750000
337.000000	5.815400
336.000000	5.799800
335.000000	5.737900
334.000000	5.759800
333.000000	5.751100
332.000000	5.770400
331.000000	5.718900
330.000000	5.791100
329.000000	5.790900
328.000000	5.904700
327.000000	5.854000
326.000000	6.034100
325.000000	6.022100
324.000000	5.861600
323.000000	5.696400
322.000000	5.987100
321.000000	5.817700
320.000000	5.975800
319.000000	5.880200
318.000000	5.697000
317.000000	6.145600
316.000000	5.711200
315.000000	5.677000
314.000000	5.668400
313.000000	5.663200
312.000000	5.719400
311.000000	5.669800
310.000000	5.643300
309.000000	5.685800
308.000000	5.709800
307.000000	5.664300
306.000000	5.678700
305.000000	5.730200
304.000000	5.731900
303.000000	5.725000
302.000000	5.688700
301.000000	5.739800
300.000000	5.729100
299.000000	5.676300
298.000000	5.738600
297.000000	5.796600
296.000000	5.788800
295.000000	5.754000
294.000000	5.740400
293.000000	5.716800
292.000000	5.739400
291.000000	5.737300
290.000000	5.779000
289.000000	5.752700
288.000000	5.791200
287.000000	5.855600
286.000000	5.816800
285.000000	5.823000
284.000000	5.764500
283.000000	5.828600
282.000000	5.808700
281.000000	5.865100
280.000000	5.857700
279.000000	5.812700
278.000000	5.836500
277.000000	5.925500
276.000000	5.900600
275.000000	5.918100
274.000000	5.902600
273.000000	5.899300
272.000000	5.935100
271.000000	6.019800
270.000000	5.928000
269.000000	5.977100
268.000000	6.025300
267.000000	6.010000
266.000000	6.126800
265.000000	6.111800
264.000000	6.125200
263.000000	6.183300
262.000000	6.145200
261.000000	6.193200
260.000000	6.229300
259.000000	6.221500
258.000000	6.232100
257.000000	6.246600
256.000000	6.308200
255.000000	6.338100
254.000000	6.294000
253.000000	6.374800
252.000000	6.308800
251.000000	6.298700
250.000000	6.364200
