PE UV       SUBTECH     SPECTRUM    ASCII       PEDS        4.00        
   -1
CICIMAUCR0158-2.Sample.ASC
24/04/11
11:32:05.00
24/04/11
11:32:05.00
Vinicio Soto Monge
C.cupreomarginata
250,000000
1
Lambda 1050
1050L1511233
PerkinElmer UV WinLab 6.3.2.0749 / 2.02.05 Lambda 900 UV/VIS/NIR, Aug  7 2015 09:38:08

0
0
3350/2 860,8/2
0
0
UV/VIS
1
1
1
DoubleDePol,CommonBeamDepol,RBeamAtt,SBeamAtt,60mm sphere, WB InGaAs Detector
0
0
0
0
Program
Program
3350/2 860,8/2
3350/0,2 860,8/0,2
3350/0,2 860,8/0,2
0
15.00
 
 
 
0
 
860,8
319,2
860,8
Front
100
on
S:100 R:100
0
0
0
0
 
0
 
 
 
0
 
 
0
0
0
0
0
 
 
 
 
0
0


0
0
#HDR
-1
-1
#GR
nm
%R
1.0
0.0
2400,000000
-1,000000
2151
8
75,735800
5,513200
#DATA
2400.000000	25.630070
2399.000000	27.095822
2398.000000	27.258716
2397.000000	26.359805
2396.000000	26.106990
2395.000000	26.976791
2394.000000	26.206880
2393.000000	26.734842
2392.000000	26.242968
2391.000000	27.728957
2390.000000	27.299888
2389.000000	26.630366
2388.000000	26.587898
2387.000000	26.938609
2386.000000	26.525392
2385.000000	27.005502
2384.000000	26.748001
2383.000000	26.764151
2382.000000	26.925151
2381.000000	26.782294
2380.000000	26.822968
2379.000000	26.680510
2378.000000	26.300888
2377.000000	26.400579
2376.000000	26.172387
2375.000000	26.757771
2374.000000	26.771827
2373.000000	26.782095
2372.000000	27.238878
2371.000000	26.874010
2370.000000	27.161019
2369.000000	26.156636
2368.000000	26.016072
2367.000000	26.566365
2366.000000	26.207079
2365.000000	26.299493
2364.000000	27.009091
2363.000000	27.380339
2362.000000	26.740026
2361.000000	26.237983
2360.000000	26.426000
2359.000000	26.655388
2358.000000	26.795952
2357.000000	26.388815
2356.000000	26.292215
2355.000000	26.111376
2354.000000	25.959149
2353.000000	26.000520
2352.000000	26.224725
2351.000000	26.103900
2350.000000	26.471658
2349.000000	26.072298
2348.000000	26.221036
2347.000000	25.258622
2346.000000	25.876804
2345.000000	25.629173
2344.000000	25.704738
2343.000000	25.651304
2342.000000	26.160624
2341.000000	26.456904
2340.000000	26.148960
2339.000000	26.470163
2338.000000	25.672339
2337.000000	25.767244
2336.000000	26.186942
2335.000000	25.824965
2334.000000	26.232600
2333.000000	26.058939
2332.000000	25.770135
2331.000000	25.680015
2330.000000	25.499774
2329.000000	25.320431
2328.000000	25.964034
2327.000000	26.279355
2326.000000	25.819781
2325.000000	26.069207
2324.000000	26.347344
2323.000000	25.885079
2322.000000	25.858561
2321.000000	25.655890
2320.000000	25.824666
2319.000000	26.170692
2318.000000	26.240875
2317.000000	25.933030
2316.000000	25.636649
2315.000000	25.836729
2314.000000	25.791967
2313.000000	25.643528
2312.000000	25.430788
2311.000000	25.430788
2310.000000	25.521606
2309.000000	25.190035
2308.000000	25.017271
2307.000000	25.303583
2306.000000	24.992149
2305.000000	24.752493
2304.000000	25.361104
2303.000000	25.417828
2302.000000	25.204690
2301.000000	25.287234
2300.000000	25.061534
2299.000000	24.969819
2298.000000	24.899736
2297.000000	24.901132
2296.000000	24.933930
2295.000000	24.953968
2294.000000	24.933531
2293.000000	25.042094
2292.000000	24.955962
2291.000000	25.110183
2290.000000	25.113672
2289.000000	25.065322
2288.000000	25.317241
2287.000000	24.985669
2286.000000	25.012686
2285.000000	25.245264
2284.000000	25.449729
2283.000000	25.095329
2282.000000	25.121548
2281.000000	25.377952
2280.000000	25.007003
2279.000000	25.017670
2278.000000	25.614717
2277.000000	25.679915
2276.000000	25.388818
2275.000000	25.584412
2274.000000	25.758471
2273.000000	25.755182
2272.000000	25.458004
2271.000000	25.552810
2270.000000	25.792167
2269.000000	25.850785
2268.000000	25.667055
2267.000000	25.626581
2266.000000	25.897440
2265.000000	25.785189
2264.000000	25.903123
2263.000000	26.379345
2262.000000	26.322222
2261.000000	26.212861
2260.000000	26.372666
2259.000000	26.479634
2258.000000	26.581916
2257.000000	26.664959
2256.000000	26.868328
2255.000000	27.271676
2254.000000	27.411941
2253.000000	27.484815
2252.000000	27.771724
2251.000000	27.935815
2250.000000	28.004303
2249.000000	28.185241
2248.000000	28.252931
2247.000000	28.095719
2246.000000	28.395588
2245.000000	28.520800
2244.000000	28.536152
2243.000000	28.745403
2242.000000	28.761054
2241.000000	29.117548
2240.000000	29.156627
2239.000000	29.106582
2238.000000	29.304269
2237.000000	29.529071
2236.000000	29.457493
2235.000000	29.102495
2234.000000	29.391099
2233.000000	29.552897
2232.000000	29.232691
2231.000000	29.325503
2230.000000	29.264991
2229.000000	29.403860
2228.000000	29.261502
2227.000000	29.298985
2226.000000	29.140876
2225.000000	29.166098
2224.000000	28.969707
2223.000000	28.865929
2222.000000	28.804520
2221.000000	28.620889
2220.000000	28.653688
2219.000000	28.564365
2218.000000	28.443041
2217.000000	28.437658
2216.000000	28.319724
2215.000000	28.180954
2214.000000	28.068703
2213.000000	27.870219
2212.000000	27.993735
2211.000000	27.744210
2210.000000	27.773319
2209.000000	27.661765
2208.000000	27.591284
2207.000000	27.699748
2206.000000	27.485014
2205.000000	27.588593
2204.000000	27.628668
2203.000000	27.385224
2202.000000	27.272573
2201.000000	27.593876
2200.000000	27.373161
2199.000000	27.059933
2198.000000	27.064519
2197.000000	26.943893
2196.000000	26.663962
2195.000000	26.907307
2194.000000	27.156434
2193.000000	26.979582
2192.000000	27.034113
2191.000000	27.265694
2190.000000	27.314443
2189.000000	27.184148
2188.000000	27.001315
2187.000000	26.789771
2186.000000	27.059833
2185.000000	26.809311
2184.000000	26.819579
2183.000000	26.583113
2182.000000	26.596770
2181.000000	26.852477
2180.000000	26.662068
2179.000000	26.984766
2178.000000	26.955258
2177.000000	26.718991
2176.000000	26.704336
2175.000000	26.737932
2174.000000	26.393102
2173.000000	26.558090
2172.000000	26.490500
2171.000000	26.655388
2170.000000	27.137492
2169.000000	27.017166
2168.000000	26.802831
2167.000000	26.903319
2166.000000	26.824763
2165.000000	26.470063
2164.000000	26.859156
2163.000000	27.176770
2162.000000	27.050861
2161.000000	27.093030
2160.000000	27.404464
2159.000000	27.421411
2158.000000	27.263900
2157.000000	27.403766
2156.000000	27.643821
2155.000000	27.723972
2154.000000	27.905509
2153.000000	27.853770
2152.000000	28.084454
2151.000000	27.927341
2150.000000	27.996826
2149.000000	28.702835
2148.000000	28.317331
2147.000000	29.013671
2146.000000	29.143069
2145.000000	28.871312
2144.000000	28.876795
2143.000000	28.919961
2142.000000	29.350426
2141.000000	28.673725
2140.000000	29.311945
2139.000000	29.343048
2138.000000	29.630756
2137.000000	29.996820
2136.000000	29.935610
2135.000000	30.128511
2134.000000	30.140972
2133.000000	29.752179
2132.000000	30.356803
2131.000000	30.148748
2130.000000	30.315730
2129.000000	30.273461
2128.000000	30.527972
2127.000000	30.478525
2126.000000	30.312241
2125.000000	30.793248
2124.000000	30.693857
2123.000000	30.334671
2122.000000	30.768824
2121.000000	30.534053
2120.000000	30.555686
2119.000000	30.680199
2118.000000	30.455895
2117.000000	30.787167
2116.000000	30.875095
2115.000000	30.947470
2114.000000	30.949065
2113.000000	30.739715
2112.000000	30.888353
2111.000000	30.764936
2110.000000	30.801922
2109.000000	30.841200
2108.000000	30.751677
2107.000000	31.006387
2106.000000	30.739914
2105.000000	30.898921
2104.000000	30.548009
2103.000000	30.501952
2102.000000	30.866621
2101.000000	30.693558
2100.000000	30.649096
2099.000000	30.961526
2098.000000	30.580210
2097.000000	30.866820
2096.000000	30.910983
2095.000000	30.680199
2094.000000	30.624373
2093.000000	30.818969
2092.000000	30.651688
2091.000000	30.556683
2090.000000	30.594764
2089.000000	30.967607
2088.000000	30.929825
2087.000000	30.576222
2086.000000	30.501753
2085.000000	30.601643
2084.000000	30.443833
2083.000000	30.561268
2082.000000	30.570240
2081.000000	30.491186
2080.000000	30.293300
2079.000000	30.432269
2078.000000	30.320316
2077.000000	30.168587
2076.000000	30.023936
2075.000000	29.981966
2074.000000	29.861540
2073.000000	29.852268
2072.000000	29.806909
2071.000000	29.678408
2070.000000	29.459387
2069.000000	29.219133
2068.000000	29.294798
2067.000000	29.080962
2066.000000	28.988150
2065.000000	28.791659
2064.000000	28.651694
2063.000000	28.608229
2062.000000	28.475341
2061.000000	28.461384
2060.000000	28.189328
2059.000000	28.110074
2058.000000	28.086547
2057.000000	27.986259
2056.000000	27.979878
2055.000000	27.771724
2054.000000	27.771625
2053.000000	27.918868
2052.000000	27.813893
2051.000000	27.907503
2050.000000	28.043082
2049.000000	28.031817
2048.000000	28.042783
2047.000000	28.308758
2046.000000	28.467764
2045.000000	28.673426
2044.000000	28.804121
2043.000000	28.939202
2042.000000	29.004001
2041.000000	29.208267
2040.000000	29.404159
2039.000000	29.473643
2038.000000	29.485606
2037.000000	29.667542
2036.000000	29.794348
2035.000000	29.836318
2034.000000	29.965218
2033.000000	30.051351
2032.000000	30.259405
2031.000000	30.385414
2030.000000	30.357301
2029.000000	30.479522
2028.000000	30.616696
2027.000000	30.634641
2026.000000	30.695352
2025.000000	30.680000
2024.000000	30.719776
2023.000000	30.762245
2022.000000	30.889450
2021.000000	30.948367
2020.000000	30.921351
2019.000000	30.966212
2018.000000	31.068096
2017.000000	31.101293
2016.000000	31.060818
2015.000000	31.012867
2014.000000	31.053441
2013.000000	31.005689
2012.000000	30.958237
2011.000000	30.982661
2010.000000	31.022138
2009.000000	31.003995
2008.000000	30.992231
2007.000000	30.938697
2006.000000	30.845287
2005.000000	30.855954
2004.000000	30.790258
2003.000000	30.762045
2002.000000	30.747989
2001.000000	30.664149
2000.000000	30.589182
1999.000000	30.390698
1998.000000	30.267380
1997.000000	30.255019
1996.000000	30.101794
1995.000000	29.999013
1994.000000	29.897827
1993.000000	29.821265
1992.000000	29.750384
1991.000000	29.660264
1990.000000	29.604039
1989.000000	29.499862
1988.000000	29.334874
1987.000000	29.208267
1986.000000	29.115754
1985.000000	29.034406
1984.000000	28.906902
1983.000000	28.782986
1982.000000	28.656678
1981.000000	28.537448
1980.000000	28.391800
1979.000000	28.297792
1978.000000	28.204083
1977.000000	28.056740
1976.000000	27.919067
1975.000000	27.794454
1974.000000	27.682202
1973.000000	27.656582
1972.000000	27.535158
1971.000000	27.405560
1970.000000	27.304374
1969.000000	27.230005
1968.000000	27.180758
1967.000000	27.082363
1966.000000	26.940603
1965.000000	26.818881
1964.000000	26.680510
1963.000000	26.653893
1962.000000	26.571848
1961.000000	26.473154
1960.000000	26.404567
1959.000000	26.300390
1958.000000	26.155340
1957.000000	26.012084
1956.000000	25.969417
1955.000000	25.841215
1954.000000	25.742521
1953.000000	25.664463
1952.000000	25.560087
1951.000000	25.464882
1950.000000	25.393305
1949.000000	25.316244
1948.000000	25.218447
1947.000000	25.152651
1946.000000	25.081173
1945.000000	25.066219
1944.000000	24.971613
1943.000000	24.873717
1942.000000	24.880795
1941.000000	24.896446
1940.000000	24.898241
1939.000000	24.864147
1938.000000	24.768643
1937.000000	24.815896
1936.000000	24.780705
1935.000000	24.722685
1934.000000	24.848994
1933.000000	24.928547
1932.000000	24.953370
1931.000000	25.058543
1930.000000	25.114869
1929.000000	25.227120
1928.000000	25.404669
1927.000000	25.446539
1926.000000	25.471063
1925.000000	25.631964
1924.000000	25.772528
1923.000000	25.870524
1922.000000	26.089145
1921.000000	26.487609
1920.000000	26.596670
1919.000000	26.532569
1918.000000	26.743415
1917.000000	27.165904
1916.000000	27.485213
1915.000000	27.849483
1914.000000	28.165702
1913.000000	28.375551
1912.000000	28.591082
1911.000000	29.072887
1910.000000	29.260106
1909.000000	29.657672
1908.000000	30.088934
1907.000000	30.678106
1906.000000	31.177656
1905.000000	31.578811
1904.000000	32.021936
1903.000000	32.616092
1902.000000	33.117137
1901.000000	33.488884
1900.000000	34.531648
1899.000000	34.889538
1898.000000	35.423780
1897.000000	35.802804
1896.000000	36.398755
1895.000000	37.097287
1894.000000	37.731918
1893.000000	38.352891
1892.000000	38.929701
1891.000000	39.547384
1890.000000	40.281108
1889.000000	40.766801
1888.000000	41.208829
1887.000000	41.951624
1886.000000	42.433230
1885.000000	42.935471
1884.000000	43.537304
1883.000000	43.778555
1882.000000	44.322766
1881.000000	44.793904
1880.000000	45.066259
1879.000000	45.426541
1878.000000	45.964572
1877.000000	46.454950
1876.000000	46.573682
1875.000000	46.838959
1874.000000	47.432018
1873.000000	47.761496
1872.000000	47.838856
1871.000000	48.370805
1870.000000	48.069739
1869.000000	48.255064
1868.000000	48.601489
1867.000000	48.396027
1866.000000	48.288760
1865.000000	48.716034
1864.000000	48.918007
1863.000000	48.780933
1862.000000	48.935852
1861.000000	49.377083
1860.000000	49.533597
1859.000000	49.247684
1858.000000	49.318963
1857.000000	49.596003
1856.000000	49.414267
1855.000000	49.400510
1854.000000	49.882814
1853.000000	49.725103
1852.000000	49.382566
1851.000000	49.569984
1850.000000	49.684628
1849.000000	49.952099
1848.000000	50.238809
1847.000000	50.021384
1846.000000	49.449059
1845.000000	49.403800
1844.000000	49.612353
1843.000000	49.792294
1842.000000	49.974828
1841.000000	49.656615
1840.000000	49.684728
1839.000000	49.603181
1838.000000	49.607667
1837.000000	49.631693
1836.000000	49.589225
1835.000000	49.395725
1834.000000	49.211198
1833.000000	49.243996
1832.000000	49.279187
1831.000000	49.359338
1830.000000	49.277492
1829.000000	49.141813
1828.000000	49.079008
1827.000000	49.128255
1826.000000	49.090472
1825.000000	48.822005
1824.000000	48.868361
1823.000000	49.054783
1822.000000	49.185577
1821.000000	49.162648
1820.000000	49.058073
1819.000000	48.870654
1818.000000	48.918406
1817.000000	48.929173
1816.000000	48.942432
1815.000000	48.819912
1814.000000	48.799276
1813.000000	48.884511
1812.000000	48.878231
1811.000000	48.801768
1810.000000	48.713043
1809.000000	48.659011
1808.000000	48.710152
1807.000000	48.734178
1806.000000	48.700881
1805.000000	48.588330
1804.000000	48.552541
1803.000000	48.615446
1802.000000	48.622026
1801.000000	48.567694
1800.000000	48.499207
1799.000000	48.429822
1798.000000	48.408090
1797.000000	48.438396
1796.000000	48.394631
1795.000000	48.377185
1794.000000	48.360338
1793.000000	48.337708
1792.000000	48.310393
1791.000000	48.306904
1790.000000	48.303813
1789.000000	48.260049
1788.000000	48.283177
1787.000000	48.316574
1786.000000	48.314979
1785.000000	48.312087
1784.000000	48.286168
1783.000000	48.266928
1782.000000	48.287464
1781.000000	48.283377
1780.000000	48.258952
1779.000000	48.271115
1778.000000	48.233830
1777.000000	48.217880
1776.000000	48.190066
1775.000000	48.141616
1774.000000	48.095260
1773.000000	48.015707
1772.000000	47.965762
1771.000000	47.964067
1770.000000	47.935656
1769.000000	47.893885
1768.000000	47.882620
1767.000000	47.842445
1766.000000	47.813933
1765.000000	47.784624
1764.000000	47.734978
1763.000000	47.666192
1762.000000	47.655126
1761.000000	47.646652
1760.000000	47.643861
1759.000000	47.626216
1758.000000	47.640870
1757.000000	47.651737
1756.000000	47.640870
1755.000000	47.631798
1754.000000	47.612159
1753.000000	47.613954
1752.000000	47.632397
1751.000000	47.600396
1750.000000	47.555834
1749.000000	47.536793
1748.000000	47.503197
1747.000000	47.452455
1746.000000	47.389450
1745.000000	47.334920
1744.000000	47.281585
1743.000000	47.231939
1742.000000	47.155177
1741.000000	47.095562
1740.000000	47.067649
1739.000000	46.991485
1738.000000	46.914624
1737.000000	46.875047
1736.000000	46.818921
1735.000000	46.798285
1734.000000	46.810746
1733.000000	46.765985
1732.000000	46.710856
1731.000000	46.692712
1730.000000	46.660014
1729.000000	46.634194
1728.000000	46.647154
1727.000000	46.639677
1726.000000	46.606779
1725.000000	46.600598
1724.000000	46.624026
1723.000000	46.685136
1722.000000	46.762795
1721.000000	46.871358
1720.000000	47.040433
1719.000000	47.220574
1718.000000	47.426336
1717.000000	47.645556
1716.000000	47.836663
1715.000000	48.040630
1714.000000	48.233033
1713.000000	48.398320
1712.000000	48.533301
1711.000000	48.647547
1710.000000	48.754515
1709.000000	48.893683
1708.000000	49.001050
1707.000000	49.081699
1706.000000	49.107320
1705.000000	49.139022
1704.000000	49.179596
1703.000000	49.201029
1702.000000	49.266027
1701.000000	49.267323
1700.000000	49.259747
1699.000000	49.279087
1698.000000	49.266227
1697.000000	49.275996
1696.000000	49.294639
1695.000000	49.265928
1694.000000	49.210201
1693.000000	49.171919
1692.000000	49.119283
1691.000000	49.082098
1690.000000	49.082198
1689.000000	49.062359
1688.000000	49.098248
1687.000000	49.213790
1686.000000	49.353955
1685.000000	49.512263
1684.000000	49.728193
1683.000000	49.896870
1682.000000	50.118582
1681.000000	50.372195
1680.000000	50.587028
1679.000000	50.790796
1678.000000	50.974925
1677.000000	51.164038
1676.000000	51.336204
1675.000000	51.500992
1674.000000	51.679937
1673.000000	51.824189
1672.000000	52.034437
1671.000000	52.205706
1670.000000	52.372289
1669.000000	52.546747
1668.000000	52.679735
1667.000000	52.870842
1666.000000	53.013499
1665.000000	53.154362
1664.000000	53.256345
1663.000000	53.387638
1662.000000	53.517934
1661.000000	53.632977
1660.000000	53.714823
1659.000000	53.787198
1658.000000	53.865156
1657.000000	53.947301
1656.000000	53.990268
1655.000000	54.034630
1654.000000	54.080488
1653.000000	54.078993
1652.000000	54.114981
1651.000000	54.143792
1650.000000	54.126745
1649.000000	54.121860
1648.000000	54.152664
1647.000000	54.112888
1646.000000	54.104314
1645.000000	54.101024
1644.000000	54.076201
1643.000000	54.045297
1642.000000	54.065136
1641.000000	54.032338
1640.000000	54.047092
1639.000000	54.013396
1638.000000	54.024462
1637.000000	53.969134
1636.000000	53.975115
1635.000000	53.965844
1634.000000	53.919288
1633.000000	53.870141
1632.000000	53.821990
1631.000000	53.782014
1630.000000	53.746524
1629.000000	53.671557
1628.000000	53.655307
1627.000000	53.596490
1626.000000	53.569773
1625.000000	53.517834
1624.000000	53.472275
1623.000000	53.390728
1622.000000	53.340783
1621.000000	53.335699
1620.000000	53.286253
1619.000000	53.283661
1618.000000	53.254750
1617.000000	53.222052
1616.000000	53.162736
1615.000000	53.127844
1614.000000	53.084080
1613.000000	53.060055
1612.000000	53.009312
1611.000000	52.935840
1610.000000	52.903740
1609.000000	52.810230
1608.000000	52.759587
1607.000000	52.685317
1606.000000	52.641055
1605.000000	52.546249
1604.000000	52.498198
1603.000000	52.417249
1602.000000	52.319652
1601.000000	52.284162
1600.000000	52.179886
1599.000000	52.117579
1598.000000	52.032942
1597.000000	51.939831
1596.000000	51.901549
1595.000000	51.838744
1594.000000	51.778730
1593.000000	51.704361
1592.000000	51.639164
1591.000000	51.594203
1590.000000	51.531199
1589.000000	51.484045
1588.000000	51.429016
1587.000000	51.390336
1586.000000	51.332316
1585.000000	51.275492
1584.000000	51.211192
1583.000000	51.162941
1582.000000	51.121869
1581.000000	51.110803
1580.000000	51.053381
1579.000000	51.015798
1578.000000	50.994464
1577.000000	50.980507
1576.000000	50.965155
1575.000000	50.921690
1574.000000	50.907634
1573.000000	50.924780
1572.000000	50.911222
1571.000000	50.930463
1570.000000	50.906338
1569.000000	50.939634
1568.000000	50.943821
1567.000000	50.971735
1566.000000	50.974426
1565.000000	50.950999
1564.000000	50.941229
1563.000000	50.978813
1562.000000	50.974626
1561.000000	50.967249
1560.000000	50.936145
1559.000000	50.899060
1558.000000	50.858685
1557.000000	50.851209
1556.000000	50.765774
1555.000000	50.710944
1554.000000	50.667877
1553.000000	50.603178
1552.000000	50.502690
1551.000000	50.440483
1550.000000	50.355646
1549.000000	50.261538
1548.000000	50.182982
1547.000000	50.118083
1546.000000	50.049895
1545.000000	49.962466
1544.000000	49.917306
1543.000000	49.853604
1542.000000	49.822501
1541.000000	49.770761
1540.000000	49.722012
1539.000000	49.690909
1538.000000	49.643855
1537.000000	49.588826
1536.000000	49.573174
1535.000000	49.514357
1534.000000	49.456138
1533.000000	49.406890
1532.000000	49.373693
1531.000000	49.314178
1530.000000	49.253466
1529.000000	49.191957
1528.000000	49.119781
1527.000000	49.083294
1526.000000	49.024975
1525.000000	48.962569
1524.000000	48.896075
1523.000000	48.838055
1522.000000	48.779138
1521.000000	48.705866
1520.000000	48.672669
1519.000000	48.617141
1518.000000	48.521039
1517.000000	48.465312
1516.000000	48.421947
1515.000000	48.346381
1514.000000	48.285769
1513.000000	48.223562
1512.000000	48.149592
1511.000000	48.083497
1510.000000	48.010424
1509.000000	47.950509
1508.000000	47.885711
1507.000000	47.824700
1506.000000	47.765783
1505.000000	47.708859
1504.000000	47.657419
1503.000000	47.601792
1502.000000	47.552146
1501.000000	47.518151
1500.000000	47.483060
1499.000000	47.438997
1498.000000	47.411482
1497.000000	47.400117
1496.000000	47.383569
1495.000000	47.376790
1494.000000	47.387556
1493.000000	47.396030
1492.000000	47.413576
1491.000000	47.442685
1490.000000	47.485253
1489.000000	47.519048
1488.000000	47.536095
1487.000000	47.562015
1486.000000	47.587137
1485.000000	47.618141
1484.000000	47.649543
1483.000000	47.681644
1482.000000	47.741957
1481.000000	47.786219
1480.000000	47.814232
1479.000000	47.837959
1478.000000	47.883418
1477.000000	47.929973
1476.000000	47.944229
1475.000000	47.989688
1474.000000	48.057577
1473.000000	48.135834
1472.000000	48.206515
1471.000000	48.267326
1470.000000	48.317570
1469.000000	48.350867
1468.000000	48.401111
1467.000000	48.489238
1466.000000	48.569389
1465.000000	48.634288
1464.000000	48.715735
1463.000000	48.786017
1462.000000	48.868062
1461.000000	48.960775
1460.000000	49.038434
1459.000000	49.120978
1458.000000	49.218475
1457.000000	49.326340
1456.000000	49.412573
1455.000000	49.483353
1454.000000	49.574869
1453.000000	49.679843
1452.000000	49.785117
1451.000000	49.906341
1450.000000	49.974230
1449.000000	50.021583
1448.000000	50.113697
1447.000000	50.239806
1446.000000	50.359933
1445.000000	50.409479
1444.000000	50.462614
1443.000000	50.580648
1442.000000	50.700078
1441.000000	50.790796
1440.000000	50.904443
1439.000000	51.028060
1438.000000	51.141009
1437.000000	51.225049
1436.000000	51.330621
1435.000000	51.481254
1434.000000	51.616633
1433.000000	51.787005
1432.000000	51.955183
1431.000000	52.028954
1430.000000	52.173904
1429.000000	52.383155
1428.000000	52.570075
1427.000000	52.723100
1426.000000	52.907428
1425.000000	53.143097
1424.000000	53.402193
1423.000000	53.607157
1422.000000	53.819000
1421.000000	54.090457
1420.000000	54.404283
1419.000000	54.664675
1418.000000	54.877515
1417.000000	55.118766
1416.000000	55.483634
1415.000000	55.896653
1414.000000	56.192235
1413.000000	56.444951
1412.000000	56.761967
1411.000000	57.198513
1410.000000	57.679520
1409.000000	58.031428
1408.000000	58.402577
1407.000000	58.827259
1406.000000	59.183952
1405.000000	59.616909
1404.000000	59.932430
1403.000000	60.267091
1402.000000	60.850979
1401.000000	61.407752
1400.000000	61.600852
1399.000000	61.712406
1398.000000	62.109574
1397.000000	62.685287
1396.000000	63.125422
1395.000000	63.287519
1394.000000	63.497766
1393.000000	63.926636
1392.000000	64.181146
1391.000000	64.362483
1390.000000	64.759750
1389.000000	65.160208
1388.000000	65.500851
1387.000000	65.697740
1386.000000	66.025622
1385.000000	66.375636
1384.000000	66.708404
1383.000000	67.070380
1382.000000	67.089720
1381.000000	67.180838
1380.000000	67.259793
1379.000000	67.346922
1378.000000	67.460470
1377.000000	67.586977
1376.000000	67.754657
1375.000000	67.882461
1374.000000	67.987335
1373.000000	68.174754
1372.000000	68.388391
1371.000000	68.476118
1370.000000	68.532045
1369.000000	68.759838
1368.000000	68.905087
1367.000000	68.870395
1366.000000	69.045153
1365.000000	69.255400
1364.000000	69.142451
1363.000000	69.390282
1362.000000	69.627346
1361.000000	69.461461
1360.000000	69.474819
1359.000000	69.494558
1358.000000	69.559955
1357.000000	69.689453
1356.000000	69.871090
1355.000000	70.009460
1354.000000	69.975566
1353.000000	70.080241
1352.000000	70.277828
1351.000000	70.388584
1350.000000	70.538718
1349.000000	70.747770
1348.000000	70.951138
1347.000000	71.009358
1346.000000	71.142644
1345.000000	71.319296
1344.000000	71.480296
1343.000000	71.612088
1342.000000	71.750259
1341.000000	71.911558
1340.000000	72.007560
1339.000000	72.107849
1338.000000	72.261672
1337.000000	72.372727
1336.000000	72.476505
1335.000000	72.569716
1334.000000	72.656148
1333.000000	72.786344
1332.000000	72.849348
1331.000000	72.921026
1330.000000	72.984629
1329.000000	73.077141
1328.000000	73.152009
1327.000000	73.209830
1326.000000	73.289682
1325.000000	73.349596
1324.000000	73.413398
1323.000000	73.467729
1322.000000	73.502920
1321.000000	73.558249
1320.000000	73.614773
1319.000000	73.646774
1318.000000	73.683859
1317.000000	73.724134
1316.000000	73.757231
1315.000000	73.816248
1314.000000	73.850143
1313.000000	73.884835
1312.000000	73.916038
1311.000000	73.942157
1310.000000	73.955416
1309.000000	73.996190
1308.000000	74.037462
1307.000000	74.030284
1306.000000	74.043941
1305.000000	74.096877
1304.000000	74.107046
1303.000000	74.094983
1302.000000	74.089799
1301.000000	74.102659
1300.000000	74.112927
1299.000000	74.120604
1298.000000	74.120105
1297.000000	74.115719
1296.000000	74.123096
1295.000000	74.112927
1294.000000	74.096080
1293.000000	74.098173
1292.000000	74.090696
1291.000000	74.067568
1290.000000	74.054509
1289.000000	74.047730
1288.000000	74.028888
1287.000000	73.995592
1286.000000	73.983629
1285.000000	73.946045
1284.000000	73.938469
1283.000000	73.917035
1282.000000	73.893608
1281.000000	73.859314
1280.000000	73.833694
1279.000000	73.841569
1278.000000	73.817544
1277.000000	73.794815
1276.000000	73.792621
1275.000000	73.793917
1274.000000	73.796908
1273.000000	73.785643
1272.000000	73.778964
1271.000000	73.779263
1270.000000	73.781356
1269.000000	73.802491
1268.000000	73.810665
1267.000000	73.818740
1266.000000	73.819438
1265.000000	73.831202
1264.000000	73.822429
1263.000000	73.832996
1262.000000	73.838080
1261.000000	73.845158
1260.000000	73.844062
1259.000000	73.842766
1258.000000	73.839277
1257.000000	73.845158
1256.000000	73.841270
1255.000000	73.835987
1254.000000	73.817544
1253.000000	73.816846
1252.000000	73.800497
1251.000000	73.759923
1250.000000	73.740284
1249.000000	73.715860
1248.000000	73.689142
1247.000000	73.657341
1246.000000	73.617565
1245.000000	73.578585
1244.000000	73.541800
1243.000000	73.499232
1242.000000	73.466733
1241.000000	73.457860
1240.000000	73.418482
1239.000000	73.391666
1238.000000	73.353285
1237.000000	73.328462
1236.000000	73.322879
1235.000000	73.289582
1234.000000	73.270143
1233.000000	73.250105
1232.000000	73.221892
1231.000000	73.198465
1230.000000	73.178427
1229.000000	73.159586
1228.000000	73.140246
1227.000000	73.115323
1226.000000	73.084020
1225.000000	73.053515
1224.000000	73.023309
1223.000000	72.990311
1222.000000	72.962896
1221.000000	72.937475
1220.000000	72.895605
1219.000000	72.869286
1218.000000	72.852439
1217.000000	72.826419
1216.000000	72.787042
1215.000000	72.738692
1214.000000	72.697220
1213.000000	72.667213
1212.000000	72.626041
1211.000000	72.583274
1210.000000	72.522961
1209.000000	72.464443
1208.000000	72.416093
1207.000000	72.374621
1206.000000	72.316801
1205.000000	72.265261
1204.000000	72.232562
1203.000000	72.182916
1202.000000	72.117419
1201.000000	72.060396
1200.000000	72.007560
1199.000000	71.938176
1198.000000	71.868891
1197.000000	71.808777
1196.000000	71.757237
1195.000000	71.697423
1194.000000	71.620462
1193.000000	71.558055
1192.000000	71.501232
1191.000000	71.432644
1190.000000	71.369939
1189.000000	71.329465
1188.000000	71.295570
1187.000000	71.280417
1186.000000	71.293476
1185.000000	71.307931
1184.000000	71.316006
1183.000000	71.333552
1182.000000	71.381603
1181.000000	71.417790
1180.000000	71.479100
1179.000000	71.538416
1178.000000	71.582778
1177.000000	71.626642
1176.000000	71.676986
1175.000000	71.751555
1174.000000	71.812964
1173.000000	71.874473
1172.000000	71.940867
1171.000000	71.998987
1170.000000	72.078141
1169.000000	72.168062
1168.000000	72.254993
1167.000000	72.349400
1166.000000	72.472817
1165.000000	72.586364
1164.000000	72.672996
1163.000000	72.788138
1162.000000	72.904378
1161.000000	72.998087
1160.000000	73.106351
1159.000000	73.221793
1158.000000	73.332549
1157.000000	73.439118
1156.000000	73.499830
1155.000000	73.575296
1154.000000	73.648070
1153.000000	73.739885
1152.000000	73.787537
1151.000000	73.831002
1150.000000	73.883340
1149.000000	73.916736
1148.000000	73.974756
1147.000000	74.044440
1146.000000	74.105351
1145.000000	74.163670
1144.000000	74.191882
1143.000000	74.197764
1142.000000	74.297455
1141.000000	74.369531
1140.000000	74.421470
1139.000000	74.511092
1138.000000	74.611082
1137.000000	74.696018
1136.000000	74.844856
1135.000000	75.001470
1134.000000	74.990106
1133.000000	74.980336
1132.000000	75.056799
1131.000000	75.131965
1130.000000	75.220590
1129.000000	75.280804
1128.000000	75.324966
1127.000000	75.333340
1126.000000	75.416682
1125.000000	75.428744
1124.000000	75.466727
1123.000000	75.501519
1122.000000	75.468720
1121.000000	75.455262
1120.000000	75.463237
1119.000000	75.465231
1118.000000	75.436819
1117.000000	75.428645
1116.000000	75.448782
1115.000000	75.397242
1114.000000	75.386775
1113.000000	75.363547
1112.000000	75.365840
1111.000000	75.342811
1110.000000	75.332144
1109.000000	75.315596
1108.000000	75.319384
1107.000000	75.316493
1106.000000	75.294162
1105.000000	75.255083
1104.000000	75.240927
1103.000000	75.198459
1102.000000	75.237039
1101.000000	75.189985
1100.000000	75.177026
1099.000000	75.143131
1098.000000	75.133162
1097.000000	75.083615
1096.000000	75.075441
1095.000000	75.068861
1094.000000	75.027689
1093.000000	75.017321
1092.000000	74.941058
1091.000000	74.964784
1090.000000	74.932185
1089.000000	74.884733
1088.000000	74.858614
1087.000000	74.794413
1086.000000	74.760119
1085.000000	74.675083
1084.000000	74.636902
1083.000000	74.625038
1082.000000	74.599617
1081.000000	74.570009
1080.000000	74.465334
1079.000000	74.435526
1078.000000	74.396647
1077.000000	74.319686
1076.000000	74.312109
1075.000000	74.247011
1074.000000	74.193677
1073.000000	74.121800
1072.000000	74.090796
1071.000000	74.040153
1070.000000	73.985922
1069.000000	73.937671
1068.000000	73.838878
1067.000000	73.808871
1066.000000	73.772683
1065.000000	73.664519
1064.000000	73.663821
1063.000000	73.569115
1062.000000	73.532429
1061.000000	73.462346
1060.000000	73.433137
1059.000000	73.373921
1058.000000	73.245120
1057.000000	73.197468
1056.000000	73.132470
1055.000000	73.117716
1054.000000	73.095285
1053.000000	73.020318
1052.000000	72.956815
1051.000000	72.882844
1050.000000	72.821236
1049.000000	72.815354
1048.000000	72.689544
1047.000000	72.680871
1046.000000	72.656846
1045.000000	72.584869
1044.000000	72.532133
1043.000000	72.444505
1042.000000	72.417688
1041.000000	72.366447
1040.000000	72.307430
1039.000000	72.261971
1038.000000	72.260575
1037.000000	72.221497
1036.000000	72.193384
1035.000000	72.080135
1034.000000	72.035573
1033.000000	71.969379
1032.000000	71.920032
1031.000000	71.906873
1030.000000	71.878760
1029.000000	71.784253
1028.000000	71.784353
1027.000000	71.672699
1026.000000	71.633920
1025.000000	71.576498
1024.000000	71.536024
1023.000000	71.490066
1022.000000	71.440321
1021.000000	71.401641
1020.000000	71.384693
1019.000000	71.302648
1018.000000	71.298560
1017.000000	71.244030
1016.000000	71.131080
1015.000000	71.108650
1014.000000	71.073858
1013.000000	71.032885
1012.000000	70.997993
1011.000000	70.973868
1010.000000	70.925518
1009.000000	70.867398
1008.000000	70.853840
1007.000000	70.749664
1006.000000	70.721052
1005.000000	70.700915
1004.000000	70.647381
1003.000000	70.566931
1002.000000	70.545397
1001.000000	70.508013
1000.000000	70.475813
999.000000	70.403438
998.000000	70.363960
997.000000	70.260681
996.000000	70.245129
995.000000	70.219309
994.000000	70.141252
993.000000	70.057113
992.000000	70.033087
991.000000	69.990719
990.000000	69.862018
989.000000	69.796023
988.000000	69.748072
987.000000	69.712482
986.000000	69.672705
985.000000	69.666325
984.000000	69.598037
983.000000	69.520478
982.000000	69.418395
981.000000	69.368450
980.000000	69.304149
979.000000	69.259089
978.000000	69.133578
977.000000	69.095895
976.000000	69.052729
975.000000	68.984940
974.000000	68.932203
973.000000	68.871791
972.000000	68.722753
971.000000	68.693643
970.000000	68.658752
969.000000	68.554376
968.000000	68.461863
967.000000	68.403045
966.000000	68.376228
965.000000	68.357487
964.000000	68.363867
963.000000	68.197682
962.000000	68.189209
961.000000	68.111350
960.000000	68.035585
959.000000	68.023423
958.000000	67.985242
957.000000	67.948855
956.000000	67.974276
955.000000	67.980855
954.000000	67.905988
953.000000	67.854049
952.000000	67.922038
951.000000	67.939982
950.000000	67.828229
949.000000	67.837301
948.000000	67.793138
947.000000	67.720962
946.000000	67.656163
945.000000	67.524272
944.000000	67.558665
943.000000	67.590865
942.000000	67.539923
941.000000	67.523574
940.000000	67.476321
939.000000	67.478414
938.000000	67.406936
937.000000	67.389889
936.000000	67.427771
935.000000	67.319208
934.000000	67.346324
933.000000	67.384506
932.000000	67.304255
931.000000	67.286310
930.000000	67.264678
929.000000	67.266871
928.000000	67.247132
927.000000	67.148737
926.000000	67.054430
925.000000	66.994715
924.000000	66.955238
923.000000	66.910178
922.000000	66.887348
921.000000	66.805702
920.000000	66.835410
919.000000	66.885056
918.000000	66.755956
917.000000	66.674908
916.000000	66.720267
915.000000	66.439837
914.000000	66.197988
913.000000	66.197688
912.000000	66.293292
911.000000	66.431563
910.000000	66.482804
909.000000	66.412223
908.000000	66.353306
907.000000	66.352907
906.000000	66.375337
905.000000	66.447414
904.000000	66.327087
903.000000	66.403649
902.000000	66.597847
901.000000	66.713787
900.000000	66.487090
899.000000	66.443924
898.000000	66.680291
897.000000	66.709301
896.000000	66.630745
895.000000	66.747283
894.000000	67.131790
893.000000	66.921343
892.000000	67.063003
891.000000	67.241151
890.000000	67.452894
889.000000	67.441130
888.000000	67.502240
887.000000	67.355595
886.000000	67.274248
885.000000	67.977765
884.000000	68.039473
883.000000	67.736015
882.000000	67.847569
881.000000	68.143451
880.000000	68.369749
879.000000	68.419494
878.000000	68.211240
877.000000	68.486885
876.000000	68.589766
875.000000	68.367157
874.000000	68.798418
873.000000	69.124806
872.000000	68.434049
871.000000	68.815366
870.000000	68.949250
869.000000	69.347116
868.000000	68.679687
867.000000	69.099085
866.000000	68.798020
865.000000	69.004878
864.000000	69.818354
863.000000	69.645590
862.000000	69.546996
861.000000	69.845868
860.000000	69.850155
859.000000	69.156607
858.000000	68.600233
857.000000	68.778300
856.000000	68.492500
855.000000	68.529900
854.000000	68.699100
853.000000	68.860100
852.000000	68.957500
851.000000	68.764900
850.000000	68.840400
849.000000	68.773200
848.000000	68.619300
847.000000	68.562800
846.000000	69.293800
845.000000	69.091800
844.000000	69.303600
843.000000	69.362100
842.000000	69.174600
841.000000	69.367700
840.000000	69.471500
839.000000	69.365200
838.000000	69.381000
837.000000	69.159800
836.000000	69.557300
835.000000	69.658200
834.000000	69.581800
833.000000	69.725700
832.000000	69.665500
831.000000	69.659200
830.000000	69.696100
829.000000	69.937100
828.000000	69.972100
827.000000	69.895000
826.000000	69.995900
825.000000	70.205900
824.000000	69.854100
823.000000	70.070300
822.000000	70.081000
821.000000	70.028500
820.000000	70.111300
819.000000	69.862700
818.000000	69.936700
817.000000	70.060000
816.000000	70.047000
815.000000	70.006100
814.000000	69.731300
813.000000	69.747400
812.000000	69.739000
811.000000	69.686800
810.000000	69.680700
809.000000	69.639700
808.000000	69.573300
807.000000	69.514700
806.000000	69.414500
805.000000	69.501100
804.000000	69.397300
803.000000	69.272600
802.000000	69.365300
801.000000	69.141300
800.000000	69.169700
799.000000	69.141700
798.000000	68.962400
797.000000	69.052100
796.000000	68.869300
795.000000	68.873700
794.000000	68.890000
793.000000	68.794400
792.000000	68.737400
791.000000	68.737600
790.000000	68.622900
789.000000	68.601500
788.000000	68.519800
787.000000	68.538200
786.000000	68.566900
785.000000	68.353600
784.000000	68.344300
783.000000	68.150000
782.000000	68.127200
781.000000	68.212600
780.000000	68.118700
779.000000	68.013900
778.000000	68.076600
777.000000	67.878100
776.000000	67.802800
775.000000	67.745400
774.000000	67.673700
773.000000	67.488400
772.000000	67.418900
771.000000	67.296400
770.000000	67.137700
769.000000	67.031400
768.000000	66.951300
767.000000	66.831900
766.000000	66.643200
765.000000	66.548300
764.000000	66.464200
763.000000	66.270000
762.000000	66.230000
761.000000	66.190100
760.000000	66.019900
759.000000	65.879300
758.000000	65.694400
757.000000	65.577100
756.000000	65.494200
755.000000	65.353400
754.000000	65.176000
753.000000	65.138500
752.000000	64.979200
751.000000	64.881900
750.000000	64.796200
749.000000	64.670100
748.000000	64.587100
747.000000	64.498000
746.000000	64.361400
745.000000	64.322900
744.000000	64.188600
743.000000	64.146200
742.000000	64.090100
741.000000	64.009600
740.000000	63.898000
739.000000	63.791200
738.000000	63.714200
737.000000	63.657200
736.000000	63.604900
735.000000	63.542100
734.000000	63.436500
733.000000	63.373100
732.000000	63.263000
731.000000	63.197800
730.000000	63.095300
729.000000	63.008100
728.000000	62.951100
727.000000	62.892700
726.000000	62.870400
725.000000	62.773100
724.000000	62.687000
723.000000	62.732900
722.000000	62.619600
721.000000	62.488500
720.000000	62.482500
719.000000	62.441800
718.000000	62.295500
717.000000	62.225800
716.000000	62.168100
715.000000	62.036900
714.000000	61.864200
713.000000	61.822600
712.000000	61.763800
711.000000	61.613800
710.000000	61.493500
709.000000	61.360300
708.000000	61.172800
707.000000	61.081200
706.000000	60.922800
705.000000	60.779500
704.000000	60.638500
703.000000	60.465200
702.000000	60.287300
701.000000	60.113000
700.000000	59.903500
699.000000	59.740100
698.000000	59.569300
697.000000	59.425700
696.000000	59.244300
695.000000	59.024600
694.000000	58.823200
693.000000	58.647900
692.000000	58.473500
691.000000	58.317800
690.000000	58.183600
689.000000	58.053000
688.000000	57.912100
687.000000	57.811800
686.000000	57.738700
685.000000	57.654100
684.000000	57.548800
683.000000	57.443500
682.000000	57.363000
681.000000	57.283300
680.000000	57.190400
679.000000	57.143000
678.000000	57.097500
677.000000	57.001900
676.000000	56.905100
675.000000	56.841800
674.000000	56.797100
673.000000	56.755000
672.000000	56.719600
671.000000	56.692300
670.000000	56.619800
669.000000	56.576500
668.000000	56.541700
667.000000	56.500400
666.000000	56.481400
665.000000	56.418300
664.000000	56.371200
663.000000	56.319900
662.000000	56.223900
661.000000	56.192900
660.000000	56.146200
659.000000	56.072700
658.000000	55.998800
657.000000	55.914300
656.000000	55.791800
655.000000	55.649400
654.000000	55.486200
653.000000	55.308300
652.000000	55.087600
651.000000	54.834300
650.000000	54.593600
649.000000	54.316300
648.000000	54.035200
647.000000	53.792300
646.000000	53.516200
645.000000	53.208300
644.000000	52.918500
643.000000	52.644000
642.000000	52.358600
641.000000	52.026300
640.000000	51.739600
639.000000	51.493100
638.000000	51.214400
637.000000	50.929400
636.000000	50.667700
635.000000	50.454800
634.000000	50.266300
633.000000	50.073200
632.000000	49.940900
631.000000	49.816100
630.000000	49.712100
629.000000	49.651200
628.000000	49.618900
627.000000	49.637100
626.000000	49.690900
625.000000	49.766500
624.000000	49.891400
623.000000	50.060100
622.000000	50.290400
621.000000	50.554800
620.000000	50.822600
619.000000	51.133000
618.000000	51.422900
617.000000	51.745100
616.000000	52.085500
615.000000	52.370500
614.000000	52.669200
613.000000	52.965700
612.000000	53.265800
611.000000	53.565700
610.000000	53.856100
609.000000	54.160000
608.000000	54.448800
607.000000	54.728500
606.000000	55.043000
605.000000	55.354000
604.000000	55.697300
603.000000	56.036300
602.000000	56.396800
601.000000	56.708600
600.000000	57.012200
599.000000	57.340200
598.000000	57.624100
597.000000	57.910300
596.000000	58.180200
595.000000	58.446300
594.000000	58.689600
593.000000	58.880700
592.000000	59.077400
591.000000	59.289400
590.000000	59.501400
589.000000	59.705200
588.000000	59.893500
587.000000	60.108400
586.000000	60.306700
585.000000	60.544300
584.000000	60.764200
583.000000	61.011100
582.000000	61.231700
581.000000	61.406400
580.000000	61.669600
579.000000	61.872100
578.000000	62.049600
577.000000	62.209600
576.000000	62.376300
575.000000	62.562300
574.000000	62.713800
573.000000	62.868800
572.000000	63.005600
571.000000	63.173200
570.000000	63.337800
569.000000	63.486200
568.000000	63.620800
567.000000	63.766700
566.000000	63.886300
565.000000	63.986100
564.000000	64.078800
563.000000	64.184100
562.000000	64.272700
561.000000	64.365500
560.000000	64.378800
559.000000	64.430200
558.000000	64.422500
557.000000	64.423500
556.000000	64.345600
555.000000	64.275800
554.000000	64.184600
553.000000	64.093700
552.000000	63.970200
551.000000	63.824500
550.000000	63.633900
549.000000	63.432800
548.000000	63.234100
547.000000	63.016300
546.000000	62.769000
545.000000	62.494500
544.000000	62.209300
543.000000	61.873600
542.000000	61.534500
541.000000	61.138000
540.000000	60.712000
539.000000	60.263300
538.000000	59.765700
537.000000	59.231700
536.000000	58.650100
535.000000	58.009100
534.000000	57.352600
533.000000	56.655800
532.000000	55.912700
531.000000	55.171200
530.000000	54.427500
529.000000	53.640400
528.000000	52.866600
527.000000	52.075300
526.000000	51.278100
525.000000	50.466100
524.000000	49.630500
523.000000	48.804900
522.000000	48.022600
521.000000	47.201200
520.000000	46.429600
519.000000	45.648400
518.000000	44.872500
517.000000	44.119300
516.000000	43.376300
515.000000	42.672200
514.000000	41.983300
513.000000	41.288300
512.000000	40.602800
511.000000	39.949400
510.000000	39.277900
509.000000	38.648100
508.000000	38.040500
507.000000	37.461400
506.000000	36.915500
505.000000	36.353100
504.000000	35.818000
503.000000	35.278300
502.000000	34.755100
501.000000	34.233500
500.000000	33.724800
499.000000	33.209400
498.000000	32.739800
497.000000	32.269300
496.000000	31.822500
495.000000	31.329500
494.000000	30.872700
493.000000	30.436700
492.000000	30.004200
491.000000	29.589000
490.000000	29.109500
489.000000	28.680100
488.000000	28.260300
487.000000	27.856800
486.000000	27.482400
485.000000	27.099400
484.000000	26.749200
483.000000	26.361500
482.000000	25.985300
481.000000	25.589400
480.000000	25.247600
479.000000	24.913000
478.000000	24.593700
477.000000	24.288500
476.000000	23.993100
475.000000	23.706000
474.000000	23.435500
473.000000	23.170200
472.000000	22.911500
471.000000	22.637000
470.000000	22.414800
469.000000	22.176600
468.000000	21.957200
467.000000	21.749100
466.000000	21.559300
465.000000	21.358800
464.000000	21.157200
463.000000	20.950800
462.000000	20.781700
461.000000	20.592600
460.000000	20.399700
459.000000	20.197700
458.000000	20.043600
457.000000	19.835300
456.000000	19.653900
455.000000	19.434600
454.000000	19.229300
453.000000	19.015600
452.000000	18.744700
451.000000	18.524300
450.000000	18.271900
449.000000	18.017000
448.000000	17.741400
447.000000	17.485700
446.000000	17.209800
445.000000	16.951000
444.000000	16.696300
443.000000	16.396200
442.000000	16.112700
441.000000	15.864300
440.000000	15.636300
439.000000	15.419700
438.000000	15.175300
437.000000	15.001300
436.000000	14.822900
435.000000	14.635700
434.000000	14.483700
433.000000	14.350700
432.000000	14.259700
431.000000	14.153000
430.000000	14.085600
429.000000	13.994600
428.000000	13.940700
427.000000	13.906700
426.000000	13.897100
425.000000	13.854500
424.000000	13.856800
423.000000	13.837300
422.000000	13.829200
421.000000	13.839700
420.000000	13.832700
419.000000	13.833800
418.000000	13.837000
417.000000	13.826500
416.000000	13.828600
415.000000	13.819100
414.000000	13.783500
413.000000	13.756200
412.000000	13.731200
411.000000	13.694200
410.000000	13.638200
409.000000	13.587300
408.000000	13.517200
407.000000	13.445300
406.000000	13.361300
405.000000	13.279000
404.000000	13.191800
403.000000	13.096100
402.000000	12.981200
401.000000	12.861300
400.000000	12.747500
399.000000	12.602200
398.000000	12.454700
397.000000	12.294200
396.000000	12.101100
395.000000	11.931500
394.000000	11.746300
393.000000	11.574800
392.000000	11.363700
391.000000	11.147000
390.000000	10.937700
389.000000	10.726500
388.000000	10.504100
387.000000	10.290300
386.000000	10.050600
385.000000	9.837500
384.000000	9.599000
383.000000	9.373900
382.000000	9.163700
381.000000	8.953700
380.000000	8.735700
379.000000	8.543400
378.000000	8.333200
377.000000	8.175300
376.000000	8.022800
375.000000	7.812500
374.000000	7.493900
373.000000	7.360400
372.000000	7.290800
371.000000	7.100600
370.000000	7.041500
369.000000	6.912300
368.000000	6.828300
367.000000	6.747800
366.000000	6.587400
365.000000	6.465400
364.000000	6.444800
363.000000	6.374000
362.000000	6.269800
361.000000	6.187400
360.000000	6.208700
359.000000	6.073100
358.000000	5.942900
357.000000	5.952100
356.000000	5.982400
355.000000	5.938400
354.000000	5.839400
353.000000	5.801600
352.000000	5.753800
351.000000	5.685300
350.000000	5.736200
349.000000	5.651400
348.000000	5.593600
347.000000	5.655800
346.000000	5.589300
345.000000	5.556300
344.000000	5.628400
343.000000	5.629800
342.000000	5.613800
341.000000	5.553300
340.000000	5.535800
339.000000	5.524300
338.000000	5.572800
337.000000	5.592600
336.000000	5.554200
335.000000	5.550300
334.000000	5.605300
333.000000	5.755800
332.000000	5.699800
331.000000	5.581300
330.000000	5.651700
329.000000	5.629500
328.000000	5.572400
327.000000	5.641100
326.000000	5.662300
325.000000	5.724200
324.000000	5.727400
323.000000	5.682000
322.000000	5.816000
321.000000	5.852300
320.000000	5.870600
319.000000	5.868400
318.000000	5.712700
317.000000	5.685000
316.000000	5.685000
315.000000	5.607700
314.000000	5.594100
313.000000	5.625700
312.000000	5.572900
311.000000	5.547100
310.000000	5.567700
309.000000	5.595000
308.000000	5.594000
307.000000	5.550900
306.000000	5.555800
305.000000	5.575200
304.000000	5.553000
303.000000	5.560700
302.000000	5.534800
301.000000	5.558200
300.000000	5.546300
299.000000	5.527100
298.000000	5.534700
297.000000	5.529600
296.000000	5.552000
295.000000	5.531500
294.000000	5.526700
293.000000	5.552600
292.000000	5.544700
291.000000	5.541900
290.000000	5.527900
289.000000	5.513200
288.000000	5.537600
287.000000	5.561700
286.000000	5.565800
285.000000	5.582000
284.000000	5.565000
283.000000	5.556000
282.000000	5.585300
281.000000	5.548200
280.000000	5.558400
279.000000	5.572000
278.000000	5.604600
277.000000	5.578800
276.000000	5.600800
275.000000	5.632000
274.000000	5.683300
273.000000	5.714800
272.000000	5.739800
271.000000	5.720500
270.000000	5.714400
269.000000	5.751400
268.000000	5.763300
267.000000	5.785000
266.000000	5.824500
265.000000	5.830300
264.000000	5.882200
263.000000	5.853200
262.000000	5.925800
261.000000	5.952900
260.000000	5.984200
259.000000	5.982400
258.000000	5.996700
257.000000	6.044900
256.000000	6.046600
255.000000	6.011200
254.000000	6.028100
253.000000	6.055500
252.000000	6.070600
251.000000	6.081100
250.000000	6.133000
