PE UV       SUBTECH     SPECTRUM    ASCII       PEDS        4.00        
   -1
CICIMAUCR0021-3.Sample.ASC
24/04/17
14:19:58.00
24/04/17
14:19:58.00
Vinicio Soto Monge
C. resplendens. 
250,000000
1
Lambda 1050
1050L1511233
PerkinElmer UV WinLab 6.3.2.0749 / 2.02.05 Lambda 900 UV/VIS/NIR, Aug  7 2015 09:38:08

0
0
3350/servo 860,8/2
0
0
UV/VIS
1
1
1
DoubleDePol,CommonBeamDepol,RBeamAtt,SBeamAtt,60mm sphere, WB InGaAs Detector
0
0
0
0
Program
Program
3350/servo 860,8/2
3350/0,2 860,8/0,2
3350/0,2 860,8/0,2
0
15.00
 
 
 
0
 
860,8
319,2
860,8
Front
100
on
S:100 R:100
0
0
0
0
 
0
 
 
 
0
 
 
0
0
0
0
0
 
 
 
 
0
0


0
0
#HDR
-1
-1
#GR
nm
%R
1.0
0.0
2500,000000
-1,000000
2251
8
79,251800
5,023200
#DATA
2500.000000	9.058000
2499.000000	8.914400
2498.000000	8.903200
2497.000000	8.832700
2496.000000	8.694200
2495.000000	8.846300
2494.000000	8.690600
2493.000000	8.716200
2492.000000	8.705200
2491.000000	8.791200
2490.000000	8.660000
2489.000000	8.727600
2488.000000	8.598200
2487.000000	8.635200
2486.000000	8.641700
2485.000000	8.653500
2484.000000	8.651100
2483.000000	8.610100
2482.000000	8.593800
2481.000000	8.596100
2480.000000	8.618200
2479.000000	8.611500
2478.000000	8.615100
2477.000000	8.602900
2476.000000	8.638000
2475.000000	8.600800
2474.000000	8.597700
2473.000000	8.603800
2472.000000	8.608400
2471.000000	8.617100
2470.000000	8.643200
2469.000000	8.686300
2468.000000	8.634400
2467.000000	8.655500
2466.000000	8.649900
2465.000000	8.696800
2464.000000	8.725000
2463.000000	8.762300
2462.000000	8.787400
2461.000000	8.805700
2460.000000	8.869100
2459.000000	8.911400
2458.000000	8.963800
2457.000000	9.012400
2456.000000	9.077900
2455.000000	9.133000
2454.000000	9.206300
2453.000000	9.282500
2452.000000	9.326300
2451.000000	9.433300
2450.000000	9.507500
2449.000000	9.601100
2448.000000	9.647300
2447.000000	9.714800
2446.000000	9.793900
2445.000000	9.891700
2444.000000	9.938800
2443.000000	10.002900
2442.000000	10.076600
2441.000000	10.134100
2440.000000	10.225100
2439.000000	10.309100
2438.000000	10.361600
2437.000000	10.400200
2436.000000	10.492400
2435.000000	10.554900
2434.000000	10.605200
2433.000000	10.654300
2432.000000	10.715500
2431.000000	10.750400
2430.000000	10.785400
2429.000000	10.838700
2428.000000	10.894900
2427.000000	10.927700
2426.000000	10.951500
2425.000000	11.004300
2424.000000	11.040700
2423.000000	11.064300
2422.000000	11.093200
2421.000000	11.130900
2420.000000	11.160700
2419.000000	11.181900
2418.000000	11.211100
2417.000000	11.240200
2416.000000	11.262700
2415.000000	11.297600
2414.000000	11.328000
2413.000000	11.362700
2412.000000	11.405400
2411.000000	11.437400
2410.000000	11.459700
2409.000000	11.492000
2408.000000	11.534800
2407.000000	11.547900
2406.000000	11.570000
2405.000000	11.607200
2404.000000	11.633300
2403.000000	11.669100
2402.000000	11.710300
2401.000000	11.743000
2400.000000	11.779000
2399.000000	11.806400
2398.000000	11.841600
2397.000000	11.885200
2396.000000	11.926000
2395.000000	11.943600
2394.000000	11.948600
2393.000000	11.989500
2392.000000	12.030700
2391.000000	12.048700
2390.000000	12.079600
2389.000000	12.094700
2388.000000	12.109700
2387.000000	12.119400
2386.000000	12.125500
2385.000000	12.135400
2384.000000	12.137600
2383.000000	12.142500
2382.000000	12.148900
2381.000000	12.144800
2380.000000	12.140900
2379.000000	12.127300
2378.000000	12.119400
2377.000000	12.113000
2376.000000	12.103700
2375.000000	12.099800
2374.000000	12.073200
2373.000000	12.038100
2372.000000	12.015100
2371.000000	12.000900
2370.000000	11.968900
2369.000000	11.937900
2368.000000	11.896400
2367.000000	11.844900
2366.000000	11.798300
2365.000000	11.744600
2364.000000	11.689600
2363.000000	11.622200
2362.000000	11.550600
2361.000000	11.502900
2360.000000	11.454100
2359.000000	11.387600
2358.000000	11.321800
2357.000000	11.291100
2356.000000	11.268400
2355.000000	11.231400
2354.000000	11.213900
2353.000000	11.210800
2352.000000	11.219900
2351.000000	11.226400
2350.000000	11.265600
2349.000000	11.320700
2348.000000	11.351400
2347.000000	11.397500
2346.000000	11.457200
2345.000000	11.502200
2344.000000	11.577300
2343.000000	11.632900
2342.000000	11.678600
2341.000000	11.712700
2340.000000	11.749600
2339.000000	11.779100
2338.000000	11.792000
2337.000000	11.804200
2336.000000	11.799500
2335.000000	11.785800
2334.000000	11.780500
2333.000000	11.775200
2332.000000	11.750100
2331.000000	11.713400
2330.000000	11.645800
2329.000000	11.581200
2328.000000	11.547900
2327.000000	11.498700
2326.000000	11.427500
2325.000000	11.342200
2324.000000	11.262600
2323.000000	11.160300
2322.000000	11.073200
2321.000000	10.988600
2320.000000	10.891800
2319.000000	10.778000
2318.000000	10.658200
2317.000000	10.528100
2316.000000	10.403600
2315.000000	10.292100
2314.000000	10.187100
2313.000000	10.109000
2312.000000	10.019100
2311.000000	9.910700
2310.000000	9.846800
2309.000000	9.796500
2308.000000	9.761100
2307.000000	9.729600
2306.000000	9.753800
2305.000000	9.789300
2304.000000	9.806400
2303.000000	9.865800
2302.000000	9.939100
2301.000000	10.026300
2300.000000	10.128400
2299.000000	10.223300
2298.000000	10.313300
2297.000000	10.405100
2296.000000	10.508600
2295.000000	10.613200
2294.000000	10.674400
2293.000000	10.749600
2292.000000	10.803100
2291.000000	10.833500
2290.000000	10.843500
2289.000000	10.871400
2288.000000	10.877000
2287.000000	10.874700
2286.000000	10.858000
2285.000000	10.827700
2284.000000	10.784500
2283.000000	10.755900
2282.000000	10.718500
2281.000000	10.643300
2280.000000	10.615600
2279.000000	10.569400
2278.000000	10.511900
2277.000000	10.471800
2276.000000	10.437100
2275.000000	10.414300
2274.000000	10.398900
2273.000000	10.385900
2272.000000	10.377100
2271.000000	10.391500
2270.000000	10.421700
2269.000000	10.495400
2268.000000	10.537000
2267.000000	10.626000
2266.000000	10.745000
2265.000000	10.880000
2264.000000	11.045900
2263.000000	11.209600
2262.000000	11.416300
2261.000000	11.628500
2260.000000	11.869500
2259.000000	12.089000
2258.000000	12.350600
2257.000000	12.649500
2256.000000	12.887000
2255.000000	13.139600
2254.000000	13.418200
2253.000000	13.666200
2252.000000	13.921600
2251.000000	14.146200
2250.000000	14.350200
2249.000000	14.600500
2248.000000	14.765100
2247.000000	14.992600
2246.000000	15.154700
2245.000000	15.302200
2244.000000	15.464000
2243.000000	15.606200
2242.000000	15.729200
2241.000000	15.865300
2240.000000	15.952900
2239.000000	16.078000
2238.000000	16.191800
2237.000000	16.283000
2236.000000	16.354700
2235.000000	16.435000
2234.000000	16.491000
2233.000000	16.588700
2232.000000	16.617600
2231.000000	16.687200
2230.000000	16.703200
2229.000000	16.743400
2228.000000	16.740500
2227.000000	16.747100
2226.000000	16.784000
2225.000000	16.770700
2224.000000	16.763900
2223.000000	16.757900
2222.000000	16.744300
2221.000000	16.723100
2220.000000	16.691200
2219.000000	16.668400
2218.000000	16.630200
2217.000000	16.602400
2216.000000	16.589200
2215.000000	16.565500
2214.000000	16.511800
2213.000000	16.471400
2212.000000	16.478500
2211.000000	16.438400
2210.000000	16.410300
2209.000000	16.387800
2208.000000	16.378600
2207.000000	16.336300
2206.000000	16.301800
2205.000000	16.280100
2204.000000	16.263500
2203.000000	16.252700
2202.000000	16.233200
2201.000000	16.206000
2200.000000	16.206800
2199.000000	16.170100
2198.000000	16.162000
2197.000000	16.138500
2196.000000	16.144900
2195.000000	16.114500
2194.000000	16.080600
2193.000000	16.053300
2192.000000	16.058200
2191.000000	16.021800
2190.000000	15.991000
2189.000000	15.991900
2188.000000	15.969700
2187.000000	15.937800
2186.000000	15.919200
2185.000000	15.895200
2184.000000	15.875600
2183.000000	15.866100
2182.000000	15.835200
2181.000000	15.810500
2180.000000	15.784700
2179.000000	15.774100
2178.000000	15.779400
2177.000000	15.753900
2176.000000	15.732400
2175.000000	15.719100
2174.000000	15.706600
2173.000000	15.702100
2172.000000	15.716300
2171.000000	15.704800
2170.000000	15.717200
2169.000000	15.723600
2168.000000	15.728100
2167.000000	15.745600
2166.000000	15.768900
2165.000000	15.781900
2164.000000	15.785200
2163.000000	15.810500
2162.000000	15.839900
2161.000000	15.867500
2160.000000	15.884200
2159.000000	15.907000
2158.000000	15.959600
2157.000000	16.007700
2156.000000	16.047500
2155.000000	16.062300
2154.000000	16.111500
2153.000000	16.161600
2152.000000	16.207400
2151.000000	16.235200
2150.000000	16.275700
2149.000000	16.316000
2148.000000	16.368400
2147.000000	16.410400
2146.000000	16.436000
2145.000000	16.482500
2144.000000	16.533800
2143.000000	16.568200
2142.000000	16.601300
2141.000000	16.644200
2140.000000	16.682600
2139.000000	16.719400
2138.000000	16.737600
2137.000000	16.768900
2136.000000	16.794800
2135.000000	16.800200
2134.000000	16.829800
2133.000000	16.869600
2132.000000	16.895600
2131.000000	16.916600
2130.000000	16.932400
2129.000000	16.937500
2128.000000	16.936200
2127.000000	16.943200
2126.000000	16.959100
2125.000000	16.971100
2124.000000	16.969100
2123.000000	16.961200
2122.000000	16.954900
2121.000000	16.949800
2120.000000	16.939900
2119.000000	16.924700
2118.000000	16.913600
2117.000000	16.898700
2116.000000	16.883500
2115.000000	16.867500
2114.000000	16.848600
2113.000000	16.820200
2112.000000	16.810400
2111.000000	16.803300
2110.000000	16.775200
2109.000000	16.744800
2108.000000	16.724600
2107.000000	16.701600
2106.000000	16.683300
2105.000000	16.669000
2104.000000	16.642200
2103.000000	16.631800
2102.000000	16.622900
2101.000000	16.586700
2100.000000	16.558400
2099.000000	16.538900
2098.000000	16.519500
2097.000000	16.510800
2096.000000	16.495900
2095.000000	16.469200
2094.000000	16.463200
2093.000000	16.466200
2092.000000	16.450100
2091.000000	16.433400
2090.000000	16.427300
2089.000000	16.416400
2088.000000	16.397700
2087.000000	16.388300
2086.000000	16.378100
2085.000000	16.368300
2084.000000	16.369500
2083.000000	16.361600
2082.000000	16.340100
2081.000000	16.326300
2080.000000	16.298100
2079.000000	16.285900
2078.000000	16.261500
2077.000000	16.237100
2076.000000	16.216600
2075.000000	16.188900
2074.000000	16.164900
2073.000000	16.136300
2072.000000	16.114700
2071.000000	16.080500
2070.000000	16.065200
2069.000000	16.029300
2068.000000	15.999900
2067.000000	15.986000
2066.000000	15.962300
2065.000000	15.939800
2064.000000	15.921700
2063.000000	15.903800
2062.000000	15.871700
2061.000000	15.863800
2060.000000	15.871900
2059.000000	15.867100
2058.000000	15.882100
2057.000000	15.892100
2056.000000	15.908300
2055.000000	15.940900
2054.000000	15.986300
2053.000000	16.043600
2052.000000	16.129500
2051.000000	16.201600
2050.000000	16.295900
2049.000000	16.404200
2048.000000	16.486800
2047.000000	16.603300
2046.000000	16.743600
2045.000000	16.871300
2044.000000	17.017900
2043.000000	17.151100
2042.000000	17.269400
2041.000000	17.403200
2040.000000	17.571900
2039.000000	17.708300
2038.000000	17.822800
2037.000000	17.956300
2036.000000	18.069200
2035.000000	18.179600
2034.000000	18.310600
2033.000000	18.422700
2032.000000	18.527500
2031.000000	18.640000
2030.000000	18.727000
2029.000000	18.820200
2028.000000	18.895600
2027.000000	18.985800
2026.000000	19.066200
2025.000000	19.160300
2024.000000	19.217900
2023.000000	19.291800
2022.000000	19.367100
2021.000000	19.422900
2020.000000	19.498300
2019.000000	19.554700
2018.000000	19.593300
2017.000000	19.651300
2016.000000	19.698300
2015.000000	19.731800
2014.000000	19.785200
2013.000000	19.806900
2012.000000	19.836000
2011.000000	19.845800
2010.000000	19.848400
2009.000000	19.861600
2008.000000	19.860300
2007.000000	19.859200
2006.000000	19.849400
2005.000000	19.829300
2004.000000	19.817400
2003.000000	19.796500
2002.000000	19.764200
2001.000000	19.737500
2000.000000	19.722300
1999.000000	19.670900
1998.000000	19.616500
1997.000000	19.569300
1996.000000	19.511700
1995.000000	19.478400
1994.000000	19.406100
1993.000000	19.333300
1992.000000	19.259200
1991.000000	19.189800
1990.000000	19.107200
1989.000000	19.056600
1988.000000	18.970200
1987.000000	18.884700
1986.000000	18.805000
1985.000000	18.720800
1984.000000	18.638700
1983.000000	18.545300
1982.000000	18.461300
1981.000000	18.364700
1980.000000	18.285500
1979.000000	18.174900
1978.000000	18.119400
1977.000000	18.010400
1976.000000	17.927400
1975.000000	17.840900
1974.000000	17.765900
1973.000000	17.664800
1972.000000	17.577000
1971.000000	17.502400
1970.000000	17.424300
1969.000000	17.341100
1968.000000	17.228400
1967.000000	17.196400
1966.000000	17.099300
1965.000000	17.009400
1964.000000	16.946600
1963.000000	16.856500
1962.000000	16.795400
1961.000000	16.705600
1960.000000	16.637400
1959.000000	16.572100
1958.000000	16.472000
1957.000000	16.384400
1956.000000	16.313000
1955.000000	16.251300
1954.000000	16.183600
1953.000000	16.121500
1952.000000	16.046200
1951.000000	15.969200
1950.000000	15.896500
1949.000000	15.827400
1948.000000	15.792500
1947.000000	15.723300
1946.000000	15.677100
1945.000000	15.635000
1944.000000	15.593300
1943.000000	15.575200
1942.000000	15.515600
1941.000000	15.493500
1940.000000	15.489400
1939.000000	15.507900
1938.000000	15.507000
1937.000000	15.532400
1936.000000	15.564100
1935.000000	15.588500
1934.000000	15.608500
1933.000000	15.645600
1932.000000	15.699100
1931.000000	15.769300
1930.000000	15.830700
1929.000000	15.937500
1928.000000	16.059900
1927.000000	16.180700
1926.000000	16.307600
1925.000000	16.456400
1924.000000	16.559700
1923.000000	16.645800
1922.000000	16.816100
1921.000000	17.052200
1920.000000	17.298000
1919.000000	17.515000
1918.000000	17.678600
1917.000000	17.864900
1916.000000	18.024800
1915.000000	18.205700
1914.000000	18.473600
1913.000000	18.794700
1912.000000	19.108300
1911.000000	19.390600
1910.000000	19.638100
1909.000000	19.815000
1908.000000	20.019900
1907.000000	20.312200
1906.000000	20.643300
1905.000000	21.058600
1904.000000	21.449300
1903.000000	21.752800
1902.000000	22.065800
1901.000000	22.354000
1900.000000	22.733000
1899.000000	23.190600
1898.000000	23.574200
1897.000000	23.960200
1896.000000	24.263900
1895.000000	24.513400
1894.000000	24.809400
1893.000000	25.155300
1892.000000	25.555700
1891.000000	25.981500
1890.000000	26.372600
1889.000000	26.719200
1888.000000	27.102800
1887.000000	27.432100
1886.000000	27.799400
1885.000000	28.222400
1884.000000	28.727700
1883.000000	29.256100
1882.000000	29.773800
1881.000000	30.245900
1880.000000	30.721400
1879.000000	31.129600
1878.000000	31.553900
1877.000000	31.947000
1876.000000	32.316400
1875.000000	32.692700
1874.000000	33.024500
1873.000000	33.349800
1872.000000	33.645400
1871.000000	33.916200
1870.000000	34.172700
1869.000000	34.393300
1868.000000	34.585000
1867.000000	34.696600
1866.000000	34.751500
1865.000000	34.804900
1864.000000	34.835800
1863.000000	34.862000
1862.000000	34.871600
1861.000000	34.919000
1860.000000	34.973800
1859.000000	35.008000
1858.000000	35.031300
1857.000000	35.036800
1856.000000	34.999500
1855.000000	34.960300
1854.000000	34.954100
1853.000000	34.902000
1852.000000	34.834100
1851.000000	34.762300
1850.000000	34.679000
1849.000000	34.624400
1848.000000	34.615800
1847.000000	34.641000
1846.000000	34.596400
1845.000000	34.480200
1844.000000	34.339200
1843.000000	34.249200
1842.000000	34.252900
1841.000000	34.273700
1840.000000	34.239200
1839.000000	34.179900
1838.000000	34.117400
1837.000000	34.076000
1836.000000	34.030400
1835.000000	33.988300
1834.000000	33.901100
1833.000000	33.763300
1832.000000	33.650700
1831.000000	33.577300
1830.000000	33.518000
1829.000000	33.437300
1828.000000	33.339900
1827.000000	33.262700
1826.000000	33.223400
1825.000000	33.155600
1824.000000	33.054200
1823.000000	32.963800
1822.000000	32.951100
1821.000000	32.976700
1820.000000	32.979000
1819.000000	32.961000
1818.000000	32.915300
1817.000000	32.859500
1816.000000	32.843600
1815.000000	32.848700
1814.000000	32.827900
1813.000000	32.802800
1812.000000	32.786600
1811.000000	32.774700
1810.000000	32.719700
1809.000000	32.660300
1808.000000	32.615500
1807.000000	32.580000
1806.000000	32.550600
1805.000000	32.502200
1804.000000	32.435600
1803.000000	32.371600
1802.000000	32.321900
1801.000000	32.295900
1800.000000	32.245000
1799.000000	32.167300
1798.000000	32.117700
1797.000000	32.061100
1796.000000	32.023900
1795.000000	31.971900
1794.000000	31.930100
1793.000000	31.878100
1792.000000	31.831100
1791.000000	31.769100
1790.000000	31.698100
1789.000000	31.640300
1788.000000	31.583800
1787.000000	31.522100
1786.000000	31.462300
1785.000000	31.382100
1784.000000	31.321000
1783.000000	31.233700
1782.000000	31.140400
1781.000000	31.060500
1780.000000	30.978500
1779.000000	30.896500
1778.000000	30.808000
1777.000000	30.720700
1776.000000	30.607000
1775.000000	30.490100
1774.000000	30.362100
1773.000000	30.240600
1772.000000	30.102900
1771.000000	29.954700
1770.000000	29.827500
1769.000000	29.709300
1768.000000	29.581700
1767.000000	29.456700
1766.000000	29.369300
1765.000000	29.300600
1764.000000	29.244800
1763.000000	29.223000
1762.000000	29.230200
1761.000000	29.244800
1760.000000	29.308800
1759.000000	29.399500
1758.000000	29.461200
1757.000000	29.515100
1756.000000	29.571800
1755.000000	29.618300
1754.000000	29.637200
1753.000000	29.643100
1752.000000	29.636300
1751.000000	29.596300
1750.000000	29.542100
1749.000000	29.486600
1748.000000	29.407900
1747.000000	29.307600
1746.000000	29.198700
1745.000000	29.053900
1744.000000	28.881000
1743.000000	28.705000
1742.000000	28.494000
1741.000000	28.250400
1740.000000	27.999600
1739.000000	27.748700
1738.000000	27.531400
1737.000000	27.317500
1736.000000	27.156600
1735.000000	27.054400
1734.000000	27.004300
1733.000000	26.977100
1732.000000	27.039600
1731.000000	27.114700
1730.000000	27.216600
1729.000000	27.325800
1728.000000	27.464000
1727.000000	27.571400
1726.000000	27.681400
1725.000000	27.766900
1724.000000	27.832400
1723.000000	27.897900
1722.000000	27.913900
1721.000000	27.919900
1720.000000	27.967600
1719.000000	27.996400
1718.000000	28.048100
1717.000000	28.100000
1716.000000	28.150400
1715.000000	28.220600
1714.000000	28.305700
1713.000000	28.366500
1712.000000	28.438600
1711.000000	28.502700
1710.000000	28.513400
1709.000000	28.523600
1708.000000	28.513200
1707.000000	28.501400
1706.000000	28.459500
1705.000000	28.438200
1704.000000	28.343700
1703.000000	28.285800
1702.000000	28.176700
1701.000000	28.025700
1700.000000	27.865700
1699.000000	27.717300
1698.000000	27.522300
1697.000000	27.376100
1696.000000	27.312200
1695.000000	27.274800
1694.000000	27.325300
1693.000000	27.443400
1692.000000	27.575200
1691.000000	27.761600
1690.000000	27.924600
1689.000000	28.090900
1688.000000	28.176600
1687.000000	28.215900
1686.000000	28.221000
1685.000000	28.260000
1684.000000	28.347500
1683.000000	28.514000
1682.000000	28.865000
1681.000000	29.326600
1680.000000	29.843600
1679.000000	30.457700
1678.000000	31.060400
1677.000000	31.577700
1676.000000	32.062700
1675.000000	32.504500
1674.000000	32.855600
1673.000000	33.140400
1672.000000	33.449300
1671.000000	33.669400
1670.000000	33.904300
1669.000000	34.080700
1668.000000	34.235300
1667.000000	34.405400
1666.000000	34.515900
1665.000000	34.618000
1664.000000	34.698800
1663.000000	34.770300
1662.000000	34.836900
1661.000000	34.912900
1660.000000	34.963300
1659.000000	34.996200
1658.000000	35.050000
1657.000000	35.076800
1656.000000	35.087200
1655.000000	35.088900
1654.000000	35.058500
1653.000000	35.042200
1652.000000	35.027400
1651.000000	35.001300
1650.000000	34.978800
1649.000000	34.948300
1648.000000	34.905800
1647.000000	34.862800
1646.000000	34.819900
1645.000000	34.760200
1644.000000	34.707700
1643.000000	34.648100
1642.000000	34.598100
1641.000000	34.535500
1640.000000	34.475300
1639.000000	34.414800
1638.000000	34.357500
1637.000000	34.286600
1636.000000	34.224700
1635.000000	34.137800
1634.000000	34.071700
1633.000000	33.981600
1632.000000	33.911200
1631.000000	33.844000
1630.000000	33.785300
1629.000000	33.680300
1628.000000	33.593400
1627.000000	33.509200
1626.000000	33.439600
1625.000000	33.341900
1624.000000	33.249500
1623.000000	33.164300
1622.000000	33.071300
1621.000000	33.002600
1620.000000	32.930300
1619.000000	32.861400
1618.000000	32.779600
1617.000000	32.698700
1616.000000	32.628000
1615.000000	32.564900
1614.000000	32.474700
1613.000000	32.394100
1612.000000	32.317200
1611.000000	32.258200
1610.000000	32.199200
1609.000000	32.130200
1608.000000	32.065000
1607.000000	31.984900
1606.000000	31.907600
1605.000000	31.847800
1604.000000	31.763500
1603.000000	31.692400
1602.000000	31.623300
1601.000000	31.555600
1600.000000	31.483000
1599.000000	31.420400
1598.000000	31.375000
1597.000000	31.300700
1596.000000	31.232500
1595.000000	31.170600
1594.000000	31.118200
1593.000000	31.069100
1592.000000	31.016200
1591.000000	30.953200
1590.000000	30.900900
1589.000000	30.872400
1588.000000	30.839500
1587.000000	30.798000
1586.000000	30.752500
1585.000000	30.720200
1584.000000	30.695800
1583.000000	30.656300
1582.000000	30.634300
1581.000000	30.617000
1580.000000	30.589100
1579.000000	30.575100
1578.000000	30.573100
1577.000000	30.556400
1576.000000	30.540300
1575.000000	30.544700
1574.000000	30.557700
1573.000000	30.570300
1572.000000	30.581500
1571.000000	30.590200
1570.000000	30.601100
1569.000000	30.627900
1568.000000	30.648600
1567.000000	30.665700
1566.000000	30.690000
1565.000000	30.721200
1564.000000	30.746900
1563.000000	30.774200
1562.000000	30.790900
1561.000000	30.808900
1560.000000	30.843600
1559.000000	30.862500
1558.000000	30.865500
1557.000000	30.868500
1556.000000	30.875300
1555.000000	30.881600
1554.000000	30.885000
1553.000000	30.886200
1552.000000	30.886200
1551.000000	30.861400
1550.000000	30.845000
1549.000000	30.832500
1548.000000	30.815600
1547.000000	30.799300
1546.000000	30.787900
1545.000000	30.784600
1544.000000	30.777300
1543.000000	30.768700
1542.000000	30.759500
1541.000000	30.745000
1540.000000	30.732300
1539.000000	30.719200
1538.000000	30.722100
1537.000000	30.725200
1536.000000	30.719100
1535.000000	30.703700
1534.000000	30.690800
1533.000000	30.668000
1532.000000	30.663800
1531.000000	30.655500
1530.000000	30.632700
1529.000000	30.620400
1528.000000	30.596100
1527.000000	30.555600
1526.000000	30.523000
1525.000000	30.494200
1524.000000	30.476800
1523.000000	30.445200
1522.000000	30.417500
1521.000000	30.387600
1520.000000	30.354000
1519.000000	30.328900
1518.000000	30.290400
1517.000000	30.258500
1516.000000	30.230400
1515.000000	30.184000
1514.000000	30.154900
1513.000000	30.128000
1512.000000	30.074700
1511.000000	30.040700
1510.000000	30.005400
1509.000000	29.960400
1508.000000	29.917000
1507.000000	29.890500
1506.000000	29.860800
1505.000000	29.819700
1504.000000	29.778800
1503.000000	29.752500
1502.000000	29.729200
1501.000000	29.700900
1500.000000	29.676300
1499.000000	29.661100
1498.000000	29.642600
1497.000000	29.631200
1496.000000	29.611800
1495.000000	29.611500
1494.000000	29.604200
1493.000000	29.605800
1492.000000	29.613600
1491.000000	29.624800
1490.000000	29.638400
1489.000000	29.662700
1488.000000	29.669100
1487.000000	29.676900
1486.000000	29.671800
1485.000000	29.709800
1484.000000	29.725700
1483.000000	29.753600
1482.000000	29.774600
1481.000000	29.807800
1480.000000	29.816200
1479.000000	29.845700
1478.000000	29.901600
1477.000000	29.942700
1476.000000	29.973200
1475.000000	30.009900
1474.000000	30.049700
1473.000000	30.097900
1472.000000	30.131500
1471.000000	30.193400
1470.000000	30.219500
1469.000000	30.263100
1468.000000	30.298800
1467.000000	30.351400
1466.000000	30.414400
1465.000000	30.445500
1464.000000	30.489300
1463.000000	30.583000
1462.000000	30.632800
1461.000000	30.707400
1460.000000	30.802000
1459.000000	30.873600
1458.000000	30.944700
1457.000000	31.046600
1456.000000	31.140700
1455.000000	31.238900
1454.000000	31.343300
1453.000000	31.455200
1452.000000	31.590300
1451.000000	31.688000
1450.000000	31.825600
1449.000000	31.936600
1448.000000	32.008600
1447.000000	32.143400
1446.000000	32.288400
1445.000000	32.444700
1444.000000	32.551100
1443.000000	32.666000
1442.000000	32.807100
1441.000000	32.984900
1440.000000	33.087200
1439.000000	33.227300
1438.000000	33.381500
1437.000000	33.540700
1436.000000	33.659200
1435.000000	33.773900
1434.000000	33.956200
1433.000000	34.106200
1432.000000	34.272400
1431.000000	34.424400
1430.000000	34.556200
1429.000000	34.736000
1428.000000	34.961600
1427.000000	35.146700
1426.000000	35.373300
1425.000000	35.610900
1424.000000	35.848300
1423.000000	36.083100
1422.000000	36.304300
1421.000000	36.537500
1420.000000	36.821000
1419.000000	37.109300
1418.000000	37.344000
1417.000000	37.538400
1416.000000	37.789400
1415.000000	38.051700
1414.000000	38.375800
1413.000000	38.584400
1412.000000	38.779600
1411.000000	39.045800
1410.000000	39.341100
1409.000000	39.736900
1408.000000	40.050200
1407.000000	40.416700
1406.000000	40.791100
1405.000000	41.190000
1404.000000	41.554000
1403.000000	41.943700
1402.000000	42.236300
1401.000000	42.681400
1400.000000	43.125000
1399.000000	43.382400
1398.000000	43.549600
1397.000000	43.756100
1396.000000	44.065100
1395.000000	44.314900
1394.000000	44.428000
1393.000000	44.535600
1392.000000	44.722400
1391.000000	44.881900
1390.000000	45.028300
1389.000000	45.217900
1388.000000	45.511900
1387.000000	45.762800
1386.000000	46.011600
1385.000000	46.329600
1384.000000	46.715400
1383.000000	47.027400
1382.000000	47.341900
1381.000000	47.565500
1380.000000	47.640100
1379.000000	47.747900
1378.000000	47.802200
1377.000000	47.856500
1376.000000	47.977000
1375.000000	48.135600
1374.000000	48.304600
1373.000000	48.578300
1372.000000	48.875500
1371.000000	49.193200
1370.000000	49.467000
1369.000000	49.718200
1368.000000	49.979700
1367.000000	50.180700
1366.000000	50.354300
1365.000000	50.541100
1364.000000	50.722400
1363.000000	50.862600
1362.000000	51.035500
1361.000000	51.123100
1360.000000	51.138300
1359.000000	51.141200
1358.000000	51.240800
1357.000000	51.357700
1356.000000	51.565000
1355.000000	51.893100
1354.000000	52.284000
1353.000000	52.675000
1352.000000	53.089300
1351.000000	53.503300
1350.000000	53.896100
1349.000000	54.241100
1348.000000	54.561600
1347.000000	54.862400
1346.000000	55.120900
1345.000000	55.389400
1344.000000	55.651900
1343.000000	55.880700
1342.000000	56.097100
1341.000000	56.322700
1340.000000	56.528300
1339.000000	56.708800
1338.000000	56.907300
1337.000000	57.089100
1336.000000	57.255100
1335.000000	57.422800
1334.000000	57.560900
1333.000000	57.702800
1332.000000	57.848300
1331.000000	57.976300
1330.000000	58.099200
1329.000000	58.214400
1328.000000	58.325400
1327.000000	58.427200
1326.000000	58.520200
1325.000000	58.609200
1324.000000	58.689600
1323.000000	58.756700
1322.000000	58.821200
1321.000000	58.896100
1320.000000	58.965800
1319.000000	59.026500
1318.000000	59.078500
1317.000000	59.129200
1316.000000	59.183700
1315.000000	59.227300
1314.000000	59.276200
1313.000000	59.308400
1312.000000	59.330600
1311.000000	59.364300
1310.000000	59.402300
1309.000000	59.433700
1308.000000	59.441400
1307.000000	59.450100
1306.000000	59.463800
1305.000000	59.472200
1304.000000	59.475200
1303.000000	59.468400
1302.000000	59.465900
1301.000000	59.459500
1300.000000	59.446000
1299.000000	59.428200
1298.000000	59.404100
1297.000000	59.397400
1296.000000	59.378700
1295.000000	59.350200
1294.000000	59.318300
1293.000000	59.282500
1292.000000	59.255600
1291.000000	59.229000
1290.000000	59.196200
1289.000000	59.152500
1288.000000	59.101600
1287.000000	59.058200
1286.000000	59.009400
1285.000000	58.955300
1284.000000	58.906500
1283.000000	58.856000
1282.000000	58.795800
1281.000000	58.737400
1280.000000	58.674900
1279.000000	58.621100
1278.000000	58.566000
1277.000000	58.516100
1276.000000	58.468000
1275.000000	58.419400
1274.000000	58.375200
1273.000000	58.343100
1272.000000	58.305500
1271.000000	58.256700
1270.000000	58.215300
1269.000000	58.172800
1268.000000	58.141400
1267.000000	58.110600
1266.000000	58.066400
1265.000000	58.021600
1264.000000	57.974500
1263.000000	57.937400
1262.000000	57.904900
1261.000000	57.866500
1260.000000	57.821200
1259.000000	57.777400
1258.000000	57.728800
1257.000000	57.679500
1256.000000	57.620100
1255.000000	57.570200
1254.000000	57.522600
1253.000000	57.460300
1252.000000	57.389800
1251.000000	57.336800
1250.000000	57.271300
1249.000000	57.197600
1248.000000	57.123400
1247.000000	57.048800
1246.000000	56.969800
1245.000000	56.878200
1244.000000	56.782400
1243.000000	56.683500
1242.000000	56.569700
1241.000000	56.475000
1240.000000	56.361900
1239.000000	56.230900
1238.000000	56.130200
1237.000000	56.009300
1236.000000	55.885400
1235.000000	55.755900
1234.000000	55.619900
1233.000000	55.489700
1232.000000	55.357600
1231.000000	55.224200
1230.000000	55.077100
1229.000000	54.940600
1228.000000	54.802400
1227.000000	54.655800
1226.000000	54.529300
1225.000000	54.397800
1224.000000	54.255300
1223.000000	54.098600
1222.000000	53.961100
1221.000000	53.827600
1220.000000	53.687600
1219.000000	53.568300
1218.000000	53.454800
1217.000000	53.329500
1216.000000	53.209700
1215.000000	53.112100
1214.000000	53.012300
1213.000000	52.903200
1212.000000	52.813900
1211.000000	52.729900
1210.000000	52.624700
1209.000000	52.541900
1208.000000	52.471900
1207.000000	52.410300
1206.000000	52.350200
1205.000000	52.299900
1204.000000	52.267500
1203.000000	52.243700
1202.000000	52.206400
1201.000000	52.151700
1200.000000	52.130000
1199.000000	52.067000
1198.000000	51.983800
1197.000000	51.890000
1196.000000	51.716900
1195.000000	51.539100
1194.000000	51.314700
1193.000000	51.026500
1192.000000	50.710600
1191.000000	50.363700
1190.000000	50.008900
1189.000000	49.707800
1188.000000	49.442200
1187.000000	49.290100
1186.000000	49.233100
1185.000000	49.260600
1184.000000	49.397000
1183.000000	49.617100
1182.000000	49.935800
1181.000000	50.293100
1180.000000	50.656000
1179.000000	51.006100
1178.000000	51.328600
1177.000000	51.599000
1176.000000	51.799900
1175.000000	52.002100
1174.000000	52.223200
1173.000000	52.418800
1172.000000	52.626200
1171.000000	52.861700
1170.000000	53.096300
1169.000000	53.336000
1168.000000	53.564900
1167.000000	53.808200
1166.000000	54.049500
1165.000000	54.297300
1164.000000	54.530700
1163.000000	54.766300
1162.000000	55.014000
1161.000000	55.260000
1160.000000	55.476400
1159.000000	55.704600
1158.000000	55.905500
1157.000000	56.098300
1156.000000	56.266200
1155.000000	56.389200
1154.000000	56.496200
1153.000000	56.519200
1152.000000	56.545500
1151.000000	56.529200
1150.000000	56.535800
1149.000000	56.510800
1148.000000	56.509900
1147.000000	56.521400
1146.000000	56.563000
1145.000000	56.647800
1144.000000	56.778100
1143.000000	56.954500
1142.000000	57.127800
1141.000000	57.308600
1140.000000	57.504300
1139.000000	57.707100
1138.000000	57.904900
1137.000000	58.110900
1136.000000	58.316400
1135.000000	58.560900
1134.000000	58.768800
1133.000000	58.869700
1132.000000	59.007300
1131.000000	59.155000
1130.000000	59.286400
1129.000000	59.392500
1128.000000	59.469000
1127.000000	59.517000
1126.000000	59.544200
1125.000000	59.591100
1124.000000	59.603300
1123.000000	59.629400
1122.000000	59.642500
1121.000000	59.638300
1120.000000	59.630100
1119.000000	59.617100
1118.000000	59.598700
1117.000000	59.564800
1116.000000	59.547700
1115.000000	59.507000
1114.000000	59.458500
1113.000000	59.432400
1112.000000	59.394500
1111.000000	59.366600
1110.000000	59.326800
1109.000000	59.298200
1108.000000	59.249400
1107.000000	59.220000
1106.000000	59.183500
1105.000000	59.135800
1104.000000	59.083800
1103.000000	59.033800
1102.000000	59.003500
1101.000000	58.958600
1100.000000	58.924600
1099.000000	58.884100
1098.000000	58.825500
1097.000000	58.760900
1096.000000	58.718600
1095.000000	58.665800
1094.000000	58.619400
1093.000000	58.550200
1092.000000	58.506600
1091.000000	58.446200
1090.000000	58.400500
1089.000000	58.344700
1088.000000	58.270700
1087.000000	58.215400
1086.000000	58.151600
1085.000000	58.097500
1084.000000	58.022400
1083.000000	57.970200
1082.000000	57.924500
1081.000000	57.869300
1080.000000	57.805200
1079.000000	57.752700
1078.000000	57.691500
1077.000000	57.630400
1076.000000	57.572900
1075.000000	57.517300
1074.000000	57.461200
1073.000000	57.398300
1072.000000	57.343400
1071.000000	57.296400
1070.000000	57.235200
1069.000000	57.175100
1068.000000	57.109300
1067.000000	57.053600
1066.000000	56.991600
1065.000000	56.940900
1064.000000	56.894400
1063.000000	56.839500
1062.000000	56.790700
1061.000000	56.724200
1060.000000	56.651300
1059.000000	56.604600
1058.000000	56.545300
1057.000000	56.497200
1056.000000	56.436400
1055.000000	56.374000
1054.000000	56.320700
1053.000000	56.269600
1052.000000	56.227100
1051.000000	56.186100
1050.000000	56.137700
1049.000000	56.087000
1048.000000	56.044100
1047.000000	55.993100
1046.000000	55.956200
1045.000000	55.921900
1044.000000	55.873500
1043.000000	55.830700
1042.000000	55.792300
1041.000000	55.749500
1040.000000	55.717300
1039.000000	55.701400
1038.000000	55.666100
1037.000000	55.625200
1036.000000	55.594800
1035.000000	55.560400
1034.000000	55.515200
1033.000000	55.469200
1032.000000	55.431900
1031.000000	55.392600
1030.000000	55.350700
1029.000000	55.308100
1028.000000	55.262500
1027.000000	55.232900
1026.000000	55.182100
1025.000000	55.125300
1024.000000	55.090500
1023.000000	55.037800
1022.000000	54.987400
1021.000000	54.945200
1020.000000	54.897300
1019.000000	54.877400
1018.000000	54.847900
1017.000000	54.788400
1016.000000	54.744400
1015.000000	54.718200
1014.000000	54.679800
1013.000000	54.645100
1012.000000	54.634100
1011.000000	54.608300
1010.000000	54.581200
1009.000000	54.567600
1008.000000	54.554800
1007.000000	54.555200
1006.000000	54.534200
1005.000000	54.511700
1004.000000	54.514900
1003.000000	54.499400
1002.000000	54.484500
1001.000000	54.480800
1000.000000	54.477700
999.000000	54.476700
998.000000	54.474200
997.000000	54.463900
996.000000	54.469600
995.000000	54.489100
994.000000	54.476100
993.000000	54.467500
992.000000	54.499600
991.000000	54.511700
990.000000	54.527800
989.000000	54.555700
988.000000	54.583100
987.000000	54.607500
986.000000	54.633900
985.000000	54.654100
984.000000	54.691500
983.000000	54.722300
982.000000	54.757000
981.000000	54.785000
980.000000	54.821600
979.000000	54.875200
978.000000	54.923600
977.000000	54.954800
976.000000	54.982600
975.000000	55.044400
974.000000	55.102200
973.000000	55.131400
972.000000	55.158000
971.000000	55.203200
970.000000	55.240100
969.000000	55.282700
968.000000	55.319000
967.000000	55.351400
966.000000	55.399200
965.000000	55.447600
964.000000	55.480000
963.000000	55.504700
962.000000	55.546100
961.000000	55.609000
960.000000	55.647800
959.000000	55.666300
958.000000	55.681900
957.000000	55.713000
956.000000	55.756800
955.000000	55.779300
954.000000	55.831900
953.000000	55.833400
952.000000	55.852600
951.000000	55.886500
950.000000	55.886100
949.000000	55.900600
948.000000	55.939400
947.000000	55.944900
946.000000	55.954300
945.000000	56.033800
944.000000	56.032000
943.000000	56.046700
942.000000	56.096600
941.000000	56.123500
940.000000	56.158000
939.000000	56.232100
938.000000	56.255100
937.000000	56.314800
936.000000	56.359800
935.000000	56.421600
934.000000	56.522100
933.000000	56.564300
932.000000	56.632600
931.000000	56.689600
930.000000	56.774700
929.000000	56.866500
928.000000	56.931900
927.000000	57.041100
926.000000	57.115300
925.000000	57.201300
924.000000	57.274000
923.000000	57.376000
922.000000	57.530300
921.000000	57.619200
920.000000	57.730300
919.000000	57.829100
918.000000	57.952200
917.000000	58.065600
916.000000	58.194300
915.000000	58.329700
914.000000	58.503500
913.000000	58.610100
912.000000	58.717700
911.000000	58.832300
910.000000	58.930500
909.000000	59.136700
908.000000	59.281000
907.000000	59.391000
906.000000	59.547600
905.000000	59.675400
904.000000	59.836300
903.000000	59.968200
902.000000	60.140700
901.000000	60.274300
900.000000	60.405000
899.000000	60.535000
898.000000	60.686300
897.000000	60.791600
896.000000	60.921600
895.000000	61.078600
894.000000	61.195100
893.000000	61.328100
892.000000	61.457500
891.000000	61.574100
890.000000	61.707700
889.000000	61.816300
888.000000	61.839800
887.000000	61.956200
886.000000	62.080600
885.000000	62.185700
884.000000	62.271500
883.000000	62.269400
882.000000	62.350100
881.000000	62.433800
880.000000	62.493800
879.000000	62.480700
878.000000	62.559400
877.000000	62.655700
876.000000	62.650500
875.000000	62.598900
874.000000	62.610100
873.000000	62.540800
872.000000	62.595800
871.000000	62.524500
870.000000	62.560300
869.000000	62.542100
868.000000	62.483600
867.000000	62.455600
866.000000	62.365200
865.000000	62.344700
864.000000	62.227200
863.000000	62.169700
862.000000	61.971700
861.000000	61.786500
860.000000	61.649900
859.000000	61.558800
858.000000	63.116800
857.000000	61.925060
856.000000	62.118714
855.000000	62.080102
854.000000	62.439964
853.000000	62.742803
852.000000	63.101727
851.000000	62.946429
850.000000	63.140168
849.000000	63.488949
848.000000	63.860572
847.000000	63.799970
846.000000	64.109117
845.000000	64.452699
844.000000	64.312487
843.000000	64.607997
842.000000	64.581233
841.000000	64.728263
840.000000	64.986269
839.000000	65.026840
838.000000	65.296779
837.000000	65.309991
836.000000	65.570298
835.000000	65.564417
834.000000	65.685961
833.000000	65.830264
832.000000	66.042413
831.000000	65.990250
830.000000	66.156884
829.000000	66.325734
828.000000	66.441824
827.000000	66.456740
826.000000	66.556891
825.000000	66.673322
824.000000	66.656360
823.000000	66.781996
822.000000	66.859304
821.000000	66.875925
820.000000	66.980508
819.000000	67.129328
818.000000	67.229990
817.000000	67.103843
816.000000	67.195811
815.000000	67.202886
814.000000	67.198794
813.000000	67.276187
812.000000	67.238173
811.000000	67.369775
810.000000	67.368071
809.000000	67.382561
808.000000	67.299712
807.000000	67.250873
806.000000	67.164018
805.000000	67.092677
804.000000	67.073414
803.000000	67.050741
802.000000	66.991674
801.000000	66.797168
800.000000	66.723099
799.000000	66.663093
798.000000	66.510012
797.000000	66.411906
796.000000	66.220554
795.000000	66.107533
794.000000	66.024258
793.000000	65.877910
792.000000	65.652975
791.000000	65.531431
790.000000	65.332237
789.000000	65.259020
788.000000	65.128696
787.000000	64.920638
786.000000	64.760908
785.000000	64.544411
784.000000	64.327063
783.000000	64.048430
782.000000	63.945722
781.000000	63.724197
780.000000	63.564552
779.000000	63.382746
778.000000	63.133519
777.000000	62.916938
776.000000	62.727290
775.000000	62.602421
774.000000	62.399477
773.000000	62.161331
772.000000	62.017369
771.000000	61.786127
770.000000	61.573040
769.000000	61.459081
768.000000	61.364300
767.000000	61.192893
766.000000	61.017394
765.000000	60.807802
764.000000	60.637418
763.000000	60.512208
762.000000	60.264686
761.000000	60.099927
760.000000	59.981876
759.000000	59.768960
758.000000	59.635738
757.000000	59.534905
756.000000	59.389494
755.000000	59.287383
754.000000	59.137796
753.000000	59.018126
752.000000	58.925561
751.000000	58.751000
750.000000	58.630223
749.000000	58.570899
748.000000	58.472709
747.000000	58.341703
746.000000	58.221266
745.000000	58.115745
744.000000	58.010054
743.000000	57.902317
742.000000	57.774380
741.000000	57.673888
740.000000	57.549189
739.000000	57.439748
738.000000	57.346671
737.000000	57.218308
736.000000	57.112446
735.000000	57.026188
734.000000	56.947858
733.000000	56.849667
732.000000	56.725310
731.000000	56.584672
730.000000	56.468923
729.000000	56.395962
728.000000	56.271775
727.000000	56.187393
726.000000	56.094998
725.000000	55.981806
724.000000	55.888474
723.000000	55.745876
722.000000	55.627570
721.000000	55.551456
720.000000	55.404170
719.000000	55.240263
718.000000	55.069794
717.000000	54.901455
716.000000	54.764482
715.000000	54.616856
714.000000	54.413485
713.000000	54.192301
712.000000	54.010921
711.000000	53.835338
710.000000	53.591396
709.000000	53.376689
708.000000	53.147066
707.000000	52.876190
706.000000	52.644010
705.000000	52.387624
704.000000	52.140273
703.000000	51.884227
702.000000	51.634660
701.000000	51.395320
700.000000	51.123762
699.000000	50.844107
698.000000	50.574850
697.000000	50.304485
696.000000	50.020227
695.000000	49.736906
694.000000	49.445659
693.000000	49.114351
692.000000	48.799494
691.000000	48.477391
690.000000	48.132020
689.000000	47.815713
688.000000	47.468552
687.000000	47.187874
686.000000	46.875829
685.000000	46.548953
684.000000	46.215003
683.000000	45.893071
682.000000	45.586226
681.000000	45.291655
680.000000	45.020949
679.000000	44.788769
678.000000	44.584035
677.000000	44.417657
676.000000	44.255625
675.000000	44.127176
674.000000	43.959349
673.000000	43.853658
672.000000	43.786067
671.000000	43.761178
670.000000	43.752058
669.000000	43.731431
668.000000	43.768167
667.000000	43.806267
666.000000	43.892099
665.000000	43.943922
664.000000	44.009808
663.000000	44.090525
662.000000	44.223918
661.000000	44.356117
660.000000	44.504170
659.000000	44.692709
658.000000	44.941766
657.000000	45.150506
656.000000	45.394363
655.000000	45.681774
654.000000	45.992455
653.000000	46.339105
652.000000	46.725730
651.000000	47.131107
650.000000	47.483042
649.000000	47.914756
648.000000	48.321497
647.000000	48.720396
646.000000	49.165066
645.000000	49.565158
644.000000	49.934225
643.000000	50.298519
642.000000	50.687616
641.000000	51.049011
640.000000	51.431971
639.000000	51.729356
638.000000	52.129107
637.000000	52.432031
636.000000	52.796496
635.000000	53.148771
634.000000	53.504712
633.000000	53.875057
632.000000	54.310010
631.000000	54.748203
630.000000	55.171734
629.000000	55.630639
628.000000	56.091759
627.000000	56.507961
626.000000	56.939590
625.000000	57.342069
624.000000	57.768413
623.000000	58.170807
622.000000	58.598856
621.000000	58.969713
620.000000	59.374919
619.000000	59.718927
618.000000	60.080323
617.000000	60.418705
616.000000	60.775157
615.000000	61.084986
614.000000	61.382029
613.000000	61.726633
612.000000	62.110105
611.000000	62.423598
610.000000	62.781670
609.000000	63.113233
608.000000	63.451530
607.000000	63.793834
606.000000	64.097610
605.000000	64.366612
604.000000	64.696470
603.000000	65.012862
602.000000	65.284250
601.000000	65.502792
600.000000	65.781424
599.000000	66.008831
598.000000	66.201803
597.000000	66.427334
596.000000	66.551947
595.000000	66.694545
594.000000	66.841064
593.000000	67.009402
592.000000	67.067192
591.000000	67.186350
590.000000	67.303889
589.000000	67.339687
588.000000	67.374889
587.000000	67.444867
586.000000	67.437111
585.000000	67.477001
584.000000	67.496520
583.000000	67.507600
582.000000	67.543654
581.000000	67.550132
580.000000	67.506492
579.000000	67.481177
578.000000	67.426712
577.000000	67.379918
576.000000	67.316589
575.000000	67.221041
574.000000	67.115094
573.000000	67.020227
572.000000	66.896381
571.000000	66.741936
570.000000	66.586723
569.000000	66.430743
568.000000	66.221407
567.000000	66.042669
566.000000	65.820888
565.000000	65.601749
564.000000	65.372212
563.000000	65.143527
562.000000	64.892851
561.000000	64.569385
560.000000	64.282570
559.000000	64.151223
558.000000	63.830996
557.000000	63.462696
556.000000	63.051694
555.000000	62.657227
554.000000	62.214773
553.000000	61.738907
552.000000	61.256819
551.000000	60.716856
550.000000	60.141947
549.000000	59.550588
548.000000	58.926840
547.000000	58.271469
546.000000	57.618741
545.000000	56.915213
544.000000	56.204951
543.000000	55.460254
542.000000	54.712233
541.000000	53.889632
540.000000	53.132065
539.000000	52.313214
538.000000	51.563659
537.000000	50.781459
536.000000	49.984173
535.000000	49.178192
534.000000	48.370848
533.000000	47.543559
532.000000	46.735021
531.000000	45.921029
530.000000	45.110445
529.000000	44.310090
528.000000	43.499251
527.000000	42.706909
526.000000	41.943716
525.000000	41.156146
524.000000	40.375566
523.000000	39.610327
522.000000	38.871171
521.000000	38.164233
520.000000	37.454142
519.000000	36.759819
518.000000	36.079134
517.000000	35.420865
516.000000	34.767626
515.000000	34.128961
514.000000	33.486035
513.000000	32.858025
512.000000	32.206149
511.000000	31.552312
510.000000	30.888504
509.000000	30.227763
508.000000	29.576399
507.000000	28.926483
506.000000	28.257816
505.000000	27.581392
504.000000	26.897980
503.000000	26.238859
502.000000	25.568487
501.000000	24.934510
500.000000	24.322609
499.000000	23.715567
498.000000	23.156767
497.000000	22.632147
496.000000	22.159179
495.000000	21.725419
494.000000	21.349107
493.000000	21.013793
492.000000	20.733541
491.000000	20.507925
490.000000	20.339586
489.000000	20.197500
488.000000	20.105957
487.000000	20.070755
486.000000	20.067005
485.000000	20.098457
484.000000	20.166474
483.000000	20.258698
482.000000	20.355440
481.000000	20.458830
480.000000	20.573044
479.000000	20.712744
478.000000	20.859092
477.000000	21.011577
476.000000	21.182218
475.000000	21.330952
474.000000	21.462896
473.000000	21.603107
472.000000	21.732153
471.000000	21.833497
470.000000	21.912509
469.000000	21.986579
468.000000	22.051868
467.000000	22.102327
466.000000	22.142388
465.000000	22.148525
464.000000	22.139234
463.000000	22.137529
462.000000	22.133097
461.000000	22.106163
460.000000	22.069597
459.000000	22.020672
458.000000	21.968509
457.000000	21.915407
456.000000	21.845003
455.000000	21.772298
454.000000	21.679904
453.000000	21.573360
452.000000	21.482415
451.000000	21.368626
450.000000	21.237705
449.000000	21.102779
448.000000	20.969301
447.000000	20.830112
446.000000	20.663223
445.000000	20.494032
444.000000	20.324073
443.000000	20.129994
442.000000	19.919975
441.000000	19.696319
440.000000	19.475475
439.000000	19.251308
438.000000	19.010178
437.000000	18.760952
436.000000	18.507378
435.000000	18.237866
434.000000	17.954801
433.000000	17.682731
432.000000	17.372562
431.000000	17.060943
430.000000	16.753587
429.000000	16.428075
428.000000	16.106910
427.000000	15.794098
426.000000	15.453500
425.000000	15.110515
424.000000	14.771792
423.000000	14.411845
422.000000	14.061615
421.000000	13.707891
420.000000	13.344108
419.000000	12.995498
418.000000	12.649189
417.000000	12.295038
416.000000	11.953246
415.000000	11.615205
414.000000	11.278357
413.000000	10.942873
412.000000	10.618725
411.000000	10.306510
410.000000	9.998556
409.000000	9.713616
408.000000	9.428080
407.000000	9.145441
406.000000	8.887009
405.000000	8.644942
404.000000	8.407989
403.000000	8.187913
402.000000	7.967240
401.000000	7.757136
400.000000	7.555385
399.000000	7.367954
398.000000	7.190921
397.000000	7.046619
396.000000	6.895668
395.000000	6.735597
394.000000	6.600244
393.000000	6.489865
392.000000	6.378804
391.000000	6.266379
390.000000	6.160517
389.000000	6.058236
388.000000	5.957829
387.000000	5.872253
386.000000	5.795457
385.000000	5.708858
384.000000	5.648000
383.000000	5.599928
382.000000	5.559100
381.000000	5.494492
380.000000	5.423151
379.000000	5.351042
378.000000	5.325898
377.000000	5.282684
376.000000	5.372436
375.000000	5.161991
374.000000	5.110254
373.000000	5.095934
372.000000	5.097383
371.000000	5.084769
370.000000	5.014620
369.000000	5.049141
368.000000	5.001239
367.000000	5.034906
366.000000	4.987771
365.000000	5.069938
364.000000	5.073432
363.000000	5.073859
362.000000	5.042918
361.000000	4.924868
360.000000	4.962457
359.000000	5.002432
358.000000	4.839633
357.000000	4.801789
356.000000	4.794288
355.000000	4.830002
354.000000	4.819518
353.000000	4.607795
352.000000	4.713997
351.000000	4.656634
350.000000	4.640013
349.000000	4.662856
348.000000	4.635922
347.000000	4.514803
346.000000	4.651179
345.000000	4.660470
344.000000	4.673511
343.000000	4.625523
342.000000	4.703428
341.000000	4.712463
340.000000	4.562364
339.000000	4.564154
338.000000	4.458293
337.000000	4.543868
336.000000	4.441842
335.000000	4.538413
334.000000	4.603448
333.000000	4.554011
332.000000	4.603107
331.000000	4.620068
330.000000	4.666521
329.000000	4.510883
328.000000	4.678199
327.000000	4.658850
326.000000	4.844151
325.000000	4.743403
324.000000	5.020416
323.000000	4.627569
322.000000	4.471589
321.000000	4.903474
320.000000	4.847560
319.000000	4.616915
318.000000	4.792925
317.000000	4.845429
316.000000	4.386099
315.000000	4.313053
314.000000	4.333594
313.000000	4.326520
312.000000	4.319871
311.000000	4.346635
310.000000	4.356948
309.000000	4.366410
308.000000	4.305381
307.000000	4.312967
306.000000	4.337089
305.000000	4.281516
304.000000	4.295238
303.000000	4.454201
302.000000	4.334702
301.000000	4.341947
300.000000	4.383627
299.000000	4.357716
298.000000	4.349874
297.000000	4.387974
296.000000	4.388571
295.000000	4.413971
294.000000	4.360528
293.000000	4.350300
292.000000	4.432467
291.000000	4.458548
290.000000	4.350300
289.000000	4.427608
288.000000	4.464856
287.000000	4.511309
286.000000	4.479687
285.000000	4.418914
284.000000	4.427523
283.000000	4.428887
282.000000	4.503979
281.000000	4.403146
280.000000	4.379195
279.000000	4.501507
278.000000	4.493069
277.000000	4.436217
276.000000	4.490426
275.000000	4.457696
274.000000	4.475681
273.000000	4.500740
272.000000	4.506706
271.000000	4.508752
270.000000	4.455309
269.000000	4.607454
268.000000	4.578133
267.000000	4.580690
266.000000	4.586315
265.000000	4.669249
264.000000	4.641036
263.000000	4.628251
262.000000	4.662686
261.000000	4.632939
260.000000	4.699081
259.000000	4.732493
258.000000	4.741869
257.000000	4.778946
256.000000	4.790453
255.000000	4.763178
254.000000	4.776986
253.000000	4.749114
252.000000	4.796504
251.000000	4.775111
250.000000	4.801022
