PE UV       SUBTECH     SPECTRUM    ASCII       PEDS        4.00        
   -1
CICIMAUCR0116-2.Sample.ASC
24/04/11
13:25:38.00
24/04/11
13:25:38.00
Vinicio Soto Monge
C. kalinini
250,000000
1
Lambda 1050
1050L1511233
PerkinElmer UV WinLab 6.3.2.0749 / 2.02.05 Lambda 900 UV/VIS/NIR, Aug  7 2015 09:38:08

0
0
3350/2 860,8/2
0
0
UV/VIS
1
1
1
DoubleDePol,CommonBeamDepol,RBeamAtt,SBeamAtt,60mm sphere, WB InGaAs Detector
0
0
0
0
Program
Program
3350/2 860,8/2
3350/0,2 860,8/0,2
3350/0,2 860,8/0,2
0
15.00
 
 
 
0
 
860,8
319,2
860,8
Front
100
on
S:100 R:100
0
0
0
0
 
0
 
 
 
0
 
 
0
0
0
0
0
 
 
 
 
0
0


0
0
#HDR
-1
-1
#GR
nm
%R
1.0
0.0
2400,000000
-1,000000
2151
8
101,733400
5,666500
#DATA
2400.000000	18.593820
2399.000000	19.116622
2398.000000	18.420185
2397.000000	18.214699
2396.000000	18.305460
2395.000000	19.104441
2394.000000	18.688675
2393.000000	18.852725
2392.000000	18.690473
2391.000000	19.008088
2390.000000	19.409076
2389.000000	19.175133
2388.000000	19.983100
2387.000000	18.139813
2386.000000	19.131200
2385.000000	18.606501
2384.000000	18.302066
2383.000000	18.740696
2382.000000	19.021068
2381.000000	19.383515
2380.000000	18.605602
2379.000000	18.763361
2378.000000	19.683257
2377.000000	19.238536
2376.000000	18.220889
2375.000000	18.180351
2374.000000	18.272611
2373.000000	18.661517
2372.000000	18.272411
2371.000000	18.435462
2370.000000	18.282595
2369.000000	18.307158
2368.000000	17.608125
2367.000000	17.851553
2366.000000	18.180152
2365.000000	18.656824
2364.000000	18.700258
2363.000000	17.705576
2362.000000	18.260729
2361.000000	17.733533
2360.000000	17.004646
2359.000000	17.377776
2358.000000	17.813012
2357.000000	17.200347
2356.000000	17.105791
2355.000000	17.638678
2354.000000	17.295901
2353.000000	16.024741
2352.000000	16.755626
2351.000000	17.062158
2350.000000	16.867256
2349.000000	16.647990
2348.000000	17.008140
2347.000000	16.529271
2346.000000	16.743544
2345.000000	17.290210
2344.000000	17.415718
2343.000000	17.500090
2342.000000	17.695491
2341.000000	17.786153
2340.000000	17.734532
2339.000000	16.830512
2338.000000	16.898508
2337.000000	17.734432
2336.000000	17.748111
2335.000000	17.439183
2334.000000	17.038794
2333.000000	17.189863
2332.000000	17.066152
2331.000000	16.986474
2330.000000	16.932256
2329.000000	16.835903
2328.000000	16.823822
2327.000000	16.731263
2326.000000	17.227006
2325.000000	16.259283
2324.000000	16.119697
2323.000000	16.036324
2322.000000	16.537659
2321.000000	16.361527
2320.000000	15.629245
2319.000000	15.954349
2318.000000	15.869778
2317.000000	15.651411
2316.000000	15.183625
2315.000000	14.761270
2314.000000	14.994913
2313.000000	15.097856
2312.000000	15.285170
2311.000000	14.831762
2310.000000	14.416696
2309.000000	14.260334
2308.000000	14.094887
2307.000000	14.543103
2306.000000	14.398024
2305.000000	14.120847
2304.000000	14.234374
2303.000000	14.556582
2302.000000	14.359683
2301.000000	14.270319
2300.000000	14.460928
2299.000000	14.712145
2298.000000	15.120322
2297.000000	15.103547
2296.000000	15.071197
2295.000000	14.950082
2294.000000	15.012986
2293.000000	14.867008
2292.000000	15.174839
2291.000000	15.720306
2290.000000	15.450518
2289.000000	15.275585
2288.000000	15.283373
2287.000000	15.278580
2286.000000	15.201997
2285.000000	15.176836
2284.000000	15.027663
2283.000000	15.229855
2282.000000	15.379027
2281.000000	14.961664
2280.000000	14.983231
2279.000000	15.218772
2278.000000	15.023669
2277.000000	14.946587
2276.000000	14.850434
2275.000000	14.621184
2274.000000	14.136523
2273.000000	14.030985
2272.000000	14.535215
2271.000000	14.757675
2270.000000	14.386242
2269.000000	14.439261
2268.000000	14.701960
2267.000000	14.952578
2266.000000	14.983730
2265.000000	14.871901
2264.000000	14.669610
2263.000000	14.863514
2262.000000	15.352967
2261.000000	15.580020
2260.000000	16.036224
2259.000000	16.388187
2258.000000	16.633512
2257.000000	17.238389
2256.000000	17.456057
2255.000000	17.736030
2254.000000	18.008114
2253.000000	18.170766
2252.000000	18.439855
2251.000000	18.776042
2250.000000	18.897057
2249.000000	19.280273
2248.000000	19.439629
2247.000000	19.624946
2246.000000	19.891440
2245.000000	19.873467
2244.000000	20.005566
2243.000000	19.940365
2242.000000	19.917500
2241.000000	20.240707
2240.000000	20.376899
2239.000000	20.444496
2238.000000	20.654475
2237.000000	20.890814
2236.000000	20.753025
2235.000000	20.674944
2234.000000	20.707294
2233.000000	20.955116
2232.000000	21.011730
2231.000000	21.145725
2230.000000	21.061554
2229.000000	21.041085
2228.000000	20.940039
2227.000000	20.740644
2226.000000	21.018320
2225.000000	21.135042
2224.000000	20.811935
2223.000000	20.664859
2222.000000	20.591471
2221.000000	20.775790
2220.000000	20.604052
2219.000000	20.875238
2218.000000	20.635404
2217.000000	20.463866
2216.000000	20.203663
2215.000000	19.976610
2214.000000	20.403358
2213.000000	20.359725
2212.000000	20.040213
2211.000000	19.970120
2210.000000	19.990289
2209.000000	20.064775
2208.000000	20.053492
2207.000000	19.925188
2206.000000	20.004966
2205.000000	20.221536
2204.000000	19.993384
2203.000000	19.972915
2202.000000	19.987892
2201.000000	19.679164
2200.000000	19.870572
2199.000000	19.716507
2198.000000	19.717505
2197.000000	19.910211
2196.000000	20.014252
2195.000000	20.093032
2194.000000	19.853198
2193.000000	19.691046
2192.000000	19.857891
2191.000000	19.734280
2190.000000	19.460198
2189.000000	19.517710
2188.000000	19.732283
2187.000000	19.712912
2186.000000	20.020543
2185.000000	20.021641
2184.000000	19.984098
2183.000000	19.755647
2182.000000	19.305434
2181.000000	19.663188
2180.000000	19.642819
2179.000000	19.597888
2178.000000	19.624447
2177.000000	19.757744
2176.000000	19.880357
2175.000000	19.558847
2174.000000	19.515114
2173.000000	19.788697
2172.000000	19.871969
2171.000000	19.681660
2170.000000	19.773620
2169.000000	19.876463
2168.000000	19.789495
2167.000000	19.919397
2166.000000	19.312523
2165.000000	19.509223
2164.000000	20.042809
2163.000000	19.774718
2162.000000	20.009060
2161.000000	19.706522
2160.000000	20.089438
2159.000000	20.388781
2158.000000	19.937270
2157.000000	19.958238
2156.000000	19.789196
2155.000000	20.299018
2154.000000	20.519881
2153.000000	20.835099
2152.000000	20.886122
2151.000000	20.809439
2150.000000	21.057660
2149.000000	21.256356
2148.000000	20.688323
2147.000000	21.115471
2146.000000	20.873641
2145.000000	21.255558
2144.000000	21.028904
2143.000000	21.432488
2142.000000	21.570078
2141.000000	21.457949
2140.000000	21.775963
2139.000000	21.530438
2138.000000	21.385160
2137.000000	21.538027
2136.000000	21.523049
2135.000000	21.886894
2134.000000	22.283189
2133.000000	21.821993
2132.000000	22.065322
2131.000000	22.178349
2130.000000	21.950896
2129.000000	22.144601
2128.000000	21.772269
2127.000000	21.773068
2126.000000	22.013201
2125.000000	22.244948
2124.000000	21.958385
2123.000000	22.068916
2122.000000	21.850350
2121.000000	21.759189
2120.000000	21.980451
2119.000000	21.725940
2118.000000	21.740318
2117.000000	21.915450
2116.000000	21.757092
2115.000000	21.883300
2114.000000	21.307578
2113.000000	21.830979
2112.000000	21.812308
2111.000000	21.887693
2110.000000	21.523549
2109.000000	21.653450
2108.000000	21.632083
2107.000000	21.625393
2106.000000	21.374476
2105.000000	21.670524
2104.000000	21.329345
2103.000000	21.340828
2102.000000	21.333439
2101.000000	21.325751
2100.000000	21.396842
2099.000000	21.296795
2098.000000	21.323154
2097.000000	21.286910
2096.000000	21.425698
2095.000000	21.246372
2094.000000	20.941936
2093.000000	21.015324
2092.000000	21.230296
2091.000000	21.307978
2090.000000	20.984471
2089.000000	21.057660
2088.000000	21.132246
2087.000000	21.202339
2086.000000	21.032298
2085.000000	21.105587
2084.000000	21.038189
2083.000000	21.043881
2082.000000	21.172684
2081.000000	20.985869
2080.000000	20.655474
2079.000000	20.986668
2078.000000	20.922266
2077.000000	20.568806
2076.000000	20.777088
2075.000000	20.537154
2074.000000	20.438305
2073.000000	20.572700
2072.000000	20.459473
2071.000000	20.256782
2070.000000	20.199969
2069.000000	20.157234
2068.000000	20.073961
2067.000000	19.740470
2066.000000	19.852000
2065.000000	19.875963
2064.000000	19.855095
2063.000000	19.781208
2062.000000	19.443923
2061.000000	19.302738
2060.000000	19.536082
2059.000000	19.658795
2058.000000	19.478969
2057.000000	19.322209
2056.000000	19.296648
2055.000000	19.524100
2054.000000	19.321410
2053.000000	19.407279
2052.000000	19.514515
2051.000000	19.626145
2050.000000	19.757844
2049.000000	19.747759
2048.000000	19.889942
2047.000000	19.957938
2046.000000	20.210453
2045.000000	20.395071
2044.000000	20.631610
2043.000000	20.725567
2042.000000	20.786673
2041.000000	20.955416
2040.000000	21.059058
2039.000000	21.211325
2038.000000	21.330643
2037.000000	21.603327
2036.000000	21.810011
2035.000000	21.797031
2034.000000	21.841963
2033.000000	21.888392
2032.000000	22.015598
2031.000000	22.246345
2030.000000	22.365064
2029.000000	22.499359
2028.000000	22.565359
2027.000000	22.682779
2026.000000	22.776137
2025.000000	22.855116
2024.000000	22.771444
2023.000000	22.792911
2022.000000	22.991608
2021.000000	23.067193
2020.000000	23.093053
2019.000000	23.095949
2018.000000	23.165143
2017.000000	23.285659
2016.000000	23.350660
2015.000000	23.327096
2014.000000	23.296642
2013.000000	23.390299
2012.000000	23.457497
2011.000000	23.460792
2010.000000	23.423549
2009.000000	23.432136
2008.000000	23.427642
2007.000000	23.420154
2006.000000	23.412466
2005.000000	23.381213
2004.000000	23.392995
2003.000000	23.386705
2002.000000	23.358448
2001.000000	23.318509
2000.000000	23.226250
1999.000000	23.172332
1998.000000	23.115020
1997.000000	23.089958
1996.000000	23.085465
1995.000000	23.006485
1994.000000	22.943481
1993.000000	22.941684
1992.000000	22.858711
1991.000000	22.771144
1990.000000	22.650029
1989.000000	22.526318
1988.000000	22.559468
1987.000000	22.536702
1986.000000	22.385833
1985.000000	22.352483
1984.000000	22.305056
1983.000000	22.216791
1982.000000	22.041658
1981.000000	21.958585
1980.000000	21.906065
1979.000000	21.829382
1978.000000	21.764281
1977.000000	21.717253
1976.000000	21.613411
1975.000000	21.457949
1974.000000	21.366988
1973.000000	21.325351
1972.000000	21.222408
1971.000000	21.217516
1970.000000	21.100694
1969.000000	20.992359
1968.000000	20.903595
1967.000000	20.851474
1966.000000	20.804846
1965.000000	20.726465
1964.000000	20.653077
1963.000000	20.574996
1962.000000	20.451884
1961.000000	20.384986
1960.000000	20.373704
1959.000000	20.227627
1958.000000	20.184992
1957.000000	20.060482
1956.000000	19.962032
1955.000000	19.941364
1954.000000	19.850303
1953.000000	19.812360
1952.000000	19.814557
1951.000000	19.605376
1950.000000	19.572726
1949.000000	19.516612
1948.000000	19.484461
1947.000000	19.454507
1946.000000	19.327001
1945.000000	19.355458
1944.000000	19.324006
1943.000000	19.192606
1942.000000	19.186516
1941.000000	19.216071
1940.000000	19.199096
1939.000000	19.155862
1938.000000	19.181024
1937.000000	19.138788
1936.000000	19.197099
1935.000000	19.279673
1934.000000	19.325504
1933.000000	19.252814
1932.000000	19.373231
1931.000000	19.472180
1930.000000	19.524500
1929.000000	19.503033
1928.000000	19.716906
1927.000000	19.887446
1926.000000	19.875564
1925.000000	19.977908
1924.000000	20.268864
1923.000000	20.300815
1922.000000	20.377797
1921.000000	20.721073
1920.000000	20.979878
1919.000000	20.883326
1918.000000	21.057660
1917.000000	21.269536
1916.000000	21.539824
1915.000000	21.799627
1914.000000	22.143602
1913.000000	22.404304
1912.000000	22.466110
1911.000000	22.779332
1910.000000	22.880877
1909.000000	23.116917
1908.000000	23.438626
1907.000000	23.804168
1906.000000	24.341348
1905.000000	24.519476
1904.000000	24.687619
1903.000000	25.043376
1902.000000	25.281713
1901.000000	25.623091
1900.000000	26.085785
1899.000000	26.422471
1898.000000	26.620469
1897.000000	26.789611
1896.000000	27.242520
1895.000000	27.519697
1894.000000	27.927874
1893.000000	28.272947
1892.000000	28.554318
1891.000000	28.965490
1890.000000	29.227191
1889.000000	29.577755
1888.000000	29.784041
1887.000000	30.269699
1886.000000	30.739982
1885.000000	31.082259
1884.000000	31.520590
1883.000000	31.882038
1882.000000	32.279632
1881.000000	32.822204
1880.000000	33.244459
1879.000000	33.543702
1878.000000	34.146482
1877.000000	34.562248
1876.000000	34.851207
1875.000000	35.123691
1874.000000	35.566914
1873.000000	35.936151
1872.000000	36.045184
1871.000000	36.360303
1870.000000	36.552909
1869.000000	36.694393
1868.000000	36.885701
1867.000000	37.033476
1866.000000	36.782759
1865.000000	36.988245
1864.000000	37.169868
1863.000000	37.142310
1862.000000	37.209607
1861.000000	37.411499
1860.000000	37.566862
1859.000000	37.443849
1858.000000	37.442352
1857.000000	37.595318
1856.000000	37.563567
1855.000000	37.437060
1854.000000	37.599612
1853.000000	37.516838
1852.000000	37.341306
1851.000000	37.312450
1850.000000	37.370362
1849.000000	37.464318
1848.000000	37.674597
1847.000000	37.458827
1846.000000	37.141711
1845.000000	37.016801
1844.000000	37.053046
1843.000000	37.158086
1842.000000	37.313349
1841.000000	37.228878
1840.000000	37.068423
1839.000000	36.964681
1838.000000	36.911762
1837.000000	37.038768
1836.000000	37.111956
1835.000000	36.773373
1834.000000	36.574377
1833.000000	36.593447
1832.000000	36.572779
1831.000000	36.580967
1830.000000	36.435289
1829.000000	36.394251
1828.000000	36.390158
1827.000000	36.312177
1826.000000	36.273536
1825.000000	36.080830
1824.000000	36.024815
1823.000000	36.101598
1822.000000	36.125562
1821.000000	36.163903
1820.000000	36.199549
1819.000000	36.032404
1818.000000	35.959116
1817.000000	35.959415
1816.000000	36.004546
1815.000000	36.027112
1814.000000	35.975990
1813.000000	35.996658
1812.000000	35.998955
1811.000000	35.963110
1810.000000	35.880935
1809.000000	35.849084
1808.000000	35.829713
1807.000000	35.744643
1806.000000	35.746141
1805.000000	35.691824
1804.000000	35.641500
1803.000000	35.586884
1802.000000	35.598865
1801.000000	35.521683
1800.000000	35.477451
1799.000000	35.395276
1798.000000	35.369715
1797.000000	35.314200
1796.000000	35.250797
1795.000000	35.201472
1794.000000	35.154244
1793.000000	35.158338
1792.000000	35.080157
1791.000000	34.999081
1790.000000	34.929287
1789.000000	34.904126
1788.000000	34.875769
1787.000000	34.826345
1786.000000	34.793195
1785.000000	34.741175
1784.000000	34.656504
1783.000000	34.565343
1782.000000	34.482469
1781.000000	34.422361
1780.000000	34.333297
1779.000000	34.255116
1778.000000	34.206291
1777.000000	34.084277
1776.000000	33.961165
1775.000000	33.886479
1774.000000	33.743397
1773.000000	33.595823
1772.000000	33.512650
1771.000000	33.387041
1770.000000	33.268023
1769.000000	33.148106
1768.000000	33.001330
1767.000000	32.894194
1766.000000	32.773977
1765.000000	32.703485
1764.000000	32.659951
1763.000000	32.614720
1762.000000	32.616617
1761.000000	32.645074
1760.000000	32.678822
1759.000000	32.735136
1758.000000	32.801435
1757.000000	32.816512
1756.000000	32.842672
1755.000000	32.888303
1754.000000	32.897489
1753.000000	32.913265
1752.000000	32.893894
1751.000000	32.827096
1750.000000	32.786358
1749.000000	32.741327
1748.000000	32.682017
1747.000000	32.590158
1746.000000	32.485418
1745.000000	32.331353
1744.000000	32.158616
1743.000000	32.007447
1742.000000	31.819234
1741.000000	31.599070
1740.000000	31.366725
1739.000000	31.122598
1738.000000	30.913517
1737.000000	30.765543
1736.000000	30.596501
1735.000000	30.478181
1734.000000	30.448526
1733.000000	30.436345
1732.000000	30.461107
1731.000000	30.518719
1730.000000	30.600694
1729.000000	30.712524
1728.000000	30.797793
1727.000000	30.875075
1726.000000	30.926397
1725.000000	30.977918
1724.000000	31.027443
1723.000000	31.070477
1722.000000	31.107720
1721.000000	31.156745
1720.000000	31.205271
1719.000000	31.268675
1718.000000	31.394782
1717.000000	31.505913
1716.000000	31.610353
1715.000000	31.739456
1714.000000	31.864765
1713.000000	31.991671
1712.000000	32.065459
1711.000000	32.107494
1710.000000	32.173494
1709.000000	32.207941
1708.000000	32.226413
1707.000000	32.231605
1706.000000	32.218026
1705.000000	32.183978
1704.000000	32.146734
1703.000000	32.084430
1702.000000	32.002155
1701.000000	31.874151
1700.000000	31.766016
1699.000000	31.652988
1698.000000	31.504615
1697.000000	31.395481
1696.000000	31.351948
1695.000000	31.321194
1694.000000	31.352347
1693.000000	31.444906
1692.000000	31.576405
1691.000000	31.700715
1690.000000	31.873651
1689.000000	31.964313
1688.000000	32.024920
1687.000000	32.083531
1686.000000	32.114184
1685.000000	32.175491
1684.000000	32.338242
1683.000000	32.523659
1682.000000	32.838579
1681.000000	33.271518
1680.000000	33.749189
1679.000000	34.270193
1678.000000	34.845216
1677.000000	35.338563
1676.000000	35.757523
1675.000000	36.151622
1674.000000	36.462547
1673.000000	36.751007
1672.000000	37.038069
1671.000000	37.271313
1670.000000	37.466415
1669.000000	37.680588
1668.000000	37.836650
1667.000000	37.988818
1666.000000	38.158559
1665.000000	38.283768
1664.000000	38.395697
1663.000000	38.474576
1662.000000	38.546467
1661.000000	38.641422
1660.000000	38.680362
1659.000000	38.746961
1658.000000	38.816255
1657.000000	38.850003
1656.000000	38.893038
1655.000000	38.888944
1654.000000	38.904919
1653.000000	38.910810
1652.000000	38.890342
1651.000000	38.890841
1650.000000	38.849204
1649.000000	38.770125
1648.000000	38.777015
1647.000000	38.759741
1646.000000	38.698534
1645.000000	38.657497
1644.000000	38.624647
1643.000000	38.570330
1642.000000	38.527895
1641.000000	38.466389
1640.000000	38.419760
1639.000000	38.357655
1638.000000	38.307631
1637.000000	38.251517
1636.000000	38.175033
1635.000000	38.136492
1634.000000	38.076384
1633.000000	37.993311
1632.000000	37.944086
1631.000000	37.862910
1630.000000	37.773846
1629.000000	37.705650
1628.000000	37.628867
1627.000000	37.577246
1626.000000	37.476400
1625.000000	37.385838
1624.000000	37.346398
1623.000000	37.296974
1622.000000	37.188839
1621.000000	37.102071
1620.000000	37.030580
1619.000000	36.989044
1618.000000	36.919450
1617.000000	36.824295
1616.000000	36.735431
1615.000000	36.713664
1614.000000	36.667934
1613.000000	36.589054
1612.000000	36.543024
1611.000000	36.481119
1610.000000	36.367492
1609.000000	36.343928
1608.000000	36.278928
1607.000000	36.207437
1606.000000	36.170293
1605.000000	36.101299
1604.000000	35.996359
1603.000000	35.926465
1602.000000	35.886327
1601.000000	35.795166
1600.000000	35.752531
1599.000000	35.708298
1598.000000	35.615840
1597.000000	35.595271
1596.000000	35.534763
1595.000000	35.427028
1594.000000	35.384992
1593.000000	35.367818
1592.000000	35.368018
1591.000000	35.280352
1590.000000	35.258685
1589.000000	35.205366
1588.000000	35.143361
1587.000000	35.123291
1586.000000	35.073567
1585.000000	35.060387
1584.000000	35.039519
1583.000000	35.001078
1582.000000	34.986300
1581.000000	34.992291
1580.000000	34.943765
1579.000000	34.927191
1578.000000	34.947060
1577.000000	34.934380
1576.000000	34.919003
1575.000000	34.934080
1574.000000	34.970724
1573.000000	34.981907
1572.000000	34.969227
1571.000000	34.996086
1570.000000	35.020748
1569.000000	35.027538
1568.000000	35.092039
1567.000000	35.128783
1566.000000	35.154444
1565.000000	35.201372
1564.000000	35.198477
1563.000000	35.256887
1562.000000	35.256189
1561.000000	35.290536
1560.000000	35.274061
1559.000000	35.274760
1558.000000	35.316696
1557.000000	35.305813
1556.000000	35.266972
1555.000000	35.269169
1554.000000	35.268070
1553.000000	35.236918
1552.000000	35.205965
1551.000000	35.191288
1550.000000	35.178807
1549.000000	35.101525
1548.000000	35.071670
1547.000000	35.058890
1546.000000	35.046908
1545.000000	35.016954
1544.000000	34.967928
1543.000000	34.943166
1542.000000	34.946262
1541.000000	34.914210
1540.000000	34.900032
1539.000000	34.889049
1538.000000	34.895040
1537.000000	34.883058
1536.000000	34.879563
1535.000000	34.853403
1534.000000	34.814662
1533.000000	34.809770
1532.000000	34.794793
1531.000000	34.766436
1530.000000	34.737780
1529.000000	34.706627
1528.000000	34.673178
1527.000000	34.628347
1526.000000	34.620259
1525.000000	34.599591
1524.000000	34.554959
1523.000000	34.501241
1522.000000	34.459704
1521.000000	34.428851
1520.000000	34.387015
1519.000000	34.345878
1518.000000	34.322514
1517.000000	34.308834
1516.000000	34.257712
1515.000000	34.204793
1514.000000	34.160261
1513.000000	34.139493
1512.000000	34.098855
1511.000000	34.038347
1510.000000	34.008093
1509.000000	33.971250
1508.000000	33.914736
1507.000000	33.857823
1506.000000	33.822077
1505.000000	33.804804
1504.000000	33.756278
1503.000000	33.733413
1502.000000	33.684787
1501.000000	33.660524
1500.000000	33.628074
1499.000000	33.613296
1498.000000	33.618888
1497.000000	33.593926
1496.000000	33.569163
1495.000000	33.569763
1494.000000	33.564870
1493.000000	33.568564
1492.000000	33.595323
1491.000000	33.609302
1490.000000	33.619487
1489.000000	33.626975
1488.000000	33.644548
1487.000000	33.664318
1486.000000	33.645147
1485.000000	33.660324
1484.000000	33.665017
1483.000000	33.677897
1482.000000	33.722230
1481.000000	33.750986
1480.000000	33.762269
1479.000000	33.787330
1478.000000	33.826371
1477.000000	33.872201
1476.000000	33.924621
1475.000000	33.960167
1474.000000	33.997410
1473.000000	34.047833
1472.000000	34.102050
1471.000000	34.150476
1470.000000	34.184724
1469.000000	34.222466
1468.000000	34.271991
1467.000000	34.339088
1466.000000	34.399596
1465.000000	34.447922
1464.000000	34.507731
1463.000000	34.567040
1462.000000	34.616565
1461.000000	34.690652
1460.000000	34.771628
1459.000000	34.841621
1458.000000	34.925493
1457.000000	34.997184
1456.000000	35.077661
1455.000000	35.159935
1454.000000	35.266173
1453.000000	35.387488
1452.000000	35.490131
1451.000000	35.597168
1450.000000	35.689427
1449.000000	35.761717
1448.000000	35.878838
1447.000000	36.001351
1446.000000	36.131852
1445.000000	36.250970
1444.000000	36.333444
1443.000000	36.462747
1442.000000	36.606927
1441.000000	36.707673
1440.000000	36.816807
1439.000000	36.967477
1438.000000	37.100274
1437.000000	37.228977
1436.000000	37.340008
1435.000000	37.446046
1434.000000	37.598813
1433.000000	37.749483
1432.000000	37.891566
1431.000000	38.018073
1430.000000	38.174135
1429.000000	38.350166
1428.000000	38.528294
1427.000000	38.713212
1426.000000	38.901225
1425.000000	39.127280
1424.000000	39.368512
1423.000000	39.594667
1422.000000	39.783578
1421.000000	40.029303
1420.000000	40.312271
1419.000000	40.583458
1418.000000	40.759089
1417.000000	40.973462
1416.000000	41.237659
1415.000000	41.564660
1414.000000	41.841437
1413.000000	42.036340
1412.000000	42.267088
1411.000000	42.579112
1410.000000	42.940061
1409.000000	43.282338
1408.000000	43.599953
1407.000000	43.991755
1406.000000	44.367282
1405.000000	44.794630
1404.000000	45.134312
1403.000000	45.422372
1402.000000	45.809781
1401.000000	46.283258
1400.000000	46.605666
1399.000000	46.773510
1398.000000	46.956730
1397.000000	47.296511
1396.000000	47.644181
1395.000000	47.845873
1394.000000	47.935536
1393.000000	48.118856
1392.000000	48.364981
1391.000000	48.499076
1390.000000	48.719240
1389.000000	49.007101
1388.000000	49.340991
1387.000000	49.575433
1386.000000	49.860997
1385.000000	50.352846
1384.000000	50.732567
1383.000000	51.138647
1382.000000	51.473236
1381.000000	51.689506
1380.000000	51.863441
1379.000000	51.900285
1378.000000	52.014810
1377.000000	52.138521
1376.000000	52.290589
1375.000000	52.430875
1374.000000	52.649641
1373.000000	52.918331
1372.000000	53.275885
1371.000000	53.570735
1370.000000	53.811867
1369.000000	54.050303
1368.000000	54.347849
1367.000000	54.523581
1366.000000	54.687630
1365.000000	54.980184
1364.000000	55.078634
1363.000000	55.164602
1362.000000	55.475827
1361.000000	55.482118
1360.000000	55.448569
1359.000000	55.471234
1358.000000	55.606328
1357.000000	55.759195
1356.000000	55.963084
1355.000000	56.282895
1354.000000	56.616686
1353.000000	57.018972
1352.000000	57.453309
1351.000000	57.899927
1350.000000	58.314594
1349.000000	58.722672
1348.000000	59.125357
1347.000000	59.426697
1346.000000	59.743214
1345.000000	60.063924
1344.000000	60.382538
1343.000000	60.639845
1342.000000	60.904342
1341.000000	61.150965
1340.000000	61.423849
1339.000000	61.660388
1338.000000	61.881351
1337.000000	62.099617
1336.000000	62.309198
1335.000000	62.540445
1334.000000	62.716775
1333.000000	62.920664
1332.000000	63.106081
1331.000000	63.270630
1330.000000	63.438674
1329.000000	63.607216
1328.000000	63.740912
1327.000000	63.868118
1326.000000	63.987037
1325.000000	64.127722
1324.000000	64.253430
1323.000000	64.363262
1322.000000	64.485076
1321.000000	64.591913
1320.000000	64.672191
1319.000000	64.775833
1318.000000	64.843529
1317.000000	64.957755
1316.000000	65.022556
1315.000000	65.107626
1314.000000	65.191199
1313.000000	65.259994
1312.000000	65.308719
1311.000000	65.377614
1310.000000	65.411363
1309.000000	65.473867
1308.000000	65.507616
1307.000000	65.540765
1306.000000	65.577809
1305.000000	65.594583
1304.000000	65.617149
1303.000000	65.623040
1302.000000	65.625835
1301.000000	65.626135
1300.000000	65.626734
1299.000000	65.642809
1298.000000	65.622540
1297.000000	65.632126
1296.000000	65.626534
1295.000000	65.617049
1294.000000	65.598876
1293.000000	65.568423
1292.000000	65.547755
1291.000000	65.525588
1290.000000	65.486548
1289.000000	65.470572
1288.000000	65.401178
1287.000000	65.330985
1286.000000	65.289049
1285.000000	65.220354
1284.000000	65.164440
1283.000000	65.098340
1282.000000	65.051312
1281.000000	64.981119
1280.000000	64.928500
1279.000000	64.863199
1278.000000	64.803790
1277.000000	64.765548
1276.000000	64.691661
1275.000000	64.656415
1274.000000	64.635946
1273.000000	64.600101
1272.000000	64.529509
1271.000000	64.499255
1270.000000	64.471198
1269.000000	64.450929
1268.000000	64.406197
1267.000000	64.359768
1266.000000	64.328416
1265.000000	64.295566
1264.000000	64.241448
1263.000000	64.194919
1262.000000	64.160172
1261.000000	64.113743
1260.000000	64.063220
1259.000000	64.020585
1258.000000	63.980547
1257.000000	63.918641
1256.000000	63.862527
1255.000000	63.811704
1254.000000	63.744307
1253.000000	63.686995
1252.000000	63.613806
1251.000000	63.544812
1250.000000	63.476216
1249.000000	63.381461
1248.000000	63.293595
1247.000000	63.186758
1246.000000	63.085313
1245.000000	62.978776
1244.000000	62.856762
1243.000000	62.726061
1242.000000	62.622719
1241.000000	62.494515
1240.000000	62.353130
1239.000000	62.224227
1238.000000	62.097920
1237.000000	61.958133
1236.000000	61.833524
1235.000000	61.691440
1234.000000	61.553052
1233.000000	61.419456
1232.000000	61.255007
1231.000000	61.100442
1230.000000	60.949872
1229.000000	60.792113
1228.000000	60.642941
1227.000000	60.504652
1226.000000	60.359074
1225.000000	60.209402
1224.000000	60.057434
1223.000000	59.912955
1222.000000	59.759689
1221.000000	59.622398
1220.000000	59.491398
1219.000000	59.351712
1218.000000	59.209728
1217.000000	59.088413
1216.000000	58.969894
1215.000000	58.854970
1214.000000	58.759216
1213.000000	58.652079
1212.000000	58.543745
1211.000000	58.434412
1210.000000	58.337559
1209.000000	58.248795
1208.000000	58.157734
1207.000000	58.060283
1206.000000	57.983799
1205.000000	57.940865
1204.000000	57.882853
1203.000000	57.834727
1202.000000	57.808367
1201.000000	57.742967
1200.000000	57.679464
1199.000000	57.611568
1198.000000	57.496743
1197.000000	57.355658
1196.000000	57.189911
1195.000000	56.981729
1194.000000	56.728316
1193.000000	56.420086
1192.000000	56.048853
1191.000000	55.657151
1190.000000	55.292807
1189.000000	54.984377
1188.000000	54.730565
1187.000000	54.545847
1186.000000	54.471360
1185.000000	54.518588
1184.000000	54.656078
1183.000000	54.881435
1182.000000	55.177083
1181.000000	55.520259
1180.000000	55.869027
1179.000000	56.221889
1178.000000	56.530917
1177.000000	56.808493
1176.000000	57.060109
1175.000000	57.265596
1174.000000	57.469185
1173.000000	57.691346
1172.000000	57.926587
1171.000000	58.160729
1170.000000	58.415940
1169.000000	58.667855
1168.000000	58.926560
1167.000000	59.195750
1166.000000	59.454255
1165.000000	59.720948
1164.000000	60.013102
1163.000000	60.300863
1162.000000	60.586727
1161.000000	60.859910
1160.000000	61.132693
1159.000000	61.405377
1158.000000	61.659289
1157.000000	61.883647
1156.000000	62.106108
1155.000000	62.239504
1154.000000	62.366211
1153.000000	62.458869
1152.000000	62.516182
1151.000000	62.543440
1150.000000	62.549431
1149.000000	62.546336
1148.000000	62.526865
1147.000000	62.575192
1146.000000	62.670446
1145.000000	62.806738
1144.000000	62.979474
1143.000000	63.173878
1142.000000	63.396039
1141.000000	63.628584
1140.000000	63.870514
1139.000000	64.105256
1138.000000	64.371550
1137.000000	64.679580
1136.000000	64.966142
1135.000000	65.286054
1134.000000	65.480258
1133.000000	65.637418
1132.000000	65.862075
1131.000000	66.070457
1130.000000	66.285429
1129.000000	66.440891
1128.000000	66.543035
1127.000000	66.635994
1126.000000	66.689212
1125.000000	66.736041
1124.000000	66.775181
1123.000000	66.805734
1122.000000	66.807332
1121.000000	66.771786
1120.000000	66.785765
1119.000000	66.809029
1118.000000	66.777078
1117.000000	66.759305
1116.000000	66.714773
1115.000000	66.680126
1114.000000	66.650471
1113.000000	66.621116
1112.000000	66.587967
1111.000000	66.541038
1110.000000	66.514179
1109.000000	66.502397
1108.000000	66.449478
1107.000000	66.389969
1106.000000	66.351628
1105.000000	66.339646
1104.000000	66.290321
1103.000000	66.270951
1102.000000	66.210743
1101.000000	66.193669
1100.000000	66.121878
1099.000000	66.099113
1098.000000	66.090826
1097.000000	66.032415
1096.000000	65.969311
1095.000000	65.929672
1094.000000	65.905309
1093.000000	65.828326
1092.000000	65.806260
1091.000000	65.759332
1090.000000	65.689938
1089.000000	65.628132
1088.000000	65.577110
1087.000000	65.496633
1086.000000	65.468675
1085.000000	65.400479
1084.000000	65.338474
1083.000000	65.272275
1082.000000	65.193595
1081.000000	65.207274
1080.000000	65.146966
1079.000000	65.066389
1078.000000	65.019860
1077.000000	65.008977
1076.000000	64.922609
1075.000000	64.879774
1074.000000	64.855611
1073.000000	64.770840
1072.000000	64.713628
1071.000000	64.637843
1070.000000	64.617774
1069.000000	64.557965
1068.000000	64.505745
1067.000000	64.508141
1066.000000	64.385029
1065.000000	64.331411
1064.000000	64.248138
1063.000000	64.254329
1062.000000	64.166263
1061.000000	64.154581
1060.000000	64.090978
1059.000000	64.011899
1058.000000	64.023381
1057.000000	63.952889
1056.000000	63.865023
1055.000000	63.774062
1054.000000	63.748900
1053.000000	63.672217
1052.000000	63.611310
1051.000000	63.584351
1050.000000	63.512461
1049.000000	63.469227
1048.000000	63.385754
1047.000000	63.363688
1046.000000	63.260446
1045.000000	63.225599
1044.000000	63.208824
1043.000000	63.183263
1042.000000	63.134937
1041.000000	63.060451
1040.000000	63.037785
1039.000000	63.032094
1038.000000	62.955511
1037.000000	62.900295
1036.000000	62.890211
1035.000000	62.843183
1034.000000	62.853167
1033.000000	62.783474
1032.000000	62.780279
1031.000000	62.761208
1030.000000	62.710685
1029.000000	62.690116
1028.000000	62.674540
1027.000000	62.683326
1026.000000	62.633003
1025.000000	62.609439
1024.000000	62.614931
1023.000000	62.628710
1022.000000	62.618226
1021.000000	62.647182
1020.000000	62.608341
1019.000000	62.623318
1018.000000	62.639493
1017.000000	62.695408
1016.000000	62.701000
1015.000000	62.723465
1014.000000	62.738442
1013.000000	62.805141
1012.000000	62.843582
1011.000000	62.965096
1010.000000	62.989459
1009.000000	63.060850
1008.000000	63.129046
1007.000000	63.182664
1006.000000	63.236682
1005.000000	63.349510
1004.000000	63.433881
1003.000000	63.513859
1002.000000	63.563383
1001.000000	63.633676
1000.000000	63.657739
999.000000	63.729130
998.000000	63.824884
997.000000	63.925031
996.000000	63.964870
995.000000	64.039856
994.000000	64.057729
993.000000	64.117238
992.000000	64.251433
991.000000	64.322225
990.000000	64.326718
989.000000	64.372548
988.000000	64.469101
987.000000	64.578534
986.000000	64.660109
985.000000	64.719219
984.000000	64.819965
983.000000	64.887762
982.000000	64.989407
981.000000	65.075176
980.000000	65.138579
979.000000	65.294042
978.000000	65.369926
977.000000	65.492539
976.000000	65.540166
975.000000	65.692334
974.000000	65.821237
973.000000	65.975402
972.000000	66.123376
971.000000	66.252778
970.000000	66.322073
969.000000	66.491414
968.000000	66.624212
967.000000	66.795750
966.000000	66.990453
965.000000	67.164786
964.000000	67.354497
963.000000	67.502771
962.000000	67.613302
961.000000	67.852337
960.000000	68.051333
959.000000	68.223271
958.000000	68.406292
957.000000	68.453919
956.000000	68.598298
955.000000	68.790405
954.000000	68.941774
953.000000	69.013864
952.000000	69.227838
951.000000	69.380305
950.000000	69.512703
949.000000	69.615546
948.000000	69.671960
947.000000	69.886133
946.000000	69.993968
945.000000	70.109692
944.000000	70.262658
943.000000	70.420617
942.000000	70.582570
941.000000	70.708578
940.000000	70.856152
939.000000	71.003428
938.000000	71.112861
937.000000	71.274713
936.000000	71.396128
935.000000	71.569164
934.000000	71.787431
933.000000	71.919130
932.000000	72.055022
931.000000	72.071497
930.000000	72.043939
929.000000	72.226960
928.000000	72.464498
927.000000	72.577026
926.000000	72.787305
925.000000	72.985003
924.000000	73.200274
923.000000	73.374808
922.000000	73.461476
921.000000	73.792970
920.000000	74.131154
919.000000	74.282123
918.000000	74.525252
917.000000	74.625799
916.000000	74.764787
915.000000	74.953698
914.000000	75.043561
913.000000	75.381545
912.000000	75.557577
911.000000	75.577746
910.000000	75.647539
909.000000	75.782333
908.000000	76.326203
907.000000	76.698835
906.000000	76.851901
905.000000	77.061581
904.000000	77.269364
903.000000	77.578292
902.000000	77.903995
901.000000	78.099796
900.000000	78.092607
899.000000	78.197148
898.000000	78.658943
897.000000	79.098572
896.000000	79.195923
895.000000	79.400611
894.000000	79.780431
893.000000	79.735200
892.000000	79.827659
891.000000	80.394095
890.000000	80.539573
889.000000	80.529987
888.000000	80.481960
887.000000	80.774714
886.000000	81.373000
885.000000	81.793259
884.000000	81.851570
883.000000	82.311568
882.000000	82.551901
881.000000	82.412114
880.000000	82.382659
879.000000	82.646257
878.000000	83.183537
877.000000	83.331311
876.000000	83.696254
875.000000	84.345264
874.000000	84.722189
873.000000	84.440419
872.000000	84.636320
871.000000	84.856384
870.000000	85.265160
869.000000	85.695703
868.000000	85.851465
867.000000	86.370772
866.000000	85.878524
865.000000	86.606213
864.000000	87.162664
863.000000	87.657109
862.000000	87.847119
861.000000	88.947240
860.000000	88.813145
859.000000	88.802461
858.000000	85.850367
857.000000	85.775500
856.000000	85.912700
855.000000	85.862900
854.000000	86.406300
853.000000	87.181000
852.000000	87.614500
851.000000	88.015400
850.000000	88.338100
849.000000	88.283800
848.000000	88.979200
847.000000	89.379800
846.000000	89.580500
845.000000	90.018900
844.000000	90.343000
843.000000	90.675900
842.000000	91.034700
841.000000	91.573000
840.000000	91.894200
839.000000	92.168400
838.000000	92.748500
837.000000	92.990600
836.000000	93.528600
835.000000	93.807900
834.000000	94.156800
833.000000	94.457800
832.000000	94.817700
831.000000	95.046500
830.000000	95.363100
829.000000	95.654600
828.000000	95.873400
827.000000	96.290200
826.000000	96.488200
825.000000	96.683200
824.000000	97.214100
823.000000	97.441400
822.000000	97.613700
821.000000	97.827300
820.000000	98.240800
819.000000	98.645800
818.000000	98.923900
817.000000	99.090800
816.000000	99.265100
815.000000	99.341300
814.000000	99.637500
813.000000	100.057100
812.000000	100.308800
811.000000	100.404500
810.000000	100.512900
809.000000	100.515700
808.000000	100.747900
807.000000	100.909900
806.000000	101.054000
805.000000	101.225900
804.000000	101.313800
803.000000	101.215300
802.000000	101.269900
801.000000	101.415900
800.000000	101.556100
799.000000	101.707300
798.000000	101.662500
797.000000	101.733400
796.000000	101.526200
795.000000	101.649400
794.000000	101.686300
793.000000	101.616400
792.000000	101.546100
791.000000	101.444700
790.000000	101.474300
789.000000	101.331600
788.000000	101.082900
787.000000	101.161600
786.000000	101.081900
785.000000	101.035500
784.000000	100.757900
783.000000	100.650500
782.000000	100.532500
781.000000	100.401100
780.000000	100.216200
779.000000	100.175700
778.000000	100.035300
777.000000	99.804700
776.000000	99.792700
775.000000	99.623500
774.000000	99.368300
773.000000	99.216800
772.000000	99.027900
771.000000	98.881100
770.000000	98.735600
769.000000	98.456600
768.000000	98.328000
767.000000	98.237800
766.000000	97.862900
765.000000	97.800000
764.000000	97.575600
763.000000	97.438600
762.000000	97.291800
761.000000	97.162100
760.000000	97.004300
759.000000	96.657400
758.000000	96.631300
757.000000	96.346900
756.000000	96.261100
755.000000	96.063500
754.000000	95.925400
753.000000	95.675500
752.000000	95.512800
751.000000	95.218100
750.000000	95.098900
749.000000	94.849100
748.000000	94.808800
747.000000	94.573900
746.000000	94.358100
745.000000	94.137500
744.000000	93.905500
743.000000	93.676700
742.000000	93.338300
741.000000	93.174400
740.000000	92.961800
739.000000	92.609300
738.000000	92.401300
737.000000	92.202500
736.000000	91.917500
735.000000	91.774200
734.000000	91.436800
733.000000	91.247300
732.000000	91.039400
731.000000	90.734400
730.000000	90.353200
729.000000	90.131400
728.000000	89.737100
727.000000	89.524200
726.000000	89.225800
725.000000	88.856800
724.000000	88.600500
723.000000	88.269500
722.000000	87.841900
721.000000	87.559300
720.000000	87.205400
719.000000	86.887200
718.000000	86.514600
717.000000	86.146500
716.000000	85.825100
715.000000	85.481000
714.000000	85.101200
713.000000	84.763800
712.000000	84.379100
711.000000	84.034200
710.000000	83.669700
709.000000	83.313000
708.000000	82.951200
707.000000	82.489800
706.000000	81.986000
705.000000	81.534000
704.000000	81.116700
703.000000	80.654800
702.000000	80.140200
701.000000	79.668000
700.000000	79.161900
699.000000	78.645700
698.000000	78.033000
697.000000	77.561200
696.000000	77.093100
695.000000	76.598200
694.000000	76.062400
693.000000	75.609800
692.000000	75.159200
691.000000	74.655000
690.000000	74.164300
689.000000	73.708400
688.000000	73.199400
687.000000	72.698700
686.000000	72.217900
685.000000	71.738900
684.000000	71.314200
683.000000	70.864500
682.000000	70.410100
681.000000	69.996300
680.000000	69.555000
679.000000	69.142700
678.000000	68.763900
677.000000	68.405200
676.000000	68.067600
675.000000	67.797400
674.000000	67.580000
673.000000	67.358200
672.000000	67.150300
671.000000	66.946200
670.000000	66.827700
669.000000	66.688400
668.000000	66.557900
667.000000	66.465400
666.000000	66.378100
665.000000	66.259100
664.000000	66.139700
663.000000	66.033900
662.000000	65.896900
661.000000	65.792900
660.000000	65.633000
659.000000	65.461000
658.000000	65.348500
657.000000	65.181600
656.000000	65.009400
655.000000	64.890300
654.000000	64.749000
653.000000	64.568800
652.000000	64.444000
651.000000	64.313600
650.000000	64.161200
649.000000	64.012000
648.000000	63.854700
647.000000	63.692300
646.000000	63.542300
645.000000	63.378100
644.000000	63.217600
643.000000	63.036100
642.000000	62.844600
641.000000	62.672500
640.000000	62.505400
639.000000	62.340300
638.000000	62.163300
637.000000	62.002300
636.000000	61.815800
635.000000	61.666700
634.000000	61.578000
633.000000	61.499900
632.000000	61.413200
631.000000	61.352600
630.000000	61.341500
629.000000	61.360900
628.000000	61.390800
627.000000	61.432800
626.000000	61.540600
625.000000	61.717100
624.000000	61.912300
623.000000	62.107200
622.000000	62.366600
621.000000	62.648900
620.000000	62.908300
619.000000	63.194800
618.000000	63.536200
617.000000	63.878600
616.000000	64.206100
615.000000	64.556900
614.000000	64.919200
613.000000	65.280600
612.000000	65.681100
611.000000	66.073600
610.000000	66.460000
609.000000	66.861200
608.000000	67.236300
607.000000	67.627200
606.000000	68.025500
605.000000	68.430800
604.000000	68.842500
603.000000	69.231200
602.000000	69.608500
601.000000	69.984500
600.000000	70.375700
599.000000	70.715000
598.000000	70.988100
597.000000	71.264600
596.000000	71.567300
595.000000	71.813000
594.000000	71.995900
593.000000	72.227800
592.000000	72.425200
591.000000	72.594100
590.000000	72.744400
589.000000	72.835500
588.000000	72.944000
587.000000	73.022000
586.000000	73.058600
585.000000	73.110700
584.000000	73.128100
583.000000	73.115200
582.000000	73.130300
581.000000	73.129100
580.000000	73.069300
579.000000	73.010200
578.000000	72.948600
577.000000	72.869700
576.000000	72.778100
575.000000	72.641300
574.000000	72.512500
573.000000	72.377300
572.000000	72.234400
571.000000	72.046500
570.000000	71.876300
569.000000	71.701400
568.000000	71.497500
567.000000	71.269700
566.000000	70.988000
565.000000	70.705100
564.000000	70.440200
563.000000	70.130700
562.000000	69.837100
561.000000	69.498900
560.000000	69.140800
559.000000	68.796800
558.000000	68.384200
557.000000	67.984000
556.000000	67.530600
555.000000	67.091400
554.000000	66.617900
553.000000	66.108300
552.000000	65.613600
551.000000	65.049900
550.000000	64.541300
549.000000	64.019500
548.000000	63.508000
547.000000	62.959800
546.000000	62.406200
545.000000	61.840000
544.000000	61.304300
543.000000	60.768700
542.000000	60.216500
541.000000	59.653300
540.000000	59.093800
539.000000	58.538100
538.000000	57.980100
537.000000	57.439600
536.000000	56.882000
535.000000	56.313100
534.000000	55.762100
533.000000	55.166200
532.000000	54.577900
531.000000	53.986900
530.000000	53.358300
529.000000	52.754600
528.000000	52.108000
527.000000	51.449500
526.000000	50.793100
525.000000	50.082400
524.000000	49.354800
523.000000	48.608700
522.000000	47.862700
521.000000	47.110100
520.000000	46.318900
519.000000	45.541500
518.000000	44.733800
517.000000	43.971700
516.000000	43.176000
515.000000	42.384300
514.000000	41.621500
513.000000	40.854500
512.000000	40.132900
511.000000	39.390500
510.000000	38.701500
509.000000	38.018600
508.000000	37.369100
507.000000	36.774200
506.000000	36.201400
505.000000	35.632700
504.000000	35.159700
503.000000	34.684100
502.000000	34.248600
501.000000	33.868400
500.000000	33.560200
499.000000	33.233800
498.000000	33.006900
497.000000	32.843000
496.000000	32.674900
495.000000	32.538100
494.000000	32.456600
493.000000	32.409700
492.000000	32.368600
491.000000	32.366600
490.000000	32.427200
489.000000	32.424100
488.000000	32.449400
487.000000	32.472100
486.000000	32.564300
485.000000	32.582900
484.000000	32.640400
483.000000	32.669200
482.000000	32.666000
481.000000	32.677500
480.000000	32.647600
479.000000	32.576400
478.000000	32.600500
477.000000	32.563500
476.000000	32.521100
475.000000	32.494700
474.000000	32.414800
473.000000	32.381700
472.000000	32.305700
471.000000	32.199400
470.000000	32.114300
469.000000	32.019400
468.000000	31.863100
467.000000	31.752600
466.000000	31.593600
465.000000	31.461200
464.000000	31.262900
463.000000	31.096600
462.000000	30.900400
461.000000	30.673500
460.000000	30.522500
459.000000	30.281000
458.000000	30.048800
457.000000	29.809300
456.000000	29.526000
455.000000	29.259400
454.000000	28.987900
453.000000	28.663200
452.000000	28.380200
451.000000	28.032900
450.000000	27.713100
449.000000	27.347900
448.000000	26.973500
447.000000	26.563000
446.000000	26.172100
445.000000	25.728100
444.000000	25.283000
443.000000	24.843800
442.000000	24.358900
441.000000	23.863500
440.000000	23.372300
439.000000	22.845100
438.000000	22.341000
437.000000	21.829500
436.000000	21.299800
435.000000	20.769800
434.000000	20.222600
433.000000	19.698200
432.000000	19.136900
431.000000	18.575100
430.000000	18.042500
429.000000	17.520500
428.000000	17.004100
427.000000	16.500600
426.000000	15.984500
425.000000	15.476900
424.000000	15.001900
423.000000	14.520400
422.000000	14.054100
421.000000	13.603100
420.000000	13.154000
419.000000	12.728000
418.000000	12.314300
417.000000	11.949100
416.000000	11.584300
415.000000	11.224000
414.000000	10.887000
413.000000	10.547300
412.000000	10.247000
411.000000	9.985000
410.000000	9.719600
409.000000	9.462100
408.000000	9.231700
407.000000	9.023100
406.000000	8.822700
405.000000	8.648100
404.000000	8.471600
403.000000	8.319100
402.000000	8.165500
401.000000	8.019100
400.000000	7.906200
399.000000	7.804000
398.000000	7.699600
397.000000	7.611900
396.000000	7.530800
395.000000	7.437400
394.000000	7.357900
393.000000	7.302800
392.000000	7.226800
391.000000	7.146200
390.000000	7.101000
389.000000	7.058000
388.000000	7.015700
387.000000	6.963900
386.000000	6.909100
385.000000	6.879400
384.000000	6.847800
383.000000	6.813300
382.000000	6.768200
381.000000	6.723900
380.000000	6.707800
379.000000	6.661900
378.000000	6.630700
377.000000	6.616300
376.000000	6.547700
375.000000	6.443700
374.000000	6.300200
373.000000	6.256900
372.000000	6.299600
371.000000	6.252100
370.000000	6.310500
369.000000	6.399900
368.000000	6.371600
367.000000	6.318700
366.000000	6.395700
365.000000	6.377400
364.000000	6.330100
363.000000	6.280600
362.000000	6.176000
361.000000	6.169700
360.000000	6.249300
359.000000	6.307500
358.000000	6.179300
357.000000	6.085300
356.000000	6.100400
355.000000	6.017500
354.000000	6.006900
353.000000	6.110300
352.000000	6.179200
351.000000	6.075800
350.000000	5.949200
349.000000	5.956900
348.000000	5.947400
347.000000	5.948900
346.000000	5.985700
345.000000	5.918700
344.000000	5.949800
343.000000	5.972800
342.000000	5.923100
341.000000	5.868900
340.000000	5.869700
339.000000	5.952200
338.000000	5.890600
337.000000	5.831200
336.000000	5.891800
335.000000	5.867100
334.000000	5.885900
333.000000	5.994400
332.000000	5.953700
331.000000	5.868500
330.000000	5.888600
329.000000	5.958100
328.000000	5.883800
327.000000	6.106100
326.000000	6.235700
325.000000	6.028100
324.000000	6.066300
323.000000	6.023200
322.000000	6.187800
321.000000	6.229700
320.000000	6.178800
319.000000	6.198700
318.000000	6.232800
317.000000	6.402900
316.000000	6.058400
315.000000	5.730100
314.000000	5.729200
313.000000	5.707700
312.000000	5.696100
311.000000	5.701200
310.000000	5.666500
309.000000	5.699500
308.000000	5.743500
307.000000	5.751800
306.000000	5.756700
305.000000	5.779000
304.000000	5.761500
303.000000	5.749300
302.000000	5.736900
301.000000	5.748700
300.000000	5.759600
299.000000	5.732400
298.000000	5.728000
297.000000	5.743400
296.000000	5.762200
295.000000	5.772900
294.000000	5.772900
293.000000	5.750300
292.000000	5.756500
291.000000	5.755300
290.000000	5.744600
289.000000	5.724000
288.000000	5.705000
287.000000	5.719700
286.000000	5.790400
285.000000	5.824000
284.000000	5.827500
283.000000	5.788000
282.000000	5.778800
281.000000	5.829200
280.000000	5.820700
279.000000	5.831600
278.000000	5.821900
277.000000	5.862000
276.000000	5.886500
275.000000	5.841400
274.000000	5.880300
273.000000	5.866400
272.000000	5.885300
271.000000	5.899900
270.000000	5.908600
269.000000	5.961100
268.000000	5.991600
267.000000	6.005200
266.000000	5.991100
265.000000	6.014800
264.000000	6.034100
263.000000	6.106900
262.000000	6.110500
261.000000	6.105300
260.000000	6.106100
259.000000	6.177000
258.000000	6.206400
257.000000	6.229000
256.000000	6.202300
255.000000	6.222000
254.000000	6.241400
253.000000	6.228700
252.000000	6.259200
251.000000	6.322300
250.000000	6.332100
