PE UV       SUBTECH     SPECTRUM    ASCII       PEDS        4.00        
   -1
CICIMAUCR0020-4.Sample.ASC
24/04/25
09:47:55.00
24/04/25
09:47:55.00
Vinicio Soto Monge
C. resplendens
250,000000
1
Lambda 1050
1050L1511233
PerkinElmer UV WinLab 6.3.2.0749 / 2.02.05 Lambda 900 UV/VIS/NIR, Aug  7 2015 09:38:08

0
0
3350/servo 860,8/2
0
0
UV/VIS
1
1
1
DoubleDePol,CommonBeamDepol,RBeamAtt,SBeamAtt,60mm sphere, WB InGaAs Detector
0
0
0
0
Program
Program
3350/servo 860,8/2
3350/0,2 860,8/0,2
3350/0,2 860,8/0,2
0
15.00
 
 
 
0
 
860,8
319,2
860,8
Front
100
on
S:100 R:100
0
0
0
0
 
0
 
 
 
0
 
 
0
0
0
0
0
 
 
 
 
0
0


0
0
#HDR
-1
-1
#GR
nm
%R
1.0
0.0
2500,000000
-1,000000
2251
8
85,477800
5,625000
#DATA
2500.000000	8.956123
2499.000000	8.871707
2498.000000	8.814559
2497.000000	8.692991
2496.000000	8.666178
2495.000000	8.602441
2494.000000	8.570856
2493.000000	8.671177
2492.000000	8.597555
2491.000000	8.573469
2490.000000	8.598350
2489.000000	8.525978
2488.000000	8.598010
2487.000000	8.562221
2486.000000	8.572560
2485.000000	8.467466
2484.000000	8.421453
2483.000000	8.452697
2482.000000	8.464058
2481.000000	8.509845
2480.000000	8.440767
2479.000000	8.470307
2478.000000	8.468603
2477.000000	8.400661
2476.000000	8.399184
2475.000000	8.431110
2474.000000	8.434405
2473.000000	8.439858
2472.000000	8.423270
2471.000000	8.401797
2470.000000	8.417135
2469.000000	8.407137
2468.000000	8.383392
2467.000000	8.426565
2466.000000	8.468375
2465.000000	8.477237
2464.000000	8.485758
2463.000000	8.469057
2462.000000	8.518820
2461.000000	8.546542
2460.000000	8.603349
2459.000000	8.596987
2458.000000	8.650272
2457.000000	8.719350
2456.000000	8.753548
2455.000000	8.813309
2454.000000	8.860232
2453.000000	8.883409
2452.000000	8.945784
2451.000000	8.991230
2450.000000	9.069283
2449.000000	9.100868
2448.000000	9.187328
2447.000000	9.231865
2446.000000	9.301738
2445.000000	9.371498
2444.000000	9.385245
2443.000000	9.448074
2442.000000	9.489657
2441.000000	9.538511
2440.000000	9.585547
2439.000000	9.637356
2438.000000	9.711432
2437.000000	9.751993
2436.000000	9.759491
2435.000000	9.806869
2434.000000	9.869243
2433.000000	9.908440
2432.000000	9.932299
2431.000000	9.979222
2430.000000	10.034779
2429.000000	10.058411
2428.000000	10.078521
2427.000000	10.107720
2426.000000	10.145440
2425.000000	10.183160
2424.000000	10.199180
2423.000000	10.216108
2422.000000	10.235764
2421.000000	10.263599
2420.000000	10.272575
2419.000000	10.286436
2418.000000	10.321770
2417.000000	10.343243
2416.000000	10.359263
2415.000000	10.385621
2414.000000	10.405390
2413.000000	10.418456
2412.000000	10.423341
2411.000000	10.429704
2410.000000	10.460607
2409.000000	10.478785
2408.000000	10.493555
2407.000000	10.518323
2406.000000	10.530593
2405.000000	10.577175
2404.000000	10.579902
2403.000000	10.593990
2402.000000	10.615463
2401.000000	10.651252
2400.000000	10.671021
2399.000000	10.699879
2398.000000	10.729419
2397.000000	10.754868
2396.000000	10.779182
2395.000000	10.800087
2394.000000	10.827809
2393.000000	10.845874
2392.000000	10.865188
2391.000000	10.884616
2390.000000	10.901772
2389.000000	10.922677
2388.000000	10.941196
2387.000000	10.955512
2386.000000	10.972554
2385.000000	10.970963
2384.000000	10.955625
2383.000000	10.952217
2382.000000	10.969714
2381.000000	10.966646
2380.000000	10.951535
2379.000000	10.960624
2378.000000	10.949604
2377.000000	10.929040
2376.000000	10.930857
2375.000000	10.928131
2374.000000	10.900295
2373.000000	10.868256
2372.000000	10.861098
2371.000000	10.843488
2370.000000	10.814743
2369.000000	10.783272
2368.000000	10.731577
2367.000000	10.685109
2366.000000	10.643185
2365.000000	10.595013
2364.000000	10.547181
2363.000000	10.492532
2362.000000	10.442428
2361.000000	10.382213
2360.000000	10.345061
2359.000000	10.298252
2358.000000	10.252578
2357.000000	10.214063
2356.000000	10.176229
2355.000000	10.160437
2354.000000	10.155324
2353.000000	10.152825
2352.000000	10.166345
2351.000000	10.211791
2350.000000	10.237013
2349.000000	10.266894
2348.000000	10.316657
2347.000000	10.370170
2346.000000	10.441520
2345.000000	10.491851
2344.000000	10.540932
2343.000000	10.597285
2342.000000	10.637732
2341.000000	10.666136
2340.000000	10.698061
2339.000000	10.725215
2338.000000	10.749415
2337.000000	10.764298
2336.000000	10.762935
2335.000000	10.728396
2334.000000	10.701583
2333.000000	10.688063
2332.000000	10.645571
2331.000000	10.612964
2330.000000	10.580925
2329.000000	10.543659
2328.000000	10.500372
2327.000000	10.446973
2326.000000	10.383690
2325.000000	10.295525
2324.000000	10.204633
2323.000000	10.136578
2322.000000	10.066591
2321.000000	9.989788
2320.000000	9.870379
2319.000000	9.766081
2318.000000	9.689959
2317.000000	9.592705
2316.000000	9.513857
2315.000000	9.433758
2314.000000	9.332073
2313.000000	9.243227
2312.000000	9.172445
2311.000000	9.127226
2310.000000	9.088370
2309.000000	9.056331
2308.000000	9.047014
2307.000000	9.036107
2306.000000	9.039629
2305.000000	9.081212
2304.000000	9.124840
2303.000000	9.198122
2302.000000	9.257542
2301.000000	9.351842
2300.000000	9.433758
2299.000000	9.532489
2298.000000	9.621109
2297.000000	9.687914
2296.000000	9.773352
2295.000000	9.849701
2294.000000	9.901055
2293.000000	9.927527
2292.000000	10.001490
2291.000000	10.005467
2290.000000	10.026145
2289.000000	10.052049
2288.000000	10.036256
2287.000000	10.005126
2286.000000	9.976722
2285.000000	9.931617
2284.000000	9.908213
2283.000000	9.873674
2282.000000	9.829705
2281.000000	9.785509
2280.000000	9.720294
2279.000000	9.692459
2278.000000	9.661215
2277.000000	9.639401
2276.000000	9.598840
2275.000000	9.590660
2274.000000	9.568278
2273.000000	9.559416
2272.000000	9.561575
2271.000000	9.576004
2270.000000	9.609861
2269.000000	9.662124
2268.000000	9.732224
2267.000000	9.805164
2266.000000	9.927527
2265.000000	10.054889
2264.000000	10.188045
2263.000000	10.334154
2262.000000	10.500372
2261.000000	10.668408
2260.000000	10.926313
2259.000000	11.110482
2258.000000	11.318624
2257.000000	11.589822
2256.000000	11.828867
2255.000000	12.039395
2254.000000	12.237311
2253.000000	12.474879
2252.000000	12.699495
2251.000000	12.879574
2250.000000	13.097601
2249.000000	13.240642
2248.000000	13.424015
2247.000000	13.588643
2246.000000	13.721799
2245.000000	13.883700
2244.000000	14.008903
2243.000000	14.155807
2242.000000	14.261582
2241.000000	14.351224
2240.000000	14.449387
2239.000000	14.585043
2238.000000	14.660483
2237.000000	14.729220
2236.000000	14.792048
2235.000000	14.897710
2234.000000	14.950882
2233.000000	15.044500
2232.000000	15.090855
2231.000000	15.103352
2230.000000	15.142890
2229.000000	15.184928
2228.000000	15.199698
2227.000000	15.218671
2226.000000	15.234918
2225.000000	15.263663
2224.000000	15.256618
2223.000000	15.252528
2222.000000	15.263208
2221.000000	15.252756
2220.000000	15.228669
2219.000000	15.216285
2218.000000	15.231964
2217.000000	15.172203
2216.000000	15.166636
2215.000000	15.160728
2214.000000	15.131529
2213.000000	15.112896
2212.000000	15.085856
2211.000000	15.109601
2210.000000	15.074722
2209.000000	15.070063
2208.000000	15.046091
2207.000000	15.014960
2206.000000	15.024049
2205.000000	15.010870
2204.000000	15.014279
2203.000000	14.979967
2202.000000	14.962811
2201.000000	14.988943
2200.000000	14.959516
2199.000000	14.953040
2198.000000	14.957358
2197.000000	14.970310
2196.000000	14.934976
2195.000000	14.922705
2194.000000	14.903845
2193.000000	14.879759
2192.000000	14.879986
2191.000000	14.877487
2190.000000	14.846243
2189.000000	14.837608
2188.000000	14.837267
2187.000000	14.812158
2186.000000	14.800910
2185.000000	14.784095
2184.000000	14.752170
2183.000000	14.738195
2182.000000	14.739218
2181.000000	14.734560
2180.000000	14.710473
2179.000000	14.678661
2178.000000	14.661619
2177.000000	14.684569
2176.000000	14.694567
2175.000000	14.658097
2174.000000	14.659688
2173.000000	14.666050
2172.000000	14.659688
2171.000000	14.662755
2170.000000	14.672299
2169.000000	14.659460
2168.000000	14.696953
2167.000000	14.705020
2166.000000	14.709337
2165.000000	14.733764
2164.000000	14.750125
2163.000000	14.746830
2162.000000	14.741490
2161.000000	14.766372
2160.000000	14.805455
2159.000000	14.822384
2158.000000	14.842266
2157.000000	14.868057
2156.000000	14.893847
2155.000000	14.923046
2154.000000	14.950768
2153.000000	14.962243
2152.000000	15.004962
2151.000000	15.022572
2150.000000	15.060747
2149.000000	15.086083
2148.000000	15.113010
2147.000000	15.146299
2146.000000	15.182201
2145.000000	15.194812
2144.000000	15.226624
2143.000000	15.250142
2142.000000	15.264344
2141.000000	15.274115
2140.000000	15.298315
2139.000000	15.331150
2138.000000	15.331150
2137.000000	15.335694
2136.000000	15.355009
2135.000000	15.369551
2134.000000	15.380913
2133.000000	15.396137
2132.000000	15.395342
2131.000000	15.405794
2130.000000	15.412725
2129.000000	15.424086
2128.000000	15.408067
2127.000000	15.411930
2126.000000	15.425222
2125.000000	15.419087
2124.000000	15.406476
2123.000000	15.392729
2122.000000	15.378527
2121.000000	15.379322
2120.000000	15.370347
2119.000000	15.356031
2118.000000	15.346374
2117.000000	15.315130
2116.000000	15.303882
2115.000000	15.287635
2114.000000	15.260595
2113.000000	15.245825
2112.000000	15.241394
2111.000000	15.222420
2110.000000	15.197993
2109.000000	15.172544
2108.000000	15.149253
2107.000000	15.121644
2106.000000	15.108124
2105.000000	15.109601
2104.000000	15.089946
2103.000000	15.071540
2102.000000	15.045636
2101.000000	15.026776
2100.000000	15.002690
2099.000000	14.970651
2098.000000	14.955653
2097.000000	14.942701
2096.000000	14.939407
2095.000000	14.936339
2094.000000	14.913957
2093.000000	14.885099
2092.000000	14.874987
2091.000000	14.869534
2090.000000	14.854309
2089.000000	14.842948
2088.000000	14.817839
2087.000000	14.798979
2086.000000	14.793866
2085.000000	14.793980
2084.000000	14.783073
2083.000000	14.781028
2082.000000	14.780346
2081.000000	14.759100
2080.000000	14.739218
2079.000000	14.732742
2078.000000	14.732514
2077.000000	14.713995
2076.000000	14.684910
2075.000000	14.655029
2074.000000	14.648781
2073.000000	14.639805
2072.000000	14.628784
2071.000000	14.619127
2070.000000	14.612083
2069.000000	14.598449
2068.000000	14.589019
2067.000000	14.582998
2066.000000	14.556185
2065.000000	14.551640
2064.000000	14.552435
2063.000000	14.562661
2062.000000	14.554480
2061.000000	14.566069
2060.000000	14.582089
2059.000000	14.567887
2058.000000	14.594473
2057.000000	14.620263
2056.000000	14.648099
2055.000000	14.697180
2054.000000	14.740922
2053.000000	14.782164
2052.000000	14.854537
2051.000000	14.922024
2050.000000	15.011438
2049.000000	15.088810
2048.000000	15.185382
2047.000000	15.270820
2046.000000	15.379777
2045.000000	15.491233
2044.000000	15.593145
2043.000000	15.691762
2042.000000	15.796969
2041.000000	15.923877
2040.000000	16.010906
2039.000000	16.117590
2038.000000	16.233817
2037.000000	16.313007
2036.000000	16.400376
2035.000000	16.486269
2034.000000	16.572389
2033.000000	16.644307
2032.000000	16.719860
2031.000000	16.787234
2030.000000	16.858811
2029.000000	16.927434
2028.000000	16.993217
2027.000000	17.038549
2026.000000	17.108990
2025.000000	17.156595
2024.000000	17.209539
2023.000000	17.242828
2022.000000	17.292478
2021.000000	17.339628
2020.000000	17.373371
2019.000000	17.415295
2018.000000	17.448016
2017.000000	17.476761
2016.000000	17.503119
2015.000000	17.531182
2014.000000	17.542544
2013.000000	17.567198
2012.000000	17.561063
2011.000000	17.595488
2010.000000	17.582990
2009.000000	17.581059
2008.000000	17.558109
2007.000000	17.553110
2006.000000	17.558677
2005.000000	17.536068
2004.000000	17.486304
2003.000000	17.484259
2002.000000	17.448584
2001.000000	17.430065
2000.000000	17.379847
1999.000000	17.334856
1998.000000	17.316791
1997.000000	17.270550
1996.000000	17.237034
1995.000000	17.173978
1994.000000	17.103991
1993.000000	17.079110
1992.000000	17.030255
1991.000000	16.970608
1990.000000	16.926866
1989.000000	16.845973
1988.000000	16.782576
1987.000000	16.738948
1986.000000	16.629991
1985.000000	16.578410
1984.000000	16.535464
1983.000000	16.454684
1982.000000	16.404580
1981.000000	16.330617
1980.000000	16.264834
1979.000000	16.210526
1978.000000	16.140540
1977.000000	16.062487
1976.000000	16.004430
1975.000000	15.967391
1974.000000	15.884680
1973.000000	15.818329
1972.000000	15.764476
1971.000000	15.732777
1970.000000	15.679151
1969.000000	15.608369
1968.000000	15.536451
1967.000000	15.467714
1966.000000	15.459420
1965.000000	15.385798
1964.000000	15.356258
1963.000000	15.299451
1962.000000	15.235713
1961.000000	15.199243
1960.000000	15.137664
1959.000000	15.074267
1958.000000	15.039955
1957.000000	14.993714
1956.000000	14.942474
1955.000000	14.871124
1954.000000	14.848060
1953.000000	14.779096
1952.000000	14.785232
1951.000000	14.714450
1950.000000	14.688318
1949.000000	14.676275
1948.000000	14.650598
1947.000000	14.603789
1946.000000	14.568569
1945.000000	14.572318
1944.000000	14.538006
1943.000000	14.549595
1942.000000	14.529826
1941.000000	14.557094
1940.000000	14.544596
1939.000000	14.543233
1938.000000	14.538802
1937.000000	14.607766
1936.000000	14.634465
1935.000000	14.653893
1934.000000	14.711041
1933.000000	14.778188
1932.000000	14.846129
1931.000000	14.898846
1930.000000	14.965879
1929.000000	15.050181
1928.000000	15.116418
1927.000000	15.221966
1926.000000	15.313085
1925.000000	15.481689
1924.000000	15.580193
1923.000000	15.682446
1922.000000	15.807763
1921.000000	15.962733
1920.000000	16.102820
1919.000000	16.239384
1918.000000	16.447299
1917.000000	16.639762
1916.000000	16.828135
1915.000000	17.007305
1914.000000	17.187498
1913.000000	17.376666
1912.000000	17.572083
1911.000000	17.789996
1910.000000	18.015294
1909.000000	18.240705
1908.000000	18.477364
1907.000000	18.694141
1906.000000	18.919325
1905.000000	19.138828
1904.000000	19.392984
1903.000000	19.637596
1902.000000	19.882436
1901.000000	20.194308
1900.000000	20.471641
1899.000000	20.728410
1898.000000	21.041418
1897.000000	21.334884
1896.000000	21.638576
1895.000000	21.955106
1894.000000	22.268114
1893.000000	22.564989
1892.000000	22.871862
1891.000000	23.177031
1890.000000	23.489357
1889.000000	23.864285
1888.000000	24.263072
1887.000000	24.665722
1886.000000	25.091663
1885.000000	25.569413
1884.000000	26.073293
1883.000000	26.593194
1882.000000	27.125819
1881.000000	27.660489
1880.000000	28.172663
1879.000000	28.662683
1878.000000	29.159406
1877.000000	29.590005
1876.000000	29.970046
1875.000000	30.324978
1874.000000	30.686386
1873.000000	30.993145
1872.000000	31.279908
1871.000000	31.528383
1870.000000	31.754817
1869.000000	32.006360
1868.000000	32.216660
1867.000000	32.366745
1866.000000	32.521488
1865.000000	32.652713
1864.000000	32.761328
1863.000000	32.881078
1862.000000	32.957313
1861.000000	33.001850
1860.000000	33.026391
1859.000000	33.026164
1858.000000	33.045819
1857.000000	33.045478
1856.000000	33.033094
1855.000000	33.015371
1854.000000	32.950951
1853.000000	32.888122
1852.000000	32.861877
1851.000000	32.843244
1850.000000	32.799957
1849.000000	32.703044
1848.000000	32.590225
1847.000000	32.469907
1846.000000	32.397080
1845.000000	32.386400
1844.000000	32.385832
1843.000000	32.370608
1842.000000	32.320958
1841.000000	32.248359
1840.000000	32.183712
1839.000000	32.117020
1838.000000	32.050215
1837.000000	31.974775
1836.000000	31.904788
1835.000000	31.825031
1834.000000	31.743001
1833.000000	31.675059
1832.000000	31.597461
1831.000000	31.510091
1830.000000	31.413632
1829.000000	31.305017
1828.000000	31.186858
1827.000000	31.087786
1826.000000	31.013595
1825.000000	30.961333
1824.000000	30.946108
1823.000000	30.969286
1822.000000	30.933952
1821.000000	30.840788
1820.000000	30.750805
1819.000000	30.714562
1818.000000	30.713426
1817.000000	30.721606
1816.000000	30.729445
1815.000000	30.714335
1814.000000	30.699678
1813.000000	30.670593
1812.000000	30.627647
1811.000000	30.556979
1810.000000	30.498467
1809.000000	30.476539
1808.000000	30.432571
1807.000000	30.366106
1806.000000	30.299301
1805.000000	30.243857
1804.000000	30.175234
1803.000000	30.128424
1802.000000	30.072412
1801.000000	29.991292
1800.000000	29.908807
1799.000000	29.866429
1798.000000	29.817575
1797.000000	29.753042
1796.000000	29.699416
1795.000000	29.640109
1794.000000	29.582052
1793.000000	29.510588
1792.000000	29.449691
1791.000000	29.375728
1790.000000	29.294153
1789.000000	29.225075
1788.000000	29.148612
1787.000000	29.065560
1786.000000	28.961716
1785.000000	28.856168
1784.000000	28.762891
1783.000000	28.665069
1782.000000	28.576563
1781.000000	28.465221
1780.000000	28.368989
1779.000000	28.271394
1778.000000	28.168005
1777.000000	28.033599
1776.000000	27.895557
1775.000000	27.756266
1774.000000	27.602545
1773.000000	27.439622
1772.000000	27.283288
1771.000000	27.147065
1770.000000	27.003456
1769.000000	26.878025
1768.000000	26.757139
1767.000000	26.641480
1766.000000	26.563313
1765.000000	26.523093
1764.000000	26.479465
1763.000000	26.481510
1762.000000	26.520139
1761.000000	26.597852
1760.000000	26.678859
1759.000000	26.773841
1758.000000	26.865982
1757.000000	26.937559
1756.000000	26.986754
1755.000000	27.021066
1754.000000	27.055832
1753.000000	27.065489
1752.000000	27.045266
1751.000000	26.987663
1750.000000	26.925971
1749.000000	26.854393
1748.000000	26.755435
1747.000000	26.637049
1746.000000	26.484237
1745.000000	26.329835
1744.000000	26.128396
1743.000000	25.914687
1742.000000	25.650420
1741.000000	25.379222
1740.000000	25.087914
1739.000000	24.839666
1738.000000	24.612096
1737.000000	24.443606
1736.000000	24.315221
1735.000000	24.260800
1734.000000	24.246939
1733.000000	24.300111
1732.000000	24.388616
1731.000000	24.535861
1730.000000	24.665495
1729.000000	24.822170
1728.000000	24.966687
1727.000000	25.119158
1726.000000	25.213345
1725.000000	25.309463
1724.000000	25.377063
1723.000000	25.415806
1722.000000	25.428871
1721.000000	25.416828
1720.000000	25.435007
1719.000000	25.472840
1718.000000	25.507606
1717.000000	25.544304
1716.000000	25.623720
1715.000000	25.675529
1714.000000	25.748015
1713.000000	25.797437
1712.000000	25.866969
1711.000000	25.842315
1710.000000	25.857312
1709.000000	25.844019
1708.000000	25.809139
1707.000000	25.780622
1706.000000	25.729723
1705.000000	25.626334
1704.000000	25.516696
1703.000000	25.393083
1702.000000	25.257882
1701.000000	25.089732
1700.000000	24.882499
1699.000000	24.669813
1698.000000	24.529385
1697.000000	24.427018
1696.000000	24.387480
1695.000000	24.394070
1694.000000	24.549267
1693.000000	24.689241
1692.000000	24.895337
1691.000000	25.105865
1690.000000	25.283104
1689.000000	25.387629
1688.000000	25.416942
1687.000000	25.416033
1686.000000	25.428644
1685.000000	25.494541
1684.000000	25.675642
1683.000000	26.000125
1682.000000	26.443677
1681.000000	27.060490
1680.000000	27.708320
1679.000000	28.356378
1678.000000	28.968420
1677.000000	29.530585
1676.000000	30.034352
1675.000000	30.470745
1674.000000	30.812611
1673.000000	31.132209
1672.000000	31.395908
1671.000000	31.636658
1670.000000	31.815714
1669.000000	31.989204
1668.000000	32.146105
1667.000000	32.284147
1666.000000	32.385037
1665.000000	32.479110
1664.000000	32.537394
1663.000000	32.603404
1662.000000	32.637829
1661.000000	32.688047
1660.000000	32.724176
1659.000000	32.744513
1658.000000	32.760079
1657.000000	32.764964
1656.000000	32.750080
1655.000000	32.715655
1654.000000	32.703271
1653.000000	32.676685
1652.000000	32.643851
1651.000000	32.591815
1650.000000	32.577159
1649.000000	32.522170
1648.000000	32.465135
1647.000000	32.384242
1646.000000	32.335387
1645.000000	32.269604
1644.000000	32.193710
1643.000000	32.119179
1642.000000	32.050556
1641.000000	31.979433
1640.000000	31.900925
1639.000000	31.820145
1638.000000	31.719028
1637.000000	31.651087
1636.000000	31.546902
1635.000000	31.452489
1634.000000	31.383752
1633.000000	31.284680
1632.000000	31.203559
1631.000000	31.106646
1630.000000	31.005415
1629.000000	30.905207
1628.000000	30.818065
1627.000000	30.715925
1626.000000	30.625829
1625.000000	30.528461
1624.000000	30.424845
1623.000000	30.334521
1622.000000	30.235677
1621.000000	30.147625
1620.000000	30.059460
1619.000000	29.962547
1618.000000	29.878131
1617.000000	29.801782
1616.000000	29.697825
1615.000000	29.603866
1614.000000	29.541492
1613.000000	29.473323
1612.000000	29.400837
1611.000000	29.326987
1610.000000	29.233028
1609.000000	29.164405
1608.000000	29.075331
1607.000000	29.011820
1606.000000	28.951946
1605.000000	28.859918
1604.000000	28.789704
1603.000000	28.726648
1602.000000	28.646777
1601.000000	28.570087
1600.000000	28.503395
1599.000000	28.450337
1598.000000	28.386713
1597.000000	28.330247
1596.000000	28.255602
1595.000000	28.196522
1594.000000	28.145396
1593.000000	28.096314
1592.000000	28.051096
1591.000000	28.010081
1590.000000	27.976110
1589.000000	27.937595
1588.000000	27.898511
1587.000000	27.863972
1586.000000	27.841363
1585.000000	27.809551
1584.000000	27.774444
1583.000000	27.745245
1582.000000	27.728089
1581.000000	27.701731
1580.000000	27.687756
1579.000000	27.680712
1578.000000	27.670828
1577.000000	27.668442
1576.000000	27.664692
1575.000000	27.674350
1574.000000	27.681507
1573.000000	27.683780
1572.000000	27.699345
1571.000000	27.719568
1570.000000	27.736497
1569.000000	27.736270
1568.000000	27.752289
1567.000000	27.781147
1566.000000	27.817277
1565.000000	27.835569
1564.000000	27.846021
1563.000000	27.862041
1562.000000	27.874652
1561.000000	27.881469
1560.000000	27.889422
1559.000000	27.911463
1558.000000	27.922598
1557.000000	27.923847
1556.000000	27.922484
1555.000000	27.918735
1554.000000	27.899761
1553.000000	27.883628
1552.000000	27.868858
1551.000000	27.855792
1550.000000	27.830570
1549.000000	27.816141
1548.000000	27.821821
1547.000000	27.803075
1546.000000	27.773876
1545.000000	27.761038
1544.000000	27.738656
1543.000000	27.724227
1542.000000	27.725249
1541.000000	27.723545
1540.000000	27.706503
1539.000000	27.674577
1538.000000	27.665942
1537.000000	27.647423
1536.000000	27.627313
1535.000000	27.614475
1534.000000	27.596637
1533.000000	27.575164
1532.000000	27.542216
1531.000000	27.500633
1530.000000	27.467798
1529.000000	27.436214
1528.000000	27.421785
1527.000000	27.397698
1526.000000	27.373498
1525.000000	27.338732
1524.000000	27.315669
1523.000000	27.257612
1522.000000	27.220346
1521.000000	27.204326
1520.000000	27.170356
1519.000000	27.119456
1518.000000	27.093666
1517.000000	27.053333
1516.000000	26.994480
1515.000000	26.963123
1514.000000	26.934264
1513.000000	26.885978
1512.000000	26.850531
1511.000000	26.809402
1510.000000	26.778044
1509.000000	26.741347
1508.000000	26.712375
1507.000000	26.673860
1506.000000	26.643070
1505.000000	26.616371
1504.000000	26.575242
1503.000000	26.534228
1502.000000	26.528888
1501.000000	26.527411
1500.000000	26.498325
1499.000000	26.482306
1498.000000	26.471171
1497.000000	26.441745
1496.000000	26.418341
1495.000000	26.432656
1494.000000	26.436292
1493.000000	26.461173
1492.000000	26.459583
1491.000000	26.463105
1490.000000	26.460037
1489.000000	26.478556
1488.000000	26.506619
1487.000000	26.518435
1486.000000	26.540817
1485.000000	26.539227
1484.000000	26.579560
1483.000000	26.600351
1482.000000	26.632731
1481.000000	26.651478
1480.000000	26.697719
1479.000000	26.731462
1478.000000	26.768728
1477.000000	26.805426
1476.000000	26.833943
1475.000000	26.892000
1474.000000	26.950284
1473.000000	26.988913
1472.000000	27.025497
1471.000000	27.061626
1470.000000	27.104800
1469.000000	27.155586
1468.000000	27.196600
1467.000000	27.246818
1466.000000	27.295672
1465.000000	27.360092
1464.000000	27.424398
1463.000000	27.486545
1462.000000	27.583231
1461.000000	27.637311
1460.000000	27.726499
1459.000000	27.804552
1458.000000	27.906578
1457.000000	28.026782
1456.000000	28.112788
1455.000000	28.222540
1454.000000	28.342290
1453.000000	28.475446
1452.000000	28.606784
1451.000000	28.711310
1450.000000	28.800156
1449.000000	28.931268
1448.000000	29.087147
1447.000000	29.239731
1446.000000	29.346756
1445.000000	29.481162
1444.000000	29.596935
1443.000000	29.742703
1442.000000	29.904945
1441.000000	30.005721
1440.000000	30.193980
1439.000000	30.366220
1438.000000	30.500285
1437.000000	30.610945
1436.000000	30.739898
1435.000000	30.921454
1434.000000	31.088127
1433.000000	31.238552
1432.000000	31.358302
1431.000000	31.518271
1430.000000	31.728686
1429.000000	31.919331
1428.000000	32.132926
1427.000000	32.343568
1426.000000	32.593860
1425.000000	32.853129
1424.000000	33.082517
1423.000000	33.308610
1422.000000	33.580944
1421.000000	33.880659
1420.000000	34.139927
1419.000000	34.385108
1418.000000	34.585751
1417.000000	34.862289
1416.000000	35.152574
1415.000000	35.446722
1414.000000	35.676337
1413.000000	35.915269
1412.000000	36.198851
1411.000000	36.559122
1410.000000	36.908828
1409.000000	37.271486
1408.000000	37.656980
1407.000000	38.060084
1406.000000	38.482958
1405.000000	38.860954
1404.000000	39.302687
1403.000000	39.708291
1402.000000	40.218420
1401.000000	40.552220
1400.000000	40.853299
1399.000000	41.078824
1398.000000	41.400239
1397.000000	41.735857
1396.000000	42.001828
1395.000000	42.169183
1394.000000	42.354942
1393.000000	42.619323
1392.000000	42.849393
1391.000000	43.074691
1390.000000	43.385313
1389.000000	43.772625
1388.000000	44.139600
1387.000000	44.515664
1386.000000	44.957738
1385.000000	45.432534
1384.000000	45.900739
1383.000000	46.317705
1382.000000	46.610717
1381.000000	46.779775
1380.000000	46.922362
1379.000000	47.051200
1378.000000	47.167315
1377.000000	47.312741
1376.000000	47.526677
1375.000000	47.792081
1374.000000	48.126108
1373.000000	48.516374
1372.000000	48.919933
1371.000000	49.317243
1370.000000	49.654678
1369.000000	49.990977
1368.000000	50.270015
1367.000000	50.539281
1366.000000	50.790369
1365.000000	50.993740
1364.000000	51.155186
1363.000000	51.344240
1362.000000	51.498188
1361.000000	51.586126
1360.000000	51.635889
1359.000000	51.736665
1358.000000	51.906746
1357.000000	52.177831
1356.000000	52.598659
1355.000000	53.082202
1354.000000	53.591877
1353.000000	54.205055
1352.000000	54.792897
1351.000000	55.342905
1350.000000	55.800431
1349.000000	56.236825
1348.000000	56.644701
1347.000000	56.996224
1346.000000	57.347861
1345.000000	57.721199
1344.000000	58.043410
1343.000000	58.334263
1342.000000	58.632729
1341.000000	58.922105
1340.000000	59.182850
1339.000000	59.447118
1338.000000	59.702296
1337.000000	59.938728
1336.000000	60.162435
1335.000000	60.373531
1334.000000	60.568834
1333.000000	60.778908
1332.000000	60.976029
1331.000000	61.166561
1330.000000	61.330506
1329.000000	61.487294
1328.000000	61.641810
1327.000000	61.794167
1326.000000	61.938799
1325.000000	62.076613
1324.000000	62.206475
1323.000000	62.330883
1322.000000	62.449610
1321.000000	62.564929
1320.000000	62.658888
1319.000000	62.755915
1318.000000	62.841580
1317.000000	62.920997
1316.000000	63.019273
1315.000000	63.108688
1314.000000	63.196285
1313.000000	63.260477
1312.000000	63.315694
1311.000000	63.374660
1310.000000	63.425786
1309.000000	63.476572
1308.000000	63.533834
1307.000000	63.573258
1306.000000	63.598026
1305.000000	63.607001
1304.000000	63.623135
1303.000000	63.632338
1302.000000	63.623248
1301.000000	63.629156
1300.000000	63.621317
1299.000000	63.606661
1298.000000	63.591209
1297.000000	63.586437
1296.000000	63.579052
1295.000000	63.554057
1294.000000	63.518837
1293.000000	63.478390
1292.000000	63.444533
1291.000000	63.404768
1290.000000	63.354209
1289.000000	63.300356
1288.000000	63.242185
1287.000000	63.171858
1286.000000	63.106529
1285.000000	63.025295
1284.000000	62.933381
1283.000000	62.860895
1282.000000	62.780342
1281.000000	62.691950
1280.000000	62.620373
1279.000000	62.544592
1278.000000	62.468015
1277.000000	62.396552
1276.000000	62.318840
1275.000000	62.263396
1274.000000	62.215337
1273.000000	62.158984
1272.000000	62.095019
1271.000000	62.027532
1270.000000	61.962544
1269.000000	61.906759
1268.000000	61.855974
1267.000000	61.793827
1266.000000	61.726567
1265.000000	61.672713
1264.000000	61.605794
1263.000000	61.531718
1262.000000	61.467071
1261.000000	61.417194
1260.000000	61.367318
1259.000000	61.304148
1258.000000	61.219278
1257.000000	61.131681
1256.000000	61.079986
1255.000000	61.015680
1254.000000	60.938082
1253.000000	60.838214
1252.000000	60.757435
1251.000000	60.672451
1250.000000	60.548725
1249.000000	60.464195
1248.000000	60.370350
1247.000000	60.243556
1246.000000	60.136304
1245.000000	60.007351
1244.000000	59.854085
1243.000000	59.709340
1242.000000	59.585614
1241.000000	59.433711
1240.000000	59.290330
1239.000000	59.143540
1238.000000	58.990955
1237.000000	58.831327
1236.000000	58.682037
1235.000000	58.512411
1234.000000	58.353350
1233.000000	58.180202
1232.000000	58.030117
1231.000000	57.869011
1230.000000	57.685069
1229.000000	57.511921
1228.000000	57.337636
1227.000000	57.172327
1226.000000	56.995543
1225.000000	56.855115
1224.000000	56.691283
1223.000000	56.512681
1222.000000	56.366118
1221.000000	56.215124
1220.000000	56.071856
1219.000000	55.930747
1218.000000	55.797704
1217.000000	55.677954
1216.000000	55.573088
1215.000000	55.452884
1214.000000	55.319387
1213.000000	55.229518
1212.000000	55.139081
1211.000000	55.049780
1210.000000	54.954911
1209.000000	54.902535
1208.000000	54.832889
1207.000000	54.790852
1206.000000	54.751541
1205.000000	54.708481
1204.000000	54.720979
1203.000000	54.718479
1202.000000	54.672693
1201.000000	54.643948
1200.000000	54.590890
1199.000000	54.496704
1198.000000	54.353777
1197.000000	54.173811
1196.000000	53.938061
1195.000000	53.631188
1194.000000	53.249443
1193.000000	52.816685
1192.000000	52.338254
1191.000000	51.850280
1190.000000	51.428770
1189.000000	51.081109
1188.000000	50.840133
1187.000000	50.774577
1186.000000	50.817864
1185.000000	50.993171
1184.000000	51.319813
1183.000000	51.754275
1182.000000	52.277016
1181.000000	52.767149
1180.000000	53.283755
1179.000000	53.694017
1178.000000	54.077807
1177.000000	54.415129
1176.000000	54.705527
1175.000000	54.990359
1174.000000	55.283939
1173.000000	55.573656
1172.000000	55.908819
1171.000000	56.211488
1170.000000	56.556309
1169.000000	56.889199
1168.000000	57.200617
1167.000000	57.541461
1166.000000	57.859581
1165.000000	58.216672
1164.000000	58.568082
1163.000000	58.903018
1162.000000	59.237612
1161.000000	59.560960
1160.000000	59.884307
1159.000000	60.149824
1158.000000	60.427157
1157.000000	60.650750
1156.000000	60.835715
1155.000000	60.985800
1154.000000	61.075669
1153.000000	61.112253
1152.000000	61.127477
1151.000000	61.143042
1150.000000	61.152813
1149.000000	61.146564
1148.000000	61.179172
1147.000000	61.304602
1146.000000	61.490021
1145.000000	61.706911
1144.000000	61.980836
1143.000000	62.283619
1142.000000	62.617873
1141.000000	62.960194
1140.000000	63.295698
1139.000000	63.640859
1138.000000	63.996131
1137.000000	64.372536
1136.000000	64.746328
1135.000000	65.108418
1134.000000	65.365414
1133.000000	65.608777
1132.000000	65.867363
1131.000000	66.083799
1130.000000	66.302507
1129.000000	66.465203
1128.000000	66.585180
1127.000000	66.706861
1126.000000	66.801729
1125.000000	66.869785
1124.000000	66.956813
1123.000000	67.014984
1122.000000	67.068042
1121.000000	67.115533
1120.000000	67.136324
1119.000000	67.167796
1118.000000	67.174612
1117.000000	67.186883
1116.000000	67.180180
1115.000000	67.156434
1114.000000	67.158706
1113.000000	67.145414
1112.000000	67.115987
1111.000000	67.123486
1110.000000	67.129848
1109.000000	67.123486
1108.000000	67.102694
1107.000000	67.107580
1106.000000	67.108489
1105.000000	67.096105
1104.000000	67.085993
1103.000000	67.082357
1102.000000	67.095650
1101.000000	67.074745
1100.000000	67.066451
1099.000000	67.081789
1098.000000	67.083948
1097.000000	67.080199
1096.000000	67.075086
1095.000000	67.087016
1094.000000	67.085539
1093.000000	67.075200
1092.000000	67.084516
1091.000000	67.100081
1090.000000	67.137006
1089.000000	67.128599
1088.000000	67.143596
1087.000000	67.157002
1086.000000	67.165523
1085.000000	67.184838
1084.000000	67.215514
1083.000000	67.224262
1082.000000	67.211878
1081.000000	67.228579
1080.000000	67.255961
1079.000000	67.268913
1078.000000	67.287886
1077.000000	67.300952
1076.000000	67.307655
1075.000000	67.303792
1074.000000	67.294362
1073.000000	67.281637
1072.000000	67.277547
1071.000000	67.261073
1070.000000	67.239714
1069.000000	67.206652
1068.000000	67.160297
1067.000000	67.153026
1066.000000	67.111216
1065.000000	67.065770
1064.000000	67.009531
1063.000000	66.937158
1062.000000	66.860695
1061.000000	66.796162
1060.000000	66.727880
1059.000000	66.633580
1058.000000	66.534167
1057.000000	66.464067
1056.000000	66.387718
1055.000000	66.302053
1054.000000	66.208775
1053.000000	66.140493
1052.000000	66.052328
1051.000000	65.962004
1050.000000	65.889745
1049.000000	65.835892
1048.000000	65.770109
1047.000000	65.712847
1046.000000	65.665470
1045.000000	65.646837
1044.000000	65.623774
1043.000000	65.593893
1042.000000	65.579464
1041.000000	65.591280
1040.000000	65.609685
1039.000000	65.623660
1038.000000	65.659221
1037.000000	65.693874
1036.000000	65.727277
1035.000000	65.775790
1034.000000	65.846458
1033.000000	65.907810
1032.000000	65.986204
1031.000000	66.073006
1030.000000	66.138448
1029.000000	66.220705
1028.000000	66.317959
1027.000000	66.432141
1026.000000	66.537008
1025.000000	66.633580
1024.000000	66.720041
1023.000000	66.808546
1022.000000	66.910345
1021.000000	67.012825
1020.000000	67.108262
1019.000000	67.192336
1018.000000	67.290613
1017.000000	67.390026
1016.000000	67.465920
1015.000000	67.529658
1014.000000	67.608734
1013.000000	67.696103
1012.000000	67.766772
1011.000000	67.812558
1010.000000	67.871979
1009.000000	67.941624
1008.000000	67.981958
1007.000000	68.009907
1006.000000	68.059556
1005.000000	68.092505
1004.000000	68.110910
1003.000000	68.119318
1002.000000	68.098753
1001.000000	68.103412
1000.000000	68.106479
999.000000	68.091709
998.000000	68.066260
997.000000	68.047513
996.000000	68.040355
995.000000	68.030585
994.000000	68.002863
993.000000	67.994455
992.000000	67.986502
991.000000	67.981844
990.000000	67.971959
989.000000	67.983775
988.000000	68.005135
987.000000	67.999341
986.000000	67.999113
985.000000	68.028653
984.000000	68.077621
983.000000	68.083870
982.000000	68.108070
981.000000	68.170785
980.000000	68.227024
979.000000	68.252360
978.000000	68.294511
977.000000	68.366316
976.000000	68.421646
975.000000	68.498790
974.000000	68.549917
973.000000	68.627516
972.000000	68.677165
971.000000	68.759877
970.000000	68.823046
969.000000	68.893260
968.000000	68.994263
967.000000	69.040277
966.000000	69.134009
965.000000	69.200474
964.000000	69.264439
963.000000	69.362602
962.000000	69.447813
961.000000	69.549384
960.000000	69.619484
959.000000	69.676178
958.000000	69.786952
957.000000	69.867164
956.000000	69.959419
955.000000	70.084963
954.000000	70.163698
953.000000	70.258339
952.000000	70.385247
951.000000	70.488977
950.000000	70.576801
949.000000	70.724159
948.000000	70.853452
947.000000	70.957523
946.000000	71.103291
945.000000	71.207362
944.000000	71.343926
943.000000	71.494238
942.000000	71.596151
941.000000	71.678748
940.000000	71.822925
939.000000	71.934268
938.000000	72.097418
937.000000	72.183083
936.000000	72.296357
935.000000	72.393838
934.000000	72.502340
933.000000	72.637996
932.000000	72.722525
931.000000	72.791944
930.000000	72.933053
929.000000	72.971114
928.000000	73.031216
927.000000	73.077798
926.000000	73.112678
925.000000	73.222543
924.000000	73.265489
923.000000	73.265376
922.000000	73.302982
921.000000	73.306163
920.000000	73.327977
919.000000	73.351268
918.000000	73.355699
917.000000	73.402963
916.000000	73.377513
915.000000	73.321615
914.000000	73.294916
913.000000	73.274692
912.000000	73.235154
911.000000	73.214249
910.000000	73.306163
909.000000	73.273215
908.000000	73.225611
907.000000	73.172325
906.000000	73.196298
905.000000	73.216635
904.000000	73.229133
903.000000	73.250606
902.000000	73.261967
901.000000	73.295256
900.000000	73.327864
899.000000	73.330931
898.000000	73.355586
897.000000	73.322978
896.000000	73.353654
895.000000	73.358881
894.000000	73.396828
893.000000	73.407848
892.000000	73.424550
891.000000	73.358653
890.000000	73.367742
889.000000	73.317525
888.000000	73.347974
887.000000	73.388534
886.000000	73.409212
885.000000	73.408417
884.000000	73.373650
883.000000	73.353313
882.000000	73.288894
881.000000	73.250492
880.000000	73.153579
879.000000	73.146194
878.000000	73.045872
877.000000	73.013151
876.000000	72.889993
875.000000	72.852728
874.000000	72.711278
873.000000	72.483253
872.000000	72.415766
871.000000	72.153544
870.000000	71.963921
869.000000	71.689201
868.000000	71.498215
867.000000	71.509008
866.000000	71.689769
865.000000	71.929382
864.000000	72.188651
863.000000	72.435308
862.000000	72.661742
861.000000	72.903854
860.000000	73.108020
859.000000	73.313094
858.000000	75.295100
857.000000	75.394500
856.000000	74.963800
855.000000	75.527000
854.000000	75.951700
853.000000	75.795200
852.000000	76.300000
851.000000	76.498700
850.000000	76.861300
849.000000	76.876000
848.000000	77.091500
847.000000	76.867400
846.000000	77.190500
845.000000	77.007300
844.000000	77.297900
843.000000	77.595900
842.000000	77.932000
841.000000	77.634800
840.000000	77.967000
839.000000	78.155900
838.000000	77.889300
837.000000	77.815300
836.000000	78.104500
835.000000	78.516100
834.000000	78.553600
833.000000	78.812300
832.000000	78.907500
831.000000	78.824600
830.000000	79.113700
829.000000	79.045100
828.000000	79.298500
827.000000	79.523400
826.000000	79.704500
825.000000	79.865200
824.000000	79.876100
823.000000	80.247500
822.000000	80.451600
821.000000	80.583000
820.000000	80.837500
819.000000	80.980000
818.000000	81.248000
817.000000	81.198500
816.000000	81.522600
815.000000	81.659400
814.000000	81.920600
813.000000	82.208000
812.000000	82.203900
811.000000	82.449000
810.000000	82.620900
809.000000	82.963300
808.000000	83.117400
807.000000	83.234100
806.000000	83.426700
805.000000	83.499800
804.000000	83.686900
803.000000	83.852600
802.000000	84.050000
801.000000	84.145500
800.000000	84.258700
799.000000	84.609300
798.000000	84.619500
797.000000	84.709900
796.000000	84.840800
795.000000	84.888000
794.000000	85.004900
793.000000	85.032200
792.000000	85.174400
791.000000	85.245900
790.000000	85.356900
789.000000	85.441500
788.000000	85.353100
787.000000	85.321600
786.000000	85.314200
785.000000	85.441800
784.000000	85.453800
783.000000	85.455000
782.000000	85.477800
781.000000	85.420600
780.000000	85.407100
779.000000	85.351800
778.000000	85.247300
777.000000	85.270600
776.000000	85.204500
775.000000	85.136600
774.000000	85.072500
773.000000	85.020700
772.000000	84.901500
771.000000	84.817200
770.000000	84.748800
769.000000	84.626600
768.000000	84.454800
767.000000	84.280600
766.000000	84.211100
765.000000	84.110600
764.000000	83.940000
763.000000	83.756000
762.000000	83.534600
761.000000	83.351400
760.000000	83.154600
759.000000	82.873200
758.000000	82.699300
757.000000	82.524500
756.000000	82.339300
755.000000	82.062400
754.000000	81.760100
753.000000	81.538500
752.000000	81.387400
751.000000	81.170500
750.000000	80.894200
749.000000	80.701700
748.000000	80.565200
747.000000	80.436200
746.000000	80.162600
745.000000	79.871000
744.000000	79.762100
743.000000	79.621300
742.000000	79.400400
741.000000	79.251600
740.000000	79.077600
739.000000	78.883000
738.000000	78.744900
737.000000	78.713200
736.000000	78.599200
735.000000	78.451100
734.000000	78.390900
733.000000	78.288900
732.000000	78.221700
731.000000	78.146200
730.000000	78.083500
729.000000	78.026200
728.000000	78.054100
727.000000	77.979400
726.000000	77.930400
725.000000	78.001200
724.000000	78.014900
723.000000	78.070600
722.000000	78.123400
721.000000	78.190300
720.000000	78.261200
719.000000	78.296400
718.000000	78.349600
717.000000	78.399400
716.000000	78.466100
715.000000	78.562600
714.000000	78.623600
713.000000	78.725500
712.000000	78.826400
711.000000	78.842000
710.000000	78.894100
709.000000	78.876100
708.000000	78.846300
707.000000	78.804100
706.000000	78.726700
705.000000	78.654100
704.000000	78.609100
703.000000	78.546000
702.000000	78.450800
701.000000	78.296700
700.000000	78.147900
699.000000	78.080200
698.000000	77.888800
697.000000	77.676700
696.000000	77.511600
695.000000	77.287300
694.000000	77.113300
693.000000	76.911800
692.000000	76.621600
691.000000	76.320700
690.000000	76.067800
689.000000	75.776500
688.000000	75.457600
687.000000	75.133000
686.000000	74.785300
685.000000	74.443300
684.000000	74.018100
683.000000	73.530100
682.000000	73.143600
681.000000	72.661800
680.000000	72.207200
679.000000	71.643100
678.000000	71.046400
677.000000	70.414200
676.000000	69.792300
675.000000	69.105900
674.000000	68.455300
673.000000	67.748100
672.000000	66.996000
671.000000	66.257500
670.000000	65.502700
669.000000	64.787000
668.000000	64.045100
667.000000	63.300300
666.000000	62.542300
665.000000	61.854700
664.000000	61.145600
663.000000	60.452000
662.000000	59.752100
661.000000	59.132800
660.000000	58.552900
659.000000	57.939500
658.000000	57.364000
657.000000	56.818600
656.000000	56.313700
655.000000	55.878000
654.000000	55.453200
653.000000	55.015900
652.000000	54.646100
651.000000	54.341600
650.000000	54.127200
649.000000	53.900400
648.000000	53.805500
647.000000	53.751400
646.000000	53.744600
645.000000	53.913100
644.000000	54.099900
643.000000	54.422800
642.000000	54.842600
641.000000	55.283700
640.000000	55.867200
639.000000	56.447500
638.000000	57.193000
637.000000	57.939900
636.000000	58.772500
635.000000	59.622700
634.000000	60.496700
633.000000	61.462200
632.000000	62.375600
631.000000	63.320500
630.000000	64.289000
629.000000	65.151100
628.000000	65.989800
627.000000	66.842000
626.000000	67.646400
625.000000	68.378600
624.000000	69.104700
623.000000	69.800500
622.000000	70.456400
621.000000	71.095000
620.000000	71.673300
619.000000	72.240900
618.000000	72.815700
617.000000	73.311000
616.000000	73.909500
615.000000	74.425400
614.000000	74.952200
613.000000	75.486300
612.000000	76.004600
611.000000	76.567500
610.000000	77.136100
609.000000	77.692300
608.000000	78.250700
607.000000	78.791300
606.000000	79.318600
605.000000	79.880600
604.000000	80.385300
603.000000	80.897200
602.000000	81.253300
601.000000	81.679100
600.000000	82.095400
599.000000	82.471700
598.000000	82.821400
597.000000	83.075900
596.000000	83.396500
595.000000	83.593100
594.000000	83.688200
593.000000	83.906800
592.000000	84.002300
591.000000	84.133800
590.000000	84.172300
589.000000	84.210300
588.000000	84.226100
587.000000	84.220300
586.000000	84.149900
585.000000	84.077200
584.000000	84.009200
583.000000	83.929400
582.000000	83.899900
581.000000	83.766600
580.000000	83.687900
579.000000	83.580500
578.000000	83.480400
577.000000	83.410800
576.000000	83.319700
575.000000	83.227500
574.000000	83.137100
573.000000	83.023900
572.000000	82.940000
571.000000	82.842800
570.000000	82.780200
569.000000	82.680400
568.000000	82.565000
567.000000	82.385500
566.000000	82.296700
565.000000	82.103100
564.000000	81.932700
563.000000	81.719100
562.000000	81.484900
561.000000	81.264100
560.000000	80.932700
559.000000	80.636700
558.000000	80.265800
557.000000	79.916900
556.000000	79.494000
555.000000	79.018100
554.000000	78.594700
553.000000	78.047500
552.000000	77.554100
551.000000	76.927000
550.000000	76.328200
549.000000	75.695300
548.000000	74.991300
547.000000	74.210700
546.000000	73.482000
545.000000	72.648800
544.000000	71.784100
543.000000	70.856900
542.000000	69.913300
541.000000	68.962800
540.000000	67.979100
539.000000	66.940900
538.000000	65.922700
537.000000	64.932400
536.000000	63.908300
535.000000	62.906800
534.000000	61.903000
533.000000	60.917600
532.000000	59.947500
531.000000	59.037400
530.000000	58.153800
529.000000	57.316800
528.000000	56.516600
527.000000	55.751000
526.000000	54.997500
525.000000	54.282700
524.000000	53.601000
523.000000	52.893000
522.000000	52.200200
521.000000	51.492800
520.000000	50.835400
519.000000	50.155300
518.000000	49.452300
517.000000	48.730100
516.000000	47.997200
515.000000	47.256200
514.000000	46.499300
513.000000	45.726900
512.000000	44.963300
511.000000	44.174200
510.000000	43.388700
509.000000	42.607300
508.000000	41.815300
507.000000	41.021300
506.000000	40.231500
505.000000	39.437700
504.000000	38.587000
503.000000	37.736600
502.000000	36.903100
501.000000	36.036600
500.000000	35.150000
499.000000	34.271200
498.000000	33.405800
497.000000	32.561100
496.000000	31.738800
495.000000	30.900500
494.000000	30.063600
493.000000	29.265200
492.000000	28.488000
491.000000	27.753900
490.000000	27.061200
489.000000	26.426500
488.000000	25.826700
487.000000	25.277400
486.000000	24.791200
485.000000	24.363000
484.000000	24.006700
483.000000	23.699900
482.000000	23.431400
481.000000	23.222400
480.000000	23.088600
479.000000	23.008000
478.000000	22.957900
477.000000	22.947500
476.000000	22.977400
475.000000	23.039600
474.000000	23.136600
473.000000	23.255100
472.000000	23.389500
471.000000	23.545700
470.000000	23.714400
469.000000	23.904900
468.000000	24.085400
467.000000	24.262200
466.000000	24.442200
465.000000	24.620500
464.000000	24.796800
463.000000	24.948000
462.000000	25.082600
461.000000	25.198000
460.000000	25.311500
459.000000	25.408000
458.000000	25.481300
457.000000	25.547400
456.000000	25.592300
455.000000	25.594900
454.000000	25.599100
453.000000	25.607100
452.000000	25.574500
451.000000	25.524600
450.000000	25.476900
449.000000	25.393800
448.000000	25.305500
447.000000	25.209100
446.000000	25.076200
445.000000	24.945700
444.000000	24.783900
443.000000	24.603200
442.000000	24.426200
441.000000	24.221300
440.000000	24.014200
439.000000	23.799300
438.000000	23.552500
437.000000	23.306000
436.000000	23.065100
435.000000	22.795100
434.000000	22.507600
433.000000	22.207400
432.000000	21.896400
431.000000	21.580900
430.000000	21.269200
429.000000	20.946700
428.000000	20.595000
427.000000	20.248500
426.000000	19.892100
425.000000	19.515400
424.000000	19.128100
423.000000	18.756500
422.000000	18.362400
421.000000	17.956900
420.000000	17.568700
419.000000	17.157700
418.000000	16.727400
417.000000	16.333300
416.000000	15.945100
415.000000	15.519600
414.000000	15.088400
413.000000	14.683100
412.000000	14.311200
411.000000	13.925600
410.000000	13.529400
409.000000	13.147300
408.000000	12.814000
407.000000	12.495600
406.000000	12.153200
405.000000	11.817900
404.000000	11.492100
403.000000	11.195800
402.000000	10.916500
401.000000	10.634800
400.000000	10.374400
399.000000	10.129100
398.000000	9.900100
397.000000	9.686500
396.000000	9.479400
395.000000	9.299200
394.000000	9.124200
393.000000	8.930800
392.000000	8.750600
391.000000	8.578600
390.000000	8.445400
389.000000	8.295400
388.000000	8.156700
387.000000	8.056000
386.000000	7.946000
385.000000	7.828400
384.000000	7.710600
383.000000	7.625400
382.000000	7.545200
381.000000	7.458400
380.000000	7.372000
379.000000	7.301800
378.000000	7.225900
377.000000	7.158700
376.000000	7.129800
375.000000	6.698500
374.000000	6.785000
373.000000	6.777900
372.000000	6.671800
371.000000	6.651000
370.000000	6.706300
369.000000	6.729800
368.000000	6.548700
367.000000	6.682300
366.000000	6.540000
365.000000	6.516700
364.000000	6.418900
363.000000	6.372500
362.000000	6.253300
361.000000	6.432400
360.000000	6.544100
359.000000	6.401500
358.000000	6.326100
357.000000	6.274800
356.000000	6.313100
355.000000	6.255700
354.000000	6.224500
353.000000	6.248300
352.000000	6.256700
351.000000	6.164100
350.000000	6.071000
349.000000	6.040200
348.000000	5.975600
347.000000	5.985200
346.000000	6.122100
345.000000	6.089500
344.000000	5.916300
343.000000	5.944400
342.000000	5.991300
341.000000	5.991300
340.000000	5.762200
339.000000	5.884000
338.000000	5.756900
337.000000	5.843500
336.000000	5.873100
335.000000	6.024800
334.000000	5.820600
333.000000	6.121700
332.000000	5.999100
331.000000	6.036400
330.000000	5.862700
329.000000	5.782100
328.000000	5.953900
327.000000	5.769400
326.000000	6.003300
325.000000	5.788600
324.000000	6.089200
323.000000	5.937100
322.000000	6.068200
321.000000	6.339500
320.000000	6.160200
319.000000	6.170700
318.000000	6.589700
317.000000	6.384000
316.000000	5.734700
315.000000	5.692700
314.000000	5.670300
313.000000	5.714900
312.000000	5.681200
311.000000	5.686900
310.000000	5.641800
309.000000	5.660000
308.000000	5.632800
307.000000	5.678500
306.000000	5.688500
305.000000	5.674800
304.000000	5.715600
303.000000	5.629600
302.000000	5.636600
301.000000	5.726000
300.000000	5.673100
299.000000	5.684600
298.000000	5.625000
297.000000	5.676900
296.000000	5.755900
295.000000	5.689200
294.000000	5.730300
293.000000	5.713400
292.000000	5.702800
291.000000	5.724600
290.000000	5.713000
289.000000	5.723100
288.000000	5.749700
287.000000	5.702000
286.000000	5.657700
285.000000	5.754700
284.000000	5.674500
283.000000	5.746800
282.000000	5.749800
281.000000	5.748700
280.000000	5.713500
279.000000	5.702900
278.000000	5.699900
277.000000	5.791500
276.000000	5.767800
275.000000	5.750100
274.000000	5.719600
273.000000	5.720900
272.000000	5.751000
271.000000	5.765600
270.000000	5.802700
269.000000	5.778100
268.000000	5.797800
267.000000	5.799800
266.000000	5.799800
265.000000	5.794600
264.000000	5.885200
263.000000	5.910600
262.000000	5.883400
261.000000	5.915400
260.000000	5.998600
259.000000	6.043500
258.000000	6.052700
257.000000	6.008300
256.000000	5.997000
255.000000	6.054600
254.000000	6.076300
253.000000	6.094200
252.000000	6.107500
251.000000	6.092700
250.000000	6.136400
