PE UV       SUBTECH     SPECTRUM    ASCII       PEDS        4.00        
   -1
CICIMAUCR0113-2.Sample.ASC
24/04/18
15:37:48.00
24/04/18
15:37:48.00
Vinicio Soto Monge
C. kalinini
250,000000
1
Lambda 1050
1050L1511233
PerkinElmer UV WinLab 6.3.2.0749 / 2.02.05 Lambda 900 UV/VIS/NIR, Aug  7 2015 09:38:08

0
0
3350/servo 860,8/2
0
0
UV/VIS
1
1
1
DoubleDePol,CommonBeamDepol,RBeamAtt,SBeamAtt,60mm sphere, WB InGaAs Detector
0
0
0
0
Program
Program
3350/servo 860,8/2
3350/0,2 860,8/0,2
3350/0,2 860,8/0,2
0
15.00
 
 
 
0
 
860,8
319,2
860,8
Front
100
on
S:100 R:100
0
0
0
0
 
0
 
 
 
0
 
 
0
0
0
0
0
 
 
 
 
0
0


0
0
#HDR
-1
-1
#GR
nm
%R
1.0
0.0
2500,000000
-1,000000
2251
8
36,527000
2,130400
#DATA
2500.000000	8.460400
2499.000000	8.371800
2498.000000	8.385200
2497.000000	8.378400
2496.000000	8.432800
2495.000000	8.400900
2494.000000	8.317700
2493.000000	8.261700
2492.000000	8.235700
2491.000000	8.254400
2490.000000	8.227900
2489.000000	8.241200
2488.000000	8.239100
2487.000000	8.176400
2486.000000	8.221500
2485.000000	8.215100
2484.000000	8.182500
2483.000000	8.243400
2482.000000	8.150500
2481.000000	8.222500
2480.000000	8.213500
2479.000000	8.225000
2478.000000	8.243600
2477.000000	8.266000
2476.000000	8.291600
2475.000000	8.273100
2474.000000	8.293000
2473.000000	8.312500
2472.000000	8.350200
2471.000000	8.344100
2470.000000	8.410400
2469.000000	8.460500
2468.000000	8.462500
2467.000000	8.510400
2466.000000	8.555800
2465.000000	8.613500
2464.000000	8.645600
2463.000000	8.699500
2462.000000	8.768800
2461.000000	8.814300
2460.000000	8.872500
2459.000000	8.955600
2458.000000	9.016100
2457.000000	9.067000
2456.000000	9.126100
2455.000000	9.210500
2454.000000	9.260700
2453.000000	9.336700
2452.000000	9.421700
2451.000000	9.491200
2450.000000	9.552400
2449.000000	9.606700
2448.000000	9.687500
2447.000000	9.749800
2446.000000	9.785600
2445.000000	9.848800
2444.000000	9.929800
2443.000000	9.998700
2442.000000	10.056600
2441.000000	10.107600
2440.000000	10.171800
2439.000000	10.248700
2438.000000	10.323300
2437.000000	10.373700
2436.000000	10.425400
2435.000000	10.485000
2434.000000	10.532400
2433.000000	10.609000
2432.000000	10.648300
2431.000000	10.694100
2430.000000	10.742600
2429.000000	10.811300
2428.000000	10.867100
2427.000000	10.909100
2426.000000	10.950400
2425.000000	10.996400
2424.000000	11.060100
2423.000000	11.091600
2422.000000	11.135500
2421.000000	11.156000
2420.000000	11.163600
2419.000000	11.159500
2418.000000	11.182600
2417.000000	11.205700
2416.000000	11.234900
2415.000000	11.259900
2414.000000	11.289800
2413.000000	11.319500
2412.000000	11.320400
2411.000000	11.323000
2410.000000	11.348900
2409.000000	11.370700
2408.000000	11.381000
2407.000000	11.390100
2406.000000	11.405200
2405.000000	11.419300
2404.000000	11.432000
2403.000000	11.439200
2402.000000	11.452300
2401.000000	11.454700
2400.000000	11.450600
2399.000000	11.482800
2398.000000	11.493300
2397.000000	11.479700
2396.000000	11.479500
2395.000000	11.485000
2394.000000	11.487800
2393.000000	11.497300
2392.000000	11.496600
2391.000000	11.472400
2390.000000	11.464800
2389.000000	11.477800
2388.000000	11.455300
2387.000000	11.456000
2386.000000	11.447200
2385.000000	11.437900
2384.000000	11.407400
2383.000000	11.379200
2382.000000	11.385900
2381.000000	11.362300
2380.000000	11.332300
2379.000000	11.321300
2378.000000	11.318500
2377.000000	11.295400
2376.000000	11.254100
2375.000000	11.234200
2374.000000	11.213700
2373.000000	11.188600
2372.000000	11.158900
2371.000000	11.146400
2370.000000	11.109900
2369.000000	11.072700
2368.000000	11.060100
2367.000000	11.032900
2366.000000	10.984200
2365.000000	10.941500
2364.000000	10.903100
2363.000000	10.883600
2362.000000	10.857800
2361.000000	10.826700
2360.000000	10.793200
2359.000000	10.760100
2358.000000	10.733100
2357.000000	10.698900
2356.000000	10.677100
2355.000000	10.647100
2354.000000	10.629700
2353.000000	10.626800
2352.000000	10.618700
2351.000000	10.585300
2350.000000	10.567200
2349.000000	10.577700
2348.000000	10.582100
2347.000000	10.570600
2346.000000	10.567600
2345.000000	10.562600
2344.000000	10.554400
2343.000000	10.543700
2342.000000	10.530400
2341.000000	10.505100
2340.000000	10.489500
2339.000000	10.472300
2338.000000	10.451800
2337.000000	10.451600
2336.000000	10.420000
2335.000000	10.389700
2334.000000	10.375300
2333.000000	10.343500
2332.000000	10.305000
2331.000000	10.292200
2330.000000	10.273900
2329.000000	10.271200
2328.000000	10.234300
2327.000000	10.202000
2326.000000	10.193100
2325.000000	10.164300
2324.000000	10.164700
2323.000000	10.128900
2322.000000	10.095900
2321.000000	10.076900
2320.000000	10.038400
2319.000000	10.020000
2318.000000	9.966900
2317.000000	9.950300
2316.000000	9.926400
2315.000000	9.910000
2314.000000	9.862500
2313.000000	9.846400
2312.000000	9.853000
2311.000000	9.831400
2310.000000	9.816300
2309.000000	9.819300
2308.000000	9.807400
2307.000000	9.813400
2306.000000	9.843900
2305.000000	9.895400
2304.000000	9.889500
2303.000000	9.944600
2302.000000	9.966600
2301.000000	9.996100
2300.000000	10.037500
2299.000000	10.078800
2298.000000	10.122400
2297.000000	10.137100
2296.000000	10.174500
2295.000000	10.176700
2294.000000	10.183300
2293.000000	10.210400
2292.000000	10.236700
2291.000000	10.236300
2290.000000	10.209700
2289.000000	10.214500
2288.000000	10.203800
2287.000000	10.166300
2286.000000	10.135400
2285.000000	10.112600
2284.000000	10.106200
2283.000000	10.047400
2282.000000	10.013800
2281.000000	9.979400
2280.000000	9.974400
2279.000000	9.913600
2278.000000	9.867200
2277.000000	9.827900
2276.000000	9.826200
2275.000000	9.773200
2274.000000	9.760300
2273.000000	9.759200
2272.000000	9.765900
2271.000000	9.774900
2270.000000	9.759300
2269.000000	9.793300
2268.000000	9.835300
2267.000000	9.895500
2266.000000	9.930300
2265.000000	10.029000
2264.000000	10.127700
2263.000000	10.213900
2262.000000	10.291700
2261.000000	10.410000
2260.000000	10.508700
2259.000000	10.634100
2258.000000	10.731100
2257.000000	10.869500
2256.000000	10.992700
2255.000000	11.121900
2254.000000	11.242200
2253.000000	11.338700
2252.000000	11.457600
2251.000000	11.554800
2250.000000	11.697200
2249.000000	11.745400
2248.000000	11.855600
2247.000000	11.960300
2246.000000	12.063300
2245.000000	12.135500
2244.000000	12.180000
2243.000000	12.267000
2242.000000	12.331400
2241.000000	12.418400
2240.000000	12.479700
2239.000000	12.524100
2238.000000	12.578200
2237.000000	12.639700
2236.000000	12.672400
2235.000000	12.726500
2234.000000	12.727300
2233.000000	12.759800
2232.000000	12.795200
2231.000000	12.846900
2230.000000	12.878300
2229.000000	12.873500
2228.000000	12.876600
2227.000000	12.865700
2226.000000	12.884100
2225.000000	12.905600
2224.000000	12.914600
2223.000000	12.933700
2222.000000	12.912900
2221.000000	12.923400
2220.000000	12.885100
2219.000000	12.899400
2218.000000	12.817800
2217.000000	12.846400
2216.000000	12.819000
2215.000000	12.811200
2214.000000	12.786000
2213.000000	12.778500
2212.000000	12.758700
2211.000000	12.748500
2210.000000	12.740500
2209.000000	12.707300
2208.000000	12.702600
2207.000000	12.679300
2206.000000	12.649700
2205.000000	12.650200
2204.000000	12.631300
2203.000000	12.609400
2202.000000	12.581800
2201.000000	12.552800
2200.000000	12.564600
2199.000000	12.544700
2198.000000	12.526800
2197.000000	12.527500
2196.000000	12.496700
2195.000000	12.455100
2194.000000	12.456600
2193.000000	12.445900
2192.000000	12.432200
2191.000000	12.445100
2190.000000	12.416300
2189.000000	12.413100
2188.000000	12.393000
2187.000000	12.401900
2186.000000	12.355400
2185.000000	12.357800
2184.000000	12.366200
2183.000000	12.380700
2182.000000	12.355800
2181.000000	12.353600
2180.000000	12.323000
2179.000000	12.297900
2178.000000	12.298700
2177.000000	12.334400
2176.000000	12.332000
2175.000000	12.316900
2174.000000	12.304100
2173.000000	12.311300
2172.000000	12.333300
2171.000000	12.339300
2170.000000	12.330700
2169.000000	12.316200
2168.000000	12.320600
2167.000000	12.364900
2166.000000	12.364300
2165.000000	12.371800
2164.000000	12.368300
2163.000000	12.391700
2162.000000	12.391900
2161.000000	12.381900
2160.000000	12.383600
2159.000000	12.414300
2158.000000	12.420300
2157.000000	12.421700
2156.000000	12.407300
2155.000000	12.419000
2154.000000	12.433100
2153.000000	12.443300
2152.000000	12.448500
2151.000000	12.459500
2150.000000	12.454100
2149.000000	12.463700
2148.000000	12.465800
2147.000000	12.455200
2146.000000	12.465500
2145.000000	12.468300
2144.000000	12.464700
2143.000000	12.464800
2142.000000	12.485400
2141.000000	12.485300
2140.000000	12.471600
2139.000000	12.461000
2138.000000	12.446800
2137.000000	12.446000
2136.000000	12.422400
2135.000000	12.371400
2134.000000	12.361700
2133.000000	12.355000
2132.000000	12.326700
2131.000000	12.267900
2130.000000	12.240600
2129.000000	12.241300
2128.000000	12.211000
2127.000000	12.165000
2126.000000	12.141600
2125.000000	12.106500
2124.000000	12.050000
2123.000000	12.024300
2122.000000	11.993300
2121.000000	11.947000
2120.000000	11.917200
2119.000000	11.879100
2118.000000	11.849700
2117.000000	11.817500
2116.000000	11.762500
2115.000000	11.749000
2114.000000	11.715000
2113.000000	11.680800
2112.000000	11.653800
2111.000000	11.605600
2110.000000	11.579800
2109.000000	11.544100
2108.000000	11.515300
2107.000000	11.496100
2106.000000	11.463900
2105.000000	11.426600
2104.000000	11.402300
2103.000000	11.381200
2102.000000	11.377200
2101.000000	11.373600
2100.000000	11.352700
2099.000000	11.322000
2098.000000	11.294400
2097.000000	11.305900
2096.000000	11.310700
2095.000000	11.285200
2094.000000	11.271000
2093.000000	11.274500
2092.000000	11.269700
2091.000000	11.264400
2090.000000	11.263700
2089.000000	11.237000
2088.000000	11.224400
2087.000000	11.240200
2086.000000	11.222700
2085.000000	11.207700
2084.000000	11.196200
2083.000000	11.188500
2082.000000	11.187800
2081.000000	11.198500
2080.000000	11.185100
2079.000000	11.168700
2078.000000	11.175600
2077.000000	11.147300
2076.000000	11.137800
2075.000000	11.141900
2074.000000	11.117000
2073.000000	11.121000
2072.000000	11.118600
2071.000000	11.102100
2070.000000	11.101500
2069.000000	11.099100
2068.000000	11.081700
2067.000000	11.085100
2066.000000	11.096300
2065.000000	11.099900
2064.000000	11.098600
2063.000000	11.092500
2062.000000	11.084400
2061.000000	11.079200
2060.000000	11.104700
2059.000000	11.107300
2058.000000	11.125300
2057.000000	11.145200
2056.000000	11.139500
2055.000000	11.166700
2054.000000	11.212400
2053.000000	11.245100
2052.000000	11.273000
2051.000000	11.320400
2050.000000	11.364700
2049.000000	11.417500
2048.000000	11.483100
2047.000000	11.551500
2046.000000	11.619700
2045.000000	11.711000
2044.000000	11.763400
2043.000000	11.833700
2042.000000	11.911500
2041.000000	11.965400
2040.000000	12.019600
2039.000000	12.096200
2038.000000	12.157800
2037.000000	12.220700
2036.000000	12.297500
2035.000000	12.356900
2034.000000	12.406000
2033.000000	12.460200
2032.000000	12.511200
2031.000000	12.565900
2030.000000	12.604600
2029.000000	12.633200
2028.000000	12.654500
2027.000000	12.688300
2026.000000	12.735900
2025.000000	12.760400
2024.000000	12.786500
2023.000000	12.819400
2022.000000	12.862700
2021.000000	12.897600
2020.000000	12.888200
2019.000000	12.902600
2018.000000	12.945000
2017.000000	12.958300
2016.000000	12.987000
2015.000000	12.998400
2014.000000	12.960300
2013.000000	12.973800
2012.000000	12.990100
2011.000000	12.986800
2010.000000	12.985200
2009.000000	12.945500
2008.000000	12.949600
2007.000000	12.936800
2006.000000	12.916000
2005.000000	12.902900
2004.000000	12.873600
2003.000000	12.860000
2002.000000	12.856700
2001.000000	12.796300
2000.000000	12.762700
1999.000000	12.748900
1998.000000	12.714400
1997.000000	12.674900
1996.000000	12.615700
1995.000000	12.569100
1994.000000	12.529100
1993.000000	12.490800
1992.000000	12.455500
1991.000000	12.408000
1990.000000	12.366400
1989.000000	12.336700
1988.000000	12.257700
1987.000000	12.193200
1986.000000	12.116300
1985.000000	12.075700
1984.000000	12.038100
1983.000000	11.990900
1982.000000	11.933000
1981.000000	11.879700
1980.000000	11.833500
1979.000000	11.749900
1978.000000	11.696200
1977.000000	11.667000
1976.000000	11.575400
1975.000000	11.538400
1974.000000	11.487800
1973.000000	11.453900
1972.000000	11.387000
1971.000000	11.333900
1970.000000	11.317100
1969.000000	11.229400
1968.000000	11.168600
1967.000000	11.123400
1966.000000	11.090800
1965.000000	11.049500
1964.000000	11.014400
1963.000000	10.974800
1962.000000	10.916600
1961.000000	10.866200
1960.000000	10.810700
1959.000000	10.739600
1958.000000	10.717300
1957.000000	10.670900
1956.000000	10.623600
1955.000000	10.581400
1954.000000	10.519700
1953.000000	10.457600
1952.000000	10.412900
1951.000000	10.402000
1950.000000	10.368900
1949.000000	10.328700
1948.000000	10.282100
1947.000000	10.259300
1946.000000	10.228200
1945.000000	10.207700
1944.000000	10.174500
1943.000000	10.162300
1942.000000	10.154800
1941.000000	10.178900
1940.000000	10.202700
1939.000000	10.193500
1938.000000	10.153700
1937.000000	10.147700
1936.000000	10.139500
1935.000000	10.137400
1934.000000	10.151600
1933.000000	10.178700
1932.000000	10.227500
1931.000000	10.292200
1930.000000	10.347700
1929.000000	10.384400
1928.000000	10.419700
1927.000000	10.456200
1926.000000	10.512800
1925.000000	10.542500
1924.000000	10.583300
1923.000000	10.750700
1922.000000	10.884700
1921.000000	10.944000
1920.000000	10.965000
1919.000000	11.015300
1918.000000	11.096500
1917.000000	11.190100
1916.000000	11.379100
1915.000000	11.594900
1914.000000	11.721800
1913.000000	11.808700
1912.000000	11.920800
1911.000000	12.012200
1910.000000	12.147900
1909.000000	12.374300
1908.000000	12.608200
1907.000000	12.821700
1906.000000	13.026700
1905.000000	13.203200
1904.000000	13.373100
1903.000000	13.527600
1902.000000	13.772500
1901.000000	14.060200
1900.000000	14.260300
1899.000000	14.401300
1898.000000	14.553600
1897.000000	14.735500
1896.000000	14.951800
1895.000000	15.252000
1894.000000	15.522500
1893.000000	15.769100
1892.000000	16.003600
1891.000000	16.227300
1890.000000	16.428000
1889.000000	16.622100
1888.000000	16.847700
1887.000000	17.096200
1886.000000	17.366100
1885.000000	17.615300
1884.000000	17.821500
1883.000000	18.039300
1882.000000	18.286500
1881.000000	18.503500
1880.000000	18.762000
1879.000000	19.046100
1878.000000	19.290400
1877.000000	19.526800
1876.000000	19.782200
1875.000000	20.027900
1874.000000	20.232000
1873.000000	20.427000
1872.000000	20.576500
1871.000000	20.655700
1870.000000	20.626100
1869.000000	20.587600
1868.000000	20.535700
1867.000000	20.474500
1866.000000	20.502900
1865.000000	20.499700
1864.000000	20.501300
1863.000000	20.582700
1862.000000	20.667400
1861.000000	20.739500
1860.000000	20.781300
1859.000000	20.791000
1858.000000	20.757000
1857.000000	20.721200
1856.000000	20.754500
1855.000000	20.750900
1854.000000	20.658600
1853.000000	20.585200
1852.000000	20.541300
1851.000000	20.547200
1850.000000	20.654600
1849.000000	20.766700
1848.000000	20.684300
1847.000000	20.483200
1846.000000	20.312400
1845.000000	20.242800
1844.000000	20.315400
1843.000000	20.427200
1842.000000	20.430400
1841.000000	20.337300
1840.000000	20.288300
1839.000000	20.299500
1838.000000	20.304000
1837.000000	20.231100
1836.000000	20.088000
1835.000000	19.924100
1834.000000	19.830000
1833.000000	19.829500
1832.000000	19.853300
1831.000000	19.836000
1830.000000	19.758600
1829.000000	19.689600
1828.000000	19.642200
1827.000000	19.596800
1826.000000	19.502900
1825.000000	19.426200
1824.000000	19.406500
1823.000000	19.488200
1822.000000	19.588500
1821.000000	19.548000
1820.000000	19.438500
1819.000000	19.346000
1818.000000	19.346100
1817.000000	19.400000
1816.000000	19.369800
1815.000000	19.318900
1814.000000	19.306300
1813.000000	19.325500
1812.000000	19.349500
1811.000000	19.307300
1810.000000	19.242700
1809.000000	19.212100
1808.000000	19.215600
1807.000000	19.220500
1806.000000	19.175300
1805.000000	19.132400
1804.000000	19.101200
1803.000000	19.112100
1802.000000	19.110500
1801.000000	19.067200
1800.000000	19.021200
1799.000000	18.992300
1798.000000	18.985700
1797.000000	18.950300
1796.000000	18.928700
1795.000000	18.889500
1794.000000	18.847700
1793.000000	18.840500
1792.000000	18.820400
1791.000000	18.793700
1790.000000	18.782900
1789.000000	18.748500
1788.000000	18.730900
1787.000000	18.712100
1786.000000	18.696800
1785.000000	18.638600
1784.000000	18.623500
1783.000000	18.567800
1782.000000	18.532700
1781.000000	18.520700
1780.000000	18.484500
1779.000000	18.441800
1778.000000	18.386600
1777.000000	18.338800
1776.000000	18.278300
1775.000000	18.223700
1774.000000	18.159900
1773.000000	18.094700
1772.000000	18.017600
1771.000000	17.945800
1770.000000	17.880100
1769.000000	17.819900
1768.000000	17.769400
1767.000000	17.706700
1766.000000	17.652400
1765.000000	17.624900
1764.000000	17.599400
1763.000000	17.586600
1762.000000	17.602100
1761.000000	17.602000
1760.000000	17.614400
1759.000000	17.634200
1758.000000	17.664900
1757.000000	17.684000
1756.000000	17.695100
1755.000000	17.708400
1754.000000	17.697800
1753.000000	17.697200
1752.000000	17.693200
1751.000000	17.683000
1750.000000	17.632900
1749.000000	17.604300
1748.000000	17.556500
1747.000000	17.504900
1746.000000	17.444200
1745.000000	17.366800
1744.000000	17.281600
1743.000000	17.206300
1742.000000	17.096900
1741.000000	16.958600
1740.000000	16.859300
1739.000000	16.762100
1738.000000	16.665600
1737.000000	16.544100
1736.000000	16.483100
1735.000000	16.434600
1734.000000	16.416300
1733.000000	16.405700
1732.000000	16.398600
1731.000000	16.403900
1730.000000	16.461700
1729.000000	16.511000
1728.000000	16.543200
1727.000000	16.569900
1726.000000	16.601400
1725.000000	16.622500
1724.000000	16.638000
1723.000000	16.663700
1722.000000	16.669500
1721.000000	16.699800
1720.000000	16.708600
1719.000000	16.743400
1718.000000	16.778300
1717.000000	16.852700
1716.000000	16.876300
1715.000000	16.945900
1714.000000	17.003200
1713.000000	17.024500
1712.000000	17.073700
1711.000000	17.107800
1710.000000	17.132400
1709.000000	17.143000
1708.000000	17.158000
1707.000000	17.169800
1706.000000	17.179000
1705.000000	17.145200
1704.000000	17.094800
1703.000000	17.085300
1702.000000	17.025700
1701.000000	16.963900
1700.000000	16.903500
1699.000000	16.834500
1698.000000	16.765000
1697.000000	16.725000
1696.000000	16.698300
1695.000000	16.695800
1694.000000	16.731300
1693.000000	16.779500
1692.000000	16.856900
1691.000000	16.915300
1690.000000	16.989900
1689.000000	17.020100
1688.000000	17.046500
1687.000000	17.062600
1686.000000	17.075900
1685.000000	17.106300
1684.000000	17.176600
1683.000000	17.314800
1682.000000	17.483300
1681.000000	17.733700
1680.000000	18.014900
1679.000000	18.303000
1678.000000	18.543300
1677.000000	18.797600
1676.000000	19.017600
1675.000000	19.236800
1674.000000	19.387500
1673.000000	19.559300
1672.000000	19.681000
1671.000000	19.818000
1670.000000	19.917300
1669.000000	20.019000
1668.000000	20.125600
1667.000000	20.208900
1666.000000	20.277000
1665.000000	20.351300
1664.000000	20.430400
1663.000000	20.486700
1662.000000	20.525300
1661.000000	20.566600
1660.000000	20.603900
1659.000000	20.644000
1658.000000	20.687000
1657.000000	20.706100
1656.000000	20.717500
1655.000000	20.746400
1654.000000	20.759600
1653.000000	20.757200
1652.000000	20.763100
1651.000000	20.760700
1650.000000	20.735100
1649.000000	20.726300
1648.000000	20.695300
1647.000000	20.650100
1646.000000	20.638100
1645.000000	20.617900
1644.000000	20.567200
1643.000000	20.553300
1642.000000	20.525200
1641.000000	20.491600
1640.000000	20.473100
1639.000000	20.431800
1638.000000	20.402000
1637.000000	20.385800
1636.000000	20.361800
1635.000000	20.318400
1634.000000	20.262100
1633.000000	20.198700
1632.000000	20.160700
1631.000000	20.106600
1630.000000	20.075800
1629.000000	20.025500
1628.000000	19.980300
1627.000000	19.935400
1626.000000	19.870400
1625.000000	19.826900
1624.000000	19.800300
1623.000000	19.748500
1622.000000	19.687600
1621.000000	19.631800
1620.000000	19.580800
1619.000000	19.510500
1618.000000	19.460300
1617.000000	19.407600
1616.000000	19.375300
1615.000000	19.316500
1614.000000	19.261500
1613.000000	19.199200
1612.000000	19.151400
1611.000000	19.114900
1610.000000	19.049400
1609.000000	18.986000
1608.000000	18.937900
1607.000000	18.901000
1606.000000	18.842000
1605.000000	18.769300
1604.000000	18.715400
1603.000000	18.657600
1602.000000	18.600100
1601.000000	18.524400
1600.000000	18.457000
1599.000000	18.406000
1598.000000	18.344300
1597.000000	18.301800
1596.000000	18.264700
1595.000000	18.219800
1594.000000	18.186200
1593.000000	18.141500
1592.000000	18.093000
1591.000000	18.050700
1590.000000	18.013400
1589.000000	17.979100
1588.000000	17.952500
1587.000000	17.930700
1586.000000	17.905600
1585.000000	17.870800
1584.000000	17.837700
1583.000000	17.819000
1582.000000	17.811600
1581.000000	17.796300
1580.000000	17.769500
1579.000000	17.755200
1578.000000	17.759300
1577.000000	17.760400
1576.000000	17.749400
1575.000000	17.752900
1574.000000	17.763700
1573.000000	17.764700
1572.000000	17.753200
1571.000000	17.743900
1570.000000	17.772700
1569.000000	17.794400
1568.000000	17.791100
1567.000000	17.801600
1566.000000	17.805000
1565.000000	17.823300
1564.000000	17.853000
1563.000000	17.875700
1562.000000	17.887800
1561.000000	17.893300
1560.000000	17.890300
1559.000000	17.881700
1558.000000	17.898400
1557.000000	17.908900
1556.000000	17.888800
1555.000000	17.859100
1554.000000	17.840000
1553.000000	17.833500
1552.000000	17.825800
1551.000000	17.818100
1550.000000	17.803500
1549.000000	17.785700
1548.000000	17.763000
1547.000000	17.752600
1546.000000	17.749000
1545.000000	17.727900
1544.000000	17.711800
1543.000000	17.706100
1542.000000	17.707200
1541.000000	17.696700
1540.000000	17.691100
1539.000000	17.680800
1538.000000	17.671300
1537.000000	17.671000
1536.000000	17.662600
1535.000000	17.661700
1534.000000	17.658600
1533.000000	17.665100
1532.000000	17.662800
1531.000000	17.642400
1530.000000	17.613300
1529.000000	17.596400
1528.000000	17.605100
1527.000000	17.597200
1526.000000	17.599400
1525.000000	17.594900
1524.000000	17.565400
1523.000000	17.539600
1522.000000	17.515200
1521.000000	17.498500
1520.000000	17.478600
1519.000000	17.447200
1518.000000	17.416100
1517.000000	17.396300
1516.000000	17.377900
1515.000000	17.365400
1514.000000	17.340700
1513.000000	17.307200
1512.000000	17.279700
1511.000000	17.272100
1510.000000	17.251600
1509.000000	17.206600
1508.000000	17.163700
1507.000000	17.140300
1506.000000	17.117700
1505.000000	17.092800
1504.000000	17.073300
1503.000000	17.043400
1502.000000	17.027200
1501.000000	17.015600
1500.000000	17.000900
1499.000000	17.006100
1498.000000	16.989100
1497.000000	16.984700
1496.000000	16.961600
1495.000000	16.938000
1494.000000	16.931100
1493.000000	16.937600
1492.000000	16.939600
1491.000000	16.929100
1490.000000	16.913100
1489.000000	16.915000
1488.000000	16.949900
1487.000000	16.954100
1486.000000	16.962100
1485.000000	16.968800
1484.000000	16.960600
1483.000000	16.981400
1482.000000	17.012800
1481.000000	17.049800
1480.000000	17.056200
1479.000000	17.072400
1478.000000	17.113500
1477.000000	17.144200
1476.000000	17.162900
1475.000000	17.212300
1474.000000	17.226600
1473.000000	17.269200
1472.000000	17.308300
1471.000000	17.373100
1470.000000	17.394900
1469.000000	17.413900
1468.000000	17.449400
1467.000000	17.513200
1466.000000	17.550500
1465.000000	17.582200
1464.000000	17.624800
1463.000000	17.664900
1462.000000	17.735700
1461.000000	17.789000
1460.000000	17.845900
1459.000000	17.897500
1458.000000	17.965800
1457.000000	18.057300
1456.000000	18.118200
1455.000000	18.165000
1454.000000	18.237700
1453.000000	18.314900
1452.000000	18.413800
1451.000000	18.479800
1450.000000	18.535800
1449.000000	18.605600
1448.000000	18.665500
1447.000000	18.781000
1446.000000	18.859300
1445.000000	18.918400
1444.000000	18.984400
1443.000000	19.113300
1442.000000	19.205100
1441.000000	19.292400
1440.000000	19.356600
1439.000000	19.469100
1438.000000	19.562000
1437.000000	19.651300
1436.000000	19.726300
1435.000000	19.827400
1434.000000	19.963600
1433.000000	20.047100
1432.000000	20.165300
1431.000000	20.228700
1430.000000	20.351500
1429.000000	20.470200
1428.000000	20.587500
1427.000000	20.723800
1426.000000	20.867200
1425.000000	21.023200
1424.000000	21.182000
1423.000000	21.329400
1422.000000	21.461400
1421.000000	21.662200
1420.000000	21.894100
1419.000000	22.051100
1418.000000	22.183700
1417.000000	22.339700
1416.000000	22.516800
1415.000000	22.729600
1414.000000	22.891400
1413.000000	23.027000
1412.000000	23.217600
1411.000000	23.412800
1410.000000	23.650400
1409.000000	23.840000
1408.000000	24.056800
1407.000000	24.280900
1406.000000	24.538600
1405.000000	24.767200
1404.000000	24.952700
1403.000000	25.138100
1402.000000	25.416300
1401.000000	25.657400
1400.000000	25.849500
1399.000000	25.954900
1398.000000	26.091500
1397.000000	26.301200
1396.000000	26.461200
1395.000000	26.532700
1394.000000	26.613900
1393.000000	26.723500
1392.000000	26.835600
1391.000000	26.881100
1390.000000	26.982300
1389.000000	27.162100
1388.000000	27.349900
1387.000000	27.466000
1386.000000	27.627300
1385.000000	27.826100
1384.000000	28.048300
1383.000000	28.217400
1382.000000	28.369700
1381.000000	28.451200
1380.000000	28.450400
1379.000000	28.495100
1378.000000	28.499400
1377.000000	28.535700
1376.000000	28.575200
1375.000000	28.650200
1374.000000	28.755600
1373.000000	28.899900
1372.000000	29.103500
1371.000000	29.270800
1370.000000	29.387600
1369.000000	29.547800
1368.000000	29.692700
1367.000000	29.761600
1366.000000	29.857100
1365.000000	29.983400
1364.000000	30.074400
1363.000000	30.145500
1362.000000	30.266400
1361.000000	30.335800
1360.000000	30.339500
1359.000000	30.376500
1358.000000	30.415100
1357.000000	30.471900
1356.000000	30.584700
1355.000000	30.772900
1354.000000	30.972200
1353.000000	31.174600
1352.000000	31.403400
1351.000000	31.609000
1350.000000	31.821900
1349.000000	32.012700
1348.000000	32.202000
1347.000000	32.378800
1346.000000	32.537600
1345.000000	32.679300
1344.000000	32.838600
1343.000000	32.969500
1342.000000	33.101900
1341.000000	33.226600
1340.000000	33.356800
1339.000000	33.473100
1338.000000	33.563500
1337.000000	33.673000
1336.000000	33.764100
1335.000000	33.846800
1334.000000	33.934900
1333.000000	34.011500
1332.000000	34.091200
1331.000000	34.160900
1330.000000	34.219700
1329.000000	34.278800
1328.000000	34.333100
1327.000000	34.388500
1326.000000	34.443200
1325.000000	34.494500
1324.000000	34.524600
1323.000000	34.569400
1322.000000	34.612100
1321.000000	34.643900
1320.000000	34.671000
1319.000000	34.703700
1318.000000	34.733900
1317.000000	34.759500
1316.000000	34.782900
1315.000000	34.797500
1314.000000	34.807400
1313.000000	34.832200
1312.000000	34.853000
1311.000000	34.871700
1310.000000	34.887500
1309.000000	34.891000
1308.000000	34.892400
1307.000000	34.898200
1306.000000	34.896100
1305.000000	34.885700
1304.000000	34.880800
1303.000000	34.875400
1302.000000	34.875200
1301.000000	34.870400
1300.000000	34.858700
1299.000000	34.847600
1298.000000	34.840600
1297.000000	34.813900
1296.000000	34.793000
1295.000000	34.784000
1294.000000	34.767700
1293.000000	34.748000
1292.000000	34.723100
1291.000000	34.718400
1290.000000	34.695600
1289.000000	34.669200
1288.000000	34.644900
1287.000000	34.610000
1286.000000	34.571800
1285.000000	34.530600
1284.000000	34.494400
1283.000000	34.455500
1282.000000	34.427400
1281.000000	34.405300
1280.000000	34.360000
1279.000000	34.321000
1278.000000	34.289900
1277.000000	34.244000
1276.000000	34.215100
1275.000000	34.200100
1274.000000	34.176700
1273.000000	34.147200
1272.000000	34.128500
1271.000000	34.110700
1270.000000	34.088600
1269.000000	34.074700
1268.000000	34.060400
1267.000000	34.031900
1266.000000	34.000100
1265.000000	33.988400
1264.000000	33.970800
1263.000000	33.946100
1262.000000	33.926000
1261.000000	33.918900
1260.000000	33.891900
1259.000000	33.865900
1258.000000	33.843100
1257.000000	33.803500
1256.000000	33.781900
1255.000000	33.768700
1254.000000	33.738200
1253.000000	33.705700
1252.000000	33.681800
1251.000000	33.640400
1250.000000	33.589800
1249.000000	33.553400
1248.000000	33.532000
1247.000000	33.478700
1246.000000	33.427700
1245.000000	33.383000
1244.000000	33.330600
1243.000000	33.277100
1242.000000	33.216900
1241.000000	33.167100
1240.000000	33.102400
1239.000000	33.045100
1238.000000	32.980600
1237.000000	32.920600
1236.000000	32.848000
1235.000000	32.776900
1234.000000	32.715400
1233.000000	32.663000
1232.000000	32.582300
1231.000000	32.512900
1230.000000	32.447000
1229.000000	32.382500
1228.000000	32.304000
1227.000000	32.225900
1226.000000	32.156200
1225.000000	32.095300
1224.000000	32.025100
1223.000000	31.954400
1222.000000	31.889000
1221.000000	31.803300
1220.000000	31.740500
1219.000000	31.665500
1218.000000	31.597500
1217.000000	31.533100
1216.000000	31.461200
1215.000000	31.402000
1214.000000	31.331500
1213.000000	31.287100
1212.000000	31.228000
1211.000000	31.178300
1210.000000	31.125600
1209.000000	31.084500
1208.000000	31.046600
1207.000000	31.012800
1206.000000	30.968600
1205.000000	30.946200
1204.000000	30.903200
1203.000000	30.891600
1202.000000	30.856400
1201.000000	30.812500
1200.000000	30.784300
1199.000000	30.746500
1198.000000	30.685900
1197.000000	30.623700
1196.000000	30.537400
1195.000000	30.432500
1194.000000	30.289700
1193.000000	30.134500
1192.000000	29.963700
1191.000000	29.791500
1190.000000	29.602500
1189.000000	29.473000
1188.000000	29.340100
1187.000000	29.256500
1186.000000	29.247700
1185.000000	29.251100
1184.000000	29.349100
1183.000000	29.487600
1182.000000	29.624500
1181.000000	29.799600
1180.000000	29.992000
1179.000000	30.153000
1178.000000	30.296400
1177.000000	30.411900
1176.000000	30.525300
1175.000000	30.642000
1174.000000	30.729500
1173.000000	30.856300
1172.000000	30.968400
1171.000000	31.101700
1170.000000	31.211900
1169.000000	31.331200
1168.000000	31.454200
1167.000000	31.587400
1166.000000	31.713100
1165.000000	31.853600
1164.000000	31.985700
1163.000000	32.095900
1162.000000	32.235800
1161.000000	32.366500
1160.000000	32.491900
1159.000000	32.604300
1158.000000	32.720900
1157.000000	32.826500
1156.000000	32.894600
1155.000000	32.944300
1154.000000	33.000100
1153.000000	33.017500
1152.000000	33.028400
1151.000000	33.054500
1150.000000	33.054900
1149.000000	33.047400
1148.000000	33.038400
1147.000000	33.055400
1146.000000	33.074700
1145.000000	33.116100
1144.000000	33.194300
1143.000000	33.230600
1142.000000	33.326200
1141.000000	33.398500
1140.000000	33.500500
1139.000000	33.576600
1138.000000	33.683300
1137.000000	33.778500
1136.000000	33.886700
1135.000000	33.988100
1134.000000	34.080500
1133.000000	34.135200
1132.000000	34.197700
1131.000000	34.264000
1130.000000	34.288600
1129.000000	34.336000
1128.000000	34.382500
1127.000000	34.399700
1126.000000	34.427100
1125.000000	34.451800
1124.000000	34.447600
1123.000000	34.444200
1122.000000	34.438200
1121.000000	34.427900
1120.000000	34.423500
1119.000000	34.412800
1118.000000	34.400300
1117.000000	34.360700
1116.000000	34.336200
1115.000000	34.324100
1114.000000	34.313000
1113.000000	34.286000
1112.000000	34.239400
1111.000000	34.217400
1110.000000	34.203600
1109.000000	34.164300
1108.000000	34.135500
1107.000000	34.114000
1106.000000	34.098600
1105.000000	34.075300
1104.000000	34.025100
1103.000000	34.010300
1102.000000	33.984400
1101.000000	33.954500
1100.000000	33.922100
1099.000000	33.902600
1098.000000	33.873200
1097.000000	33.830200
1096.000000	33.789900
1095.000000	33.772700
1094.000000	33.741200
1093.000000	33.682200
1092.000000	33.638400
1091.000000	33.603800
1090.000000	33.579700
1089.000000	33.551000
1088.000000	33.491400
1087.000000	33.447100
1086.000000	33.410300
1085.000000	33.376500
1084.000000	33.326200
1083.000000	33.275300
1082.000000	33.246300
1081.000000	33.210800
1080.000000	33.168800
1079.000000	33.130800
1078.000000	33.084100
1077.000000	33.027500
1076.000000	32.996600
1075.000000	32.951000
1074.000000	32.902400
1073.000000	32.876600
1072.000000	32.824500
1071.000000	32.785700
1070.000000	32.751000
1069.000000	32.707800
1068.000000	32.673600
1067.000000	32.628400
1066.000000	32.583300
1065.000000	32.538800
1064.000000	32.502200
1063.000000	32.464900
1062.000000	32.432400
1061.000000	32.384400
1060.000000	32.345600
1059.000000	32.302600
1058.000000	32.250600
1057.000000	32.212100
1056.000000	32.178100
1055.000000	32.144100
1054.000000	32.092200
1053.000000	32.047800
1052.000000	32.008100
1051.000000	31.970400
1050.000000	31.933700
1049.000000	31.881600
1048.000000	31.852800
1047.000000	31.814100
1046.000000	31.769700
1045.000000	31.730500
1044.000000	31.681600
1043.000000	31.636400
1042.000000	31.609900
1041.000000	31.570200
1040.000000	31.529800
1039.000000	31.487500
1038.000000	31.437500
1037.000000	31.386300
1036.000000	31.359200
1035.000000	31.319900
1034.000000	31.272400
1033.000000	31.231100
1032.000000	31.179800
1031.000000	31.138500
1030.000000	31.079800
1029.000000	31.027500
1028.000000	30.976400
1027.000000	30.923100
1026.000000	30.879500
1025.000000	30.834300
1024.000000	30.780200
1023.000000	30.727400
1022.000000	30.678200
1021.000000	30.613500
1020.000000	30.573700
1019.000000	30.534600
1018.000000	30.488000
1017.000000	30.451500
1016.000000	30.413200
1015.000000	30.356300
1014.000000	30.304500
1013.000000	30.276600
1012.000000	30.238200
1011.000000	30.214600
1010.000000	30.192500
1009.000000	30.155800
1008.000000	30.126600
1007.000000	30.107100
1006.000000	30.090200
1005.000000	30.062400
1004.000000	30.026900
1003.000000	30.005000
1002.000000	29.972100
1001.000000	29.938100
1000.000000	29.912700
999.000000	29.879300
998.000000	29.847400
997.000000	29.828100
996.000000	29.802700
995.000000	29.780600
994.000000	29.749100
993.000000	29.716200
992.000000	29.686600
991.000000	29.661800
990.000000	29.623300
989.000000	29.582200
988.000000	29.566300
987.000000	29.529800
986.000000	29.492600
985.000000	29.475700
984.000000	29.451700
983.000000	29.426300
982.000000	29.384500
981.000000	29.338900
980.000000	29.322300
979.000000	29.288700
978.000000	29.262200
977.000000	29.217200
976.000000	29.177800
975.000000	29.144100
974.000000	29.106600
973.000000	29.071500
972.000000	29.047900
971.000000	29.015500
970.000000	28.965500
969.000000	28.934400
968.000000	28.908100
967.000000	28.879700
966.000000	28.847700
965.000000	28.817000
964.000000	28.782500
963.000000	28.771700
962.000000	28.756000
961.000000	28.725000
960.000000	28.689700
959.000000	28.661900
958.000000	28.632100
957.000000	28.625800
956.000000	28.585900
955.000000	28.547900
954.000000	28.530500
953.000000	28.519500
952.000000	28.483700
951.000000	28.457500
950.000000	28.431100
949.000000	28.387700
948.000000	28.390900
947.000000	28.335700
946.000000	28.327900
945.000000	28.331900
944.000000	28.294200
943.000000	28.254800
942.000000	28.239700
941.000000	28.213500
940.000000	28.208200
939.000000	28.196400
938.000000	28.175100
937.000000	28.147300
936.000000	28.143900
935.000000	28.142400
934.000000	28.134100
933.000000	28.124800
932.000000	28.091600
931.000000	28.050700
930.000000	28.032300
929.000000	28.040400
928.000000	28.025800
927.000000	28.041700
926.000000	28.054900
925.000000	28.046000
924.000000	28.012600
923.000000	28.035100
922.000000	28.042500
921.000000	28.012800
920.000000	28.011100
919.000000	28.037900
918.000000	28.053700
917.000000	28.076900
916.000000	28.103400
915.000000	28.118700
914.000000	28.130200
913.000000	28.175800
912.000000	28.195400
911.000000	28.234200
910.000000	28.269200
909.000000	28.272400
908.000000	28.304200
907.000000	28.390200
906.000000	28.441000
905.000000	28.536300
904.000000	28.586600
903.000000	28.660400
902.000000	28.739100
901.000000	28.823900
900.000000	28.904400
899.000000	28.996600
898.000000	29.078200
897.000000	29.186900
896.000000	29.278400
895.000000	29.405300
894.000000	29.518200
893.000000	29.651800
892.000000	29.773100
891.000000	29.961600
890.000000	30.080200
889.000000	30.229900
888.000000	30.357100
887.000000	30.504900
886.000000	30.640200
885.000000	30.817700
884.000000	31.037600
883.000000	31.210900
882.000000	31.388700
881.000000	31.595800
880.000000	31.761700
879.000000	31.945300
878.000000	32.137900
877.000000	32.383600
876.000000	32.553100
875.000000	32.761600
874.000000	33.003800
873.000000	33.221000
872.000000	33.474000
871.000000	33.652400
870.000000	33.879600
869.000000	34.108000
868.000000	34.336000
867.000000	34.608900
866.000000	34.836400
865.000000	35.088000
864.000000	35.311800
863.000000	35.593300
862.000000	35.839300
861.000000	36.068500
860.000000	36.281900
859.000000	36.527000
858.000000	35.435700
857.000000	36.161680
856.000000	35.805110
855.000000	35.692239
854.000000	36.190026
853.000000	36.298023
852.000000	36.484517
851.000000	36.171300
850.000000	36.406661
849.000000	36.421540
848.000000	36.583407
847.000000	36.652284
846.000000	36.623040
845.000000	36.638175
844.000000	36.727959
843.000000	36.950879
842.000000	36.794142
841.000000	36.878667
840.000000	36.900985
839.000000	36.942542
838.000000	36.925611
837.000000	36.868791
836.000000	36.886491
835.000000	37.064648
834.000000	36.990897
833.000000	37.032582
832.000000	37.099407
831.000000	37.079270
830.000000	37.155329
829.000000	37.226130
828.000000	37.285003
827.000000	37.295520
826.000000	37.308475
825.000000	37.270124
824.000000	37.156612
823.000000	37.340027
822.000000	37.408904
821.000000	37.316042
820.000000	37.266148
819.000000	37.347595
818.000000	37.360806
817.000000	37.443407
816.000000	37.509975
815.000000	37.546915
814.000000	37.571669
813.000000	37.615150
812.000000	37.607583
811.000000	37.576415
810.000000	37.686721
809.000000	37.778428
808.000000	37.806133
807.000000	37.706345
806.000000	37.754956
805.000000	37.812931
804.000000	37.793050
803.000000	37.894506
802.000000	37.895147
801.000000	37.970822
800.000000	38.019818
799.000000	38.033286
798.000000	38.072663
797.000000	38.094467
796.000000	38.143207
795.000000	38.228245
794.000000	38.288144
793.000000	38.291991
792.000000	38.291094
791.000000	38.286861
790.000000	38.323031
789.000000	38.431926
788.000000	38.465274
787.000000	38.419484
786.000000	38.412045
785.000000	38.456937
784.000000	38.470020
783.000000	38.445393
782.000000	38.477202
781.000000	38.423332
780.000000	38.414226
779.000000	38.470404
778.000000	38.495672
777.000000	38.518759
776.000000	38.492979
775.000000	38.475407
774.000000	38.541334
773.000000	38.508498
772.000000	38.470020
771.000000	38.466172
770.000000	38.454500
769.000000	38.463350
768.000000	38.434619
767.000000	38.444880
766.000000	38.441032
765.000000	38.381647
764.000000	38.381647
763.000000	38.376773
762.000000	38.297378
761.000000	38.205927
760.000000	38.212212
759.000000	38.168859
758.000000	38.078050
757.000000	38.031234
756.000000	37.998014
755.000000	37.919389
754.000000	37.867186
753.000000	37.801772
752.000000	37.760728
751.000000	37.743541
750.000000	37.676588
749.000000	37.600528
748.000000	37.549736
747.000000	37.453155
746.000000	37.353623
745.000000	37.318094
744.000000	37.240496
743.000000	37.176108
742.000000	37.118646
741.000000	37.015523
740.000000	36.969349
739.000000	36.919968
738.000000	36.836982
737.000000	36.813253
736.000000	36.768105
735.000000	36.702948
734.000000	36.615601
733.000000	36.564552
732.000000	36.502473
731.000000	36.456812
730.000000	36.416153
729.000000	36.321752
728.000000	36.252105
727.000000	36.184254
726.000000	36.082157
725.000000	36.005713
724.000000	35.958127
723.000000	35.865778
722.000000	35.765092
721.000000	35.708400
720.000000	35.649656
719.000000	35.556538
718.000000	35.440845
717.000000	35.299628
716.000000	35.202661
715.000000	35.139813
714.000000	35.005266
713.000000	34.928436
712.000000	34.854044
711.000000	34.728732
710.000000	34.618682
709.000000	34.502990
708.000000	34.365364
707.000000	34.237486
706.000000	34.140392
705.000000	34.004562
704.000000	33.835768
703.000000	33.688908
702.000000	33.546793
701.000000	33.405319
700.000000	33.225752
699.000000	33.039900
698.000000	32.885728
697.000000	32.776705
696.000000	32.601114
695.000000	32.438733
694.000000	32.261731
693.000000	32.094220
692.000000	31.895927
691.000000	31.737907
690.000000	31.572962
689.000000	31.399551
688.000000	31.228192
687.000000	31.152004
686.000000	30.984622
685.000000	30.807363
684.000000	30.641391
683.000000	30.496583
682.000000	30.310987
681.000000	30.180160
680.000000	30.046254
679.000000	29.866686
678.000000	29.691993
677.000000	29.535128
676.000000	29.413663
675.000000	29.305410
674.000000	29.136873
673.000000	28.988601
672.000000	28.840971
671.000000	28.742081
670.000000	28.584318
669.000000	28.479912
668.000000	28.366913
667.000000	28.236085
666.000000	28.120393
665.000000	27.981100
664.000000	27.838985
663.000000	27.727012
662.000000	27.644539
661.000000	27.514352
660.000000	27.390323
659.000000	27.283223
658.000000	27.146496
657.000000	27.040166
656.000000	26.952819
655.000000	26.805702
654.000000	26.723871
653.000000	26.612154
652.000000	26.512366
651.000000	26.413860
650.000000	26.276876
649.000000	26.143227
648.000000	26.065243
647.000000	25.950833
646.000000	25.887856
645.000000	25.759465
644.000000	25.640822
643.000000	25.541419
642.000000	25.450096
641.000000	25.372497
640.000000	25.271298
639.000000	25.168560
638.000000	25.069926
637.000000	24.998356
636.000000	24.904468
635.000000	24.771588
634.000000	24.648841
633.000000	24.559185
632.000000	24.462347
631.000000	24.353837
630.000000	24.254946
629.000000	24.126427
628.000000	24.018815
627.000000	23.924029
626.000000	23.843352
625.000000	23.705342
624.000000	23.641980
623.000000	23.546425
622.000000	23.435093
621.000000	23.370962
620.000000	23.293106
619.000000	23.234105
618.000000	23.138293
617.000000	23.073264
616.000000	23.027603
615.000000	22.984378
614.000000	22.922812
613.000000	22.892029
612.000000	22.831105
611.000000	22.776721
610.000000	22.702842
609.000000	22.668083
608.000000	22.620626
607.000000	22.611519
606.000000	22.613956
605.000000	22.595102
604.000000	22.552134
603.000000	22.518144
602.000000	22.505959
601.000000	22.476716
600.000000	22.484155
599.000000	22.468763
598.000000	22.465300
597.000000	22.444265
596.000000	22.482616
595.000000	22.481205
594.000000	22.473766
593.000000	22.447215
592.000000	22.469276
591.000000	22.495442
590.000000	22.484027
589.000000	22.495570
588.000000	22.522634
587.000000	22.536999
586.000000	22.546875
585.000000	22.583815
584.000000	22.591895
583.000000	22.605235
582.000000	22.615880
581.000000	22.653590
580.000000	22.678344
579.000000	22.690529
578.000000	22.699379
577.000000	22.749915
576.000000	22.777235
575.000000	22.825333
574.000000	22.883051
573.000000	22.884975
572.000000	22.880101
571.000000	22.892414
570.000000	22.910884
569.000000	22.893312
568.000000	22.941539
567.000000	22.896134
566.000000	22.870866
565.000000	22.860220
564.000000	22.811737
563.000000	22.792113
562.000000	22.733497
561.000000	22.660644
560.000000	22.653846
559.000000	22.994511
558.000000	22.926404
557.000000	22.875997
556.000000	22.830592
555.000000	22.791728
554.000000	22.723236
553.000000	22.674625
552.000000	22.589971
551.000000	22.491979
550.000000	22.425795
549.000000	22.329855
548.000000	22.256874
547.000000	22.179916
546.000000	22.108089
545.000000	22.022410
544.000000	21.906204
543.000000	21.798207
542.000000	21.680719
541.000000	21.596835
540.000000	21.506795
539.000000	21.423168
538.000000	21.311066
537.000000	21.184984
536.000000	21.027478
535.000000	20.918583
534.000000	20.781855
533.000000	20.646667
532.000000	20.513017
531.000000	20.380907
530.000000	20.271755
529.000000	20.145545
528.000000	20.002148
527.000000	19.854133
526.000000	19.722664
525.000000	19.589143
524.000000	19.428943
523.000000	19.283621
522.000000	19.137787
521.000000	18.999007
520.000000	18.855866
519.000000	18.701823
518.000000	18.545727
517.000000	18.405536
516.000000	18.238282
515.000000	18.056791
514.000000	17.876710
513.000000	17.684445
512.000000	17.479481
511.000000	17.282085
510.000000	17.097644
509.000000	16.899863
508.000000	16.698748
507.000000	16.497504
506.000000	16.289719
505.000000	16.078855
504.000000	15.882485
503.000000	15.682011
502.000000	15.456910
501.000000	15.250793
500.000000	15.045316
499.000000	14.842790
498.000000	14.626154
497.000000	14.420934
496.000000	14.231491
495.000000	14.032941
494.000000	13.816562
493.000000	13.623014
492.000000	13.424463
491.000000	13.232967
490.000000	13.020180
489.000000	12.823041
488.000000	12.646423
487.000000	12.483915
486.000000	12.340389
485.000000	12.166722
484.000000	12.021272
483.000000	11.890316
482.000000	11.745764
481.000000	11.586077
480.000000	11.453967
479.000000	11.355461
478.000000	11.281454
477.000000	11.208088
476.000000	11.138441
475.000000	11.081878
474.000000	11.034420
473.000000	10.990042
472.000000	10.944637
471.000000	10.902438
470.000000	10.866653
469.000000	10.842155
468.000000	10.823685
467.000000	10.807268
466.000000	10.786104
465.000000	10.755834
464.000000	10.727232
463.000000	10.700168
462.000000	10.671566
461.000000	10.654764
460.000000	10.630522
459.000000	10.596532
458.000000	10.571008
457.000000	10.526886
456.000000	10.487124
455.000000	10.469424
454.000000	10.437230
453.000000	10.391697
452.000000	10.332440
451.000000	10.277287
450.000000	10.230215
449.000000	10.178653
448.000000	10.132350
447.000000	10.081302
446.000000	10.026149
445.000000	9.974716
444.000000	9.916998
443.000000	9.835295
442.000000	9.731787
441.000000	9.648673
440.000000	9.573639
439.000000	9.490140
438.000000	9.418057
437.000000	9.331608
436.000000	9.244261
435.000000	9.168586
434.000000	9.089833
433.000000	9.004026
432.000000	8.923605
431.000000	8.845878
430.000000	8.752759
429.000000	8.657332
428.000000	8.570370
427.000000	8.493926
426.000000	8.417096
425.000000	8.315256
424.000000	8.210594
423.000000	8.127095
422.000000	8.037440
421.000000	7.937010
420.000000	7.844661
419.000000	7.747695
418.000000	7.639698
417.000000	7.539525
416.000000	7.442686
415.000000	7.339948
414.000000	7.245932
413.000000	7.137807
412.000000	7.023140
411.000000	6.920915
410.000000	6.805863
409.000000	6.696840
408.000000	6.591921
407.000000	6.479948
406.000000	6.374388
405.000000	6.263441
404.000000	6.156855
403.000000	6.054373
402.000000	5.929446
401.000000	5.841714
400.000000	5.728587
399.000000	5.611483
398.000000	5.510284
397.000000	5.412420
396.000000	5.327895
395.000000	5.231441
394.000000	5.128960
393.000000	5.049180
392.000000	4.963758
391.000000	4.867946
390.000000	4.793938
389.000000	4.737374
388.000000	4.666317
387.000000	4.594362
386.000000	4.517404
385.000000	4.464175
384.000000	4.397094
383.000000	4.340402
382.000000	4.291534
381.000000	4.236509
380.000000	4.185718
379.000000	4.137234
378.000000	4.099910
377.000000	4.053479
376.000000	4.136978
375.000000	3.883146
374.000000	3.736414
373.000000	3.787847
372.000000	3.717431
371.000000	3.846463
370.000000	3.848259
369.000000	3.793106
368.000000	3.799519
367.000000	3.880966
366.000000	3.799519
365.000000	3.797467
364.000000	3.768993
363.000000	3.707555
362.000000	3.666768
361.000000	3.738723
360.000000	3.710633
359.000000	3.596095
358.000000	3.704092
357.000000	3.616617
356.000000	3.623415
355.000000	3.647913
354.000000	3.488739
353.000000	3.472963
352.000000	3.345214
351.000000	3.357270
350.000000	3.511442
349.000000	3.517727
348.000000	3.563131
347.000000	3.292754
346.000000	3.354833
345.000000	3.399597
344.000000	3.439486
343.000000	3.352909
342.000000	3.346753
341.000000	3.416912
340.000000	3.401392
339.000000	3.495922
338.000000	3.373816
337.000000	3.351114
336.000000	3.438204
335.000000	3.363042
334.000000	3.395749
333.000000	3.094460
332.000000	2.964017
331.000000	3.200918
330.000000	3.140507
329.000000	3.298911
328.000000	3.159746
327.000000	3.555949
326.000000	3.211821
325.000000	3.190657
324.000000	3.399469
323.000000	3.417682
322.000000	3.531451
321.000000	3.433330
320.000000	3.422941
319.000000	3.585577
318.000000	3.709607
317.000000	3.621876
316.000000	2.949652
315.000000	2.863331
314.000000	2.919510
313.000000	2.861279
312.000000	2.872695
311.000000	2.845503
310.000000	2.911430
309.000000	2.882314
308.000000	2.851018
307.000000	2.833575
306.000000	2.824211
305.000000	2.875901
304.000000	2.773419
303.000000	2.836525
302.000000	2.827803
301.000000	2.862305
300.000000	2.793044
299.000000	2.814335
298.000000	2.853840
297.000000	2.847812
296.000000	2.852814
295.000000	2.834344
294.000000	2.866410
293.000000	2.747895
292.000000	2.851916
291.000000	2.759311
290.000000	2.861792
289.000000	2.808692
288.000000	2.806255
287.000000	2.732504
286.000000	2.842553
285.000000	2.749563
284.000000	2.789196
283.000000	2.761748
282.000000	2.765595
281.000000	2.757002
280.000000	2.829855
279.000000	2.802407
278.000000	2.857047
277.000000	2.781243
276.000000	2.784065
275.000000	2.777011
274.000000	2.827161
273.000000	2.848068
272.000000	2.826007
271.000000	2.856149
270.000000	2.874234
269.000000	2.820235
268.000000	2.883982
267.000000	2.886675
266.000000	2.873977
265.000000	2.852301
264.000000	2.884366
263.000000	2.888086
262.000000	2.937339
261.000000	2.962607
260.000000	2.893730
259.000000	2.907710
258.000000	2.939006
257.000000	2.924769
256.000000	2.931182
255.000000	2.898475
254.000000	2.916176
253.000000	2.958246
252.000000	2.939776
251.000000	2.913097
250.000000	2.944906
