PE UV       SUBTECH     SPECTRUM    ASCII       PEDS        4.00        
   -1
CICIMAUCR0116-3.Sample.ASC
24/04/11
14:13:42.00
24/04/11
14:13:42.00
Vinicio Soto Monge
C. kalinini
250,000000
1
Lambda 1050
1050L1511233
PerkinElmer UV WinLab 6.3.2.0749 / 2.02.05 Lambda 900 UV/VIS/NIR, Aug  7 2015 09:38:08

0
0
3350/2 860,8/2
0
0
UV/VIS
1
1
1
DoubleDePol,CommonBeamDepol,RBeamAtt,SBeamAtt,60mm sphere, WB InGaAs Detector
0
0
0
0
Program
Program
3350/2 860,8/2
3350/0,2 860,8/0,2
3350/0,2 860,8/0,2
0
15.00
 
 
 
0
 
860,8
319,2
860,8
Front
100
on
S:100 R:100
0
0
0
0
 
0
 
 
 
0
 
 
0
0
0
0
0
 
 
 
 
0
0


0
0
#HDR
-1
-1
#GR
nm
%R
1.0
0.0
2400,000000
-1,000000
2151
8
95,435400
5,183200
#DATA
2400.000000	17.104516
2399.000000	17.672384
2398.000000	17.138401
2397.000000	18.108999
2396.000000	18.135210
2395.000000	18.650557
2394.000000	17.463595
2393.000000	17.469275
2392.000000	17.217133
2391.000000	17.875195
2390.000000	18.281811
2389.000000	17.902302
2388.000000	18.425323
2387.000000	18.800348
2386.000000	18.165108
2385.000000	17.320282
2384.000000	17.841908
2383.000000	17.931104
2382.000000	17.669096
2381.000000	17.650957
2380.000000	16.837823
2379.000000	16.948945
2378.000000	17.787493
2377.000000	18.000767
2376.000000	18.222912
2375.000000	17.252313
2374.000000	16.684345
2373.000000	16.520004
2372.000000	17.199194
2371.000000	17.284703
2370.000000	17.380378
2369.000000	17.297261
2368.000000	16.826661
2367.000000	16.652055
2366.000000	17.146374
2365.000000	17.017711
2364.000000	17.266067
2363.000000	17.472265
2362.000000	16.485023
2361.000000	16.367723
2360.000000	16.246734
2359.000000	16.012730
2358.000000	16.007747
2357.000000	16.202485
2356.000000	15.763976
2355.000000	15.829155
2354.000000	15.584586
2353.000000	15.952336
2352.000000	16.953031
2351.000000	15.487018
2350.000000	15.544622
2349.000000	15.809023
2348.000000	15.828955
2347.000000	16.194711
2346.000000	16.520901
2345.000000	16.093156
2344.000000	15.320585
2343.000000	16.426921
2342.000000	16.098638
2341.000000	16.482532
2340.000000	16.513228
2339.000000	16.827857
2338.000000	16.162222
2337.000000	15.962003
2336.000000	16.311514
2335.000000	15.967185
2334.000000	16.218131
2333.000000	16.073424
2332.000000	16.380280
2331.000000	15.965192
2330.000000	15.989310
2329.000000	15.788194
2328.000000	15.537845
2327.000000	15.761086
2326.000000	15.690526
2325.000000	15.643486
2324.000000	15.305037
2323.000000	15.458715
2322.000000	15.484826
2321.000000	15.393437
2320.000000	15.500273
2319.000000	15.296666
2318.000000	15.437088
2317.000000	14.815802
2316.000000	14.789391
2315.000000	14.640897
2314.000000	13.919451
2313.000000	13.436992
2312.000000	13.845203
2311.000000	13.766272
2310.000000	13.584291
2309.000000	13.617478
2308.000000	13.615086
2307.000000	13.661628
2306.000000	13.500177
2305.000000	13.221425
2304.000000	13.759694
2303.000000	13.944466
2302.000000	13.534161
2301.000000	13.566651
2300.000000	13.444666
2299.000000	13.628042
2298.000000	14.168703
2297.000000	14.382177
2296.000000	14.433203
2295.000000	14.238864
2294.000000	14.448850
2293.000000	14.379685
2292.000000	14.497285
2291.000000	14.744743
2290.000000	15.001071
2289.000000	14.632226
2288.000000	14.377792
2287.000000	14.792282
2286.000000	14.597743
2285.000000	14.486123
2284.000000	14.551800
2283.000000	14.293279
2282.000000	14.257999
2281.000000	14.100036
2280.000000	13.971773
2279.000000	14.039243
2278.000000	13.966790
2277.000000	13.795074
2276.000000	13.785506
2275.000000	14.208368
2274.000000	14.332944
2273.000000	13.920248
2272.000000	13.687639
2271.000000	13.548811
2270.000000	13.689333
2269.000000	14.041535
2268.000000	13.985127
2267.000000	13.887659
2266.000000	14.264876
2265.000000	14.343209
2264.000000	14.148671
2263.000000	14.423436
2262.000000	14.703783
2261.000000	14.982036
2260.000000	15.297762
2259.000000	15.703382
2258.000000	15.913866
2257.000000	15.837725
2256.000000	16.229991
2255.000000	16.639996
2254.000000	16.833438
2253.000000	17.185640
2252.000000	17.486118
2251.000000	17.600031
2250.000000	17.974756
2249.000000	18.326858
2248.000000	18.324965
2247.000000	18.705171
2246.000000	18.730286
2245.000000	18.895623
2244.000000	18.944457
2243.000000	19.086574
2242.000000	19.400905
2241.000000	19.319183
2240.000000	19.515913
2239.000000	19.885855
2238.000000	19.785795
2237.000000	19.515315
2236.000000	19.722012
2235.000000	20.231280
2234.000000	20.228489
2233.000000	19.978241
2232.000000	20.042522
2231.000000	20.008139
2230.000000	19.973357
2229.000000	20.070228
2228.000000	20.238655
2227.000000	19.904392
2226.000000	19.884659
2225.000000	19.921534
2224.000000	19.970168
2223.000000	19.877284
2222.000000	19.536743
2221.000000	19.927414
2220.000000	20.193907
2219.000000	19.742343
2218.000000	19.517408
2217.000000	19.846888
2216.000000	19.778919
2215.000000	19.708359
2214.000000	19.192813
2213.000000	19.051992
2212.000000	19.314100
2211.000000	19.367518
2210.000000	19.361140
2209.000000	19.315694
2208.000000	19.359147
2207.000000	18.985617
2206.000000	19.153745
2205.000000	19.034053
2204.000000	18.845295
2203.000000	18.747727
2202.000000	18.694408
2201.000000	18.633216
2200.000000	18.866024
2199.000000	18.809716
2198.000000	18.705969
2197.000000	18.743242
2196.000000	18.873698
2195.000000	18.530565
2194.000000	18.638797
2193.000000	18.353567
2192.000000	18.916652
2191.000000	18.670788
2190.000000	18.948045
2189.000000	18.843800
2188.000000	18.630525
2187.000000	18.735369
2186.000000	18.677067
2185.000000	18.722811
2184.000000	18.663214
2183.000000	18.527974
2182.000000	18.764868
2181.000000	18.442266
2180.000000	18.575712
2179.000000	18.642883
2178.000000	18.760084
2177.000000	18.569732
2176.000000	18.514619
2175.000000	18.495784
2174.000000	18.521197
2173.000000	18.562457
2172.000000	18.299651
2171.000000	18.595146
2170.000000	18.881073
2169.000000	18.627735
2168.000000	18.629927
2167.000000	18.605510
2166.000000	18.656836
2165.000000	18.731781
2164.000000	18.788787
2163.000000	18.714141
2162.000000	18.931103
2161.000000	19.251314
2160.000000	19.232876
2159.000000	18.985418
2158.000000	19.125043
2157.000000	18.879678
2156.000000	19.340111
2155.000000	18.865227
2154.000000	19.304931
2153.000000	19.350775
2152.000000	20.010431
2151.000000	19.539035
2150.000000	19.177664
2149.000000	19.213941
2148.000000	19.447646
2147.000000	19.802638
2146.000000	20.325759
2145.000000	20.009734
2144.000000	19.796260
2143.000000	19.852469
2142.000000	19.799449
2141.000000	20.558666
2140.000000	20.294365
2139.000000	20.490797
2138.000000	20.225500
2137.000000	20.440468
2136.000000	20.722310
2135.000000	20.748421
2134.000000	20.425021
2133.000000	20.821672
2132.000000	20.529167
2131.000000	20.395621
2130.000000	20.502059
2129.000000	20.965084
2128.000000	20.877681
2127.000000	20.972957
2126.000000	20.921632
2125.000000	20.863529
2124.000000	20.793368
2123.000000	20.768353
2122.000000	20.728887
2121.000000	20.861835
2120.000000	20.719320
2119.000000	20.734967
2118.000000	20.450434
2117.000000	21.124242
2116.000000	20.504351
2115.000000	20.702477
2114.000000	20.656533
2113.000000	21.082883
2112.000000	20.501760
2111.000000	20.768951
2110.000000	20.269251
2109.000000	20.604411
2108.000000	20.671582
2107.000000	20.418842
2106.000000	20.508736
2105.000000	20.278719
2104.000000	20.510131
2103.000000	20.394923
2102.000000	20.443857
2101.000000	20.070826
2100.000000	20.276327
2099.000000	20.427413
2098.000000	20.441664
2097.000000	20.426815
2096.000000	20.285695
2095.000000	19.747924
2094.000000	19.888347
2093.000000	19.976347
2092.000000	20.195601
2091.000000	20.205069
2090.000000	20.423526
2089.000000	20.231180
2088.000000	20.160521
2087.000000	20.126536
2086.000000	20.368015
2085.000000	20.087270
2084.000000	20.005648
2083.000000	20.169291
2082.000000	20.315793
2081.000000	20.179755
2080.000000	19.968773
2079.000000	20.189024
2078.000000	19.733473
2077.000000	19.696200
2076.000000	19.713940
2075.000000	19.803435
2074.000000	19.736364
2073.000000	19.684739
2072.000000	19.590858
2071.000000	19.681550
2070.000000	19.520000
2069.000000	19.501562
2068.000000	19.355160
2067.000000	19.236962
2066.000000	19.175571
2065.000000	19.009636
2064.000000	19.005350
2063.000000	18.915356
2062.000000	18.831342
2061.000000	18.743840
2060.000000	18.680057
2059.000000	18.720419
2058.000000	18.727894
2057.000000	18.831043
2056.000000	18.758490
2055.000000	18.700089
2054.000000	18.692116
2053.000000	18.717928
2052.000000	18.704175
2051.000000	18.752809
2050.000000	18.897916
2049.000000	19.121754
2048.000000	19.196301
2047.000000	19.351971
2046.000000	19.398612
2045.000000	19.512824
2044.000000	19.622850
2043.000000	19.812903
2042.000000	19.973955
2041.000000	20.187429
2040.000000	20.373596
2039.000000	20.415055
2038.000000	20.533851
2037.000000	20.708457
2036.000000	20.865323
2035.000000	21.001161
2034.000000	21.225398
2033.000000	21.254898
2032.000000	21.252506
2031.000000	21.374192
2030.000000	21.452526
2029.000000	21.559163
2028.000000	21.611684
2027.000000	21.619657
2026.000000	21.679055
2025.000000	21.720713
2024.000000	21.784696
2023.000000	21.937675
2022.000000	22.008634
2021.000000	22.042319
2020.000000	22.062052
2019.000000	22.107797
2018.000000	22.085174
2017.000000	22.153242
2016.000000	22.256292
2015.000000	22.277220
2014.000000	22.375586
2013.000000	22.432991
2012.000000	22.337715
2011.000000	22.258484
2010.000000	22.266557
2009.000000	22.265660
2008.000000	22.264464
2007.000000	22.239349
2006.000000	22.260876
2005.000000	22.258683
2004.000000	22.243435
2003.000000	22.206561
2002.000000	22.100222
2001.000000	22.061454
2000.000000	22.078795
1999.000000	22.107797
1998.000000	22.037436
1997.000000	21.960199
1996.000000	21.984915
1995.000000	21.878875
1994.000000	21.736560
1993.000000	21.679055
1992.000000	21.629723
1991.000000	21.569029
1990.000000	21.489301
1989.000000	21.428507
1988.000000	21.310708
1987.000000	21.210549
1986.000000	21.137796
1985.000000	21.071123
1984.000000	20.980531
1983.000000	20.875090
1982.000000	20.787588
1981.000000	20.693906
1980.000000	20.631817
1979.000000	20.512723
1978.000000	20.386352
1977.000000	20.259384
1976.000000	20.233971
1975.000000	20.172380
1974.000000	20.056574
1973.000000	20.029865
1972.000000	19.984719
1971.000000	19.845193
1970.000000	19.848382
1969.000000	19.720617
1968.000000	19.608100
1967.000000	19.543021
1966.000000	19.421734
1965.000000	19.331142
1964.000000	19.391835
1963.000000	19.325063
1962.000000	19.126139
1961.000000	19.110493
1960.000000	19.090660
1959.000000	19.021396
1958.000000	18.814798
1957.000000	18.808121
1956.000000	18.745733
1955.000000	18.676469
1954.000000	18.664510
1953.000000	18.575612
1952.000000	18.453428
1951.000000	18.390442
1950.000000	18.316693
1949.000000	18.252710
1948.000000	18.204275
1947.000000	18.268656
1946.000000	18.106009
1945.000000	18.027477
1944.000000	18.027277
1943.000000	17.995186
1942.000000	17.927317
1941.000000	17.955023
1940.000000	17.963295
1939.000000	18.021497
1938.000000	18.032958
1937.000000	18.020999
1936.000000	18.056179
1935.000000	18.052790
1934.000000	18.075613
1933.000000	18.169294
1932.000000	18.249920
1931.000000	18.355959
1930.000000	18.411769
1929.000000	18.487611
1928.000000	18.644278
1927.000000	18.681651
1926.000000	18.820379
1925.000000	18.911769
1924.000000	19.127036
1923.000000	19.232976
1922.000000	19.272143
1921.000000	19.572122
1920.000000	19.888745
1919.000000	19.801641
1918.000000	19.959504
1917.000000	20.155637
1916.000000	20.530462
1915.000000	20.770147
1914.000000	20.975150
1913.000000	21.345290
1912.000000	21.389440
1911.000000	21.617365
1910.000000	21.956511
1909.000000	22.110787
1908.000000	22.360736
1907.000000	22.805025
1906.000000	23.290075
1905.000000	23.657625
1904.000000	23.820172
1903.000000	24.048296
1902.000000	24.245924
1901.000000	24.523380
1900.000000	25.138786
1899.000000	25.560950
1898.000000	25.834918
1897.000000	26.050086
1896.000000	26.375181
1895.000000	26.691504
1894.000000	27.042112
1893.000000	27.449426
1892.000000	27.798339
1891.000000	28.135094
1890.000000	28.468460
1889.000000	28.879561
1888.000000	29.054367
1887.000000	29.495267
1886.000000	30.001047
1885.000000	30.364909
1884.000000	30.902580
1883.000000	31.190301
1882.000000	31.665086
1881.000000	32.251192
1880.000000	32.648042
1879.000000	33.100304
1878.000000	33.576484
1877.000000	34.037217
1876.000000	34.410946
1875.000000	34.602295
1874.000000	35.024658
1873.000000	35.538610
1872.000000	35.555054
1871.000000	36.060036
1870.000000	36.174347
1869.000000	36.119733
1868.000000	36.452401
1867.000000	36.572393
1866.000000	36.384731
1865.000000	36.521367
1864.000000	36.736933
1863.000000	36.772114
1862.000000	36.757663
1861.000000	36.929179
1860.000000	37.267429
1859.000000	37.139564
1858.000000	36.962865
1857.000000	37.086046
1856.000000	37.218794
1855.000000	36.956885
1854.000000	37.127405
1853.000000	37.107971
1852.000000	36.874465
1851.000000	36.879449
1850.000000	36.953995
1849.000000	36.922303
1848.000000	37.169462
1847.000000	37.122621
1846.000000	36.673350
1845.000000	36.508710
1844.000000	36.495853
1843.000000	36.624615
1842.000000	36.753676
1841.000000	36.744209
1840.000000	36.538708
1839.000000	36.469443
1838.000000	36.473131
1837.000000	36.565616
1836.000000	36.523360
1835.000000	36.318955
1834.000000	36.118338
1833.000000	36.021965
1832.000000	36.035220
1831.000000	36.030935
1830.000000	35.895296
1829.000000	35.860315
1828.000000	35.732251
1827.000000	35.740124
1826.000000	35.638171
1825.000000	35.544888
1824.000000	35.427089
1823.000000	35.496054
1822.000000	35.530537
1821.000000	35.669664
1820.000000	35.602393
1819.000000	35.420113
1818.000000	35.375365
1817.000000	35.351845
1816.000000	35.435261
1815.000000	35.423700
1814.000000	35.324039
1813.000000	35.353539
1812.000000	35.404765
1811.000000	35.338690
1810.000000	35.301317
1809.000000	35.215608
1808.000000	35.188102
1807.000000	35.183219
1806.000000	35.171259
1805.000000	35.081664
1804.000000	34.980707
1803.000000	34.977817
1802.000000	34.975924
1801.000000	34.958882
1800.000000	34.916027
1799.000000	34.836398
1798.000000	34.761553
1797.000000	34.744611
1796.000000	34.734943
1795.000000	34.684316
1794.000000	34.620034
1793.000000	34.566516
1792.000000	34.540604
1791.000000	34.524160
1790.000000	34.465759
1789.000000	34.390515
1788.000000	34.347461
1787.000000	34.324938
1786.000000	34.273015
1785.000000	34.229662
1784.000000	34.178038
1783.000000	34.117743
1782.000000	34.046685
1781.000000	33.967155
1780.000000	33.887925
1779.000000	33.829224
1778.000000	33.741921
1777.000000	33.676743
1776.000000	33.563229
1775.000000	33.482504
1774.000000	33.368990
1773.000000	33.228069
1772.000000	33.118841
1771.000000	32.984896
1770.000000	32.847165
1769.000000	32.739930
1768.000000	32.639970
1767.000000	32.528150
1766.000000	32.458786
1765.000000	32.394106
1764.000000	32.300923
1763.000000	32.273616
1762.000000	32.276207
1761.000000	32.313381
1760.000000	32.345173
1759.000000	32.380752
1758.000000	32.420716
1757.000000	32.493867
1756.000000	32.519181
1755.000000	32.528349
1754.000000	32.574792
1753.000000	32.578080
1752.000000	32.552667
1751.000000	32.536123
1750.000000	32.500943
1749.000000	32.423307
1748.000000	32.318364
1747.000000	32.259364
1746.000000	32.169969
1745.000000	32.042303
1744.000000	31.868295
1743.000000	31.675251
1742.000000	31.490081
1741.000000	31.267638
1740.000000	31.033435
1739.000000	30.838597
1738.000000	30.605889
1737.000000	30.410155
1736.000000	30.288768
1735.000000	30.195784
1734.000000	30.113464
1733.000000	30.070012
1732.000000	30.106588
1731.000000	30.144758
1730.000000	30.188210
1729.000000	30.268636
1728.000000	30.378961
1727.000000	30.441548
1726.000000	30.471945
1725.000000	30.509019
1724.000000	30.579379
1723.000000	30.629608
1722.000000	30.653627
1721.000000	30.682827
1720.000000	30.693391
1719.000000	30.770330
1718.000000	30.879159
1717.000000	30.983305
1716.000000	31.095324
1715.000000	31.206845
1714.000000	31.312485
1713.000000	31.428192
1712.000000	31.498851
1711.000000	31.544496
1710.000000	31.605788
1709.000000	31.630803
1708.000000	31.665983
1707.000000	31.666880
1706.000000	31.631301
1705.000000	31.617249
1704.000000	31.573099
1703.000000	31.523069
1702.000000	31.425003
1701.000000	31.275013
1700.000000	31.162595
1699.000000	31.028551
1698.000000	30.860722
1697.000000	30.738139
1696.000000	30.676050
1695.000000	30.652929
1694.000000	30.692993
1693.000000	30.770928
1692.000000	30.850656
1691.000000	30.997557
1690.000000	31.148244
1689.000000	31.242822
1688.000000	31.328232
1687.000000	31.368296
1686.000000	31.427993
1685.000000	31.493071
1684.000000	31.614458
1683.000000	31.814976
1682.000000	32.127114
1681.000000	32.590638
1680.000000	33.078079
1679.000000	33.609771
1678.000000	34.130998
1677.000000	34.634784
1676.000000	35.112858
1675.000000	35.508313
1674.000000	35.853239
1673.000000	36.151724
1672.000000	36.406956
1671.000000	36.636276
1670.000000	36.915027
1669.000000	37.108669
1668.000000	37.268525
1667.000000	37.473229
1666.000000	37.601991
1665.000000	37.736932
1664.000000	37.843968
1663.000000	37.988974
1662.000000	38.062026
1661.000000	38.128699
1660.000000	38.244007
1659.000000	38.325230
1658.000000	38.348252
1657.000000	38.439542
1656.000000	38.426187
1655.000000	38.470636
1654.000000	38.487578
1653.000000	38.499239
1652.000000	38.471433
1651.000000	38.496946
1650.000000	38.487279
1649.000000	38.477114
1648.000000	38.435754
1647.000000	38.402268
1646.000000	38.358916
1645.000000	38.334798
1644.000000	38.301212
1643.000000	38.251980
1642.000000	38.225669
1641.000000	38.172749
1640.000000	38.154710
1639.000000	38.091226
1638.000000	38.040997
1637.000000	37.965753
1636.000000	37.920408
1635.000000	37.888616
1634.000000	37.794835
1633.000000	37.755668
1632.000000	37.675341
1631.000000	37.600496
1630.000000	37.536015
1629.000000	37.443231
1628.000000	37.386823
1627.000000	37.317160
1626.000000	37.205340
1625.000000	37.168864
1624.000000	37.082558
1623.000000	37.009008
1622.000000	36.901374
1621.000000	36.842674
1620.000000	36.770320
1619.000000	36.683814
1618.000000	36.615945
1617.000000	36.555550
1616.000000	36.500139
1615.000000	36.401275
1614.000000	36.359118
1613.000000	36.290053
1612.000000	36.212218
1611.000000	36.142456
1610.000000	36.042496
1609.000000	35.943134
1608.000000	35.925892
1607.000000	35.863704
1606.000000	35.734942
1605.000000	35.665279
1604.000000	35.577577
1603.000000	35.532829
1602.000000	35.448416
1601.000000	35.339188
1600.000000	35.278096
1599.000000	35.208034
1598.000000	35.142158
1597.000000	35.051965
1596.000000	34.972436
1595.000000	34.949314
1594.000000	34.860118
1593.000000	34.802912
1592.000000	34.796933
1591.000000	34.688003
1590.000000	34.659400
1589.000000	34.579971
1588.000000	34.563825
1587.000000	34.534724
1586.000000	34.487784
1585.000000	34.386429
1584.000000	34.397990
1583.000000	34.372377
1582.000000	34.347960
1581.000000	34.317165
1580.000000	34.298927
1579.000000	34.300720
1578.000000	34.296834
1577.000000	34.264643
1576.000000	34.260258
1575.000000	34.268231
1574.000000	34.296933
1573.000000	34.307398
1572.000000	34.301817
1571.000000	34.303710
1570.000000	34.356431
1569.000000	34.395299
1568.000000	34.408454
1567.000000	34.424798
1566.000000	34.467653
1565.000000	34.536618
1564.000000	34.558244
1563.000000	34.576084
1562.000000	34.586150
1561.000000	34.613955
1560.000000	34.670662
1559.000000	34.666277
1558.000000	34.680130
1557.000000	34.679831
1556.000000	34.670164
1555.000000	34.677040
1554.000000	34.623323
1553.000000	34.613457
1552.000000	34.614653
1551.000000	34.596614
1550.000000	34.563028
1549.000000	34.537814
1548.000000	34.496554
1547.000000	34.472835
1546.000000	34.436160
1545.000000	34.440545
1544.000000	34.407856
1543.000000	34.401079
1542.000000	34.389219
1541.000000	34.394202
1540.000000	34.421310
1539.000000	34.376463
1538.000000	34.379154
1537.000000	34.389518
1536.000000	34.355534
1535.000000	34.355534
1534.000000	34.344173
1533.000000	34.308893
1532.000000	34.307996
1531.000000	34.283280
1530.000000	34.247502
1529.000000	34.235941
1528.000000	34.208036
1527.000000	34.172357
1526.000000	34.143954
1525.000000	34.118740
1524.000000	34.053561
1523.000000	34.013996
1522.000000	33.998947
1521.000000	33.958983
1520.000000	33.917424
1519.000000	33.883141
1518.000000	33.828626
1517.000000	33.805007
1516.000000	33.737038
1515.000000	33.692689
1514.000000	33.643855
1513.000000	33.585254
1512.000000	33.528946
1511.000000	33.471740
1510.000000	33.449616
1509.000000	33.408256
1508.000000	33.336301
1507.000000	33.299925
1506.000000	33.259961
1505.000000	33.218801
1504.000000	33.157509
1503.000000	33.111067
1502.000000	33.085554
1501.000000	33.060340
1500.000000	33.019180
1499.000000	32.976924
1498.000000	32.955795
1497.000000	32.943836
1496.000000	32.928289
1495.000000	32.899487
1494.000000	32.899288
1493.000000	32.904769
1492.000000	32.888126
1491.000000	32.889222
1490.000000	32.894006
1489.000000	32.897793
1488.000000	32.903374
1487.000000	32.915233
1486.000000	32.919320
1485.000000	32.917625
1484.000000	32.950214
1483.000000	32.964267
1482.000000	32.990677
1481.000000	33.013599
1480.000000	33.027950
1479.000000	33.029744
1478.000000	33.065821
1477.000000	33.111865
1476.000000	33.150932
1475.000000	33.190896
1474.000000	33.231059
1473.000000	33.282982
1472.000000	33.352546
1471.000000	33.405964
1470.000000	33.438653
1469.000000	33.477122
1468.000000	33.519079
1467.000000	33.581567
1466.000000	33.649934
1465.000000	33.703253
1464.000000	33.758764
1463.000000	33.830620
1462.000000	33.917923
1461.000000	33.991373
1460.000000	34.054757
1459.000000	34.125317
1458.000000	34.199066
1457.000000	34.289160
1456.000000	34.395398
1455.000000	34.471639
1454.000000	34.557148
1453.000000	34.668071
1452.000000	34.792448
1451.000000	34.917124
1450.000000	35.019376
1449.000000	35.097610
1448.000000	35.188999
1447.000000	35.295038
1446.000000	35.437852
1445.000000	35.556449
1444.000000	35.634982
1443.000000	35.762548
1442.000000	35.903967
1441.000000	36.038509
1440.000000	36.150528
1439.000000	36.274606
1438.000000	36.424994
1437.000000	36.549072
1436.000000	36.639963
1435.000000	36.766333
1434.000000	36.916323
1433.000000	37.064419
1432.000000	37.206835
1431.000000	37.350347
1430.000000	37.494357
1429.000000	37.660890
1428.000000	37.851442
1427.000000	38.018673
1426.000000	38.207132
1425.000000	38.431469
1424.000000	38.684110
1423.000000	38.912134
1422.000000	39.095211
1421.000000	39.316558
1420.000000	39.618033
1419.000000	39.892200
1418.000000	40.089330
1417.000000	40.288153
1416.000000	40.545777
1415.000000	40.862201
1414.000000	41.181614
1413.000000	41.387115
1412.000000	41.602283
1411.000000	41.914322
1410.000000	42.275094
1409.000000	42.634273
1408.000000	42.934551
1407.000000	43.338676
1406.000000	43.703037
1405.000000	44.135466
1404.000000	44.530622
1403.000000	44.810171
1402.000000	45.178319
1401.000000	45.691473
1400.000000	46.087326
1399.000000	46.224958
1398.000000	46.454378
1397.000000	46.813357
1396.000000	47.187584
1395.000000	47.418498
1394.000000	47.487663
1393.000000	47.666156
1392.000000	47.938629
1391.000000	48.117022
1390.000000	48.282659
1389.000000	48.567290
1388.000000	48.988059
1387.000000	49.184292
1386.000000	49.466033
1385.000000	49.997027
1384.000000	50.366969
1383.000000	50.825608
1382.000000	51.143128
1381.000000	51.372448
1380.000000	51.557419
1379.000000	51.635852
1378.000000	51.746376
1377.000000	51.881915
1376.000000	52.067982
1375.000000	52.186579
1374.000000	52.386299
1373.000000	52.661862
1372.000000	53.015958
1371.000000	53.358094
1370.000000	53.565688
1369.000000	53.810056
1368.000000	54.153189
1367.000000	54.335768
1366.000000	54.469413
1365.000000	54.756138
1364.000000	54.826598
1363.000000	54.956357
1362.000000	55.321315
1361.000000	55.373737
1360.000000	55.251054
1359.000000	55.318126
1358.000000	55.400147
1357.000000	55.521335
1356.000000	55.719361
1355.000000	56.040967
1354.000000	56.382406
1353.000000	56.760121
1352.000000	57.166140
1351.000000	57.635643
1350.000000	58.068570
1349.000000	58.441900
1348.000000	58.843434
1347.000000	59.169226
1346.000000	59.429042
1345.000000	59.733208
1344.000000	60.062288
1343.000000	60.323400
1342.000000	60.563583
1341.000000	60.827087
1340.000000	61.060891
1339.000000	61.326388
1338.000000	61.539762
1337.000000	61.750246
1336.000000	61.950266
1335.000000	62.138825
1334.000000	62.347216
1333.000000	62.538067
1332.000000	62.710679
1331.000000	62.871433
1330.000000	63.049327
1329.000000	63.209383
1328.000000	63.356682
1327.000000	63.487736
1326.000000	63.603044
1325.000000	63.731606
1324.000000	63.831168
1323.000000	63.967205
1322.000000	64.074042
1321.000000	64.182074
1320.000000	64.274460
1319.000000	64.364852
1318.000000	64.471589
1317.000000	64.549425
1316.000000	64.644202
1315.000000	64.723134
1314.000000	64.774559
1313.000000	64.852394
1312.000000	64.915878
1311.000000	64.979561
1310.000000	65.047530
1309.000000	65.084903
1308.000000	65.128555
1307.000000	65.179980
1306.000000	65.205393
1305.000000	65.239278
1304.000000	65.265688
1303.000000	65.265987
1302.000000	65.266386
1301.000000	65.302363
1300.000000	65.284325
1299.000000	65.281933
1298.000000	65.301765
1297.000000	65.289607
1296.000000	65.279541
1295.000000	65.269575
1294.000000	65.253928
1293.000000	65.226023
1292.000000	65.203400
1291.000000	65.187753
1290.000000	65.161941
1289.000000	65.128355
1288.000000	65.068459
1287.000000	65.044939
1286.000000	64.999294
1285.000000	64.925545
1284.000000	64.879203
1283.000000	64.828176
1282.000000	64.754128
1281.000000	64.701109
1280.000000	64.639717
1279.000000	64.603540
1278.000000	64.550820
1277.000000	64.480858
1276.000000	64.420164
1275.000000	64.387077
1274.000000	64.339040
1273.000000	64.287914
1272.000000	64.245857
1271.000000	64.215261
1270.000000	64.176692
1269.000000	64.164733
1268.000000	64.119886
1267.000000	64.065271
1266.000000	64.024909
1265.000000	63.981257
1264.000000	63.943486
1263.000000	63.892260
1262.000000	63.852695
1261.000000	63.813926
1260.000000	63.768979
1259.000000	63.724331
1258.000000	63.683670
1257.000000	63.639719
1256.000000	63.580720
1255.000000	63.540955
1254.000000	63.488932
1253.000000	63.419468
1252.000000	63.332963
1251.000000	63.262203
1250.000000	63.184767
1249.000000	63.098560
1248.000000	63.008965
1247.000000	62.914785
1246.000000	62.815622
1245.000000	62.712872
1244.000000	62.611118
1243.000000	62.509364
1242.000000	62.378509
1241.000000	62.249648
1240.000000	62.109126
1239.000000	61.999000
1238.000000	61.885985
1237.000000	61.755130
1236.000000	61.607333
1235.000000	61.465914
1234.000000	61.342234
1233.000000	61.201912
1232.000000	61.046142
1231.000000	60.907912
1230.000000	60.743770
1229.000000	60.591488
1228.000000	60.443292
1227.000000	60.290512
1226.000000	60.146302
1225.000000	59.999502
1224.000000	59.857983
1223.000000	59.691151
1222.000000	59.529899
1221.000000	59.403828
1220.000000	59.268389
1219.000000	59.126870
1218.000000	58.983259
1217.000000	58.851806
1216.000000	58.732611
1215.000000	58.616805
1214.000000	58.498009
1213.000000	58.396256
1212.000000	58.290615
1211.000000	58.174410
1210.000000	58.064982
1209.000000	57.973892
1208.000000	57.872537
1207.000000	57.782842
1206.000000	57.710488
1205.000000	57.643217
1204.000000	57.600164
1203.000000	57.552526
1202.000000	57.523425
1201.000000	57.487248
1200.000000	57.414794
1199.000000	57.338952
1198.000000	57.248859
1197.000000	57.124183
1196.000000	56.970406
1195.000000	56.769091
1194.000000	56.513759
1193.000000	56.231619
1192.000000	55.901442
1191.000000	55.527913
1190.000000	55.188766
1189.000000	54.905032
1188.000000	54.672622
1187.000000	54.492535
1186.000000	54.437223
1185.000000	54.474596
1184.000000	54.602560
1183.000000	54.818426
1182.000000	55.115316
1181.000000	55.466422
1180.000000	55.828092
1179.000000	56.193648
1178.000000	56.503594
1177.000000	56.754640
1176.000000	56.973794
1175.000000	57.188962
1174.000000	57.395061
1173.000000	57.626574
1172.000000	57.837357
1171.000000	58.060697
1170.000000	58.318620
1169.000000	58.572656
1168.000000	58.804866
1167.000000	59.037773
1166.000000	59.272774
1165.000000	59.534085
1164.000000	59.809747
1163.000000	60.082719
1162.000000	60.329978
1161.000000	60.598564
1160.000000	60.873529
1159.000000	61.086405
1158.000000	61.309944
1157.000000	61.514150
1156.000000	61.694436
1155.000000	61.823896
1154.000000	61.956545
1153.000000	62.036971
1152.000000	62.065673
1151.000000	62.073248
1150.000000	62.068065
1149.000000	62.037469
1148.000000	62.028002
1147.000000	62.086702
1146.000000	62.126168
1145.000000	62.248153
1144.000000	62.411995
1143.000000	62.595571
1142.000000	62.827083
1141.000000	63.087099
1140.000000	63.307848
1139.000000	63.526106
1138.000000	63.792001
1137.000000	64.046535
1136.000000	64.364753
1135.000000	64.679382
1134.000000	64.901327
1133.000000	65.091979
1132.000000	65.296982
1131.000000	65.525504
1130.000000	65.713764
1129.000000	65.892356
1128.000000	65.990223
1127.000000	66.050917
1126.000000	66.141808
1125.000000	66.178383
1124.000000	66.229709
1123.000000	66.294787
1122.000000	66.291399
1121.000000	66.282429
1120.000000	66.288907
1119.000000	66.277745
1118.000000	66.275055
1117.000000	66.226021
1116.000000	66.194628
1115.000000	66.160644
1114.000000	66.100150
1113.000000	66.064670
1112.000000	66.009059
1111.000000	65.955143
1110.000000	65.891061
1109.000000	65.858771
1108.000000	65.802462
1107.000000	65.770571
1106.000000	65.716554
1105.000000	65.643603
1104.000000	65.595865
1103.000000	65.541550
1102.000000	65.446473
1101.000000	65.439397
1100.000000	65.382491
1099.000000	65.273960
1098.000000	65.228614
1097.000000	65.115798
1096.000000	65.074140
1095.000000	64.985142
1094.000000	64.950161
1093.000000	64.900132
1092.000000	64.845617
1091.000000	64.723233
1090.000000	64.657457
1089.000000	64.574041
1088.000000	64.502385
1087.000000	64.442289
1086.000000	64.375516
1085.000000	64.282532
1084.000000	64.202305
1083.000000	64.141711
1082.000000	64.067364
1081.000000	64.028297
1080.000000	63.948269
1079.000000	63.859970
1078.000000	63.812232
1077.000000	63.670016
1076.000000	63.647891
1075.000000	63.549028
1074.000000	63.501589
1073.000000	63.408207
1072.000000	63.372927
1071.000000	63.310041
1070.000000	63.188055
1069.000000	63.179983
1068.000000	63.103344
1067.000000	63.028997
1066.000000	62.907609
1065.000000	62.868144
1064.000000	62.812832
1063.000000	62.753035
1062.000000	62.659354
1061.000000	62.610919
1060.000000	62.534479
1059.000000	62.467706
1058.000000	62.427443
1057.000000	62.323995
1056.000000	62.254332
1055.000000	62.125271
1054.000000	62.082317
1053.000000	62.017338
1052.000000	61.949269
1051.000000	61.892363
1050.000000	61.828181
1049.000000	61.715664
1048.000000	61.695134
1047.000000	61.653177
1046.000000	61.540460
1045.000000	61.489633
1044.000000	61.386185
1043.000000	61.387281
1042.000000	61.294596
1041.000000	61.205998
1040.000000	61.138826
1039.000000	61.131551
1038.000000	61.006377
1037.000000	60.947079
1036.000000	60.864958
1035.000000	60.778651
1034.000000	60.708191
1033.000000	60.657563
1032.000000	60.606836
1031.000000	60.511161
1030.000000	60.431333
1029.000000	60.383695
1028.000000	60.254036
1027.000000	60.203109
1026.000000	60.122384
1025.000000	60.038469
1024.000000	59.912398
1023.000000	59.832570
1022.000000	59.809947
1021.000000	59.720850
1020.000000	59.618299
1019.000000	59.564282
1018.000000	59.514651
1017.000000	59.435919
1016.000000	59.410206
1015.000000	59.381504
1014.000000	59.390274
1013.000000	59.353499
1012.000000	59.285630
1011.000000	59.295696
1010.000000	59.307755
1009.000000	59.284634
1008.000000	59.283936
1007.000000	59.284036
1006.000000	59.251745
1005.000000	59.260516
1004.000000	59.332770
1003.000000	59.339248
1002.000000	59.350609
1001.000000	59.342238
1000.000000	59.392168
999.000000	59.401137
998.000000	59.432730
997.000000	59.464123
996.000000	59.456250
995.000000	59.486945
994.000000	59.522325
993.000000	59.594280
992.000000	59.606638
991.000000	59.691051
990.000000	59.682480
989.000000	59.713973
988.000000	59.788819
987.000000	59.777657
986.000000	59.783835
985.000000	59.845426
984.000000	59.873530
983.000000	59.871936
982.000000	59.865657
981.000000	59.990333
980.000000	60.006378
979.000000	60.021726
978.000000	60.098465
977.000000	60.119793
976.000000	60.087602
975.000000	60.161551
974.000000	60.213873
973.000000	60.273071
972.000000	60.329180
971.000000	60.342734
970.000000	60.398544
969.000000	60.477875
968.000000	60.520530
967.000000	60.499401
966.000000	60.576439
965.000000	60.620988
964.000000	60.720748
963.000000	60.861669
962.000000	60.952361
961.000000	60.956646
960.000000	61.082817
959.000000	61.114011
958.000000	61.190650
957.000000	61.396550
956.000000	61.555409
955.000000	61.679886
954.000000	61.798781
953.000000	61.875520
952.000000	62.015843
951.000000	62.153873
950.000000	62.276955
949.000000	62.368444
948.000000	62.481957
947.000000	62.674203
946.000000	62.825489
945.000000	62.944185
944.000000	63.168323
943.000000	63.385783
942.000000	63.494314
941.000000	63.550522
940.000000	63.658655
939.000000	63.836051
938.000000	63.975477
937.000000	64.116099
936.000000	64.363656
935.000000	64.633638
934.000000	64.671210
933.000000	64.764194
932.000000	64.908104
931.000000	64.955543
930.000000	65.091680
929.000000	65.256320
928.000000	65.440194
927.000000	65.635131
926.000000	65.706788
925.000000	65.633836
924.000000	65.856977
923.000000	66.200508
922.000000	66.126859
921.000000	66.174995
920.000000	66.484841
919.000000	66.671008
918.000000	66.785020
917.000000	66.919163
916.000000	67.010154
915.000000	67.134930
914.000000	67.483544
913.000000	67.795383
912.000000	67.934310
911.000000	67.967697
910.000000	68.076925
909.000000	68.330762
908.000000	68.543139
907.000000	68.703195
906.000000	68.780930
905.000000	69.038355
904.000000	69.574132
903.000000	69.892948
902.000000	69.881487
901.000000	69.960916
900.000000	70.428327
899.000000	70.647082
898.000000	71.338032
897.000000	71.563963
896.000000	71.397430
895.000000	71.695018
894.000000	71.895934
893.000000	72.398724
892.000000	72.702690
891.000000	72.802849
890.000000	73.180365
889.000000	73.581500
888.000000	73.604522
887.000000	73.831151
886.000000	73.959913
885.000000	74.081400
884.000000	74.570835
883.000000	74.606314
882.000000	74.921243
881.000000	75.146078
880.000000	74.915463
879.000000	75.563259
878.000000	75.777730
877.000000	75.453134
876.000000	76.064654
875.000000	76.262680
874.000000	76.487615
873.000000	76.768758
872.000000	76.518609
871.000000	77.134016
870.000000	77.687633
869.000000	77.631922
868.000000	77.889945
867.000000	77.516316
866.000000	77.999372
865.000000	78.315896
864.000000	78.875891
863.000000	79.285099
862.000000	79.363034
861.000000	79.248623
860.000000	79.338816
859.000000	79.712545
858.000000	78.491000
857.000000	78.289800
856.000000	78.545200
855.000000	78.638000
854.000000	79.177700
853.000000	79.418900
852.000000	79.458500
851.000000	79.733100
850.000000	80.061600
849.000000	80.489500
848.000000	81.209600
847.000000	81.481800
846.000000	81.471500
845.000000	81.841800
844.000000	82.358700
843.000000	82.669300
842.000000	82.912400
841.000000	83.161600
840.000000	83.398500
839.000000	83.771900
838.000000	84.207600
837.000000	84.446000
836.000000	84.919300
835.000000	84.966000
834.000000	85.184700
833.000000	85.905500
832.000000	86.125900
831.000000	86.406300
830.000000	86.611800
829.000000	86.958400
828.000000	87.015300
827.000000	87.595100
826.000000	87.868000
825.000000	87.953500
824.000000	88.146400
823.000000	88.472900
822.000000	88.870900
821.000000	89.204300
820.000000	89.439100
819.000000	89.942800
818.000000	90.142600
817.000000	90.444200
816.000000	90.526600
815.000000	90.936400
814.000000	91.013600
813.000000	91.441200
812.000000	91.712400
811.000000	91.801400
810.000000	92.236300
809.000000	92.497100
808.000000	92.460700
807.000000	92.810900
806.000000	93.204300
805.000000	93.164800
804.000000	93.365000
803.000000	93.708200
802.000000	93.699600
801.000000	93.968300
800.000000	94.301400
799.000000	94.410200
798.000000	94.551200
797.000000	94.517500
796.000000	94.645500
795.000000	94.701400
794.000000	94.836000
793.000000	94.918800
792.000000	95.145600
791.000000	95.053500
790.000000	95.435400
789.000000	95.345100
788.000000	95.302400
787.000000	95.328900
786.000000	95.340800
785.000000	95.387500
784.000000	95.352900
783.000000	95.285500
782.000000	95.391700
781.000000	95.187500
780.000000	95.102400
779.000000	95.081900
778.000000	94.915300
777.000000	94.803200
776.000000	94.815700
775.000000	94.576400
774.000000	94.415900
773.000000	94.437100
772.000000	94.300800
771.000000	94.227800
770.000000	94.186800
769.000000	93.945400
768.000000	93.797300
767.000000	93.571200
766.000000	93.442200
765.000000	93.301000
764.000000	93.134200
763.000000	93.060700
762.000000	92.915000
761.000000	92.656100
760.000000	92.579600
759.000000	92.357000
758.000000	92.152700
757.000000	91.997300
756.000000	91.655500
755.000000	91.591800
754.000000	91.435800
753.000000	91.091600
752.000000	90.918200
751.000000	90.867800
750.000000	90.547900
749.000000	90.323600
748.000000	90.101000
747.000000	89.950100
746.000000	89.781000
745.000000	89.591800
744.000000	89.412700
743.000000	89.288700
742.000000	89.034700
741.000000	88.838200
740.000000	88.590200
739.000000	88.342000
738.000000	88.106600
737.000000	87.891800
736.000000	87.739300
735.000000	87.419600
734.000000	87.177200
733.000000	87.043700
732.000000	86.729500
731.000000	86.594900
730.000000	86.282400
729.000000	86.051000
728.000000	85.777800
727.000000	85.541600
726.000000	85.270000
725.000000	85.036000
724.000000	84.718900
723.000000	84.526000
722.000000	84.243800
721.000000	83.955000
720.000000	83.780700
719.000000	83.465700
718.000000	83.195400
717.000000	82.937800
716.000000	82.681300
715.000000	82.351500
714.000000	82.118400
713.000000	81.893100
712.000000	81.645700
711.000000	81.330900
710.000000	81.069900
709.000000	80.735600
708.000000	80.475100
707.000000	80.162400
706.000000	79.864600
705.000000	79.667600
704.000000	79.334700
703.000000	78.952400
702.000000	78.709200
701.000000	78.381300
700.000000	78.057200
699.000000	77.707100
698.000000	77.414700
697.000000	77.080100
696.000000	76.675100
695.000000	76.296400
694.000000	75.912300
693.000000	75.493700
692.000000	75.111200
691.000000	74.686800
690.000000	74.280600
689.000000	73.853600
688.000000	73.455000
687.000000	73.043800
686.000000	72.666800
685.000000	72.209700
684.000000	71.767900
683.000000	71.421200
682.000000	71.021300
681.000000	70.647500
680.000000	70.232100
679.000000	69.803700
678.000000	69.470800
677.000000	69.092000
676.000000	68.671400
675.000000	68.332100
674.000000	67.992400
673.000000	67.636800
672.000000	67.284300
671.000000	66.972900
670.000000	66.641900
669.000000	66.351000
668.000000	66.097200
667.000000	65.853600
666.000000	65.642600
665.000000	65.386500
664.000000	65.166900
663.000000	64.944300
662.000000	64.711600
661.000000	64.544700
660.000000	64.387400
659.000000	64.191200
658.000000	64.004200
657.000000	63.831200
656.000000	63.654200
655.000000	63.489500
654.000000	63.343300
653.000000	63.211700
652.000000	63.081600
651.000000	62.914700
650.000000	62.735200
649.000000	62.625500
648.000000	62.467400
647.000000	62.296900
646.000000	62.157000
645.000000	61.993900
644.000000	61.835600
643.000000	61.656600
642.000000	61.474500
641.000000	61.275500
640.000000	61.102200
639.000000	60.938300
638.000000	60.756000
637.000000	60.592400
636.000000	60.427000
635.000000	60.275400
634.000000	60.134900
633.000000	59.989000
632.000000	59.857100
631.000000	59.726500
630.000000	59.599200
629.000000	59.490600
628.000000	59.413800
627.000000	59.333200
626.000000	59.247600
625.000000	59.194600
624.000000	59.159100
623.000000	59.119400
622.000000	59.079200
621.000000	59.053500
620.000000	59.066300
619.000000	59.085000
618.000000	59.157000
617.000000	59.272200
616.000000	59.368200
615.000000	59.454300
614.000000	59.595300
613.000000	59.768700
612.000000	59.913600
611.000000	60.092900
610.000000	60.286700
609.000000	60.489400
608.000000	60.714700
607.000000	60.967600
606.000000	61.208800
605.000000	61.431000
604.000000	61.671900
603.000000	61.921800
602.000000	62.184200
601.000000	62.425800
600.000000	62.667600
599.000000	62.926400
598.000000	63.143500
597.000000	63.372300
596.000000	63.613100
595.000000	63.864100
594.000000	64.120800
593.000000	64.326300
592.000000	64.510100
591.000000	64.721900
590.000000	64.916500
589.000000	65.081100
588.000000	65.255300
587.000000	65.432600
586.000000	65.578100
585.000000	65.718800
584.000000	65.796700
583.000000	65.909800
582.000000	66.016300
581.000000	66.087400
580.000000	66.142200
579.000000	66.165000
578.000000	66.182100
577.000000	66.217500
576.000000	66.228800
575.000000	66.261300
574.000000	66.241100
573.000000	66.180100
572.000000	66.151700
571.000000	66.107800
570.000000	66.061100
569.000000	65.997200
568.000000	65.928200
567.000000	65.832500
566.000000	65.736600
565.000000	65.603700
564.000000	65.487600
563.000000	65.365400
562.000000	65.212400
561.000000	65.025500
560.000000	64.862300
559.000000	64.673200
558.000000	64.492000
557.000000	64.279600
556.000000	64.052000
555.000000	63.789900
554.000000	63.482600
553.000000	63.212500
552.000000	62.946900
551.000000	62.613400
550.000000	62.265200
549.000000	61.921600
548.000000	61.544700
547.000000	61.186600
546.000000	60.821000
545.000000	60.438700
544.000000	60.032100
543.000000	59.632900
542.000000	59.201500
541.000000	58.758400
540.000000	58.329800
539.000000	57.896900
538.000000	57.468300
537.000000	57.024600
536.000000	56.581200
535.000000	56.102700
534.000000	55.650300
533.000000	55.151600
532.000000	54.686700
531.000000	54.191400
530.000000	53.687100
529.000000	53.190500
528.000000	52.687300
527.000000	52.141300
526.000000	51.614200
525.000000	51.062800
524.000000	50.502800
523.000000	49.959000
522.000000	49.372700
521.000000	48.755600
520.000000	48.138800
519.000000	47.515200
518.000000	46.878600
517.000000	46.197200
516.000000	45.529600
515.000000	44.849200
514.000000	44.156500
513.000000	43.477000
512.000000	42.792200
511.000000	42.117200
510.000000	41.433300
509.000000	40.765900
508.000000	40.112600
507.000000	39.482400
506.000000	38.890700
505.000000	38.304900
504.000000	37.698900
503.000000	37.142500
502.000000	36.617300
501.000000	36.094500
500.000000	35.614200
499.000000	35.121200
498.000000	34.653300
497.000000	34.279300
496.000000	33.873700
495.000000	33.519500
494.000000	33.157600
493.000000	32.847500
492.000000	32.553100
491.000000	32.287200
490.000000	32.026100
489.000000	31.806000
488.000000	31.595500
487.000000	31.390700
486.000000	31.197300
485.000000	31.071000
484.000000	30.923300
483.000000	30.800200
482.000000	30.661500
481.000000	30.515300
480.000000	30.383300
479.000000	30.242200
478.000000	30.165300
477.000000	30.078100
476.000000	30.030100
475.000000	29.933600
474.000000	29.859200
473.000000	29.798400
472.000000	29.722000
471.000000	29.643000
470.000000	29.598400
469.000000	29.521400
468.000000	29.441200
467.000000	29.363000
466.000000	29.281500
465.000000	29.183500
464.000000	29.095300
463.000000	28.987600
462.000000	28.890300
461.000000	28.792300
460.000000	28.671700
459.000000	28.573100
458.000000	28.439100
457.000000	28.304700
456.000000	28.129100
455.000000	27.978700
454.000000	27.780100
453.000000	27.615600
452.000000	27.406500
451.000000	27.189000
450.000000	26.952600
449.000000	26.733300
448.000000	26.449100
447.000000	26.174600
446.000000	25.910200
445.000000	25.626700
444.000000	25.336100
443.000000	25.017400
442.000000	24.672900
441.000000	24.307600
440.000000	23.936400
439.000000	23.551000
438.000000	23.168900
437.000000	22.783900
436.000000	22.372700
435.000000	21.938400
434.000000	21.532000
433.000000	21.083700
432.000000	20.657600
431.000000	20.186600
430.000000	19.754800
429.000000	19.291500
428.000000	18.822900
427.000000	18.374900
426.000000	17.940000
425.000000	17.491500
424.000000	17.025700
423.000000	16.595500
422.000000	16.126200
421.000000	15.691500
420.000000	15.257200
419.000000	14.826500
418.000000	14.421300
417.000000	13.989200
416.000000	13.605500
415.000000	13.212700
414.000000	12.817800
413.000000	12.450500
412.000000	12.067300
411.000000	11.718500
410.000000	11.377000
409.000000	11.039500
408.000000	10.730700
407.000000	10.441500
406.000000	10.146200
405.000000	9.869600
404.000000	9.611100
403.000000	9.367900
402.000000	9.134100
401.000000	8.892900
400.000000	8.668900
399.000000	8.472800
398.000000	8.281500
397.000000	8.102900
396.000000	7.928500
395.000000	7.773900
394.000000	7.626800
393.000000	7.492400
392.000000	7.353000
391.000000	7.235200
390.000000	7.132600
389.000000	7.024100
388.000000	6.919000
387.000000	6.838200
386.000000	6.759200
385.000000	6.680400
384.000000	6.617700
383.000000	6.545800
382.000000	6.462800
381.000000	6.415700
380.000000	6.350600
379.000000	6.318600
378.000000	6.272200
377.000000	6.230200
376.000000	6.213700
375.000000	6.190800
374.000000	6.104800
373.000000	6.067000
372.000000	6.055400
371.000000	6.054100
370.000000	6.012200
369.000000	5.988500
368.000000	5.963800
367.000000	5.918300
366.000000	5.900900
365.000000	5.873500
364.000000	5.839200
363.000000	5.803100
362.000000	5.807100
361.000000	5.786800
360.000000	5.778100
359.000000	5.790800
358.000000	5.713600
357.000000	5.670100
356.000000	5.668800
355.000000	5.630700
354.000000	5.628300
353.000000	5.609100
352.000000	5.542100
351.000000	5.527400
350.000000	5.494400
349.000000	5.468800
348.000000	5.497700
347.000000	5.434800
346.000000	5.421900
345.000000	5.433400
344.000000	5.439200
343.000000	5.446400
342.000000	5.409700
341.000000	5.384600
340.000000	5.379200
339.000000	5.403300
338.000000	5.414900
337.000000	5.381600
336.000000	5.341500
335.000000	5.336400
334.000000	5.296100
333.000000	5.280500
332.000000	5.302000
331.000000	5.342100
330.000000	5.289900
329.000000	5.260700
328.000000	5.314600
327.000000	5.277400
326.000000	5.224600
325.000000	6.451200
324.000000	6.367400
323.000000	5.185700
322.000000	5.363200
321.000000	5.393100
320.000000	5.386200
319.000000	5.340100
318.000000	5.183200
317.000000	5.222800
316.000000	5.269700
315.000000	5.271100
314.000000	5.244000
313.000000	5.234500
312.000000	5.266700
311.000000	5.258900
310.000000	5.254900
309.000000	5.259800
308.000000	5.309500
307.000000	5.325800
306.000000	5.294600
305.000000	5.284200
304.000000	5.284300
303.000000	5.305400
302.000000	5.336900
301.000000	5.331300
300.000000	5.332000
299.000000	5.327000
298.000000	5.323200
297.000000	5.355500
296.000000	5.354600
295.000000	5.368700
294.000000	5.407300
293.000000	5.388900
292.000000	5.399200
291.000000	5.383700
290.000000	5.391500
289.000000	5.422900
288.000000	5.430200
287.000000	5.440100
286.000000	5.455000
285.000000	5.474600
284.000000	5.457200
283.000000	5.458400
282.000000	5.484300
281.000000	5.496800
280.000000	5.498700
279.000000	5.536700
278.000000	5.539700
277.000000	5.555000
276.000000	5.579800
275.000000	5.572800
274.000000	5.573200
273.000000	5.605400
272.000000	5.615600
271.000000	5.629200
270.000000	5.615300
269.000000	5.629500
268.000000	5.689700
267.000000	5.666000
266.000000	5.678900
265.000000	5.732700
264.000000	5.772100
263.000000	5.762700
262.000000	5.756600
261.000000	5.778600
260.000000	5.844800
259.000000	5.885700
258.000000	5.877100
257.000000	5.914700
256.000000	5.894100
255.000000	5.885000
254.000000	5.948800
253.000000	5.917000
252.000000	5.952000
251.000000	5.946600
250.000000	5.997200
