PE UV       SUBTECH     SPECTRUM    ASCII       PEDS        4.00        
   -1
CICIMAUCR0001-5.Sample.ASC
24/04/23
10:47:46.00
24/04/23
10:47:46.00
Vinicio Soto Monge
C. kalinini
250,000000
1
Lambda 1050
1050L1511233
PerkinElmer UV WinLab 6.3.2.0749 / 2.02.05 Lambda 900 UV/VIS/NIR, Aug  7 2015 09:38:08

0
0
3350/servo 860,8/2
0
0
UV/VIS
1
1
1
DoubleDePol,CommonBeamDepol,RBeamAtt,SBeamAtt,60mm sphere, WB InGaAs Detector
0
0
0
0
Program
Program
3350/servo 860,8/2
3350/0,2 860,8/0,2
3350/0,2 860,8/0,2
0
15.00
 
 
 
0
 
860,8
319,2
860,8
Front
100
on
S:100 R:100
0
0
0
0
 
0
 
 
 
0
 
 
0
0
0
0
0
 
 
 
 
0
0


0
0
#HDR
-1
-1
#GR
nm
%R
1.0
0.0
2500,000000
-1,000000
2251
8
101,472100
5,465400
#DATA
2500.000000	13.434300
2499.000000	13.434600
2498.000000	13.266000
2497.000000	13.315600
2496.000000	13.328500
2495.000000	13.350900
2494.000000	13.356200
2493.000000	13.211800
2492.000000	13.315600
2491.000000	13.217100
2490.000000	13.232700
2489.000000	13.251800
2488.000000	13.247900
2487.000000	13.226600
2486.000000	13.297300
2485.000000	13.189700
2484.000000	13.267100
2483.000000	13.269800
2482.000000	13.242500
2481.000000	13.325600
2480.000000	13.334100
2479.000000	13.292700
2478.000000	13.318800
2477.000000	13.332700
2476.000000	13.376200
2475.000000	13.410700
2474.000000	13.469700
2473.000000	13.440900
2472.000000	13.452100
2471.000000	13.525700
2470.000000	13.557100
2469.000000	13.615100
2468.000000	13.627600
2467.000000	13.686800
2466.000000	13.735900
2465.000000	13.793800
2464.000000	13.823100
2463.000000	13.847900
2462.000000	13.931900
2461.000000	13.984900
2460.000000	14.025300
2459.000000	14.112100
2458.000000	14.168100
2457.000000	14.238700
2456.000000	14.303400
2455.000000	14.371700
2454.000000	14.406700
2453.000000	14.524200
2452.000000	14.598400
2451.000000	14.694800
2450.000000	14.789900
2449.000000	14.871000
2448.000000	14.967200
2447.000000	15.067700
2446.000000	15.156300
2445.000000	15.236300
2444.000000	15.342000
2443.000000	15.435200
2442.000000	15.535300
2441.000000	15.643500
2440.000000	15.742100
2439.000000	15.828000
2438.000000	15.911400
2437.000000	16.016400
2436.000000	16.108400
2435.000000	16.203500
2434.000000	16.299900
2433.000000	16.375800
2432.000000	16.471800
2431.000000	16.557600
2430.000000	16.648500
2429.000000	16.734300
2428.000000	16.808100
2427.000000	16.899900
2426.000000	16.977600
2425.000000	17.053600
2424.000000	17.155600
2423.000000	17.265800
2422.000000	17.368000
2421.000000	17.439400
2420.000000	17.509800
2419.000000	17.579300
2418.000000	17.633900
2417.000000	17.714100
2416.000000	17.808500
2415.000000	17.876000
2414.000000	17.927000
2413.000000	17.982500
2412.000000	18.046800
2411.000000	18.108300
2410.000000	18.129800
2409.000000	18.185300
2408.000000	18.249500
2407.000000	18.293200
2406.000000	18.330600
2405.000000	18.371800
2404.000000	18.420500
2403.000000	18.465600
2402.000000	18.497200
2401.000000	18.520900
2400.000000	18.562900
2399.000000	18.588900
2398.000000	18.619300
2397.000000	18.658000
2396.000000	18.683800
2395.000000	18.709800
2394.000000	18.728400
2393.000000	18.731300
2392.000000	18.773200
2391.000000	18.799000
2390.000000	18.807100
2389.000000	18.836100
2388.000000	18.843200
2387.000000	18.846300
2386.000000	18.848400
2385.000000	18.860800
2384.000000	18.875000
2383.000000	18.862200
2382.000000	18.866200
2381.000000	18.882500
2380.000000	18.873500
2379.000000	18.860100
2378.000000	18.860300
2377.000000	18.861500
2376.000000	18.856000
2375.000000	18.834900
2374.000000	18.827800
2373.000000	18.827800
2372.000000	18.816100
2371.000000	18.828200
2370.000000	18.831100
2369.000000	18.820600
2368.000000	18.821000
2367.000000	18.833300
2366.000000	18.838400
2365.000000	18.839500
2364.000000	18.841400
2363.000000	18.843200
2362.000000	18.844300
2361.000000	18.844000
2360.000000	18.852100
2359.000000	18.851100
2358.000000	18.843100
2357.000000	18.829900
2356.000000	18.825500
2355.000000	18.823300
2354.000000	18.819500
2353.000000	18.806600
2352.000000	18.804700
2351.000000	18.804900
2350.000000	18.787100
2349.000000	18.770700
2348.000000	18.762000
2347.000000	18.758500
2346.000000	18.754800
2345.000000	18.754700
2344.000000	18.748100
2343.000000	18.727500
2342.000000	18.713200
2341.000000	18.717900
2340.000000	18.729300
2339.000000	18.732600
2338.000000	18.730100
2337.000000	18.729500
2336.000000	18.743900
2335.000000	18.773000
2334.000000	18.790400
2333.000000	18.790000
2332.000000	18.796700
2331.000000	18.829600
2330.000000	18.862100
2329.000000	18.878900
2328.000000	18.894800
2327.000000	18.911700
2326.000000	18.953100
2325.000000	18.966600
2324.000000	19.001200
2323.000000	19.031400
2322.000000	19.047100
2321.000000	19.069000
2320.000000	19.067800
2319.000000	19.064500
2318.000000	19.074300
2317.000000	19.077100
2316.000000	19.051800
2315.000000	19.038100
2314.000000	19.014700
2313.000000	18.982100
2312.000000	18.948400
2311.000000	18.911700
2310.000000	18.887900
2309.000000	18.882000
2308.000000	18.843800
2307.000000	18.823400
2306.000000	18.783800
2305.000000	18.745600
2304.000000	18.737600
2303.000000	18.716600
2302.000000	18.705000
2301.000000	18.692100
2300.000000	18.675700
2299.000000	18.678200
2298.000000	18.683600
2297.000000	18.685700
2296.000000	18.706300
2295.000000	18.704800
2294.000000	18.725700
2293.000000	18.739000
2292.000000	18.739100
2291.000000	18.768000
2290.000000	18.798700
2289.000000	18.818100
2288.000000	18.863800
2287.000000	18.902500
2286.000000	18.931100
2285.000000	18.944600
2284.000000	18.978400
2283.000000	19.015200
2282.000000	19.067700
2281.000000	19.115900
2280.000000	19.134600
2279.000000	19.181500
2278.000000	19.214300
2277.000000	19.245000
2276.000000	19.261400
2275.000000	19.296600
2274.000000	19.324600
2273.000000	19.353300
2272.000000	19.365300
2271.000000	19.406000
2270.000000	19.443300
2269.000000	19.468000
2268.000000	19.509700
2267.000000	19.584000
2266.000000	19.614000
2265.000000	19.694300
2264.000000	19.776300
2263.000000	19.854700
2262.000000	19.931100
2261.000000	20.053600
2260.000000	20.168200
2259.000000	20.288200
2258.000000	20.418500
2257.000000	20.557400
2256.000000	20.704800
2255.000000	20.846300
2254.000000	21.004100
2253.000000	21.167300
2252.000000	21.320700
2251.000000	21.465700
2250.000000	21.613600
2249.000000	21.755600
2248.000000	21.897000
2247.000000	22.028000
2246.000000	22.146600
2245.000000	22.266900
2244.000000	22.384300
2243.000000	22.486200
2242.000000	22.566800
2241.000000	22.633100
2240.000000	22.693000
2239.000000	22.776800
2238.000000	22.815100
2237.000000	22.866000
2236.000000	22.889500
2235.000000	22.891100
2234.000000	22.947100
2233.000000	22.946900
2232.000000	22.916300
2231.000000	22.914200
2230.000000	22.889600
2229.000000	22.873000
2228.000000	22.825900
2227.000000	22.780300
2226.000000	22.770700
2225.000000	22.708200
2224.000000	22.631200
2223.000000	22.582100
2222.000000	22.535100
2221.000000	22.456500
2220.000000	22.379600
2219.000000	22.305400
2218.000000	22.237300
2217.000000	22.161600
2216.000000	22.114800
2215.000000	22.033800
2214.000000	21.942400
2213.000000	21.903800
2212.000000	21.840000
2211.000000	21.774100
2210.000000	21.707000
2209.000000	21.657300
2208.000000	21.619500
2207.000000	21.581900
2206.000000	21.522700
2205.000000	21.468800
2204.000000	21.436000
2203.000000	21.407400
2202.000000	21.387400
2201.000000	21.360700
2200.000000	21.345300
2199.000000	21.292000
2198.000000	21.277100
2197.000000	21.261400
2196.000000	21.257000
2195.000000	21.231300
2194.000000	21.220200
2193.000000	21.201300
2192.000000	21.203100
2191.000000	21.157500
2190.000000	21.155100
2189.000000	21.157500
2188.000000	21.149100
2187.000000	21.131400
2186.000000	21.133600
2185.000000	21.120600
2184.000000	21.093300
2183.000000	21.108500
2182.000000	21.082600
2181.000000	21.069800
2180.000000	21.057800
2179.000000	21.063400
2178.000000	21.061500
2177.000000	21.045400
2176.000000	21.051500
2175.000000	21.060800
2174.000000	21.066000
2173.000000	21.063700
2172.000000	21.072800
2171.000000	21.115900
2170.000000	21.136700
2169.000000	21.154500
2168.000000	21.187600
2167.000000	21.216900
2166.000000	21.219900
2165.000000	21.263400
2164.000000	21.322700
2163.000000	21.380700
2162.000000	21.441900
2161.000000	21.500800
2160.000000	21.558400
2159.000000	21.633100
2158.000000	21.692200
2157.000000	21.771200
2156.000000	21.868400
2155.000000	21.953500
2154.000000	22.042200
2153.000000	22.142900
2152.000000	22.243900
2151.000000	22.351600
2150.000000	22.454800
2149.000000	22.551900
2148.000000	22.666000
2147.000000	22.758900
2146.000000	22.859300
2145.000000	22.951600
2144.000000	23.057600
2143.000000	23.156900
2142.000000	23.263600
2141.000000	23.364400
2140.000000	23.458800
2139.000000	23.541900
2138.000000	23.649800
2137.000000	23.728700
2136.000000	23.816100
2135.000000	23.906500
2134.000000	24.002800
2133.000000	24.076600
2132.000000	24.146200
2131.000000	24.216100
2130.000000	24.278500
2129.000000	24.325300
2128.000000	24.403800
2127.000000	24.486100
2126.000000	24.525500
2125.000000	24.567700
2124.000000	24.615700
2123.000000	24.670000
2122.000000	24.715000
2121.000000	24.736600
2120.000000	24.759600
2119.000000	24.792300
2118.000000	24.833200
2117.000000	24.859600
2116.000000	24.876800
2115.000000	24.903500
2114.000000	24.919500
2113.000000	24.929300
2112.000000	24.940500
2111.000000	24.942700
2110.000000	24.957100
2109.000000	24.950800
2108.000000	24.944800
2107.000000	24.952300
2106.000000	24.952600
2105.000000	24.943500
2104.000000	24.953300
2103.000000	24.970700
2102.000000	24.967900
2101.000000	24.963500
2100.000000	24.960600
2099.000000	24.961700
2098.000000	24.963300
2097.000000	24.970300
2096.000000	24.980900
2095.000000	24.984100
2094.000000	24.990100
2093.000000	25.005200
2092.000000	25.023600
2091.000000	25.029000
2090.000000	25.031200
2089.000000	25.042700
2088.000000	25.054400
2087.000000	25.069800
2086.000000	25.075000
2085.000000	25.057600
2084.000000	25.021500
2083.000000	25.011200
2082.000000	24.995000
2081.000000	24.959600
2080.000000	24.921700
2079.000000	24.875400
2078.000000	24.810900
2077.000000	24.738500
2076.000000	24.674500
2075.000000	24.606500
2074.000000	24.520800
2073.000000	24.427400
2072.000000	24.339200
2071.000000	24.253100
2070.000000	24.169700
2069.000000	24.065300
2068.000000	23.958800
2067.000000	23.834400
2066.000000	23.738600
2065.000000	23.638800
2064.000000	23.511200
2063.000000	23.399200
2062.000000	23.315600
2061.000000	23.230200
2060.000000	23.134800
2059.000000	23.063400
2058.000000	23.007400
2057.000000	22.961200
2056.000000	22.932900
2055.000000	22.927200
2054.000000	22.940400
2053.000000	22.958500
2052.000000	22.992700
2051.000000	23.049200
2050.000000	23.128700
2049.000000	23.234400
2048.000000	23.357500
2047.000000	23.474200
2046.000000	23.591800
2045.000000	23.725100
2044.000000	23.884200
2043.000000	24.038200
2042.000000	24.174500
2041.000000	24.305100
2040.000000	24.463400
2039.000000	24.606300
2038.000000	24.733900
2037.000000	24.861900
2036.000000	24.991900
2035.000000	25.103900
2034.000000	25.216900
2033.000000	25.335400
2032.000000	25.452200
2031.000000	25.537300
2030.000000	25.625200
2029.000000	25.709100
2028.000000	25.776900
2027.000000	25.863200
2026.000000	25.963000
2025.000000	26.016800
2024.000000	26.066100
2023.000000	26.150500
2022.000000	26.184000
2021.000000	26.217500
2020.000000	26.284600
2019.000000	26.319800
2018.000000	26.345000
2017.000000	26.357400
2016.000000	26.378200
2015.000000	26.396200
2014.000000	26.430200
2013.000000	26.418200
2012.000000	26.418500
2011.000000	26.426000
2010.000000	26.412500
2009.000000	26.403500
2008.000000	26.374600
2007.000000	26.352300
2006.000000	26.314000
2005.000000	26.278100
2004.000000	26.212200
2003.000000	26.173900
2002.000000	26.128600
2001.000000	26.073700
2000.000000	26.011100
1999.000000	25.946300
1998.000000	25.872500
1997.000000	25.791200
1996.000000	25.717300
1995.000000	25.635900
1994.000000	25.534100
1993.000000	25.459200
1992.000000	25.371600
1991.000000	25.277500
1990.000000	25.170900
1989.000000	25.091100
1988.000000	24.985500
1987.000000	24.894700
1986.000000	24.787400
1985.000000	24.693500
1984.000000	24.581800
1983.000000	24.466100
1982.000000	24.370800
1981.000000	24.285800
1980.000000	24.169000
1979.000000	24.071600
1978.000000	23.976200
1977.000000	23.862100
1976.000000	23.771300
1975.000000	23.660200
1974.000000	23.562500
1973.000000	23.472500
1972.000000	23.366400
1971.000000	23.278300
1970.000000	23.178400
1969.000000	23.099500
1968.000000	23.001400
1967.000000	22.917000
1966.000000	22.829200
1965.000000	22.727800
1964.000000	22.610600
1963.000000	22.522700
1962.000000	22.428600
1961.000000	22.322700
1960.000000	22.223600
1959.000000	22.112600
1958.000000	22.024700
1957.000000	21.925500
1956.000000	21.835700
1955.000000	21.722900
1954.000000	21.636400
1953.000000	21.539200
1952.000000	21.424100
1951.000000	21.332700
1950.000000	21.251800
1949.000000	21.170300
1948.000000	21.113300
1947.000000	21.017000
1946.000000	20.924200
1945.000000	20.870500
1944.000000	20.793500
1943.000000	20.755100
1942.000000	20.701000
1941.000000	20.664000
1940.000000	20.612100
1939.000000	20.603000
1938.000000	20.588100
1937.000000	20.567400
1936.000000	20.543200
1935.000000	20.560200
1934.000000	20.590400
1933.000000	20.603300
1932.000000	20.653800
1931.000000	20.707100
1930.000000	20.753800
1929.000000	20.841700
1928.000000	20.926900
1927.000000	21.011600
1926.000000	21.102700
1925.000000	21.229900
1924.000000	21.368500
1923.000000	21.498300
1922.000000	21.661800
1921.000000	21.853600
1920.000000	22.064900
1919.000000	22.243000
1918.000000	22.464900
1917.000000	22.667000
1916.000000	22.898400
1915.000000	23.178700
1914.000000	23.484000
1913.000000	23.787300
1912.000000	24.115300
1911.000000	24.430700
1910.000000	24.756000
1909.000000	25.065900
1908.000000	25.463000
1907.000000	25.884500
1906.000000	26.385500
1905.000000	26.894200
1904.000000	27.373200
1903.000000	27.843500
1902.000000	28.303500
1901.000000	28.845500
1900.000000	29.440100
1899.000000	30.003700
1898.000000	30.581100
1897.000000	31.149000
1896.000000	31.660300
1895.000000	32.180900
1894.000000	32.760100
1893.000000	33.327700
1892.000000	33.969200
1891.000000	34.564700
1890.000000	35.113400
1889.000000	35.611900
1888.000000	36.134700
1887.000000	36.606500
1886.000000	37.085100
1885.000000	37.581900
1884.000000	38.072600
1883.000000	38.475500
1882.000000	38.851800
1881.000000	39.230800
1880.000000	39.551400
1879.000000	39.878900
1878.000000	40.204500
1877.000000	40.512100
1876.000000	40.801000
1875.000000	41.088700
1874.000000	41.357600
1873.000000	41.629000
1872.000000	41.861400
1871.000000	42.055800
1870.000000	42.221100
1869.000000	42.396100
1868.000000	42.515800
1867.000000	42.611100
1866.000000	42.687500
1865.000000	42.771500
1864.000000	42.861000
1863.000000	42.949600
1862.000000	43.046400
1861.000000	43.158800
1860.000000	43.275000
1859.000000	43.352900
1858.000000	43.413300
1857.000000	43.467000
1856.000000	43.503300
1855.000000	43.558600
1854.000000	43.594400
1853.000000	43.609100
1852.000000	43.639700
1851.000000	43.645400
1850.000000	43.688600
1849.000000	43.773600
1848.000000	43.808100
1847.000000	43.781500
1846.000000	43.726000
1845.000000	43.684000
1844.000000	43.657000
1843.000000	43.689100
1842.000000	43.742700
1841.000000	43.730600
1840.000000	43.696300
1839.000000	43.662500
1838.000000	43.633600
1837.000000	43.611900
1836.000000	43.570200
1835.000000	43.512500
1834.000000	43.442000
1833.000000	43.393700
1832.000000	43.373300
1831.000000	43.359800
1830.000000	43.356100
1829.000000	43.341400
1828.000000	43.286400
1827.000000	43.257800
1826.000000	43.235100
1825.000000	43.198800
1824.000000	43.183600
1823.000000	43.208400
1822.000000	43.245900
1821.000000	43.261100
1820.000000	43.251900
1819.000000	43.218000
1818.000000	43.182700
1817.000000	43.170100
1816.000000	43.168700
1815.000000	43.138900
1814.000000	43.116400
1813.000000	43.107900
1812.000000	43.091600
1811.000000	43.055100
1810.000000	43.025900
1809.000000	42.990300
1808.000000	42.957600
1807.000000	42.953100
1806.000000	42.928000
1805.000000	42.881600
1804.000000	42.850700
1803.000000	42.825400
1802.000000	42.818600
1801.000000	42.790400
1800.000000	42.743900
1799.000000	42.693300
1798.000000	42.674000
1797.000000	42.657300
1796.000000	42.627500
1795.000000	42.604600
1794.000000	42.596700
1793.000000	42.556100
1792.000000	42.521100
1791.000000	42.506000
1790.000000	42.498000
1789.000000	42.482300
1788.000000	42.483800
1787.000000	42.475700
1786.000000	42.480300
1785.000000	42.472900
1784.000000	42.440600
1783.000000	42.426900
1782.000000	42.414300
1781.000000	42.402900
1780.000000	42.382500
1779.000000	42.347900
1778.000000	42.307400
1777.000000	42.276500
1776.000000	42.224100
1775.000000	42.172400
1774.000000	42.134000
1773.000000	42.086000
1772.000000	42.034700
1771.000000	41.996300
1770.000000	41.954200
1769.000000	41.907200
1768.000000	41.857800
1767.000000	41.830700
1766.000000	41.802000
1765.000000	41.765800
1764.000000	41.726800
1763.000000	41.704600
1762.000000	41.679900
1761.000000	41.683200
1760.000000	41.674300
1759.000000	41.648600
1758.000000	41.650100
1757.000000	41.633800
1756.000000	41.635900
1755.000000	41.624900
1754.000000	41.613300
1753.000000	41.607900
1752.000000	41.601700
1751.000000	41.582400
1750.000000	41.557900
1749.000000	41.527100
1748.000000	41.492900
1747.000000	41.433900
1746.000000	41.387200
1745.000000	41.334700
1744.000000	41.263800
1743.000000	41.202200
1742.000000	41.149300
1741.000000	41.091200
1740.000000	41.028900
1739.000000	40.967900
1738.000000	40.920300
1737.000000	40.870100
1736.000000	40.833400
1735.000000	40.795400
1734.000000	40.754500
1733.000000	40.740500
1732.000000	40.705300
1731.000000	40.656200
1730.000000	40.635200
1729.000000	40.620500
1728.000000	40.589800
1727.000000	40.567700
1726.000000	40.551800
1725.000000	40.548400
1724.000000	40.589500
1723.000000	40.632500
1722.000000	40.715400
1721.000000	40.854600
1720.000000	41.011100
1719.000000	41.196600
1718.000000	41.425600
1717.000000	41.615700
1716.000000	41.818000
1715.000000	42.019200
1714.000000	42.185400
1713.000000	42.357400
1712.000000	42.508800
1711.000000	42.640500
1710.000000	42.772300
1709.000000	42.887000
1708.000000	42.979900
1707.000000	43.047700
1706.000000	43.130600
1705.000000	43.187900
1704.000000	43.208300
1703.000000	43.247600
1702.000000	43.268400
1701.000000	43.297500
1700.000000	43.297800
1699.000000	43.309500
1698.000000	43.296000
1697.000000	43.287500
1696.000000	43.261000
1695.000000	43.232000
1694.000000	43.164500
1693.000000	43.115000
1692.000000	43.058800
1691.000000	42.991600
1690.000000	42.952000
1689.000000	42.947000
1688.000000	42.977600
1687.000000	43.055900
1686.000000	43.173900
1685.000000	43.343700
1684.000000	43.493500
1683.000000	43.682000
1682.000000	43.873800
1681.000000	44.104500
1680.000000	44.278900
1679.000000	44.466000
1678.000000	44.638800
1677.000000	44.822300
1676.000000	44.977300
1675.000000	45.118200
1674.000000	45.287600
1673.000000	45.442700
1672.000000	45.603400
1671.000000	45.762800
1670.000000	45.913600
1669.000000	46.101500
1668.000000	46.253100
1667.000000	46.405700
1666.000000	46.525800
1665.000000	46.666800
1664.000000	46.787300
1663.000000	46.918000
1662.000000	47.028100
1661.000000	47.129800
1660.000000	47.233300
1659.000000	47.316700
1658.000000	47.378600
1657.000000	47.456700
1656.000000	47.509100
1655.000000	47.541300
1654.000000	47.570700
1653.000000	47.600800
1652.000000	47.622200
1651.000000	47.633300
1650.000000	47.639500
1649.000000	47.636200
1648.000000	47.646600
1647.000000	47.626200
1646.000000	47.598200
1645.000000	47.600800
1644.000000	47.586600
1643.000000	47.564700
1642.000000	47.563100
1641.000000	47.574000
1640.000000	47.564700
1639.000000	47.547000
1638.000000	47.541900
1637.000000	47.520400
1636.000000	47.505300
1635.000000	47.500900
1634.000000	47.459200
1633.000000	47.430800
1632.000000	47.403700
1631.000000	47.359900
1630.000000	47.331500
1629.000000	47.298300
1628.000000	47.269500
1627.000000	47.244900
1626.000000	47.210200
1625.000000	47.170900
1624.000000	47.142100
1623.000000	47.111200
1622.000000	47.091600
1621.000000	47.063100
1620.000000	47.047200
1619.000000	47.012800
1618.000000	46.979400
1617.000000	46.966600
1616.000000	46.946900
1615.000000	46.922700
1614.000000	46.892000
1613.000000	46.871700
1612.000000	46.832700
1611.000000	46.801800
1610.000000	46.751600
1609.000000	46.701600
1608.000000	46.668500
1607.000000	46.618200
1606.000000	46.562700
1605.000000	46.516200
1604.000000	46.454900
1603.000000	46.399300
1602.000000	46.343900
1601.000000	46.285600
1600.000000	46.229500
1599.000000	46.166700
1598.000000	46.108700
1597.000000	46.059500
1596.000000	46.010100
1595.000000	45.965700
1594.000000	45.929900
1593.000000	45.899800
1592.000000	45.859300
1591.000000	45.821200
1590.000000	45.778900
1589.000000	45.742200
1588.000000	45.702100
1587.000000	45.663600
1586.000000	45.625900
1585.000000	45.585000
1584.000000	45.552400
1583.000000	45.538800
1582.000000	45.509500
1581.000000	45.478900
1580.000000	45.466300
1579.000000	45.448600
1578.000000	45.433300
1577.000000	45.419000
1576.000000	45.415100
1575.000000	45.407800
1574.000000	45.405100
1573.000000	45.413500
1572.000000	45.403600
1571.000000	45.406500
1570.000000	45.427700
1569.000000	45.441900
1568.000000	45.464200
1567.000000	45.480200
1566.000000	45.488800
1565.000000	45.506100
1564.000000	45.507600
1563.000000	45.512400
1562.000000	45.513800
1561.000000	45.491700
1560.000000	45.480000
1559.000000	45.463800
1558.000000	45.424200
1557.000000	45.378600
1556.000000	45.332900
1555.000000	45.292100
1554.000000	45.237400
1553.000000	45.176800
1552.000000	45.096600
1551.000000	45.008000
1550.000000	44.925500
1549.000000	44.840300
1548.000000	44.777900
1547.000000	44.710400
1546.000000	44.639200
1545.000000	44.574800
1544.000000	44.531500
1543.000000	44.488000
1542.000000	44.446000
1541.000000	44.408800
1540.000000	44.369600
1539.000000	44.333900
1538.000000	44.297500
1537.000000	44.262300
1536.000000	44.227000
1535.000000	44.180000
1534.000000	44.142600
1533.000000	44.112300
1532.000000	44.081700
1531.000000	44.036600
1530.000000	43.983400
1529.000000	43.915300
1528.000000	43.876400
1527.000000	43.836900
1526.000000	43.790000
1525.000000	43.747400
1524.000000	43.699300
1523.000000	43.635600
1522.000000	43.579900
1521.000000	43.533400
1520.000000	43.470100
1519.000000	43.416300
1518.000000	43.377300
1517.000000	43.327400
1516.000000	43.269800
1515.000000	43.212500
1514.000000	43.160800
1513.000000	43.116400
1512.000000	43.064700
1511.000000	43.001200
1510.000000	42.942500
1509.000000	42.889900
1508.000000	42.834400
1507.000000	42.775500
1506.000000	42.724900
1505.000000	42.671800
1504.000000	42.628900
1503.000000	42.588400
1502.000000	42.555800
1501.000000	42.523100
1500.000000	42.496000
1499.000000	42.460700
1498.000000	42.442400
1497.000000	42.424500
1496.000000	42.417500
1495.000000	42.427300
1494.000000	42.430200
1493.000000	42.437400
1492.000000	42.465000
1491.000000	42.495600
1490.000000	42.509600
1489.000000	42.529900
1488.000000	42.559200
1487.000000	42.576000
1486.000000	42.608900
1485.000000	42.635400
1484.000000	42.662400
1483.000000	42.694400
1482.000000	42.733400
1481.000000	42.751400
1480.000000	42.790200
1479.000000	42.797500
1478.000000	42.836200
1477.000000	42.859000
1476.000000	42.885900
1475.000000	42.944000
1474.000000	43.004500
1473.000000	43.089300
1472.000000	43.150000
1471.000000	43.211800
1470.000000	43.254000
1469.000000	43.302200
1468.000000	43.375600
1467.000000	43.450500
1466.000000	43.511600
1465.000000	43.590000
1464.000000	43.655600
1463.000000	43.724300
1462.000000	43.817800
1461.000000	43.895100
1460.000000	43.981700
1459.000000	44.057900
1458.000000	44.143300
1457.000000	44.232200
1456.000000	44.340600
1455.000000	44.414500
1454.000000	44.512200
1453.000000	44.580600
1452.000000	44.692700
1451.000000	44.783500
1450.000000	44.844600
1449.000000	44.896700
1448.000000	45.027500
1447.000000	45.108100
1446.000000	45.272300
1445.000000	45.300200
1444.000000	45.356400
1443.000000	45.484300
1442.000000	45.572800
1441.000000	45.680100
1440.000000	45.799700
1439.000000	45.905400
1438.000000	46.048300
1437.000000	46.137100
1436.000000	46.259900
1435.000000	46.410200
1434.000000	46.547600
1433.000000	46.732000
1432.000000	46.841900
1431.000000	46.975400
1430.000000	47.161400
1429.000000	47.357300
1428.000000	47.530100
1427.000000	47.712000
1426.000000	47.946200
1425.000000	48.162500
1424.000000	48.421600
1423.000000	48.612800
1422.000000	48.840300
1421.000000	49.151300
1420.000000	49.448600
1419.000000	49.709000
1418.000000	49.964200
1417.000000	50.197500
1416.000000	50.553300
1415.000000	50.933300
1414.000000	51.247400
1413.000000	51.562200
1412.000000	51.842100
1411.000000	52.262700
1410.000000	52.679100
1409.000000	53.049600
1408.000000	53.413200
1407.000000	53.775700
1406.000000	54.163500
1405.000000	54.532200
1404.000000	54.855000
1403.000000	55.239500
1402.000000	55.645800
1401.000000	56.140000
1400.000000	56.422000
1399.000000	56.655400
1398.000000	56.905300
1397.000000	57.273200
1396.000000	57.693300
1395.000000	57.979500
1394.000000	58.169700
1393.000000	58.422200
1392.000000	58.737800
1391.000000	58.989600
1390.000000	59.234200
1389.000000	59.555000
1388.000000	59.872400
1387.000000	60.083600
1386.000000	60.304700
1385.000000	60.561600
1384.000000	60.808000
1383.000000	61.048400
1382.000000	61.216000
1381.000000	61.336600
1380.000000	61.425500
1379.000000	61.529500
1378.000000	61.608800
1377.000000	61.708300
1376.000000	61.798400
1375.000000	61.884600
1374.000000	62.007400
1373.000000	62.156900
1372.000000	62.255200
1371.000000	62.381500
1370.000000	62.451100
1369.000000	62.570600
1368.000000	62.684200
1367.000000	62.744300
1366.000000	62.861200
1365.000000	62.979000
1364.000000	63.032400
1363.000000	63.122400
1362.000000	63.244200
1361.000000	63.301800
1360.000000	63.302600
1359.000000	63.358100
1358.000000	63.428000
1357.000000	63.499100
1356.000000	63.614200
1355.000000	63.739700
1354.000000	63.822700
1353.000000	63.904900
1352.000000	64.078400
1351.000000	64.237000
1350.000000	64.402400
1349.000000	64.567300
1348.000000	64.747200
1347.000000	64.890000
1346.000000	65.006600
1345.000000	65.179400
1344.000000	65.344600
1343.000000	65.480200
1342.000000	65.603900
1341.000000	65.741100
1340.000000	65.862200
1339.000000	65.979200
1338.000000	66.086300
1337.000000	66.203600
1336.000000	66.317100
1335.000000	66.405200
1334.000000	66.487700
1333.000000	66.579700
1332.000000	66.667600
1331.000000	66.747700
1330.000000	66.827300
1329.000000	66.896300
1328.000000	66.954900
1327.000000	67.023500
1326.000000	67.080300
1325.000000	67.141300
1324.000000	67.193600
1323.000000	67.234300
1322.000000	67.285800
1321.000000	67.324800
1320.000000	67.369100
1319.000000	67.407700
1318.000000	67.445700
1317.000000	67.490700
1316.000000	67.521900
1315.000000	67.549200
1314.000000	67.578600
1313.000000	67.616500
1312.000000	67.642900
1311.000000	67.664700
1310.000000	67.689100
1309.000000	67.702700
1308.000000	67.715100
1307.000000	67.714600
1306.000000	67.725200
1305.000000	67.742600
1304.000000	67.756300
1303.000000	67.765600
1302.000000	67.769500
1301.000000	67.772500
1300.000000	67.771600
1299.000000	67.763600
1298.000000	67.753200
1297.000000	67.753000
1296.000000	67.748600
1295.000000	67.734400
1294.000000	67.724500
1293.000000	67.716000
1292.000000	67.695600
1291.000000	67.682500
1290.000000	67.668900
1289.000000	67.642400
1288.000000	67.618100
1287.000000	67.594100
1286.000000	67.568000
1285.000000	67.544800
1284.000000	67.515900
1283.000000	67.498300
1282.000000	67.472600
1281.000000	67.441500
1280.000000	67.424700
1279.000000	67.410800
1278.000000	67.396400
1277.000000	67.383300
1276.000000	67.372900
1275.000000	67.374700
1274.000000	67.373800
1273.000000	67.382700
1272.000000	67.393700
1271.000000	67.402700
1270.000000	67.416500
1269.000000	67.428200
1268.000000	67.441400
1267.000000	67.440700
1266.000000	67.444400
1265.000000	67.447200
1264.000000	67.449100
1263.000000	67.454300
1262.000000	67.447800
1261.000000	67.454900
1260.000000	67.465300
1259.000000	67.460100
1258.000000	67.468200
1257.000000	67.455200
1256.000000	67.447300
1255.000000	67.429600
1254.000000	67.424400
1253.000000	67.418900
1252.000000	67.402200
1251.000000	67.354200
1250.000000	67.330800
1249.000000	67.305000
1248.000000	67.249900
1247.000000	67.216400
1246.000000	67.184200
1245.000000	67.155600
1244.000000	67.092400
1243.000000	67.047200
1242.000000	66.997900
1241.000000	66.959900
1240.000000	66.926200
1239.000000	66.886000
1238.000000	66.856100
1237.000000	66.821700
1236.000000	66.790700
1235.000000	66.752400
1234.000000	66.721800
1233.000000	66.697600
1232.000000	66.653400
1231.000000	66.624000
1230.000000	66.584900
1229.000000	66.563000
1228.000000	66.545300
1227.000000	66.494200
1226.000000	66.453000
1225.000000	66.422400
1224.000000	66.384200
1223.000000	66.358500
1222.000000	66.317800
1221.000000	66.279200
1220.000000	66.241300
1219.000000	66.211500
1218.000000	66.158600
1217.000000	66.116600
1216.000000	66.095600
1215.000000	66.049900
1214.000000	66.010300
1213.000000	65.947200
1212.000000	65.913100
1211.000000	65.851200
1210.000000	65.809700
1209.000000	65.735300
1208.000000	65.682900
1207.000000	65.632500
1206.000000	65.561700
1205.000000	65.505700
1204.000000	65.434300
1203.000000	65.388100
1202.000000	65.333000
1201.000000	65.279600
1200.000000	65.233700
1199.000000	65.163700
1198.000000	65.095900
1197.000000	65.042700
1196.000000	64.987800
1195.000000	64.908600
1194.000000	64.857100
1193.000000	64.786400
1192.000000	64.723100
1191.000000	64.655500
1190.000000	64.610600
1189.000000	64.563800
1188.000000	64.543900
1187.000000	64.548300
1186.000000	64.540600
1185.000000	64.554100
1184.000000	64.554900
1183.000000	64.603400
1182.000000	64.636100
1181.000000	64.687700
1180.000000	64.767100
1179.000000	64.793200
1178.000000	64.851100
1177.000000	64.908100
1176.000000	64.971700
1175.000000	65.017600
1174.000000	65.093800
1173.000000	65.159000
1172.000000	65.230100
1171.000000	65.303700
1170.000000	65.382200
1169.000000	65.479000
1168.000000	65.578500
1167.000000	65.680700
1166.000000	65.768200
1165.000000	65.876400
1164.000000	65.977800
1163.000000	66.120200
1162.000000	66.215600
1161.000000	66.316200
1160.000000	66.414700
1159.000000	66.514600
1158.000000	66.609000
1157.000000	66.715600
1156.000000	66.786200
1155.000000	66.857000
1154.000000	66.930900
1153.000000	66.977800
1152.000000	67.034100
1151.000000	67.081900
1150.000000	67.118200
1149.000000	67.163200
1148.000000	67.217000
1147.000000	67.241900
1146.000000	67.286500
1145.000000	67.318400
1144.000000	67.357300
1143.000000	67.391900
1142.000000	67.458200
1141.000000	67.517200
1140.000000	67.585700
1139.000000	67.651600
1138.000000	67.731300
1137.000000	67.834800
1136.000000	67.922600
1135.000000	68.016800
1134.000000	68.079900
1133.000000	68.103900
1132.000000	68.162600
1131.000000	68.216100
1130.000000	68.305300
1129.000000	68.322700
1128.000000	68.351500
1127.000000	68.392000
1126.000000	68.425300
1125.000000	68.449100
1124.000000	68.465600
1123.000000	68.462800
1122.000000	68.476300
1121.000000	68.455500
1120.000000	68.459300
1119.000000	68.457600
1118.000000	68.443900
1117.000000	68.454400
1116.000000	68.430300
1115.000000	68.412100
1114.000000	68.406200
1113.000000	68.396600
1112.000000	68.398200
1111.000000	68.377300
1110.000000	68.388700
1109.000000	68.378900
1108.000000	68.353500
1107.000000	68.349000
1106.000000	68.323000
1105.000000	68.329200
1104.000000	68.316300
1103.000000	68.303500
1102.000000	68.298100
1101.000000	68.289700
1100.000000	68.263600
1099.000000	68.260200
1098.000000	68.257300
1097.000000	68.244700
1096.000000	68.229100
1095.000000	68.214900
1094.000000	68.189500
1093.000000	68.168600
1092.000000	68.143500
1091.000000	68.123700
1090.000000	68.109100
1089.000000	68.082100
1088.000000	68.054100
1087.000000	68.017300
1086.000000	68.003900
1085.000000	67.992800
1084.000000	67.969300
1083.000000	67.940900
1082.000000	67.929700
1081.000000	67.906000
1080.000000	67.886900
1079.000000	67.885400
1078.000000	67.875600
1077.000000	67.844900
1076.000000	67.828800
1075.000000	67.805700
1074.000000	67.786800
1073.000000	67.769300
1072.000000	67.749000
1071.000000	67.722800
1070.000000	67.702100
1069.000000	67.681200
1068.000000	67.660600
1067.000000	67.633300
1066.000000	67.605300
1065.000000	67.581300
1064.000000	67.566300
1063.000000	67.558000
1062.000000	67.533100
1061.000000	67.498800
1060.000000	67.494600
1059.000000	67.468700
1058.000000	67.449800
1057.000000	67.445000
1056.000000	67.422500
1055.000000	67.413400
1054.000000	67.398300
1053.000000	67.375600
1052.000000	67.366400
1051.000000	67.352700
1050.000000	67.351500
1049.000000	67.348300
1048.000000	67.334700
1047.000000	67.338500
1046.000000	67.341200
1045.000000	67.343800
1044.000000	67.339900
1043.000000	67.330100
1042.000000	67.332200
1041.000000	67.329800
1040.000000	67.314100
1039.000000	67.305600
1038.000000	67.311800
1037.000000	67.312300
1036.000000	67.303100
1035.000000	67.286500
1034.000000	67.278300
1033.000000	67.274700
1032.000000	67.278500
1031.000000	67.275500
1030.000000	67.264700
1029.000000	67.261400
1028.000000	67.250800
1027.000000	67.242600
1026.000000	67.246700
1025.000000	67.253800
1024.000000	67.250600
1023.000000	67.254000
1022.000000	67.261000
1021.000000	67.255700
1020.000000	67.253500
1019.000000	67.250600
1018.000000	67.242500
1017.000000	67.245600
1016.000000	67.250100
1015.000000	67.240300
1014.000000	67.242400
1013.000000	67.251600
1012.000000	67.250400
1011.000000	67.253700
1010.000000	67.254500
1009.000000	67.261000
1008.000000	67.270300
1007.000000	67.267300
1006.000000	67.272800
1005.000000	67.281100
1004.000000	67.274100
1003.000000	67.270900
1002.000000	67.275900
1001.000000	67.281000
1000.000000	67.288600
999.000000	67.305300
998.000000	67.313100
997.000000	67.314300
996.000000	67.329500
995.000000	67.334400
994.000000	67.339000
993.000000	67.368700
992.000000	67.397200
991.000000	67.419700
990.000000	67.435100
989.000000	67.438500
988.000000	67.453000
987.000000	67.490000
986.000000	67.509900
985.000000	67.516600
984.000000	67.531500
983.000000	67.573400
982.000000	67.589200
981.000000	67.613800
980.000000	67.628500
979.000000	67.642900
978.000000	67.659400
977.000000	67.692400
976.000000	67.717600
975.000000	67.734400
974.000000	67.746500
973.000000	67.764300
972.000000	67.765900
971.000000	67.781400
970.000000	67.797400
969.000000	67.823100
968.000000	67.827300
967.000000	67.854600
966.000000	67.849200
965.000000	67.859300
964.000000	67.886800
963.000000	67.920200
962.000000	67.944700
961.000000	67.971700
960.000000	67.989500
959.000000	68.010400
958.000000	68.042600
957.000000	68.048800
956.000000	68.071800
955.000000	68.098700
954.000000	68.102200
953.000000	68.103100
952.000000	68.113600
951.000000	68.155200
950.000000	68.164800
949.000000	68.173500
948.000000	68.202000
947.000000	68.212600
946.000000	68.250100
945.000000	68.271600
944.000000	68.298100
943.000000	68.328800
942.000000	68.369300
941.000000	68.384900
940.000000	68.412800
939.000000	68.458400
938.000000	68.477600
937.000000	68.502000
936.000000	68.532500
935.000000	68.566500
934.000000	68.596700
933.000000	68.589600
932.000000	68.614500
931.000000	68.651800
930.000000	68.651000
929.000000	68.665000
928.000000	68.662100
927.000000	68.669300
926.000000	68.687800
925.000000	68.716800
924.000000	68.775900
923.000000	68.801800
922.000000	68.838100
921.000000	68.881500
920.000000	68.920900
919.000000	69.008900
918.000000	69.066700
917.000000	69.155000
916.000000	69.206200
915.000000	69.274600
914.000000	69.325500
913.000000	69.402900
912.000000	69.459200
911.000000	69.521700
910.000000	69.584700
909.000000	69.643100
908.000000	69.741200
907.000000	69.767800
906.000000	69.803600
905.000000	69.861000
904.000000	69.916700
903.000000	70.054300
902.000000	70.111900
901.000000	70.196300
900.000000	70.257500
899.000000	70.353500
898.000000	70.438800
897.000000	70.531100
896.000000	70.638600
895.000000	70.736900
894.000000	70.824700
893.000000	70.947000
892.000000	71.011200
891.000000	71.098100
890.000000	71.132000
889.000000	71.192300
888.000000	71.253900
887.000000	71.346500
886.000000	71.393600
885.000000	71.471300
884.000000	71.509400
883.000000	71.503200
882.000000	71.558400
881.000000	71.612600
880.000000	71.675800
879.000000	71.700700
878.000000	71.683500
877.000000	71.722600
876.000000	71.765900
875.000000	71.735300
874.000000	71.765800
873.000000	71.785400
872.000000	71.757700
871.000000	71.598900
870.000000	71.406300
869.000000	71.160500
868.000000	70.975100
867.000000	70.822600
866.000000	70.575900
865.000000	70.344100
864.000000	70.001800
863.000000	69.716400
862.000000	69.298800
861.000000	68.965700
860.000000	68.447400
859.000000	67.804300
858.000000	68.645300
857.000000	68.358360
856.000000	68.777364
855.000000	68.838503
854.000000	68.915284
853.000000	69.124208
852.000000	68.794604
851.000000	69.465809
850.000000	69.894410
849.000000	69.776396
848.000000	70.092581
847.000000	69.949951
846.000000	70.468396
845.000000	70.529447
844.000000	70.654659
843.000000	71.151154
842.000000	71.511684
841.000000	71.887232
840.000000	72.169470
839.000000	72.273266
838.000000	72.848585
837.000000	72.977618
836.000000	73.243239
835.000000	73.773148
834.000000	74.084357
833.000000	74.513313
832.000000	74.852515
831.000000	75.450939
830.000000	75.952766
829.000000	76.418868
828.000000	76.721635
827.000000	77.224884
826.000000	77.666370
825.000000	78.052138
824.000000	78.645674
823.000000	79.089560
822.000000	79.431961
821.000000	79.908372
820.000000	80.418552
819.000000	80.776327
818.000000	81.411186
817.000000	81.724439
816.000000	82.131979
815.000000	82.407020
814.000000	82.857837
813.000000	83.191263
812.000000	83.553659
811.000000	83.939782
810.000000	84.108805
809.000000	84.441253
808.000000	84.682258
807.000000	84.947878
806.000000	85.171910
805.000000	85.460458
804.000000	85.752383
803.000000	85.994188
802.000000	86.381644
801.000000	86.727777
800.000000	86.964427
799.000000	87.165442
798.000000	87.459856
797.000000	87.690552
796.000000	87.848200
795.000000	87.920271
794.000000	88.200732
793.000000	88.531936
792.000000	88.671633
791.000000	88.727441
790.000000	88.878691
789.000000	89.075707
788.000000	89.134715
787.000000	89.207851
786.000000	89.365055
785.000000	89.487957
784.000000	89.499954
783.000000	89.583488
782.000000	89.700525
781.000000	89.711455
780.000000	89.809386
779.000000	89.953527
778.000000	89.936553
777.000000	89.997071
776.000000	90.031906
775.000000	90.057766
774.000000	90.126460
773.000000	90.104066
772.000000	90.074207
771.000000	90.174270
770.000000	90.159429
769.000000	90.119706
768.000000	90.153297
767.000000	90.143878
766.000000	90.021420
765.000000	90.009690
764.000000	89.935220
763.000000	89.825115
762.000000	89.723985
761.000000	89.556651
760.000000	89.464497
759.000000	89.433838
758.000000	89.212739
757.000000	89.090992
756.000000	89.004081
755.000000	88.833992
754.000000	88.676965
753.000000	88.498522
752.000000	88.466708
751.000000	88.362468
750.000000	88.285066
749.000000	88.254407
748.000000	88.065745
747.000000	87.924536
746.000000	87.872727
745.000000	87.746271
744.000000	87.609595
743.000000	87.520818
742.000000	87.346463
741.000000	87.093017
740.000000	86.933146
739.000000	86.746439
738.000000	86.483751
737.000000	86.216353
736.000000	85.969305
735.000000	85.748828
734.000000	85.533861
733.000000	85.264419
732.000000	84.943791
731.000000	84.644490
730.000000	84.401441
729.000000	84.137242
728.000000	83.831187
727.000000	83.523888
726.000000	83.252403
725.000000	83.020018
724.000000	82.780879
723.000000	82.439367
722.000000	82.160505
721.000000	81.935585
720.000000	81.652902
719.000000	81.315744
718.000000	80.970588
717.000000	80.640451
716.000000	80.265614
715.000000	79.844389
714.000000	79.414010
713.000000	78.954040
712.000000	78.468031
711.000000	77.900355
710.000000	77.333567
709.000000	76.790773
708.000000	76.171287
707.000000	75.603433
706.000000	75.033446
705.000000	74.413783
704.000000	73.894450
703.000000	73.369607
702.000000	72.889819
701.000000	72.438823
700.000000	72.014666
699.000000	71.664444
698.000000	71.321510
697.000000	71.060244
696.000000	70.781205
695.000000	70.455955
694.000000	70.196821
693.000000	69.886590
692.000000	69.538768
691.000000	69.187036
690.000000	68.792915
689.000000	68.368668
688.000000	67.938201
687.000000	67.458147
686.000000	66.951610
685.000000	66.400996
684.000000	65.793774
683.000000	65.181220
682.000000	64.557558
681.000000	63.943938
680.000000	63.394390
679.000000	62.835334
678.000000	62.294850
677.000000	61.767075
676.000000	61.257694
675.000000	60.814075
674.000000	60.441370
673.000000	60.066800
672.000000	59.664503
671.000000	59.352850
670.000000	59.052838
669.000000	58.753981
668.000000	58.462501
667.000000	58.135207
666.000000	57.822576
665.000000	57.513322
664.000000	57.154126
663.000000	56.803549
662.000000	56.456882
661.000000	56.079468
660.000000	55.734401
659.000000	55.391467
658.000000	55.060263
657.000000	54.819703
656.000000	54.614955
655.000000	54.401232
654.000000	54.233187
653.000000	54.127081
652.000000	54.123082
651.000000	54.150630
650.000000	54.254337
649.000000	54.392790
648.000000	54.532576
647.000000	54.686670
646.000000	54.857737
645.000000	55.022584
644.000000	55.122292
643.000000	55.211958
642.000000	55.246082
641.000000	55.210003
640.000000	55.047733
639.000000	54.843163
638.000000	54.592561
637.000000	54.257447
636.000000	53.944105
635.000000	53.549540
634.000000	53.120583
633.000000	52.684518
632.000000	52.268447
631.000000	51.882235
630.000000	51.535835
629.000000	51.204009
628.000000	50.992685
627.000000	50.780207
626.000000	50.608073
625.000000	50.491214
624.000000	50.432651
623.000000	50.429097
622.000000	50.478062
621.000000	50.552621
620.000000	50.654728
619.000000	50.787938
618.000000	50.913950
617.000000	51.096748
616.000000	51.277412
615.000000	51.506153
614.000000	51.773996
613.000000	52.060589
612.000000	52.375441
611.000000	52.802798
610.000000	53.194342
609.000000	53.702923
608.000000	54.175601
607.000000	54.748166
606.000000	55.372539
605.000000	55.973273
604.000000	56.640657
603.000000	57.309197
602.000000	58.019237
601.000000	58.718346
600.000000	59.448736
599.000000	60.152911
598.000000	60.849443
597.000000	61.516650
596.000000	62.138890
595.000000	62.787257
594.000000	63.439623
593.000000	64.040802
592.000000	64.611233
591.000000	65.122035
590.000000	65.638081
589.000000	66.120357
588.000000	66.547092
587.000000	66.945923
586.000000	67.333823
585.000000	67.620238
584.000000	67.859999
583.000000	68.129708
582.000000	68.350362
581.000000	68.558220
580.000000	68.709559
579.000000	68.827040
578.000000	68.934212
577.000000	69.026811
576.000000	69.083951
575.000000	69.118609
574.000000	69.139048
573.000000	69.113810
572.000000	69.111678
571.000000	69.133894
570.000000	69.102969
569.000000	69.048938
568.000000	69.013125
567.000000	68.890579
566.000000	68.831216
565.000000	68.719867
564.000000	68.571105
563.000000	68.415590
562.000000	68.273848
561.000000	68.122509
560.000000	67.972326
559.000000	67.758070
558.000000	67.558832
557.000000	67.324581
556.000000	67.086153
555.000000	66.855901
554.000000	66.609476
553.000000	66.326970
552.000000	65.987324
551.000000	65.730235
550.000000	65.402141
549.000000	65.083201
548.000000	64.701255
547.000000	64.348012
546.000000	63.934874
545.000000	63.469304
544.000000	62.996981
543.000000	62.478092
542.000000	61.947828
541.000000	61.370021
540.000000	60.787415
539.000000	60.138426
538.000000	59.429541
537.000000	58.700395
536.000000	57.874030
535.000000	57.055395
534.000000	56.160336
533.000000	55.230886
532.000000	54.278153
531.000000	53.306758
530.000000	52.324788
529.000000	51.326289
528.000000	50.332233
527.000000	49.340754
526.000000	48.365626
525.000000	47.405429
524.000000	46.448785
523.000000	45.533643
522.000000	44.648092
521.000000	43.765741
520.000000	42.921513
519.000000	42.098969
518.000000	41.317125
517.000000	40.578915
516.000000	39.871896
515.000000	39.199535
514.000000	38.568764
513.000000	37.947768
512.000000	37.379381
511.000000	36.806639
510.000000	36.280640
509.000000	35.797920
508.000000	35.341859
507.000000	34.893441
506.000000	34.473727
505.000000	34.083782
504.000000	33.704857
503.000000	33.337396
502.000000	32.976600
501.000000	32.637043
500.000000	32.329211
499.000000	32.036130
498.000000	31.752470
497.000000	31.477785
496.000000	31.232425
495.000000	31.011860
494.000000	30.774410
493.000000	30.541492
492.000000	30.335767
491.000000	30.126665
490.000000	29.938535
489.000000	29.772800
488.000000	29.593735
487.000000	29.409160
486.000000	29.247513
485.000000	29.095552
484.000000	28.948034
483.000000	28.780166
482.000000	28.601723
481.000000	28.402930
480.000000	28.217022
479.000000	28.013252
478.000000	27.811615
477.000000	27.623841
476.000000	27.432690
475.000000	27.227232
474.000000	27.023551
473.000000	26.807517
472.000000	26.585796
471.000000	26.365320
470.000000	26.152308
469.000000	25.914147
468.000000	25.669320
467.000000	25.429738
466.000000	25.186422
465.000000	24.915558
464.000000	24.638474
463.000000	24.365922
462.000000	24.080662
461.000000	23.769364
460.000000	23.437893
459.000000	23.111399
458.000000	22.764911
457.000000	22.430863
456.000000	22.084819
455.000000	21.698873
454.000000	21.304219
453.000000	20.900856
452.000000	20.486296
451.000000	20.063027
450.000000	19.637180
449.000000	19.195783
448.000000	18.748697
447.000000	18.289349
446.000000	17.820580
445.000000	17.352789
444.000000	16.867136
443.000000	16.381305
442.000000	15.901695
441.000000	15.415509
440.000000	14.939897
439.000000	14.460376
438.000000	13.985387
437.000000	13.531104
436.000000	13.087840
435.000000	12.656128
434.000000	12.225572
433.000000	11.825053
432.000000	11.437597
431.000000	11.045697
430.000000	10.680636
429.000000	10.344277
428.000000	10.022049
427.000000	9.719727
426.000000	9.437577
425.000000	9.159870
424.000000	8.903314
423.000000	8.673240
422.000000	8.454185
421.000000	8.243483
420.000000	8.056598
419.000000	7.881088
418.000000	7.731082
417.000000	7.593872
416.000000	7.454264
415.000000	7.331007
414.000000	7.215836
413.000000	7.114973
412.000000	7.029040
411.000000	6.936530
410.000000	6.852996
409.000000	6.792834
408.000000	6.735071
407.000000	6.674997
406.000000	6.613591
405.000000	6.558227
404.000000	6.510328
403.000000	6.469983
402.000000	6.438614
401.000000	6.416752
400.000000	6.385738
399.000000	6.343083
398.000000	6.317400
397.000000	6.299360
396.000000	6.266480
395.000000	6.234577
394.000000	6.201963
393.000000	6.185345
392.000000	6.173526
391.000000	6.141979
390.000000	6.120562
389.000000	6.097368
388.000000	6.066887
387.000000	6.016944
386.000000	5.984775
385.000000	5.962025
384.000000	5.934121
383.000000	5.904440
382.000000	5.869871
381.000000	5.853075
380.000000	5.818506
379.000000	5.791757
378.000000	5.758255
377.000000	5.754967
376.000000	5.705202
375.000000	5.680941
374.000000	5.646906
373.000000	5.602295
372.000000	5.567904
371.000000	5.550131
370.000000	5.536978
369.000000	5.452022
368.000000	5.464019
367.000000	5.459309
366.000000	5.406523
365.000000	5.456643
364.000000	5.428828
363.000000	5.400125
362.000000	5.383240
361.000000	5.342362
360.000000	5.300417
359.000000	5.273846
358.000000	5.292863
357.000000	5.247630
356.000000	5.174138
355.000000	5.156454
354.000000	5.186224
353.000000	5.167029
352.000000	5.165518
351.000000	5.107666
350.000000	5.103223
349.000000	5.030531
348.000000	5.074786
347.000000	5.054347
346.000000	5.074964
345.000000	5.037018
344.000000	4.983787
343.000000	5.020222
342.000000	5.039950
341.000000	4.946374
340.000000	5.000849
339.000000	4.978100
338.000000	4.930112
337.000000	5.002360
336.000000	4.954639
335.000000	4.901142
334.000000	4.968236
333.000000	4.982010
332.000000	4.954994
331.000000	4.986275
330.000000	4.978366
329.000000	5.003338
328.000000	4.963170
327.000000	4.908429
326.000000	4.950907
325.000000	4.972501
324.000000	4.918648
323.000000	4.924069
322.000000	4.977566
321.000000	4.947707
320.000000	4.880080
319.000000	5.000316
318.000000	5.019867
317.000000	5.087227
316.000000	4.955794
315.000000	4.887901
314.000000	4.913405
313.000000	4.887012
312.000000	4.916071
311.000000	4.907451
310.000000	4.905763
309.000000	4.856886
308.000000	4.862929
307.000000	4.870749
306.000000	4.916782
305.000000	4.924691
304.000000	4.920514
303.000000	4.921936
302.000000	4.949307
301.000000	4.944686
300.000000	4.913316
299.000000	4.909673
298.000000	4.960326
297.000000	4.915271
296.000000	4.917493
295.000000	4.965125
294.000000	4.935088
293.000000	4.916693
292.000000	4.936155
291.000000	4.940420
290.000000	4.943086
289.000000	4.956950
288.000000	4.953573
287.000000	4.957394
286.000000	4.938643
285.000000	4.949663
284.000000	4.919181
283.000000	4.991696
282.000000	4.948596
281.000000	4.951706
280.000000	4.964059
279.000000	4.994007
278.000000	4.996406
277.000000	4.993918
276.000000	4.986275
275.000000	5.039950
274.000000	5.023599
273.000000	5.010091
272.000000	5.074697
271.000000	5.004848
270.000000	5.066433
269.000000	5.104201
268.000000	5.104201
267.000000	5.102157
266.000000	5.161786
265.000000	5.134504
264.000000	5.189245
263.000000	5.211995
262.000000	5.217327
261.000000	5.268781
260.000000	5.284510
259.000000	5.301661
258.000000	5.332853
257.000000	5.352581
256.000000	5.375686
255.000000	5.363690
254.000000	5.376397
253.000000	5.381018
252.000000	5.413543
251.000000	5.414254
250.000000	5.436649
