PE UV       SUBTECH     SPECTRUM    ASCII       PEDS        4.00        
   -1
CICIMAUCR0019-6.Sample.ASC
24/04/25
16:41:35.00
24/04/25
16:41:35.00
Vinicio Soto Monge
C. cupreomarginata
250,000000
1
Lambda 1050
1050L1511233
PerkinElmer UV WinLab 6.3.2.0749 / 2.02.05 Lambda 900 UV/VIS/NIR, Aug  7 2015 09:38:08

0
0
3350/servo 860,8/2
0
0
UV/VIS
1
1
1
DoubleDePol,CommonBeamDepol,RBeamAtt,SBeamAtt,60mm sphere, WB InGaAs Detector
0
0
0
0
Program
Program
3350/servo 860,8/2
3350/0,2 860,8/0,2
3350/0,2 860,8/0,2
0
15.00
 
 
 
0
 
860,8
319,2
860,8
Front
100
on
S:100 R:100
0
0
0
0
 
0
 
 
 
0
 
 
0
0
0
0
0
 
 
 
 
0
0


0
0
#HDR
-1
-1
#GR
nm
%R
1.0
0.0
2500,000000
-1,000000
2251
8
72,684700
5,566800
#DATA
2500.000000	11.359765
2499.000000	11.281718
2498.000000	11.218516
2497.000000	11.333556
2496.000000	11.158328
2495.000000	11.300041
2494.000000	11.255742
2493.000000	11.224546
2492.000000	11.089212
2491.000000	11.085501
2490.000000	11.170273
2489.000000	11.090255
2488.000000	11.072628
2487.000000	11.036214
2486.000000	11.044564
2485.000000	11.002120
2484.000000	11.006990
2483.000000	11.039693
2482.000000	11.016963
2481.000000	10.993654
2480.000000	11.046071
2479.000000	11.040621
2478.000000	11.014180
2477.000000	11.052450
2476.000000	11.030648
2475.000000	11.006874
2474.000000	11.046999
2473.000000	11.051174
2472.000000	11.068221
2471.000000	11.082253
2470.000000	11.081326
2469.000000	11.167722
2468.000000	11.154386
2467.000000	11.092111
2466.000000	11.160068
2465.000000	11.122030
2464.000000	11.189060
2463.000000	11.252842
2462.000000	11.271977
2461.000000	11.357446
2460.000000	11.408356
2459.000000	11.433984
2458.000000	11.493940
2457.000000	11.602486
2456.000000	11.662789
2455.000000	11.771104
2454.000000	11.832219
2453.000000	11.930676
2452.000000	12.051746
2451.000000	12.142201
2450.000000	12.226626
2449.000000	12.335172
2448.000000	12.457750
2447.000000	12.574530
2446.000000	12.642255
2445.000000	12.721694
2444.000000	12.819107
2443.000000	12.913041
2442.000000	13.005931
2441.000000	13.085601
2440.000000	13.209803
2439.000000	13.289589
2438.000000	13.381552
2437.000000	13.452756
2436.000000	13.554692
2435.000000	13.645263
2434.000000	13.715888
2433.000000	13.776191
2432.000000	13.854585
2431.000000	13.918716
2430.000000	13.990964
2429.000000	14.062052
2428.000000	14.113658
2427.000000	14.163292
2426.000000	14.235424
2425.000000	14.263836
2424.000000	14.298743
2423.000000	14.366584
2422.000000	14.405202
2421.000000	14.446486
2420.000000	14.470260
2419.000000	14.503890
2418.000000	14.563498
2417.000000	14.598172
2416.000000	14.644560
2415.000000	14.696397
2414.000000	14.708806
2413.000000	14.745684
2412.000000	14.788592
2411.000000	14.866290
2410.000000	14.958137
2409.000000	15.049056
2408.000000	15.155051
2407.000000	15.227879
2406.000000	15.237156
2405.000000	15.271019
2404.000000	15.314623
2403.000000	15.360082
2402.000000	15.423401
2401.000000	15.497273
2400.000000	15.515595
2399.000000	15.582393
2398.000000	15.655801
2397.000000	15.686300
2396.000000	15.743241
2395.000000	15.797398
2394.000000	15.835551
2393.000000	15.893535
2392.000000	15.907915
2391.000000	15.930993
2390.000000	15.977032
2389.000000	16.038843
2388.000000	16.070966
2387.000000	16.074098
2386.000000	16.072938
2385.000000	16.068415
2384.000000	16.082911
2383.000000	16.097523
2382.000000	16.100306
2381.000000	16.108772
2380.000000	16.103553
2379.000000	16.054963
2378.000000	16.064820
2377.000000	16.079896
2376.000000	16.034552
2375.000000	16.005213
2374.000000	16.002777
2373.000000	15.987006
2372.000000	15.933544
2371.000000	15.894115
2370.000000	15.865587
2369.000000	15.811430
2368.000000	15.743125
2367.000000	15.694070
2366.000000	15.643508
2365.000000	15.569984
2364.000000	15.510377
2363.000000	15.431751
2362.000000	15.338048
2361.000000	15.259654
2360.000000	15.198307
2359.000000	15.143570
2358.000000	15.070626
2357.000000	15.026558
2356.000000	14.995015
2355.000000	14.951411
2354.000000	14.923463
2353.000000	14.915925
2352.000000	14.936103
2351.000000	14.956166
2350.000000	14.986433
2349.000000	15.051607
2348.000000	15.119913
2347.000000	15.198191
2346.000000	15.274150
2345.000000	15.333758
2344.000000	15.374694
2343.000000	15.449030
2342.000000	15.546907
2341.000000	15.590859
2340.000000	15.604543
2339.000000	15.632607
2338.000000	15.672500
2337.000000	15.680038
2336.000000	15.702420
2335.000000	15.693143
2334.000000	15.653829
2333.000000	15.620315
2332.000000	15.619271
2331.000000	15.590743
2330.000000	15.498664
2329.000000	15.418414
2328.000000	15.363561
2327.000000	15.298967
2326.000000	15.207932
2325.000000	15.115390
2324.000000	15.002785
2323.000000	14.892731
2322.000000	14.792419
2321.000000	14.679698
2320.000000	14.514211
2319.000000	14.343043
2318.000000	14.192632
2317.000000	14.061124
2316.000000	13.931704
2315.000000	13.790455
2314.000000	13.642248
2313.000000	13.516075
2312.000000	13.404861
2311.000000	13.318117
2310.000000	13.203889
2309.000000	13.132452
2308.000000	13.097082
2307.000000	13.078759
2306.000000	13.097778
2305.000000	13.145093
2304.000000	13.187885
2303.000000	13.257698
2302.000000	13.361257
2301.000000	13.476414
2300.000000	13.608385
2299.000000	13.735602
2298.000000	13.858528
2297.000000	13.969973
2296.000000	14.098698
2295.000000	14.228002
2294.000000	14.325068
2293.000000	14.396272
2292.000000	14.499020
2291.000000	14.542508
2290.000000	14.593766
2289.000000	14.590866
2288.000000	14.611857
2287.000000	14.623569
2286.000000	14.596897
2285.000000	14.568832
2284.000000	14.519894
2283.000000	14.451009
2282.000000	14.387342
2281.000000	14.338984
2280.000000	14.298279
2279.000000	14.238671
2278.000000	14.165264
2277.000000	14.145897
2276.000000	14.086521
2275.000000	14.041990
2274.000000	14.006503
2273.000000	14.014737
2272.000000	14.030045
2271.000000	14.068430
2270.000000	14.131517
2269.000000	14.204345
2268.000000	14.306165
2267.000000	14.438368
2266.000000	14.599448
2265.000000	14.784417
2264.000000	15.028646
2263.000000	15.271483
2262.000000	15.525569
2261.000000	15.837175
2260.000000	16.174758
2259.000000	16.516632
2258.000000	16.847720
2257.000000	17.223341
2256.000000	17.577275
2255.000000	17.965536
2254.000000	18.318195
2253.000000	18.680711
2252.000000	19.017134
2251.000000	19.388464
2250.000000	19.689865
2249.000000	19.959607
2248.000000	20.229232
2247.000000	20.478564
2246.000000	20.754683
2245.000000	20.968992
2244.000000	21.176575
2243.000000	21.377200
2242.000000	21.569823
2241.000000	21.713623
2240.000000	21.869368
2239.000000	22.000992
2238.000000	22.147576
2237.000000	22.313990
2236.000000	22.408040
2235.000000	22.498379
2234.000000	22.552768
2233.000000	22.654240
2232.000000	22.701787
2231.000000	22.797228
2230.000000	22.821814
2229.000000	22.858807
2228.000000	22.880262
2227.000000	22.851270
2226.000000	22.879566
2225.000000	22.860431
2224.000000	22.882233
2223.000000	22.890467
2222.000000	22.835150
2221.000000	22.778094
2220.000000	22.724053
2219.000000	22.735417
2218.000000	22.678593
2217.000000	22.600663
2216.000000	22.556015
2215.000000	22.516006
2214.000000	22.465676
2213.000000	22.422652
2212.000000	22.370002
2211.000000	22.329529
2210.000000	22.295087
2209.000000	22.256585
2208.000000	22.244061
2207.000000	22.172741
2206.000000	22.162303
2205.000000	22.149083
2204.000000	22.136906
2203.000000	22.067558
2202.000000	22.045872
2201.000000	22.010269
2200.000000	22.003543
2199.000000	21.986496
2198.000000	21.970956
2197.000000	21.964578
2196.000000	21.934078
2195.000000	21.925961
2194.000000	21.890358
2193.000000	21.871688
2192.000000	21.859511
2191.000000	21.821937
2190.000000	21.816835
2189.000000	21.782740
2188.000000	21.761402
2187.000000	21.745862
2186.000000	21.712116
2185.000000	21.691357
2184.000000	21.665612
2183.000000	21.641259
2182.000000	21.600206
2181.000000	21.577129
2180.000000	21.553355
2179.000000	21.545122
2178.000000	21.509867
2177.000000	21.487022
2176.000000	21.477976
2175.000000	21.471598
2174.000000	21.477512
2173.000000	21.487022
2172.000000	21.478440
2171.000000	21.464408
2170.000000	21.480991
2169.000000	21.512766
2168.000000	21.536888
2167.000000	21.553239
2166.000000	21.588610
2165.000000	21.628503
2164.000000	21.630010
2163.000000	21.648913
2162.000000	21.678253
2161.000000	21.731482
2160.000000	21.779609
2159.000000	21.826344
2158.000000	21.855800
2157.000000	21.934078
2156.000000	21.999368
2155.000000	22.061759
2154.000000	22.118583
2153.000000	22.214605
2152.000000	22.279431
2151.000000	22.329761
2150.000000	22.406648
2149.000000	22.459066
2148.000000	22.516586
2147.000000	22.599851
2146.000000	22.671055
2145.000000	22.725792
2144.000000	22.781457
2143.000000	22.828076
2142.000000	22.897889
2141.000000	22.946827
2140.000000	22.997737
2139.000000	23.063375
2138.000000	23.128085
2137.000000	23.168674
2136.000000	23.206364
2135.000000	23.246605
2134.000000	23.301457
2133.000000	23.337987
2132.000000	23.364312
2131.000000	23.405481
2130.000000	23.411163
2129.000000	23.428558
2128.000000	23.468451
2127.000000	23.468683
2126.000000	23.477265
2125.000000	23.491761
2124.000000	23.484223
2123.000000	23.485267
2122.000000	23.485383
2121.000000	23.478077
2120.000000	23.469147
2119.000000	23.448505
2118.000000	23.441199
2117.000000	23.423804
2116.000000	23.399682
2115.000000	23.383679
2114.000000	23.341930
2113.000000	23.319664
2112.000000	23.289049
2111.000000	23.246837
2110.000000	23.229325
2109.000000	23.199522
2108.000000	23.170646
2107.000000	23.137711
2106.000000	23.096658
2105.000000	23.063839
2104.000000	23.036702
2103.000000	23.012233
2102.000000	22.989156
2101.000000	22.951930
2100.000000	22.923866
2099.000000	22.914124
2098.000000	22.878174
2097.000000	22.847095
2096.000000	22.823785
2095.000000	22.806970
2094.000000	22.787371
2093.000000	22.772063
2092.000000	22.779369
2091.000000	22.773687
2090.000000	22.742607
2089.000000	22.715819
2088.000000	22.710368
2087.000000	22.712572
2086.000000	22.681376
2085.000000	22.658647
2084.000000	22.641251
2083.000000	22.606693
2082.000000	22.587906
2081.000000	22.578281
2080.000000	22.524356
2079.000000	22.481563
2078.000000	22.463704
2077.000000	22.416737
2076.000000	22.382527
2075.000000	22.344605
2074.000000	22.306684
2073.000000	22.260528
2072.000000	22.190716
2071.000000	22.141545
2070.000000	22.115684
2069.000000	22.066630
2068.000000	21.988931
2067.000000	21.931179
2066.000000	21.891982
2065.000000	21.851625
2064.000000	21.833418
2063.000000	21.791670
2062.000000	21.734729
2061.000000	21.715479
2060.000000	21.709448
2059.000000	21.685791
2058.000000	21.690661
2057.000000	21.718494
2056.000000	21.754328
2055.000000	21.777522
2054.000000	21.854872
2053.000000	21.943704
2052.000000	22.030564
2051.000000	22.153026
2050.000000	22.294043
2049.000000	22.465328
2048.000000	22.612143
2047.000000	22.775658
2046.000000	22.974776
2045.000000	23.159745
2044.000000	23.352135
2043.000000	23.560994
2042.000000	23.750718
2041.000000	23.975116
2040.000000	24.169942
2039.000000	24.350040
2038.000000	24.572119
2037.000000	24.738649
2036.000000	24.929301
2035.000000	25.097107
2034.000000	25.255751
2033.000000	25.418222
2032.000000	25.569096
2031.000000	25.714056
2030.000000	25.870381
2029.000000	25.982291
2028.000000	26.083879
2027.000000	26.230926
2026.000000	26.355360
2025.000000	26.446974
2024.000000	26.569089
2023.000000	26.635423
2022.000000	26.750115
2021.000000	26.844861
2020.000000	26.915485
2019.000000	26.985530
2018.000000	27.047805
2017.000000	27.149277
2016.000000	27.220829
2015.000000	27.275102
2014.000000	27.323345
2013.000000	27.358947
2012.000000	27.400000
2011.000000	27.443372
2010.000000	27.439777
2009.000000	27.442096
2008.000000	27.440473
2007.000000	27.457520
2006.000000	27.448706
2005.000000	27.444763
2004.000000	27.426325
2003.000000	27.385388
2002.000000	27.346075
2001.000000	27.284264
2000.000000	27.258055
1999.000000	27.231382
1998.000000	27.162149
1997.000000	27.087814
1996.000000	27.018117
1995.000000	26.936360
1994.000000	26.871186
1993.000000	26.793719
1992.000000	26.689232
1991.000000	26.593790
1990.000000	26.503451
1989.000000	26.391310
1988.000000	26.294708
1987.000000	26.184539
1986.000000	26.066483
1985.000000	25.944021
1984.000000	25.835011
1983.000000	25.727625
1982.000000	25.625805
1981.000000	25.476786
1980.000000	25.365341
1979.000000	25.258186
1978.000000	25.141522
1977.000000	25.022887
1976.000000	24.904832
1975.000000	24.774483
1974.000000	24.663502
1973.000000	24.546026
1972.000000	24.442815
1971.000000	24.326383
1970.000000	24.248684
1969.000000	24.106740
1968.000000	24.007587
1967.000000	23.876311
1966.000000	23.788291
1965.000000	23.685312
1964.000000	23.583724
1963.000000	23.474366
1962.000000	23.355267
1961.000000	23.238487
1960.000000	23.132376
1959.000000	23.025454
1958.000000	22.919111
1957.000000	22.803143
1956.000000	22.700743
1955.000000	22.596256
1954.000000	22.499886
1953.000000	22.416042
1952.000000	22.302857
1951.000000	22.209386
1950.000000	22.109886
1949.000000	22.043668
1948.000000	21.955648
1947.000000	21.892098
1946.000000	21.800715
1945.000000	21.724060
1944.000000	21.695416
1943.000000	21.655175
1942.000000	21.596959
1941.000000	21.589421
1940.000000	21.565880
1939.000000	21.556950
1938.000000	21.587334
1937.000000	21.571562
1936.000000	21.589537
1935.000000	21.631982
1934.000000	21.677209
1933.000000	21.727307
1932.000000	21.822865
1931.000000	21.918539
1930.000000	22.021170
1929.000000	22.125078
1928.000000	22.259369
1927.000000	22.396095
1926.000000	22.561002
1925.000000	22.739128
1924.000000	22.888959
1923.000000	23.083090
1922.000000	23.292992
1921.000000	23.566560
1920.000000	23.828184
1919.000000	24.047364
1918.000000	24.313858
1917.000000	24.564813
1916.000000	24.835715
1915.000000	25.117749
1914.000000	25.469712
1913.000000	25.807063
1912.000000	26.153575
1911.000000	26.482461
1910.000000	26.815173
1909.000000	27.110428
1908.000000	27.457172
1907.000000	27.855174
1906.000000	28.298520
1905.000000	28.757638
1904.000000	29.154480
1903.000000	29.558281
1902.000000	29.998380
1901.000000	30.426534
1900.000000	30.896204
1899.000000	31.385937
1898.000000	31.868480
1897.000000	32.320292
1896.000000	32.715395
1895.000000	33.102380
1894.000000	33.553728
1893.000000	34.019107
1892.000000	34.512203
1891.000000	35.011098
1890.000000	35.486219
1889.000000	35.965747
1888.000000	36.454900
1887.000000	36.948228
1886.000000	37.513456
1885.000000	38.127971
1884.000000	38.801977
1883.000000	39.466010
1882.000000	40.116359
1881.000000	40.776449
1880.000000	41.368002
1879.000000	41.953640
1878.000000	42.542178
1877.000000	43.091519
1876.000000	43.567684
1875.000000	44.029004
1874.000000	44.497399
1873.000000	44.904563
1872.000000	45.278792
1871.000000	45.618462
1870.000000	45.909078
1869.000000	46.196099
1868.000000	46.379329
1867.000000	46.527536
1866.000000	46.624833
1865.000000	46.718419
1864.000000	46.799481
1863.000000	46.862683
1862.000000	46.933308
1861.000000	47.004628
1860.000000	47.086850
1859.000000	47.124887
1858.000000	47.136484
1857.000000	47.127322
1856.000000	47.082211
1855.000000	47.051943
1854.000000	47.037795
1853.000000	46.953834
1852.000000	46.881586
1851.000000	46.828125
1850.000000	46.747063
1849.000000	46.695805
1848.000000	46.667741
1847.000000	46.596537
1846.000000	46.473379
1845.000000	46.356831
1844.000000	46.278900
1843.000000	46.251648
1842.000000	46.253851
1841.000000	46.213378
1840.000000	46.139971
1839.000000	46.059721
1838.000000	46.001157
1837.000000	45.947000
1836.000000	45.862343
1835.000000	45.751826
1834.000000	45.614055
1833.000000	45.483244
1832.000000	45.400094
1831.000000	45.310103
1830.000000	45.208051
1829.000000	45.104260
1828.000000	44.977739
1827.000000	44.884501
1826.000000	44.802627
1825.000000	44.703822
1824.000000	44.627283
1823.000000	44.602234
1822.000000	44.603858
1821.000000	44.597828
1820.000000	44.563385
1819.000000	44.495544
1818.000000	44.453795
1817.000000	44.446373
1816.000000	44.460521
1815.000000	44.440691
1814.000000	44.410887
1813.000000	44.389781
1812.000000	44.366355
1811.000000	44.323679
1810.000000	44.256302
1809.000000	44.200753
1808.000000	44.157381
1807.000000	44.113313
1806.000000	44.044892
1805.000000	43.969629
1804.000000	43.903527
1803.000000	43.850298
1802.000000	43.780717
1801.000000	43.710208
1800.000000	43.636221
1799.000000	43.555391
1798.000000	43.500538
1797.000000	43.458790
1796.000000	43.393963
1795.000000	43.317077
1794.000000	43.261992
1793.000000	43.188584
1792.000000	43.115756
1791.000000	43.059396
1790.000000	42.964418
1789.000000	42.892750
1788.000000	42.817022
1787.000000	42.720305
1786.000000	42.637388
1785.000000	42.541250
1784.000000	42.422499
1783.000000	42.310126
1782.000000	42.216076
1781.000000	42.123766
1780.000000	42.001999
1779.000000	41.881392
1778.000000	41.748493
1777.000000	41.617797
1776.000000	41.463559
1775.000000	41.287868
1774.000000	41.107770
1773.000000	40.931846
1772.000000	40.735744
1771.000000	40.530249
1770.000000	40.368241
1769.000000	40.185128
1768.000000	40.037501
1767.000000	39.904601
1766.000000	39.794084
1765.000000	39.685885
1764.000000	39.619900
1763.000000	39.599837
1762.000000	39.633236
1761.000000	39.662460
1760.000000	39.735520
1759.000000	39.827019
1758.000000	39.904485
1757.000000	39.964209
1756.000000	40.022773
1755.000000	40.060926
1754.000000	40.066493
1753.000000	40.056867
1752.000000	40.053852
1751.000000	39.980212
1750.000000	39.891381
1749.000000	39.792228
1748.000000	39.667447
1747.000000	39.514601
1746.000000	39.333459
1745.000000	39.130630
1744.000000	38.891041
1743.000000	38.617008
1742.000000	38.283832
1741.000000	37.967471
1740.000000	37.639745
1739.000000	37.337185
1738.000000	37.046917
1737.000000	36.792715
1736.000000	36.601484
1735.000000	36.450029
1734.000000	36.388566
1733.000000	36.409093
1732.000000	36.460814
1731.000000	36.573187
1730.000000	36.729860
1729.000000	36.855917
1728.000000	37.017229
1727.000000	37.148737
1726.000000	37.270155
1725.000000	37.345535
1724.000000	37.417667
1723.000000	37.490263
1722.000000	37.524589
1721.000000	37.555669
1720.000000	37.613537
1719.000000	37.682422
1718.000000	37.745624
1717.000000	37.851387
1716.000000	37.965268
1715.000000	38.085643
1714.000000	38.191405
1713.000000	38.304706
1712.000000	38.360023
1711.000000	38.440505
1710.000000	38.441896
1709.000000	38.462887
1708.000000	38.448275
1707.000000	38.396669
1706.000000	38.373707
1705.000000	38.310157
1704.000000	38.179577
1703.000000	38.079032
1702.000000	37.894179
1701.000000	37.699121
1700.000000	37.474143
1699.000000	37.261574
1698.000000	37.063268
1697.000000	36.922599
1696.000000	36.827737
1695.000000	36.825998
1694.000000	36.906480
1693.000000	37.072314
1692.000000	37.264589
1691.000000	37.478898
1690.000000	37.679986
1689.000000	37.816017
1688.000000	37.908443
1687.000000	37.971762
1686.000000	37.990201
1685.000000	38.111271
1684.000000	38.297748
1683.000000	38.636027
1682.000000	39.158579
1681.000000	39.834788
1680.000000	40.586841
1679.000000	41.348171
1678.000000	42.086656
1677.000000	42.812616
1676.000000	43.385034
1675.000000	43.912341
1674.000000	44.416801
1673.000000	44.802279
1672.000000	45.148792
1671.000000	45.434885
1670.000000	45.737909
1669.000000	45.989096
1668.000000	46.204913
1667.000000	46.398579
1666.000000	46.542843
1665.000000	46.684324
1664.000000	46.812701
1663.000000	46.908491
1662.000000	47.027010
1661.000000	47.108420
1660.000000	47.158518
1659.000000	47.207456
1658.000000	47.260454
1657.000000	47.281908
1656.000000	47.306725
1655.000000	47.309160
1654.000000	47.290142
1653.000000	47.278313
1652.000000	47.256511
1651.000000	47.239811
1650.000000	47.177768
1649.000000	47.134280
1648.000000	47.070034
1647.000000	47.026546
1646.000000	46.929829
1645.000000	46.863727
1644.000000	46.794378
1643.000000	46.718535
1642.000000	46.638169
1641.000000	46.570560
1640.000000	46.492049
1639.000000	46.417946
1638.000000	46.332130
1637.000000	46.221032
1636.000000	46.128954
1635.000000	46.036411
1634.000000	45.941549
1633.000000	45.836946
1632.000000	45.738721
1631.000000	45.612664
1630.000000	45.509452
1629.000000	45.387802
1628.000000	45.283199
1627.000000	45.160968
1626.000000	45.060076
1625.000000	44.949675
1624.000000	44.825125
1623.000000	44.710085
1622.000000	44.610004
1621.000000	44.514215
1620.000000	44.406712
1619.000000	44.293527
1618.000000	44.194143
1617.000000	44.091743
1616.000000	43.989459
1615.000000	43.870012
1614.000000	43.787443
1613.000000	43.680173
1612.000000	43.578585
1611.000000	43.477924
1610.000000	43.398718
1609.000000	43.305712
1608.000000	43.203892
1607.000000	43.104275
1606.000000	43.002687
1605.000000	42.892054
1604.000000	42.810992
1603.000000	42.719261
1602.000000	42.619413
1601.000000	42.520840
1600.000000	42.421224
1599.000000	42.339930
1598.000000	42.250982
1597.000000	42.132927
1596.000000	42.062071
1595.000000	41.989127
1594.000000	41.908297
1593.000000	41.853676
1592.000000	41.789430
1591.000000	41.718921
1590.000000	41.664764
1589.000000	41.610259
1588.000000	41.550072
1587.000000	41.503916
1586.000000	41.456138
1585.000000	41.417056
1584.000000	41.366262
1583.000000	41.318947
1582.000000	41.284969
1581.000000	41.263515
1580.000000	41.249251
1579.000000	41.229536
1578.000000	41.229536
1577.000000	41.237886
1576.000000	41.234407
1575.000000	41.233479
1574.000000	41.233131
1573.000000	41.265370
1572.000000	41.302364
1571.000000	41.317440
1570.000000	41.351882
1569.000000	41.386325
1568.000000	41.423319
1567.000000	41.464371
1566.000000	41.515861
1565.000000	41.563176
1564.000000	41.597503
1563.000000	41.629974
1562.000000	41.667547
1561.000000	41.700134
1560.000000	41.724719
1559.000000	41.743042
1558.000000	41.750580
1557.000000	41.765076
1556.000000	41.770875
1555.000000	41.768439
1554.000000	41.768208
1553.000000	41.746290
1552.000000	41.739447
1551.000000	41.728662
1550.000000	41.692480
1549.000000	41.665460
1548.000000	41.653747
1547.000000	41.619305
1546.000000	41.596111
1545.000000	41.592168
1544.000000	41.579412
1543.000000	41.564452
1542.000000	41.559465
1541.000000	41.548564
1540.000000	41.523631
1539.000000	41.525834
1538.000000	41.532560
1537.000000	41.522587
1536.000000	41.515977
1535.000000	41.502293
1534.000000	41.481071
1533.000000	41.456949
1532.000000	41.427609
1531.000000	41.378787
1530.000000	41.362783
1529.000000	41.349563
1528.000000	41.311293
1527.000000	41.270821
1526.000000	41.230000
1525.000000	41.181989
1524.000000	41.151374
1523.000000	41.108465
1522.000000	41.034710
1521.000000	41.006413
1520.000000	40.966868
1519.000000	40.916422
1518.000000	40.862381
1517.000000	40.823764
1516.000000	40.770071
1515.000000	40.711043
1514.000000	40.650855
1513.000000	40.592292
1512.000000	40.533612
1511.000000	40.486645
1510.000000	40.425414
1509.000000	40.349455
1508.000000	40.291471
1507.000000	40.239285
1506.000000	40.176430
1505.000000	40.134682
1504.000000	40.072523
1503.000000	40.006653
1502.000000	39.953656
1501.000000	39.928607
1500.000000	39.892656
1499.000000	39.860301
1498.000000	39.825047
1497.000000	39.790605
1496.000000	39.785038
1495.000000	39.752335
1494.000000	39.728330
1493.000000	39.734128
1492.000000	39.727750
1491.000000	39.715341
1490.000000	39.735636
1489.000000	39.723691
1488.000000	39.739927
1487.000000	39.756974
1486.000000	39.747812
1485.000000	39.749900
1484.000000	39.758365
1483.000000	39.789909
1482.000000	39.809044
1481.000000	39.837224
1480.000000	39.858098
1479.000000	39.889873
1478.000000	39.937536
1477.000000	39.977545
1476.000000	40.032746
1475.000000	40.070435
1474.000000	40.136305
1473.000000	40.188723
1472.000000	40.255289
1471.000000	40.305155
1470.000000	40.329972
1469.000000	40.382969
1468.000000	40.443853
1467.000000	40.512969
1466.000000	40.587421
1465.000000	40.661988
1464.000000	40.743862
1463.000000	40.824923
1462.000000	40.905173
1461.000000	40.994237
1460.000000	41.109277
1459.000000	41.213880
1458.000000	41.323006
1457.000000	41.472721
1456.000000	41.579064
1455.000000	41.738172
1454.000000	41.879537
1453.000000	42.025077
1452.000000	42.205639
1451.000000	42.377504
1450.000000	42.509127
1449.000000	42.623124
1448.000000	42.804498
1447.000000	42.992598
1446.000000	43.201572
1445.000000	43.367639
1444.000000	43.499262
1443.000000	43.693277
1442.000000	43.897149
1441.000000	44.072260
1440.000000	44.261172
1439.000000	44.450664
1438.000000	44.658595
1437.000000	44.815384
1436.000000	45.009050
1435.000000	45.198078
1434.000000	45.399515
1433.000000	45.618694
1432.000000	45.821290
1431.000000	46.020407
1430.000000	46.241559
1429.000000	46.509677
1428.000000	46.777563
1427.000000	47.035940
1426.000000	47.368304
1425.000000	47.711569
1424.000000	48.033845
1423.000000	48.320518
1422.000000	48.631080
1421.000000	48.971214
1420.000000	49.361563
1419.000000	49.723035
1418.000000	50.009824
1417.000000	50.294293
1416.000000	50.634080
1415.000000	51.039388
1414.000000	51.405383
1413.000000	51.699014
1412.000000	52.002387
1411.000000	52.420104
1410.000000	52.933262
1409.000000	53.354110
1408.000000	53.853121
1407.000000	54.314441
1406.000000	54.840820
1405.000000	55.378216
1404.000000	55.823417
1403.000000	56.312687
1402.000000	56.803695
1401.000000	57.367068
1400.000000	57.826301
1399.000000	58.102769
1398.000000	58.339112
1397.000000	58.692467
1396.000000	59.081771
1395.000000	59.319970
1394.000000	59.487312
1393.000000	59.691183
1392.000000	59.962549
1391.000000	60.197036
1390.000000	60.446715
1389.000000	60.790097
1388.000000	61.192622
1387.000000	61.575200
1386.000000	62.000803
1385.000000	62.507699
1384.000000	63.027700
1383.000000	63.472321
1382.000000	63.883776
1381.000000	64.148299
1380.000000	64.281198
1379.000000	64.395659
1378.000000	64.474517
1377.000000	64.610895
1376.000000	64.786703
1375.000000	65.018059
1374.000000	65.318764
1373.000000	65.680817
1372.000000	66.091575
1371.000000	66.492709
1370.000000	66.818811
1369.000000	67.153379
1368.000000	67.481800
1367.000000	67.714432
1366.000000	67.936743
1365.000000	68.171810
1364.000000	68.368376
1363.000000	68.563898
1362.000000	68.767654
1361.000000	68.854050
1360.000000	68.839206
1359.000000	68.942881
1358.000000	69.071258
1357.000000	69.274550
1356.000000	69.601928
1355.000000	70.073686
1354.000000	70.560983
1353.000000	71.021724
1352.000000	71.627309
1351.000000	72.170272
1350.000000	72.669514
1349.000000	73.116455
1348.000000	73.556554
1347.000000	73.914663
1346.000000	74.255493
1345.000000	74.619981
1344.000000	74.973335
1343.000000	75.293175
1342.000000	75.580196
1341.000000	75.878814
1340.000000	76.140206
1339.000000	76.394639
1338.000000	76.652668
1337.000000	76.904203
1336.000000	77.122223
1335.000000	77.326327
1334.000000	77.555595
1333.000000	77.741492
1332.000000	77.922518
1331.000000	78.093919
1330.000000	78.243170
1329.000000	78.399495
1328.000000	78.537961
1327.000000	78.664018
1326.000000	78.797033
1325.000000	78.920887
1324.000000	79.031521
1323.000000	79.145169
1322.000000	79.252904
1321.000000	79.361450
1320.000000	79.443903
1319.000000	79.530067
1318.000000	79.609389
1317.000000	79.696249
1316.000000	79.781834
1315.000000	79.853038
1314.000000	79.913921
1313.000000	79.976428
1312.000000	80.044501
1311.000000	80.103645
1310.000000	80.164992
1309.000000	80.209176
1308.000000	80.247098
1307.000000	80.284323
1306.000000	80.307401
1305.000000	80.326420
1304.000000	80.352860
1303.000000	80.367125
1302.000000	80.383012
1301.000000	80.386491
1300.000000	80.372807
1299.000000	80.374083
1298.000000	80.384056
1297.000000	80.381157
1296.000000	80.358891
1295.000000	80.348222
1294.000000	80.327116
1293.000000	80.295224
1292.000000	80.278177
1291.000000	80.254520
1290.000000	80.225528
1289.000000	80.185171
1288.000000	80.133333
1287.000000	80.079292
1286.000000	80.014814
1285.000000	79.958917
1284.000000	79.902325
1283.000000	79.851763
1282.000000	79.783805
1281.000000	79.703787
1280.000000	79.651370
1279.000000	79.599300
1278.000000	79.544911
1277.000000	79.499336
1276.000000	79.455268
1275.000000	79.411548
1274.000000	79.373742
1273.000000	79.334777
1272.000000	79.301842
1271.000000	79.285143
1270.000000	79.255803
1269.000000	79.227275
1268.000000	79.189701
1267.000000	79.167899
1266.000000	79.120236
1265.000000	79.074429
1264.000000	79.036507
1263.000000	78.996034
1262.000000	78.958693
1261.000000	78.922859
1260.000000	78.872181
1259.000000	78.805267
1258.000000	78.781030
1257.000000	78.715508
1256.000000	78.668425
1255.000000	78.623777
1254.000000	78.567649
1253.000000	78.477078
1252.000000	78.401234
1251.000000	78.325739
1250.000000	78.246881
1249.000000	78.141350
1248.000000	78.034196
1247.000000	77.898861
1246.000000	77.776515
1245.000000	77.634338
1244.000000	77.514543
1243.000000	77.376889
1242.000000	77.224043
1241.000000	77.063775
1240.000000	76.908610
1239.000000	76.766549
1238.000000	76.595380
1237.000000	76.434764
1236.000000	76.265683
1235.000000	76.099965
1234.000000	75.935406
1233.000000	75.740116
1232.000000	75.568251
1231.000000	75.373309
1230.000000	75.196458
1229.000000	74.991310
1228.000000	74.796484
1227.000000	74.615806
1226.000000	74.436055
1225.000000	74.246216
1224.000000	74.054752
1223.000000	73.848793
1222.000000	73.667419
1221.000000	73.496946
1220.000000	73.316384
1219.000000	73.157044
1218.000000	72.993529
1217.000000	72.839291
1216.000000	72.685866
1215.000000	72.539282
1214.000000	72.386320
1213.000000	72.264786
1212.000000	72.113447
1211.000000	71.977301
1210.000000	71.850664
1209.000000	71.753831
1208.000000	71.641342
1207.000000	71.555873
1206.000000	71.479334
1205.000000	71.415088
1204.000000	71.353393
1203.000000	71.314776
1202.000000	71.265141
1201.000000	71.200663
1200.000000	71.127487
1199.000000	71.014534
1198.000000	70.883606
1197.000000	70.710698
1196.000000	70.485372
1195.000000	70.205773
1194.000000	69.862740
1193.000000	69.450473
1192.000000	68.992168
1191.000000	68.500695
1190.000000	68.060829
1189.000000	67.691702
1188.000000	67.416974
1187.000000	67.288481
1186.000000	67.290453
1185.000000	67.435529
1184.000000	67.679989
1183.000000	68.112898
1182.000000	68.579670
1181.000000	69.123444
1180.000000	69.612597
1179.000000	70.111375
1178.000000	70.551822
1177.000000	70.915846
1176.000000	71.257371
1175.000000	71.557149
1174.000000	71.901690
1173.000000	72.219094
1172.000000	72.547516
1171.000000	72.899479
1170.000000	73.278578
1169.000000	73.645965
1168.000000	73.989115
1167.000000	74.366475
1166.000000	74.739312
1165.000000	75.123746
1164.000000	75.499830
1163.000000	75.859679
1162.000000	76.211874
1161.000000	76.582856
1160.000000	76.914176
1159.000000	77.263008
1158.000000	77.546782
1157.000000	77.826613
1156.000000	78.045908
1155.000000	78.222644
1154.000000	78.367720
1153.000000	78.437416
1152.000000	78.476730
1151.000000	78.488674
1150.000000	78.503170
1149.000000	78.510476
1148.000000	78.557559
1147.000000	78.611948
1146.000000	78.723742
1145.000000	78.899665
1144.000000	79.101333
1143.000000	79.365741
1142.000000	79.643136
1141.000000	79.925750
1140.000000	80.220425
1139.000000	80.498632
1138.000000	80.818124
1137.000000	81.149677
1136.000000	81.451774
1135.000000	81.773469
1134.000000	82.039152
1133.000000	82.231079
1132.000000	82.476003
1131.000000	82.683238
1130.000000	82.856842
1129.000000	83.006093
1128.000000	83.130643
1127.000000	83.212516
1126.000000	83.304827
1125.000000	83.357128
1124.000000	83.389947
1123.000000	83.427057
1122.000000	83.449787
1121.000000	83.439466
1120.000000	83.454310
1119.000000	83.449903
1118.000000	83.434827
1117.000000	83.426941
1116.000000	83.394818
1115.000000	83.350402
1114.000000	83.310625
1113.000000	83.256816
1112.000000	83.234550
1111.000000	83.223881
1110.000000	83.179002
1109.000000	83.143747
1108.000000	83.130063
1107.000000	83.092373
1106.000000	83.059091
1105.000000	83.027779
1104.000000	82.990322
1103.000000	82.953908
1102.000000	82.902650
1101.000000	82.896851
1100.000000	82.848609
1099.000000	82.805932
1098.000000	82.750616
1097.000000	82.731829
1096.000000	82.678368
1095.000000	82.619456
1094.000000	82.582694
1093.000000	82.538974
1092.000000	82.503952
1091.000000	82.448519
1090.000000	82.384157
1089.000000	82.321534
1088.000000	82.275842
1087.000000	82.231195
1086.000000	82.166948
1085.000000	82.094932
1084.000000	82.039963
1083.000000	81.994388
1082.000000	81.945565
1081.000000	81.876912
1080.000000	81.816725
1079.000000	81.777064
1078.000000	81.741230
1077.000000	81.676752
1076.000000	81.602416
1075.000000	81.555217
1074.000000	81.494914
1073.000000	81.441916
1072.000000	81.374887
1071.000000	81.313888
1070.000000	81.257295
1069.000000	81.203486
1068.000000	81.142023
1067.000000	81.078820
1066.000000	81.003789
1065.000000	80.930497
1064.000000	80.872629
1063.000000	80.813254
1062.000000	80.736251
1061.000000	80.657045
1060.000000	80.582245
1059.000000	80.515912
1058.000000	80.435778
1057.000000	80.356571
1056.000000	80.277597
1055.000000	80.194216
1054.000000	80.114546
1053.000000	80.030121
1052.000000	79.955786
1051.000000	79.862548
1050.000000	79.800273
1049.000000	79.746116
1048.000000	79.657864
1047.000000	79.575295
1046.000000	79.515339
1045.000000	79.432538
1044.000000	79.368408
1043.000000	79.298247
1042.000000	79.214054
1041.000000	79.140647
1040.000000	79.063644
1039.000000	78.986873
1038.000000	78.905231
1037.000000	78.817560
1036.000000	78.736962
1035.000000	78.651146
1034.000000	78.557675
1033.000000	78.490646
1032.000000	78.405757
1031.000000	78.301386
1030.000000	78.208727
1029.000000	78.131609
1028.000000	78.046140
1027.000000	77.952902
1026.000000	77.871145
1025.000000	77.755408
1024.000000	77.648834
1023.000000	77.572991
1022.000000	77.496916
1021.000000	77.414346
1020.000000	77.327486
1019.000000	77.257094
1018.000000	77.182990
1017.000000	77.103320
1016.000000	77.048815
1015.000000	76.982365
1014.000000	76.914060
1013.000000	76.870224
1012.000000	76.844711
1011.000000	76.813400
1010.000000	76.778030
1009.000000	76.761794
1008.000000	76.735701
1007.000000	76.708101
1006.000000	76.707289
1005.000000	76.691866
1004.000000	76.661366
1003.000000	76.654060
1002.000000	76.632722
1001.000000	76.596772
1000.000000	76.578797
999.000000	76.561981
998.000000	76.573810
997.000000	76.549225
996.000000	76.510608
995.000000	76.497851
994.000000	76.511651
993.000000	76.506549
992.000000	76.478252
991.000000	76.459929
990.000000	76.445433
989.000000	76.453435
988.000000	76.439287
987.000000	76.428386
986.000000	76.440795
985.000000	76.417369
984.000000	76.398003
983.000000	76.405888
982.000000	76.410295
981.000000	76.373185
980.000000	76.373185
979.000000	76.371678
978.000000	76.331553
977.000000	76.324711
976.000000	76.333408
975.000000	76.303373
974.000000	76.260696
973.000000	76.275656
972.000000	76.245389
971.000000	76.239590
970.000000	76.219180
969.000000	76.196914
968.000000	76.181142
967.000000	76.176504
966.000000	76.132784
965.000000	76.110634
964.000000	76.094862
963.000000	76.116896
962.000000	76.077003
961.000000	76.074800
960.000000	76.066682
959.000000	76.031428
958.000000	76.043488
957.000000	76.018903
956.000000	76.021570
955.000000	75.960919
954.000000	75.951758
953.000000	75.925897
952.000000	75.918707
951.000000	75.910009
950.000000	75.876146
949.000000	75.823961
948.000000	75.822105
947.000000	75.821062
946.000000	75.783952
945.000000	75.770500
944.000000	75.753568
943.000000	75.744291
942.000000	75.759019
941.000000	75.711588
940.000000	75.688742
939.000000	75.676681
938.000000	75.686191
937.000000	75.669607
936.000000	75.725968
935.000000	75.715299
934.000000	75.716806
933.000000	75.728519
932.000000	75.738840
931.000000	75.779545
930.000000	75.754264
929.000000	75.802855
928.000000	75.796476
927.000000	75.802159
926.000000	75.812132
925.000000	75.811784
924.000000	75.823033
923.000000	75.883568
922.000000	75.880785
921.000000	75.880901
920.000000	75.899340
919.000000	75.930767
918.000000	75.920446
917.000000	75.927172
916.000000	75.917083
915.000000	75.902123
914.000000	75.893890
913.000000	75.998841
912.000000	75.954889
911.000000	75.940161
910.000000	75.958484
909.000000	75.977039
908.000000	75.978198
907.000000	75.988751
906.000000	76.027485
905.000000	76.043952
904.000000	76.054041
903.000000	76.103908
902.000000	76.144960
901.000000	76.125246
900.000000	76.167574
899.000000	76.155050
898.000000	76.170937
897.000000	76.103096
896.000000	76.086396
895.000000	76.085005
894.000000	76.092195
893.000000	76.036878
892.000000	76.053925
891.000000	75.961499
890.000000	75.824541
889.000000	75.768180
888.000000	75.720981
887.000000	75.527662
886.000000	75.469446
885.000000	75.377020
884.000000	75.229161
883.000000	75.037118
882.000000	74.873255
881.000000	74.637840
880.000000	74.485110
879.000000	74.273932
878.000000	73.959195
877.000000	73.743378
876.000000	73.409390
875.000000	73.136518
874.000000	72.768435
873.000000	72.469817
872.000000	72.052100
871.000000	71.656070
870.000000	71.065328
869.000000	70.442232
868.000000	69.756861
867.000000	69.146521
866.000000	68.479821
865.000000	68.140730
864.000000	68.105708
863.000000	68.161721
862.000000	68.247885
861.000000	68.327671
860.000000	68.365940
859.000000	68.406181
858.000000	70.428200
857.000000	70.473000
856.000000	70.520300
855.000000	70.291300
854.000000	70.556500
853.000000	70.966900
852.000000	70.565600
851.000000	70.486700
850.000000	70.674000
849.000000	70.783900
848.000000	70.736300
847.000000	70.366400
846.000000	70.663300
845.000000	70.831400
844.000000	70.805800
843.000000	70.845600
842.000000	70.870300
841.000000	70.935400
840.000000	70.834300
839.000000	70.861700
838.000000	70.647700
837.000000	70.692400
836.000000	70.739300
835.000000	70.818300
834.000000	70.909600
833.000000	70.805000
832.000000	70.467400
831.000000	70.500500
830.000000	70.359300
829.000000	70.299800
828.000000	70.208800
827.000000	70.262100
826.000000	70.082800
825.000000	70.030200
824.000000	69.834600
823.000000	69.851800
822.000000	69.785000
821.000000	69.728100
820.000000	69.660500
819.000000	69.504400
818.000000	69.401300
817.000000	69.367200
816.000000	69.206400
815.000000	69.349900
814.000000	69.121400
813.000000	68.939100
812.000000	69.047500
811.000000	68.875700
810.000000	68.787700
809.000000	68.673700
808.000000	68.525900
807.000000	68.461000
806.000000	68.442400
805.000000	68.439500
804.000000	68.341200
803.000000	68.268100
802.000000	68.304800
801.000000	68.133000
800.000000	68.061800
799.000000	67.932200
798.000000	68.008500
797.000000	67.904800
796.000000	67.710700
795.000000	67.702000
794.000000	67.613400
793.000000	67.601500
792.000000	67.512800
791.000000	67.362000
790.000000	67.378000
789.000000	67.394900
788.000000	67.265300
787.000000	67.189900
786.000000	67.065400
785.000000	67.011600
784.000000	66.897000
783.000000	66.799100
782.000000	66.752700
781.000000	66.640700
780.000000	66.614900
779.000000	66.608200
778.000000	66.506700
777.000000	66.429200
776.000000	66.382800
775.000000	66.425900
774.000000	66.398900
773.000000	66.269600
772.000000	66.137000
771.000000	65.989600
770.000000	66.014800
769.000000	65.927100
768.000000	65.843400
767.000000	65.791200
766.000000	65.686100
765.000000	65.644100
764.000000	65.666300
763.000000	65.597100
762.000000	65.419400
761.000000	65.309200
760.000000	65.262500
759.000000	65.192400
758.000000	65.103300
757.000000	64.988300
756.000000	64.947500
755.000000	64.929800
754.000000	64.807700
753.000000	64.685400
752.000000	64.589500
751.000000	64.511300
750.000000	64.395800
749.000000	64.294100
748.000000	64.215400
747.000000	64.136900
746.000000	64.084800
745.000000	63.991600
744.000000	63.906500
743.000000	63.800700
742.000000	63.717900
741.000000	63.692600
740.000000	63.642300
739.000000	63.636000
738.000000	63.567700
737.000000	63.514200
736.000000	63.426400
735.000000	63.314500
734.000000	63.326600
733.000000	63.342900
732.000000	63.244700
731.000000	63.182900
730.000000	63.129000
729.000000	63.119600
728.000000	63.116700
727.000000	63.079300
726.000000	63.054700
725.000000	63.021500
724.000000	62.990400
723.000000	62.939200
722.000000	62.961000
721.000000	62.977400
720.000000	62.923700
719.000000	62.862300
718.000000	62.770100
717.000000	62.772500
716.000000	62.772700
715.000000	62.686500
714.000000	62.628900
713.000000	62.595500
712.000000	62.528800
711.000000	62.438300
710.000000	62.400400
709.000000	62.336200
708.000000	62.227100
707.000000	62.186600
706.000000	62.124400
705.000000	62.044400
704.000000	61.970500
703.000000	61.918000
702.000000	61.784700
701.000000	61.691000
700.000000	61.617900
699.000000	61.437600
698.000000	61.234200
697.000000	61.098700
696.000000	60.944300
695.000000	60.843100
694.000000	60.690800
693.000000	60.528100
692.000000	60.369900
691.000000	60.160300
690.000000	59.944100
689.000000	59.771700
688.000000	59.610900
687.000000	59.416000
686.000000	59.220900
685.000000	59.034700
684.000000	58.835500
683.000000	58.673500
682.000000	58.518700
681.000000	58.280700
680.000000	58.068600
679.000000	57.874600
678.000000	57.745100
677.000000	57.561900
676.000000	57.414100
675.000000	57.232300
674.000000	57.092900
673.000000	56.978400
672.000000	56.844300
671.000000	56.705300
670.000000	56.649100
669.000000	56.538700
668.000000	56.376100
667.000000	56.304800
666.000000	56.235300
665.000000	56.167600
664.000000	56.082100
663.000000	56.027400
662.000000	55.970600
661.000000	55.921900
660.000000	55.837100
659.000000	55.763700
658.000000	55.720900
657.000000	55.630300
656.000000	55.595500
655.000000	55.533200
654.000000	55.439000
653.000000	55.404500
652.000000	55.290200
651.000000	55.189800
650.000000	55.089900
649.000000	54.997400
648.000000	54.864200
647.000000	54.748200
646.000000	54.644300
645.000000	54.452400
644.000000	54.345800
643.000000	54.123600
642.000000	53.897900
641.000000	53.695100
640.000000	53.483200
639.000000	53.196100
638.000000	52.922000
637.000000	52.628600
636.000000	52.359100
635.000000	52.061400
634.000000	51.812900
633.000000	51.527100
632.000000	51.323500
631.000000	51.107400
630.000000	50.897900
629.000000	50.713200
628.000000	50.515400
627.000000	50.439300
626.000000	50.352800
625.000000	50.289600
624.000000	50.313100
623.000000	50.335700
622.000000	50.461800
621.000000	50.629500
620.000000	50.747100
619.000000	50.948700
618.000000	51.222600
617.000000	51.533100
616.000000	51.868500
615.000000	52.203200
614.000000	52.619400
613.000000	53.115700
612.000000	53.589100
611.000000	54.133500
610.000000	54.679300
609.000000	55.213200
608.000000	55.830800
607.000000	56.409600
606.000000	57.089800
605.000000	57.713400
604.000000	58.402900
603.000000	59.039000
602.000000	59.743100
601.000000	60.333400
600.000000	60.983600
599.000000	61.546900
598.000000	62.120900
597.000000	62.622600
596.000000	63.171200
595.000000	63.622800
594.000000	64.119200
593.000000	64.520700
592.000000	64.909700
591.000000	65.307300
590.000000	65.639700
589.000000	66.014400
588.000000	66.379600
587.000000	66.716800
586.000000	67.108500
585.000000	67.433600
584.000000	67.807100
583.000000	68.190700
582.000000	68.542600
581.000000	68.939900
580.000000	69.325500
579.000000	69.762300
578.000000	70.124000
577.000000	70.470200
576.000000	70.848000
575.000000	71.170400
574.000000	71.450700
573.000000	71.730700
572.000000	72.055700
571.000000	72.212900
570.000000	72.388100
569.000000	72.512600
568.000000	72.604600
567.000000	72.642100
566.000000	72.656100
565.000000	72.684700
564.000000	72.669500
563.000000	72.591900
562.000000	72.588700
561.000000	72.559500
560.000000	72.490600
559.000000	72.512800
558.000000	72.493900
557.000000	72.459100
556.000000	72.463700
555.000000	72.414100
554.000000	72.362000
553.000000	72.273000
552.000000	72.194900
551.000000	72.017800
550.000000	71.877500
549.000000	71.655300
548.000000	71.415300
547.000000	71.132100
546.000000	70.761700
545.000000	70.373200
544.000000	70.021700
543.000000	69.602200
542.000000	69.127600
541.000000	68.661100
540.000000	68.126600
539.000000	67.597300
538.000000	67.054900
537.000000	66.455500
536.000000	65.801900
535.000000	65.115600
534.000000	64.410600
533.000000	63.604800
532.000000	62.792000
531.000000	61.934500
530.000000	61.018300
529.000000	60.087500
528.000000	59.116600
527.000000	58.144200
526.000000	57.161300
525.000000	56.137100
524.000000	55.128100
523.000000	54.097100
522.000000	53.050100
521.000000	52.030100
520.000000	51.012100
519.000000	50.032400
518.000000	49.045800
517.000000	48.086400
516.000000	47.099400
515.000000	46.147900
514.000000	45.203800
513.000000	44.280100
512.000000	43.355300
511.000000	42.435400
510.000000	41.570200
509.000000	40.706400
508.000000	39.850700
507.000000	39.038000
506.000000	38.255400
505.000000	37.473000
504.000000	36.727900
503.000000	35.980700
502.000000	35.268200
501.000000	34.583400
500.000000	33.931200
499.000000	33.294500
498.000000	32.685100
497.000000	32.106200
496.000000	31.563200
495.000000	31.019000
494.000000	30.482200
493.000000	29.964200
492.000000	29.480600
491.000000	29.000100
490.000000	28.509700
489.000000	28.047100
488.000000	27.588200
487.000000	27.166100
486.000000	26.727200
485.000000	26.304900
484.000000	25.907800
483.000000	25.503100
482.000000	25.119100
481.000000	24.746200
480.000000	24.382100
479.000000	24.026800
478.000000	23.686900
477.000000	23.377000
476.000000	23.058600
475.000000	22.750000
474.000000	22.462000
473.000000	22.164600
472.000000	21.871800
471.000000	21.579500
470.000000	21.298100
469.000000	21.004500
468.000000	20.676500
467.000000	20.361100
466.000000	20.072100
465.000000	19.769500
464.000000	19.442500
463.000000	19.123800
462.000000	18.820800
461.000000	18.531200
460.000000	18.216500
459.000000	17.896700
458.000000	17.621500
457.000000	17.355700
456.000000	17.084300
455.000000	16.820400
454.000000	16.561200
453.000000	16.315300
452.000000	16.100100
451.000000	15.896400
450.000000	15.693300
449.000000	15.495200
448.000000	15.313700
447.000000	15.149700
446.000000	15.008500
445.000000	14.866500
444.000000	14.716100
443.000000	14.609600
442.000000	14.524100
441.000000	14.438600
440.000000	14.355700
439.000000	14.281400
438.000000	14.223500
437.000000	14.168200
436.000000	14.118900
435.000000	14.086100
434.000000	14.043600
433.000000	14.000000
432.000000	13.949900
431.000000	13.913600
430.000000	13.881300
429.000000	13.835100
428.000000	13.796600
427.000000	13.749600
426.000000	13.696900
425.000000	13.651300
424.000000	13.586000
423.000000	13.532900
422.000000	13.467000
421.000000	13.401400
420.000000	13.359300
419.000000	13.305600
418.000000	13.238900
417.000000	13.165600
416.000000	13.076400
415.000000	12.975600
414.000000	12.886700
413.000000	12.794600
412.000000	12.672200
411.000000	12.549100
410.000000	12.451000
409.000000	12.361900
408.000000	12.251200
407.000000	12.092400
406.000000	11.950500
405.000000	11.810100
404.000000	11.649600
403.000000	11.508500
402.000000	11.356100
401.000000	11.183800
400.000000	11.029900
399.000000	10.866500
398.000000	10.690000
397.000000	10.497800
396.000000	10.335500
395.000000	10.150200
394.000000	9.952100
393.000000	9.764000
392.000000	9.591100
391.000000	9.389700
390.000000	9.186100
389.000000	9.007900
388.000000	8.834700
387.000000	8.659900
386.000000	8.493500
385.000000	8.323400
384.000000	8.145200
383.000000	7.971900
382.000000	7.831600
381.000000	7.691500
380.000000	7.536300
379.000000	7.396500
378.000000	7.279400
377.000000	7.149000
376.000000	6.976400
375.000000	6.622200
374.000000	6.512900
373.000000	6.443900
372.000000	6.358800
371.000000	6.357200
370.000000	6.299100
369.000000	6.372800
368.000000	6.274300
367.000000	6.166100
366.000000	6.039700
365.000000	6.143000
364.000000	6.180400
363.000000	5.945800
362.000000	5.960400
361.000000	5.981300
360.000000	5.903900
359.000000	5.813800
358.000000	5.925100
357.000000	5.826700
356.000000	5.834800
355.000000	5.876000
354.000000	5.888500
353.000000	5.733600
352.000000	5.764600
351.000000	5.788400
350.000000	5.750000
349.000000	5.717600
348.000000	5.711400
347.000000	5.749500
346.000000	5.765500
345.000000	5.833200
344.000000	5.616800
343.000000	5.751000
342.000000	5.620500
341.000000	5.742800
340.000000	5.645800
339.000000	5.602500
338.000000	5.672300
337.000000	5.835300
336.000000	5.874500
335.000000	5.811800
334.000000	5.911500
333.000000	5.894500
332.000000	5.935000
331.000000	5.934800
330.000000	5.766700
329.000000	5.758000
328.000000	5.884400
327.000000	5.886100
326.000000	5.740300
325.000000	5.833400
324.000000	5.849500
323.000000	6.047500
322.000000	6.135000
321.000000	5.961400
320.000000	6.216800
319.000000	5.897100
318.000000	6.009900
317.000000	6.826500
316.000000	5.692700
315.000000	5.618100
314.000000	5.648500
313.000000	5.610000
312.000000	5.566800
311.000000	5.608100
310.000000	5.631300
309.000000	5.574400
308.000000	5.623600
307.000000	5.645000
306.000000	5.666800
305.000000	5.657300
304.000000	5.678500
303.000000	5.693400
302.000000	5.723100
301.000000	5.730000
300.000000	5.666400
299.000000	5.701300
298.000000	5.647200
297.000000	5.736200
296.000000	5.772300
295.000000	5.722000
294.000000	5.738700
293.000000	5.782600
292.000000	5.726500
291.000000	5.795300
290.000000	5.807500
289.000000	5.779000
288.000000	5.764000
287.000000	5.795900
286.000000	5.735700
285.000000	5.753000
284.000000	5.748000
283.000000	5.722900
282.000000	5.777200
281.000000	5.839300
280.000000	5.841600
279.000000	5.883200
278.000000	5.826900
277.000000	5.850500
276.000000	5.869300
275.000000	5.868400
274.000000	5.960100
273.000000	5.879600
272.000000	5.890900
271.000000	5.966700
270.000000	5.956800
269.000000	5.949000
268.000000	5.992500
267.000000	6.064200
266.000000	6.014900
265.000000	6.065200
264.000000	6.113900
263.000000	6.163300
262.000000	6.109100
261.000000	6.189800
260.000000	6.245000
259.000000	6.268800
258.000000	6.244000
257.000000	6.270700
256.000000	6.281200
255.000000	6.299700
254.000000	6.323300
253.000000	6.341700
252.000000	6.385900
251.000000	6.400900
250.000000	6.429900
