PE UV       SUBTECH     SPECTRUM    ASCII       PEDS        4.00        
   -1
CICIMAUCR0098-1.Sample.ASC
24/04/17
15:24:50.00
24/04/17
15:24:50.00
Vinicio Soto Monge
C. cupreomarginata
250,000000
1
Lambda 1050
1050L1511233
PerkinElmer UV WinLab 6.3.2.0749 / 2.02.05 Lambda 900 UV/VIS/NIR, Aug  7 2015 09:38:08

0
0
3350/servo 860,8/2
0
0
UV/VIS
1
1
1
DoubleDePol,CommonBeamDepol,RBeamAtt,SBeamAtt,60mm sphere, WB InGaAs Detector
0
0
0
0
Program
Program
3350/servo 860,8/2
3350/0,2 860,8/0,2
3350/0,2 860,8/0,2
0
15.00
 
 
 
0
 
860,8
319,2
860,8
Front
100
on
S:100 R:100
0
0
0
0
 
0
 
 
 
0
 
 
0
0
0
0
0
 
 
 
 
0
0


0
0
#HDR
-1
-1
#GR
nm
%R
1.0
0.0
2500,000000
-1,000000
2251
8
65,024400
5,292200
#DATA
2500.000000	7.058642
2499.000000	7.000931
2498.000000	7.038772
2497.000000	7.055147
2496.000000	7.119547
2495.000000	6.968681
2494.000000	6.921055
2493.000000	6.917461
2492.000000	6.946915
2491.000000	6.873629
2490.000000	6.913167
2489.000000	6.876025
2488.000000	6.874028
2487.000000	6.967882
2486.000000	6.852162
2485.000000	6.922054
2484.000000	6.910372
2483.000000	6.943720
2482.000000	6.934235
2481.000000	6.884013
2480.000000	6.906278
2479.000000	6.875027
2478.000000	6.862446
2477.000000	6.906977
2476.000000	6.860649
2475.000000	6.884312
2474.000000	6.877323
2473.000000	6.922353
2472.000000	6.870434
2471.000000	6.919158
2470.000000	6.894197
2469.000000	6.903782
2468.000000	6.919158
2467.000000	6.893897
2466.000000	6.957998
2465.000000	6.937230
2464.000000	6.954304
2463.000000	6.968981
2462.000000	6.980762
2461.000000	7.037874
2460.000000	6.993443
2459.000000	7.044663
2458.000000	7.075515
2457.000000	7.101076
2456.000000	7.123641
2455.000000	7.160384
2454.000000	7.197426
2453.000000	7.244553
2452.000000	7.273808
2451.000000	7.310251
2450.000000	7.331518
2449.000000	7.388430
2448.000000	7.453229
2447.000000	7.459819
2446.000000	7.500655
2445.000000	7.541891
2444.000000	7.580731
2443.000000	7.629855
2442.000000	7.679278
2441.000000	7.697050
2440.000000	7.755060
2439.000000	7.794899
2438.000000	7.823654
2437.000000	7.874575
2436.000000	7.902531
2435.000000	7.909820
2434.000000	7.950757
2433.000000	7.999281
2432.000000	8.033428
2431.000000	8.056892
2430.000000	8.078658
2429.000000	8.097229
2428.000000	8.136468
2427.000000	8.147651
2426.000000	8.167221
2425.000000	8.192082
2424.000000	8.228126
2423.000000	8.233617
2422.000000	8.263172
2421.000000	8.288732
2420.000000	8.281743
2419.000000	8.256282
2418.000000	8.251789
2417.000000	8.264869
2416.000000	8.266966
2415.000000	8.275552
2414.000000	8.280644
2413.000000	8.303709
2412.000000	8.305106
2411.000000	8.320682
2410.000000	8.324377
2409.000000	8.329568
2408.000000	8.327771
2407.000000	8.346942
2406.000000	8.356926
2405.000000	8.367709
2404.000000	8.365513
2403.000000	8.375297
2402.000000	8.385781
2401.000000	8.399061
2400.000000	8.398761
2399.000000	8.415635
2398.000000	8.435005
2397.000000	8.441495
2396.000000	8.448783
2395.000000	8.445688
2394.000000	8.449482
2393.000000	8.465358
2392.000000	8.471748
2391.000000	8.481732
2390.000000	8.487823
2389.000000	8.495211
2388.000000	8.505096
2387.000000	8.508790
2386.000000	8.513183
2385.000000	8.519773
2384.000000	8.522669
2383.000000	8.513084
2382.000000	8.491018
2381.000000	8.496809
2380.000000	8.494912
2379.000000	8.465458
2378.000000	8.458269
2377.000000	8.473245
2376.000000	8.451280
2375.000000	8.433707
2374.000000	8.437102
2373.000000	8.411841
2372.000000	8.402056
2371.000000	8.388577
2370.000000	8.358324
2369.000000	8.344745
2368.000000	8.318785
2367.000000	8.301512
2366.000000	8.286435
2365.000000	8.255683
2364.000000	8.226429
2363.000000	8.196974
2362.000000	8.169317
2361.000000	8.131476
2360.000000	8.084050
2359.000000	8.050302
2358.000000	8.017952
2357.000000	7.985503
2356.000000	7.969627
2355.000000	7.950457
2354.000000	7.932984
2353.000000	7.923898
2352.000000	7.916809
2351.000000	7.913514
2350.000000	7.912216
2349.000000	7.922500
2348.000000	7.933384
2347.000000	7.953153
2346.000000	7.981309
2345.000000	8.005571
2344.000000	8.028835
2343.000000	8.044211
2342.000000	8.064480
2341.000000	8.081454
2340.000000	8.096830
2339.000000	8.121991
2338.000000	8.123988
2337.000000	8.117498
2336.000000	8.113704
2335.000000	8.093535
2334.000000	8.090540
2333.000000	8.098128
2332.000000	8.080855
2331.000000	8.065878
2330.000000	8.044112
2329.000000	8.010364
2328.000000	7.976816
2327.000000	7.938476
2326.000000	7.904528
2325.000000	7.871679
2324.000000	7.841027
2323.000000	7.809176
2322.000000	7.762748
2321.000000	7.716520
2320.000000	7.661106
2319.000000	7.601698
2318.000000	7.553673
2317.000000	7.507844
2316.000000	7.461416
2315.000000	7.408299
2314.000000	7.350089
2313.000000	7.287287
2312.000000	7.252840
2311.000000	7.216297
2310.000000	7.183548
2309.000000	7.137220
2308.000000	7.121544
2307.000000	7.109662
2306.000000	7.103272
2305.000000	7.084202
2304.000000	7.100377
2303.000000	7.111460
2302.000000	7.139816
2301.000000	7.156590
2300.000000	7.193332
2299.000000	7.245152
2298.000000	7.288684
2297.000000	7.327724
2296.000000	7.379843
2295.000000	7.425472
2294.000000	7.470602
2293.000000	7.501254
2292.000000	7.525816
2291.000000	7.537099
2290.000000	7.554472
2289.000000	7.568750
2288.000000	7.584026
2287.000000	7.584026
2286.000000	7.572943
2285.000000	7.571545
2284.000000	7.547483
2283.000000	7.532206
2282.000000	7.538996
2281.000000	7.495963
2280.000000	7.478889
2279.000000	7.455725
2278.000000	7.443045
2277.000000	7.438652
2276.000000	7.400211
2275.000000	7.384735
2274.000000	7.373852
2273.000000	7.362370
2272.000000	7.348292
2271.000000	7.353384
2270.000000	7.357877
2269.000000	7.371057
2268.000000	7.413091
2267.000000	7.423375
2266.000000	7.462315
2265.000000	7.528013
2264.000000	7.576038
2263.000000	7.654417
2262.000000	7.740783
2261.000000	7.832540
2260.000000	7.935181
2259.000000	8.043612
2258.000000	8.149947
2257.000000	8.279846
2256.000000	8.412739
2255.000000	8.526363
2254.000000	8.643381
2253.000000	8.775876
2252.000000	8.897986
2251.000000	9.021594
2250.000000	9.123935
2249.000000	9.218488
2248.000000	9.339101
2247.000000	9.412787
2246.000000	9.533000
2245.000000	9.607385
2244.000000	9.691754
2243.000000	9.776921
2242.000000	9.836928
2241.000000	9.893540
2240.000000	9.984200
2239.000000	10.019345
2238.000000	10.076257
2237.000000	10.117493
2236.000000	10.177400
2235.000000	10.214742
2234.000000	10.257076
2233.000000	10.282437
2232.000000	10.334755
2231.000000	10.345339
2230.000000	10.374194
2229.000000	10.401053
2228.000000	10.417527
2227.000000	10.444884
2226.000000	10.441689
2225.000000	10.433302
2224.000000	10.459662
2223.000000	10.458863
2222.000000	10.464654
2221.000000	10.479930
2220.000000	10.460760
2219.000000	10.459761
2218.000000	10.452473
2217.000000	10.447680
2216.000000	10.439792
2215.000000	10.440791
2214.000000	10.427012
2213.000000	10.398856
2212.000000	10.415031
2211.000000	10.396360
2210.000000	10.387474
2209.000000	10.376291
2208.000000	10.375093
2207.000000	10.350431
2206.000000	10.365508
2205.000000	10.363810
2204.000000	10.360815
2203.000000	10.365408
2202.000000	10.341345
2201.000000	10.331461
2200.000000	10.338649
2199.000000	10.314387
2198.000000	10.333058
2197.000000	10.325670
2196.000000	10.312989
2195.000000	10.300209
2194.000000	10.300509
2193.000000	10.305101
2192.000000	10.310094
2191.000000	10.302805
2190.000000	10.292221
2189.000000	10.279741
2188.000000	10.279441
2187.000000	10.258674
2186.000000	10.258174
2185.000000	10.266661
2184.000000	10.252283
2183.000000	10.247990
2182.000000	10.251185
2181.000000	10.241101
2180.000000	10.244595
2179.000000	10.243297
2178.000000	10.219634
2177.000000	10.236208
2176.000000	10.237207
2175.000000	10.241201
2174.000000	10.241500
2173.000000	10.229020
2172.000000	10.229020
2171.000000	10.242299
2170.000000	10.246592
2169.000000	10.252383
2168.000000	10.250386
2167.000000	10.271454
2166.000000	10.295716
2165.000000	10.304103
2164.000000	10.331261
2163.000000	10.347835
2162.000000	10.344840
2161.000000	10.348534
2160.000000	10.364609
2159.000000	10.385776
2158.000000	10.408441
2157.000000	10.411536
2156.000000	10.425714
2155.000000	10.455967
2154.000000	10.483724
2153.000000	10.510882
2152.000000	10.520267
2151.000000	10.534346
2150.000000	10.551319
2149.000000	10.562502
2148.000000	10.593354
2147.000000	10.605435
2146.000000	10.608131
2145.000000	10.646971
2144.000000	10.663645
2143.000000	10.654359
2142.000000	10.674428
2141.000000	10.688107
2140.000000	10.700887
2139.000000	10.712469
2138.000000	10.710272
2137.000000	10.714965
2136.000000	10.738728
2135.000000	10.747914
2134.000000	10.744519
2133.000000	10.755402
2132.000000	10.754005
2131.000000	10.739627
2130.000000	10.736632
2129.000000	10.742522
2128.000000	10.731340
2127.000000	10.724850
2126.000000	10.731240
2125.000000	10.720956
2124.000000	10.713567
2123.000000	10.697093
2122.000000	10.672731
2121.000000	10.660250
2120.000000	10.645872
2119.000000	10.609030
2118.000000	10.606334
2117.000000	10.609928
2116.000000	10.585167
2115.000000	10.559207
2114.000000	10.548224
2113.000000	10.528155
2112.000000	10.491113
2111.000000	10.477733
2110.000000	10.472342
2109.000000	10.448080
2108.000000	10.411536
2107.000000	10.398257
2106.000000	10.387174
2105.000000	10.356222
2104.000000	10.328465
2103.000000	10.329264
2102.000000	10.317382
2101.000000	10.284034
2100.000000	10.260770
2099.000000	10.250986
2098.000000	10.246992
2097.000000	10.230318
2096.000000	10.211447
2095.000000	10.193575
2094.000000	10.172607
2093.000000	10.151939
2092.000000	10.146448
2091.000000	10.144750
2090.000000	10.133967
2089.000000	10.113000
2088.000000	10.093630
2087.000000	10.082447
2086.000000	10.071564
2085.000000	10.054990
2084.000000	10.044506
2083.000000	10.041211
2082.000000	10.028231
2081.000000	10.020044
2080.000000	10.001573
2079.000000	9.973117
2078.000000	9.956043
2077.000000	9.940168
2076.000000	9.926989
2075.000000	9.912611
2074.000000	9.893441
2073.000000	9.892842
2072.000000	9.871674
2071.000000	9.854301
2070.000000	9.826544
2069.000000	9.811368
2068.000000	9.795093
2067.000000	9.791898
2066.000000	9.791599
2065.000000	9.778519
2064.000000	9.756853
2063.000000	9.734188
2062.000000	9.731592
2061.000000	9.739080
2060.000000	9.732590
2059.000000	9.730893
2058.000000	9.726200
2057.000000	9.729495
2056.000000	9.747667
2055.000000	9.753558
2054.000000	9.772928
2053.000000	9.790800
2052.000000	9.820055
2051.000000	9.869478
2050.000000	9.905522
2049.000000	9.933279
2048.000000	9.981704
2047.000000	10.028830
2046.000000	10.091333
2045.000000	10.167615
2044.000000	10.213144
2043.000000	10.269756
2042.000000	10.377289
2041.000000	10.415929
2040.000000	10.468747
2039.000000	10.545928
2038.000000	10.595251
2037.000000	10.645473
2036.000000	10.704382
2035.000000	10.764289
2034.000000	10.826692
2033.000000	10.873120
2032.000000	10.920047
2031.000000	10.967273
2030.000000	11.021290
2029.000000	11.053440
2028.000000	11.089484
2027.000000	11.140904
2026.000000	11.166963
2025.000000	11.200511
2024.000000	11.225373
2023.000000	11.261517
2022.000000	11.316232
2021.000000	11.329910
2020.000000	11.359365
2019.000000	11.406492
2018.000000	11.410086
2017.000000	11.447528
2016.000000	11.466998
2015.000000	11.484870
2014.000000	11.515422
2013.000000	11.519916
2012.000000	11.542680
2011.000000	11.556958
2010.000000	11.572434
2009.000000	11.578724
2008.000000	11.584515
2007.000000	11.577826
2006.000000	11.582119
2005.000000	11.580621
2004.000000	11.562350
2003.000000	11.571635
2002.000000	11.549370
2001.000000	11.538287
2000.000000	11.517120
1999.000000	11.509831
1998.000000	11.518118
1997.000000	11.473488
1996.000000	11.438142
1995.000000	11.423665
1994.000000	11.374941
1993.000000	11.361661
1992.000000	11.333305
1991.000000	11.313636
1990.000000	11.273099
1989.000000	11.234858
1988.000000	11.215388
1987.000000	11.163269
1986.000000	11.121634
1985.000000	11.092180
1984.000000	11.054538
1983.000000	11.015798
1982.000000	10.955492
1981.000000	10.940715
1980.000000	10.912059
1979.000000	10.855447
1978.000000	10.830086
1977.000000	10.805824
1976.000000	10.728045
1975.000000	10.709673
1974.000000	10.631894
1973.000000	10.615619
1972.000000	10.602340
1971.000000	10.558408
1970.000000	10.514776
1969.000000	10.486320
1968.000000	10.456267
1967.000000	10.427711
1966.000000	10.384478
1965.000000	10.350132
1964.000000	10.326868
1963.000000	10.301807
1962.000000	10.234711
1961.000000	10.236408
1960.000000	10.180195
1959.000000	10.161225
1958.000000	10.130672
1957.000000	10.087439
1956.000000	10.088038
1955.000000	10.048200
1954.000000	9.995582
1953.000000	9.970621
1952.000000	9.971519
1951.000000	9.947856
1950.000000	9.907818
1949.000000	9.900829
1948.000000	9.872273
1947.000000	9.860691
1946.000000	9.833434
1945.000000	9.816660
1944.000000	9.805277
1943.000000	9.783312
1942.000000	9.783112
1941.000000	9.802781
1940.000000	9.803880
1939.000000	9.804579
1938.000000	9.813864
1937.000000	9.818257
1936.000000	9.819955
1935.000000	9.851905
1934.000000	9.864186
1933.000000	9.890046
1932.000000	9.928087
1931.000000	9.975613
1930.000000	9.999776
1929.000000	10.054191
1928.000000	10.106410
1927.000000	10.171110
1926.000000	10.220133
1925.000000	10.278842
1924.000000	10.347236
1923.000000	10.405745
1922.000000	10.506589
1921.000000	10.597148
1920.000000	10.695995
1919.000000	10.782960
1918.000000	10.879011
1917.000000	10.967473
1916.000000	11.062226
1915.000000	11.160474
1914.000000	11.283882
1913.000000	11.432052
1912.000000	11.568141
1911.000000	11.690950
1910.000000	11.814558
1909.000000	11.907514
1908.000000	12.023134
1907.000000	12.171803
1906.000000	12.321471
1905.000000	12.527851
1904.000000	12.704976
1903.000000	12.841164
1902.000000	12.977153
1901.000000	13.146690
1900.000000	13.341188
1899.000000	13.529396
1898.000000	13.711114
1897.000000	13.896726
1896.000000	14.046094
1895.000000	14.194963
1894.000000	14.364599
1893.000000	14.537431
1892.000000	14.746007
1891.000000	14.983938
1890.000000	15.214380
1889.000000	15.405383
1888.000000	15.626840
1887.000000	15.844002
1886.000000	16.079736
1885.000000	16.369187
1884.000000	16.720641
1883.000000	17.103148
1882.000000	17.468980
1881.000000	17.830119
1880.000000	18.181474
1879.000000	18.516653
1878.000000	18.881287
1877.000000	19.232043
1876.000000	19.550249
1875.000000	19.861266
1874.000000	20.157805
1873.000000	20.433577
1872.000000	20.687283
1871.000000	20.914630
1870.000000	21.115019
1869.000000	21.304825
1868.000000	21.462779
1867.000000	21.559729
1866.000000	21.650488
1865.000000	21.705403
1864.000000	21.738851
1863.000000	21.767107
1862.000000	21.811139
1861.000000	21.850078
1860.000000	21.890316
1859.000000	21.916675
1858.000000	21.921068
1857.000000	21.907789
1856.000000	21.859663
1855.000000	21.820224
1854.000000	21.801254
1853.000000	21.742944
1852.000000	21.676148
1851.000000	21.601963
1850.000000	21.523585
1849.000000	21.475560
1848.000000	21.459285
1847.000000	21.402673
1846.000000	21.324794
1845.000000	21.222253
1844.000000	21.135188
1843.000000	21.092055
1842.000000	21.093253
1841.000000	21.098345
1840.000000	21.064198
1839.000000	21.000896
1838.000000	20.957364
1837.000000	20.915928
1836.000000	20.859915
1835.000000	20.805600
1834.000000	20.721031
1833.000000	20.631570
1832.000000	20.541010
1831.000000	20.468623
1830.000000	20.398631
1829.000000	20.329339
1828.000000	20.250162
1827.000000	20.166991
1826.000000	20.109181
1825.000000	20.044781
1824.000000	19.972094
1823.000000	19.913884
1822.000000	19.909890
1821.000000	19.907893
1820.000000	19.894913
1819.000000	19.859269
1818.000000	19.820329
1817.000000	19.791075
1816.000000	19.784585
1815.000000	19.781190
1814.000000	19.774500
1813.000000	19.769408
1812.000000	19.741751
1811.000000	19.720384
1810.000000	19.690331
1809.000000	19.654786
1808.000000	19.619042
1807.000000	19.583297
1806.000000	19.551247
1805.000000	19.506117
1804.000000	19.445212
1803.000000	19.390596
1802.000000	19.356749
1801.000000	19.331288
1800.000000	19.294146
1799.000000	19.237035
1798.000000	19.180223
1797.000000	19.142681
1796.000000	19.103342
1795.000000	19.063904
1794.000000	19.001101
1793.000000	18.938299
1792.000000	18.916333
1791.000000	18.877693
1790.000000	18.823776
1789.000000	18.761074
1788.000000	18.710852
1787.000000	18.649147
1786.000000	18.579356
1785.000000	18.516154
1784.000000	18.423598
1783.000000	18.362992
1782.000000	18.303983
1781.000000	18.222909
1780.000000	18.143133
1779.000000	18.080430
1778.000000	18.005347
1777.000000	17.919181
1776.000000	17.836110
1775.000000	17.741357
1774.000000	17.650698
1773.000000	17.536475
1772.000000	17.423550
1771.000000	17.302838
1770.000000	17.194606
1769.000000	17.097456
1768.000000	16.997512
1767.000000	16.923826
1766.000000	16.847744
1765.000000	16.769566
1764.000000	16.734919
1763.000000	16.719044
1762.000000	16.729628
1761.000000	16.773859
1760.000000	16.828474
1759.000000	16.891876
1758.000000	16.936107
1757.000000	17.008495
1756.000000	17.053225
1755.000000	17.105244
1754.000000	17.136396
1753.000000	17.131703
1752.000000	17.121120
1751.000000	17.125613
1750.000000	17.088570
1749.000000	17.037849
1748.000000	16.984632
1747.000000	16.948887
1746.000000	16.847445
1745.000000	16.746601
1744.000000	16.621196
1743.000000	16.477120
1742.000000	16.320463
1741.000000	16.149828
1740.000000	15.963717
1739.000000	15.788089
1738.000000	15.629635
1737.000000	15.478769
1736.000000	15.367243
1735.000000	15.293058
1734.000000	15.268596
1733.000000	15.278181
1732.000000	15.315323
1731.000000	15.362849
1730.000000	15.423056
1729.000000	15.519806
1728.000000	15.643114
1727.000000	15.739465
1726.000000	15.822136
1725.000000	15.896421
1724.000000	15.935361
1723.000000	15.963717
1722.000000	15.991473
1721.000000	15.985583
1720.000000	15.994169
1719.000000	16.022425
1718.000000	16.019230
1717.000000	16.044990
1716.000000	16.082133
1715.000000	16.126564
1714.000000	16.156717
1713.000000	16.209136
1712.000000	16.258559
1711.000000	16.281124
1710.000000	16.297498
1709.000000	16.291508
1708.000000	16.279726
1707.000000	16.265348
1706.000000	16.237991
1705.000000	16.195457
1704.000000	16.161010
1703.000000	16.090520
1702.000000	16.026120
1701.000000	15.927872
1700.000000	15.819640
1699.000000	15.689942
1698.000000	15.586203
1697.000000	15.495344
1696.000000	15.410475
1695.000000	15.405184
1694.000000	15.442027
1693.000000	15.490751
1692.000000	15.616156
1691.000000	15.748551
1690.000000	15.854386
1689.000000	15.958624
1688.000000	16.023324
1687.000000	16.029614
1686.000000	16.044391
1685.000000	16.047786
1684.000000	16.085128
1683.000000	16.222016
1682.000000	16.429493
1681.000000	16.750096
1680.000000	17.134799
1679.000000	17.579308
1678.000000	18.050976
1677.000000	18.498581
1676.000000	18.893668
1675.000000	19.264392
1674.000000	19.584196
1673.000000	19.826220
1672.000000	20.057761
1671.000000	20.261844
1670.000000	20.430282
1669.000000	20.579251
1668.000000	20.712844
1667.000000	20.904846
1666.000000	20.977133
1665.000000	21.076878
1664.000000	21.140779
1663.000000	21.201585
1662.000000	21.231339
1661.000000	21.262990
1660.000000	21.312113
1659.000000	21.331184
1658.000000	21.342566
1657.000000	21.352051
1656.000000	21.350054
1655.000000	21.355146
1654.000000	21.338073
1653.000000	21.323995
1652.000000	21.309717
1651.000000	21.272974
1650.000000	21.243620
1649.000000	21.207076
1648.000000	21.187107
1647.000000	21.131893
1646.000000	21.075580
1645.000000	21.011081
1644.000000	20.957364
1643.000000	20.918524
1642.000000	20.866305
1641.000000	20.801007
1640.000000	20.725125
1639.000000	20.697867
1638.000000	20.619389
1637.000000	20.570964
1636.000000	20.503768
1635.000000	20.456242
1634.000000	20.378463
1633.000000	20.312266
1632.000000	20.231092
1631.000000	20.170885
1630.000000	20.086616
1629.000000	19.997754
1628.000000	19.928661
1627.000000	19.862264
1626.000000	19.789477
1625.000000	19.717289
1624.000000	19.644902
1623.000000	19.572814
1622.000000	19.502922
1621.000000	19.448407
1620.000000	19.358846
1619.000000	19.277272
1618.000000	19.218863
1617.000000	19.159655
1616.000000	19.110332
1615.000000	19.031654
1614.000000	18.967254
1613.000000	18.899159
1612.000000	18.837355
1611.000000	18.782241
1610.000000	18.722534
1609.000000	18.663026
1608.000000	18.616598
1607.000000	18.553097
1606.000000	18.495486
1605.000000	18.433982
1604.000000	18.386755
1603.000000	18.343123
1602.000000	18.276925
1601.000000	18.224307
1600.000000	18.189960
1599.000000	18.137941
1598.000000	18.083625
1597.000000	18.033204
1596.000000	17.994564
1595.000000	17.947936
1594.000000	17.909496
1593.000000	17.874350
1592.000000	17.835511
1591.000000	17.798169
1590.000000	17.780895
1589.000000	17.762624
1588.000000	17.728177
1587.000000	17.705612
1586.000000	17.678654
1585.000000	17.646504
1584.000000	17.622641
1583.000000	17.619246
1582.000000	17.607365
1581.000000	17.583302
1580.000000	17.589692
1579.000000	17.598079
1578.000000	17.589892
1577.000000	17.590591
1576.000000	17.603770
1575.000000	17.608064
1574.000000	17.624738
1573.000000	17.627334
1572.000000	17.639715
1571.000000	17.677057
1570.000000	17.694629
1569.000000	17.719291
1568.000000	17.756633
1567.000000	17.782793
1566.000000	17.807953
1565.000000	17.841302
1564.000000	17.874151
1563.000000	17.889926
1562.000000	17.897315
1561.000000	17.922875
1560.000000	17.949633
1559.000000	17.963013
1558.000000	17.983181
1557.000000	18.002352
1556.000000	18.012536
1555.000000	18.016629
1554.000000	18.025815
1553.000000	18.036299
1552.000000	18.052574
1551.000000	18.057266
1550.000000	18.050876
1549.000000	18.039194
1548.000000	18.045684
1547.000000	18.052474
1546.000000	18.053872
1545.000000	18.053772
1544.000000	18.058664
1543.000000	18.076536
1542.000000	18.079532
1541.000000	18.076437
1540.000000	18.078633
1539.000000	18.081429
1538.000000	18.083026
1537.000000	18.072143
1536.000000	18.077535
1535.000000	18.080131
1534.000000	18.073242
1533.000000	18.079632
1532.000000	18.087619
1531.000000	18.085423
1530.000000	18.076437
1529.000000	18.059663
1528.000000	18.043787
1527.000000	18.039993
1526.000000	18.015232
1525.000000	18.004648
1524.000000	18.001153
1523.000000	17.991269
1522.000000	17.962214
1521.000000	17.921976
1520.000000	17.919081
1519.000000	17.912391
1518.000000	17.899212
1517.000000	17.887430
1516.000000	17.871655
1515.000000	17.861870
1514.000000	17.830518
1513.000000	17.807654
1512.000000	17.786686
1511.000000	17.765220
1510.000000	17.767317
1509.000000	17.752939
1508.000000	17.734667
1507.000000	17.721288
1506.000000	17.702817
1505.000000	17.673562
1504.000000	17.656888
1503.000000	17.626535
1502.000000	17.603371
1501.000000	17.594984
1500.000000	17.588594
1499.000000	17.579009
1498.000000	17.577611
1497.000000	17.548956
1496.000000	17.535976
1495.000000	17.532182
1494.000000	17.531682
1493.000000	17.541267
1492.000000	17.538072
1491.000000	17.536874
1490.000000	17.554747
1489.000000	17.549055
1488.000000	17.556943
1487.000000	17.567527
1486.000000	17.583103
1485.000000	17.575914
1484.000000	17.584401
1483.000000	17.585499
1482.000000	17.610859
1481.000000	17.623440
1480.000000	17.640014
1479.000000	17.654691
1478.000000	17.681849
1477.000000	17.715197
1476.000000	17.712901
1475.000000	17.755535
1474.000000	17.764321
1473.000000	17.783891
1472.000000	17.835511
1471.000000	17.874051
1470.000000	17.879143
1469.000000	17.912491
1468.000000	17.918582
1467.000000	17.966707
1466.000000	17.972498
1465.000000	18.021722
1464.000000	18.062159
1463.000000	18.108187
1462.000000	18.138640
1461.000000	18.203939
1460.000000	18.247371
1459.000000	18.318860
1458.000000	18.406624
1457.000000	18.473920
1456.000000	18.542713
1455.000000	18.636767
1454.000000	18.715145
1453.000000	18.782341
1452.000000	18.890772
1451.000000	18.983828
1450.000000	19.090462
1449.000000	19.167343
1448.000000	19.254807
1447.000000	19.359844
1446.000000	19.504919
1445.000000	19.590786
1444.000000	19.711299
1443.000000	19.824922
1442.000000	19.931457
1441.000000	20.061455
1440.000000	20.188657
1439.000000	20.305576
1438.000000	20.427886
1437.000000	20.527332
1436.000000	20.642353
1435.000000	20.767659
1434.000000	20.896159
1433.000000	21.012179
1432.000000	21.134789
1431.000000	21.277267
1430.000000	21.385799
1429.000000	21.532571
1428.000000	21.724773
1427.000000	21.887620
1426.000000	22.032894
1425.000000	22.265333
1424.000000	22.481897
1423.000000	22.666011
1422.000000	22.840840
1421.000000	23.053110
1420.000000	23.288445
1419.000000	23.481146
1418.000000	23.732156
1417.000000	23.907883
1416.000000	24.080316
1415.000000	24.280405
1414.000000	24.526323
1413.000000	24.727611
1412.000000	24.901441
1411.000000	25.099933
1410.000000	25.343355
1409.000000	25.664856
1408.000000	25.972079
1407.000000	26.310154
1406.000000	26.596110
1405.000000	26.971627
1404.000000	27.336860
1403.000000	27.686817
1402.000000	28.015906
1401.000000	28.389725
1400.000000	28.823452
1399.000000	29.106113
1398.000000	29.237609
1397.000000	29.440993
1396.000000	29.714668
1395.000000	29.955295
1394.000000	30.058235
1393.000000	30.168763
1392.000000	30.342394
1391.000000	30.519918
1390.000000	30.668388
1389.000000	30.863285
1388.000000	31.154733
1387.000000	31.454168
1386.000000	31.766184
1385.000000	32.095872
1384.000000	32.533592
1383.000000	32.922588
1382.000000	33.297107
1381.000000	33.578370
1380.000000	33.701978
1379.000000	33.819895
1378.000000	33.872214
1377.000000	33.932620
1376.000000	34.029470
1375.000000	34.200205
1374.000000	34.471084
1373.000000	34.821041
1372.000000	35.216028
1371.000000	35.647658
1370.000000	36.038651
1369.000000	36.366542
1368.000000	36.710208
1367.000000	37.018030
1366.000000	37.244978
1365.000000	37.489798
1364.000000	37.708558
1363.000000	37.862319
1362.000000	38.032755
1361.000000	38.210079
1360.000000	38.273381
1359.000000	38.303734
1358.000000	38.393794
1357.000000	38.560236
1356.000000	38.835009
1355.000000	39.304381
1354.000000	39.912536
1353.000000	40.523288
1352.000000	41.187357
1351.000000	41.831357
1350.000000	42.448400
1349.000000	42.982570
1348.000000	43.496273
1347.000000	43.963048
1346.000000	44.336868
1345.000000	44.735249
1344.000000	45.136127
1343.000000	45.483388
1342.000000	45.806187
1341.000000	46.148555
1340.000000	46.464065
1339.000000	46.752917
1338.000000	47.033282
1337.000000	47.317740
1336.000000	47.580832
1335.000000	47.820160
1334.000000	48.043114
1333.000000	48.276751
1332.000000	48.498607
1331.000000	48.710578
1330.000000	48.900083
1329.000000	49.079006
1328.000000	49.237559
1327.000000	49.403602
1326.000000	49.569844
1325.000000	49.727299
1324.000000	49.862190
1323.000000	49.991988
1322.000000	50.119990
1321.000000	50.240802
1320.000000	50.360316
1319.000000	50.474439
1318.000000	50.575083
1317.000000	50.678123
1316.000000	50.771179
1315.000000	50.873120
1314.000000	50.958787
1313.000000	51.033471
1312.000000	51.109054
1311.000000	51.174552
1310.000000	51.235558
1309.000000	51.295265
1308.000000	51.350879
1307.000000	51.401101
1306.000000	51.441438
1305.000000	51.460808
1304.000000	51.489963
1303.000000	51.522512
1302.000000	51.525907
1301.000000	51.524110
1300.000000	51.538188
1299.000000	51.541682
1298.000000	51.535392
1297.000000	51.530200
1296.000000	51.534793
1295.000000	51.533595
1294.000000	51.521514
1293.000000	51.515723
1292.000000	51.489863
1291.000000	51.453120
1290.000000	51.415578
1289.000000	51.373543
1288.000000	51.336102
1287.000000	51.285081
1286.000000	51.223976
1285.000000	51.157179
1284.000000	51.079899
1283.000000	51.008610
1282.000000	50.933527
1281.000000	50.849257
1280.000000	50.767884
1279.000000	50.691003
1278.000000	50.623708
1277.000000	50.549722
1276.000000	50.477534
1275.000000	50.412436
1274.000000	50.354625
1273.000000	50.307598
1272.000000	50.243897
1271.000000	50.195772
1270.000000	50.142355
1269.000000	50.084145
1268.000000	50.049998
1267.000000	50.028332
1266.000000	49.986397
1265.000000	49.930883
1264.000000	49.872673
1263.000000	49.811968
1262.000000	49.762544
1261.000000	49.697645
1260.000000	49.621663
1259.000000	49.577432
1258.000000	49.510236
1257.000000	49.431059
1256.000000	49.358771
1255.000000	49.285086
1254.000000	49.204111
1253.000000	49.114650
1252.000000	49.038269
1251.000000	48.951903
1250.000000	48.852158
1249.000000	48.727352
1248.000000	48.615825
1247.000000	48.511087
1246.000000	48.378992
1245.000000	48.222136
1244.000000	48.060387
1243.000000	47.885459
1242.000000	47.724109
1241.000000	47.539596
1240.000000	47.345697
1239.000000	47.156890
1238.000000	46.953505
1237.000000	46.741634
1236.000000	46.531261
1235.000000	46.313499
1234.000000	46.093640
1233.000000	45.874980
1232.000000	45.650528
1231.000000	45.407605
1230.000000	45.184352
1229.000000	44.949017
1228.000000	44.712485
1227.000000	44.479746
1226.000000	44.258889
1225.000000	44.009077
1224.000000	43.802497
1223.000000	43.569359
1222.000000	43.355791
1221.000000	43.136731
1220.000000	42.913178
1219.000000	42.721476
1218.000000	42.551340
1217.000000	42.379307
1216.000000	42.223249
1215.000000	42.057606
1214.000000	41.927508
1213.000000	41.788324
1212.000000	41.661521
1211.000000	41.541507
1210.000000	41.424090
1209.000000	41.305374
1208.000000	41.224699
1207.000000	41.143625
1206.000000	41.096399
1205.000000	41.067044
1204.000000	41.060055
1203.000000	41.043880
1202.000000	41.042882
1201.000000	41.022513
1200.000000	40.996454
1199.000000	40.917776
1198.000000	40.832908
1197.000000	40.676151
1196.000000	40.467275
1195.000000	40.182218
1194.000000	39.840648
1193.000000	39.374472
1192.000000	38.862367
1191.000000	38.286261
1190.000000	37.731123
1189.000000	37.250769
1188.000000	36.890927
1187.000000	36.646108
1186.000000	36.583704
1185.000000	36.653496
1184.000000	36.893923
1183.000000	37.283618
1182.000000	37.816191
1181.000000	38.433233
1180.000000	39.080528
1179.000000	39.686887
1178.000000	40.245619
1177.000000	40.703908
1176.000000	41.155107
1175.000000	41.522038
1174.000000	41.900850
1173.000000	42.304223
1172.000000	42.700508
1171.000000	43.123452
1170.000000	43.560872
1169.000000	43.989008
1168.000000	44.452488
1167.000000	44.895500
1166.000000	45.344304
1165.000000	45.800795
1164.000000	46.267171
1163.000000	46.740336
1162.000000	47.194431
1161.000000	47.663204
1160.000000	48.055594
1159.000000	48.496909
1158.000000	48.899285
1157.000000	49.267213
1156.000000	49.569444
1155.000000	49.811169
1154.000000	50.009261
1153.000000	50.108807
1152.000000	50.134567
1151.000000	50.122985
1150.000000	50.095727
1149.000000	50.063877
1148.000000	50.027433
1147.000000	50.054292
1146.000000	50.160127
1145.000000	50.384778
1144.000000	50.692700
1143.000000	51.061029
1142.000000	51.463404
1141.000000	51.892438
1140.000000	52.332854
1139.000000	52.767280
1138.000000	53.236351
1137.000000	53.708119
1136.000000	54.200754
1135.000000	54.673520
1134.000000	55.136302
1133.000000	55.499937
1132.000000	55.831622
1131.000000	56.172094
1130.000000	56.467835
1129.000000	56.732224
1128.000000	56.923228
1127.000000	57.081083
1126.000000	57.224959
1125.000000	57.322707
1124.000000	57.427545
1123.000000	57.517006
1122.000000	57.600077
1121.000000	57.652895
1120.000000	57.718892
1119.000000	57.749046
1118.000000	57.784990
1117.000000	57.815343
1116.000000	57.820235
1115.000000	57.812148
1114.000000	57.828622
1113.000000	57.820834
1112.000000	57.820135
1111.000000	57.822332
1110.000000	57.812347
1109.000000	57.819137
1108.000000	57.818837
1107.000000	57.805957
1106.000000	57.815243
1105.000000	57.814144
1104.000000	57.812447
1103.000000	57.794375
1102.000000	57.803162
1101.000000	57.778001
1100.000000	57.765520
1099.000000	57.759529
1098.000000	57.733270
1097.000000	57.711304
1096.000000	57.686742
1095.000000	57.661681
1094.000000	57.614255
1093.000000	57.598779
1092.000000	57.561437
1091.000000	57.531683
1090.000000	57.485555
1089.000000	57.442122
1088.000000	57.406677
1087.000000	57.353659
1086.000000	57.307731
1085.000000	57.257808
1084.000000	57.209783
1083.000000	57.153270
1082.000000	57.096259
1081.000000	57.043042
1080.000000	57.005100
1079.000000	56.963166
1078.000000	56.908850
1077.000000	56.872407
1076.000000	56.817292
1075.000000	56.773560
1074.000000	56.733023
1073.000000	56.689391
1072.000000	56.641165
1071.000000	56.601926
1070.000000	56.557695
1069.000000	56.501383
1068.000000	56.451660
1067.000000	56.396945
1066.000000	56.354411
1065.000000	56.301693
1064.000000	56.249274
1063.000000	56.198952
1062.000000	56.135550
1061.000000	56.077740
1060.000000	56.019331
1059.000000	55.969009
1058.000000	55.907804
1057.000000	55.842006
1056.000000	55.782099
1055.000000	55.720695
1054.000000	55.652500
1053.000000	55.585504
1052.000000	55.534484
1051.000000	55.495444
1050.000000	55.446420
1049.000000	55.397197
1048.000000	55.361552
1047.000000	55.330600
1046.000000	55.299149
1045.000000	55.268097
1044.000000	55.217576
1043.000000	55.184028
1042.000000	55.175840
1041.000000	55.145088
1040.000000	55.120227
1039.000000	55.087577
1038.000000	55.038953
1037.000000	55.003208
1036.000000	54.969461
1035.000000	54.925928
1034.000000	54.875407
1033.000000	54.824686
1032.000000	54.783450
1031.000000	54.736722
1030.000000	54.684104
1029.000000	54.634281
1028.000000	54.579666
1027.000000	54.515066
1026.000000	54.436488
1025.000000	54.369692
1024.000000	54.305492
1023.000000	54.235101
1022.000000	54.166408
1021.000000	54.107998
1020.000000	54.039804
1019.000000	53.965919
1018.000000	53.935965
1017.000000	53.894030
1016.000000	53.839515
1015.000000	53.788594
1014.000000	53.746759
1013.000000	53.730784
1012.000000	53.715108
1011.000000	53.704225
1010.000000	53.721798
1009.000000	53.727888
1008.000000	53.736175
1007.000000	53.759240
1006.000000	53.780207
1005.000000	53.796482
1004.000000	53.805668
1003.000000	53.801175
1002.000000	53.822042
1001.000000	53.834922
1000.000000	53.823839
999.000000	53.821543
998.000000	53.837318
997.000000	53.867871
996.000000	53.890037
995.000000	53.885643
994.000000	53.885344
993.000000	53.890536
992.000000	53.905213
991.000000	53.913700
990.000000	53.911903
989.000000	53.929975
988.000000	53.956234
987.000000	53.984789
986.000000	54.001464
985.000000	54.021832
984.000000	54.047991
983.000000	54.086931
982.000000	54.116685
981.000000	54.141846
980.000000	54.156623
979.000000	54.220224
978.000000	54.253972
977.000000	54.272842
976.000000	54.305691
975.000000	54.329355
974.000000	54.356512
973.000000	54.390160
972.000000	54.441480
971.000000	54.462148
970.000000	54.487309
969.000000	54.524152
968.000000	54.576072
967.000000	54.620103
966.000000	54.681708
965.000000	54.720847
964.000000	54.766676
963.000000	54.818795
962.000000	54.889585
961.000000	54.974353
960.000000	55.059521
959.000000	55.134604
958.000000	55.195210
957.000000	55.262805
956.000000	55.343181
955.000000	55.414969
954.000000	55.461597
953.000000	55.518109
952.000000	55.591295
951.000000	55.622647
950.000000	55.650404
949.000000	55.683652
948.000000	55.742161
947.000000	55.784995
946.000000	55.826430
945.000000	55.857582
944.000000	55.916590
943.000000	55.954731
942.000000	55.992473
941.000000	56.034607
940.000000	56.070651
939.000000	56.121073
938.000000	56.171195
937.000000	56.244082
936.000000	56.263951
935.000000	56.282023
934.000000	56.330847
933.000000	56.357106
932.000000	56.409325
931.000000	56.442873
930.000000	56.508771
929.000000	56.548909
928.000000	56.578463
927.000000	56.639268
926.000000	56.685597
925.000000	56.751494
924.000000	56.827177
923.000000	56.876600
922.000000	56.944594
921.000000	56.999309
920.000000	57.078886
919.000000	57.120421
918.000000	57.150375
917.000000	57.203093
916.000000	57.235243
915.000000	57.281072
914.000000	57.342976
913.000000	57.390203
912.000000	57.444518
911.000000	57.520001
910.000000	57.626536
909.000000	57.751342
908.000000	57.852585
907.000000	58.017029
906.000000	58.170092
905.000000	58.344222
904.000000	58.549503
903.000000	58.744800
902.000000	58.968752
901.000000	59.190907
900.000000	59.406772
899.000000	59.632921
898.000000	59.842995
897.000000	60.070042
896.000000	60.284709
895.000000	60.478508
894.000000	60.721531
893.000000	60.922918
892.000000	61.144674
891.000000	61.331584
890.000000	61.513102
889.000000	61.684136
888.000000	61.866254
887.000000	62.008932
886.000000	62.166188
885.000000	62.317853
884.000000	62.454740
883.000000	62.591428
882.000000	62.694168
881.000000	62.808491
880.000000	62.915125
879.000000	63.011276
878.000000	63.115215
877.000000	63.195190
876.000000	63.276564
875.000000	63.368022
874.000000	63.437814
873.000000	63.524080
872.000000	63.622327
871.000000	63.704999
870.000000	63.768101
869.000000	63.837393
868.000000	63.929550
867.000000	64.015317
866.000000	64.094594
865.000000	64.164985
864.000000	64.244661
863.000000	64.275613
862.000000	64.333224
861.000000	64.357187
860.000000	64.379352
859.000000	64.387639
858.000000	64.391433
857.000000	64.670300
856.000000	64.256900
855.000000	64.247100
854.000000	64.205000
853.000000	64.556900
852.000000	64.057200
851.000000	64.514100
850.000000	64.428400
849.000000	64.678500
848.000000	64.591100
847.000000	64.624900
846.000000	64.759700
845.000000	64.897800
844.000000	64.582900
843.000000	64.634000
842.000000	64.693400
841.000000	64.728600
840.000000	64.924000
839.000000	64.828500
838.000000	64.788100
837.000000	64.808400
836.000000	65.024400
835.000000	64.769900
834.000000	64.677000
833.000000	64.739100
832.000000	64.643100
831.000000	64.610700
830.000000	64.471900
829.000000	64.476900
828.000000	64.444700
827.000000	64.218300
826.000000	64.257800
825.000000	64.129400
824.000000	64.102400
823.000000	64.112500
822.000000	64.052700
821.000000	63.854600
820.000000	63.769600
819.000000	63.537300
818.000000	63.570500
817.000000	63.433900
816.000000	63.214500
815.000000	63.255300
814.000000	63.047800
813.000000	63.032100
812.000000	62.824700
811.000000	62.636800
810.000000	62.540700
809.000000	62.518400
808.000000	62.358700
807.000000	62.267100
806.000000	62.169800
805.000000	61.962100
804.000000	61.864400
803.000000	61.709200
802.000000	61.654400
801.000000	61.550100
800.000000	61.437800
799.000000	61.339100
798.000000	61.262700
797.000000	61.223000
796.000000	61.033200
795.000000	61.000200
794.000000	60.973500
793.000000	60.914400
792.000000	60.869800
791.000000	60.824400
790.000000	60.647100
789.000000	60.602200
788.000000	60.530500
787.000000	60.442800
786.000000	60.362400
785.000000	60.314900
784.000000	60.155100
783.000000	60.088400
782.000000	60.052000
781.000000	59.973900
780.000000	59.874800
779.000000	59.856800
778.000000	59.839000
777.000000	59.809800
776.000000	59.761100
775.000000	59.735300
774.000000	59.643600
773.000000	59.542400
772.000000	59.450400
771.000000	59.352400
770.000000	59.260600
769.000000	59.265700
768.000000	59.139600
767.000000	58.956000
766.000000	58.861000
765.000000	58.861200
764.000000	58.820500
763.000000	58.726500
762.000000	58.676200
761.000000	58.631700
760.000000	58.496800
759.000000	58.397700
758.000000	58.354900
757.000000	58.206800
756.000000	58.114700
755.000000	58.048400
754.000000	57.946500
753.000000	57.787400
752.000000	57.664700
751.000000	57.551300
750.000000	57.437900
749.000000	57.365200
748.000000	57.276600
747.000000	57.231300
746.000000	57.147600
745.000000	57.088200
744.000000	57.040400
743.000000	56.974900
742.000000	56.919700
741.000000	56.827000
740.000000	56.770200
739.000000	56.731300
738.000000	56.677100
737.000000	56.626900
736.000000	56.523800
735.000000	56.411000
734.000000	56.332200
733.000000	56.279300
732.000000	56.240000
731.000000	56.166500
730.000000	56.084700
729.000000	56.015400
728.000000	55.955300
727.000000	55.951800
726.000000	55.900100
725.000000	55.772900
724.000000	55.718800
723.000000	55.734800
722.000000	55.679400
721.000000	55.606200
720.000000	55.521000
719.000000	55.444600
718.000000	55.406300
717.000000	55.334900
716.000000	55.212000
715.000000	55.114500
714.000000	55.032800
713.000000	54.972700
712.000000	54.907700
711.000000	54.883100
710.000000	54.751000
709.000000	54.690800
708.000000	54.655600
707.000000	54.537300
706.000000	54.451900
705.000000	54.377500
704.000000	54.278600
703.000000	54.168200
702.000000	54.022000
701.000000	53.844000
700.000000	53.692500
699.000000	53.524000
698.000000	53.366100
697.000000	53.198700
696.000000	53.018800
695.000000	52.845400
694.000000	52.645100
693.000000	52.446300
692.000000	52.280000
691.000000	52.036600
690.000000	51.854600
689.000000	51.665400
688.000000	51.458900
687.000000	51.243700
686.000000	51.029200
685.000000	50.826600
684.000000	50.571000
683.000000	50.403700
682.000000	50.192600
681.000000	49.906900
680.000000	49.717900
679.000000	49.525500
678.000000	49.313000
677.000000	49.105600
676.000000	48.863600
675.000000	48.663300
674.000000	48.489500
673.000000	48.307400
672.000000	48.127500
671.000000	47.952100
670.000000	47.850700
669.000000	47.766900
668.000000	47.663300
667.000000	47.583500
666.000000	47.566200
665.000000	47.562800
664.000000	47.584000
663.000000	47.593100
662.000000	47.647400
661.000000	47.659200
660.000000	47.677100
659.000000	47.705200
658.000000	47.695900
657.000000	47.676500
656.000000	47.652000
655.000000	47.659100
654.000000	47.641100
653.000000	47.611800
652.000000	47.554800
651.000000	47.484000
650.000000	47.431000
649.000000	47.429800
648.000000	47.369400
647.000000	47.277400
646.000000	47.230100
645.000000	47.188400
644.000000	47.072000
643.000000	46.968400
642.000000	46.822100
641.000000	46.638200
640.000000	46.453700
639.000000	46.210800
638.000000	45.936100
637.000000	45.687400
636.000000	45.361800
635.000000	45.044800
634.000000	44.757600
633.000000	44.490100
632.000000	44.209100
631.000000	44.009600
630.000000	43.840000
629.000000	43.671000
628.000000	43.579000
627.000000	43.514800
626.000000	43.534100
625.000000	43.648800
624.000000	43.785400
623.000000	44.017400
622.000000	44.269200
621.000000	44.615800
620.000000	44.992700
619.000000	45.449200
618.000000	45.936500
617.000000	46.497400
616.000000	47.101300
615.000000	47.745800
614.000000	48.383200
613.000000	49.077200
612.000000	49.813900
611.000000	50.581200
610.000000	51.333800
609.000000	52.038600
608.000000	52.789800
607.000000	53.416000
606.000000	54.145700
605.000000	54.814100
604.000000	55.478200
603.000000	56.039600
602.000000	56.607900
601.000000	57.179100
600.000000	57.649300
599.000000	58.103100
598.000000	58.490300
597.000000	58.856200
596.000000	59.187400
595.000000	59.507800
594.000000	59.772700
593.000000	60.039000
592.000000	60.318200
591.000000	60.558700
590.000000	60.836900
589.000000	61.112900
588.000000	61.322800
587.000000	61.616800
586.000000	61.859700
585.000000	62.087100
584.000000	62.321200
583.000000	62.547500
582.000000	62.726300
581.000000	62.891300
580.000000	63.123000
579.000000	63.253300
578.000000	63.414300
577.000000	63.457900
576.000000	63.546400
575.000000	63.573300
574.000000	63.599500
573.000000	63.594200
572.000000	63.581100
571.000000	63.545000
570.000000	63.549600
569.000000	63.497700
568.000000	63.426500
567.000000	63.396900
566.000000	63.377400
565.000000	63.365500
564.000000	63.340200
563.000000	63.309600
562.000000	63.262100
561.000000	63.193500
560.000000	63.071000
559.000000	62.846500
558.000000	62.672100
557.000000	62.479000
556.000000	62.248100
555.000000	61.980000
554.000000	61.689800
553.000000	61.365300
552.000000	60.962300
551.000000	60.520000
550.000000	60.063700
549.000000	59.584700
548.000000	59.087400
547.000000	58.538700
546.000000	57.978600
545.000000	57.405200
544.000000	56.774900
543.000000	56.143200
542.000000	55.458200
541.000000	54.733300
540.000000	53.956500
539.000000	53.169200
538.000000	52.347900
537.000000	51.483200
536.000000	50.556000
535.000000	49.638000
534.000000	48.696400
533.000000	47.740600
532.000000	46.812400
531.000000	45.893000
530.000000	44.964500
529.000000	44.036200
528.000000	43.169000
527.000000	42.277600
526.000000	41.386200
525.000000	40.496000
524.000000	39.589700
523.000000	38.710900
522.000000	37.815000
521.000000	36.978900
520.000000	36.141100
519.000000	35.326600
518.000000	34.544600
517.000000	33.816600
516.000000	33.113700
515.000000	32.445200
514.000000	31.803500
513.000000	31.191000
512.000000	30.615500
511.000000	30.064600
510.000000	29.560700
509.000000	29.062000
508.000000	28.579600
507.000000	28.117000
506.000000	27.664600
505.000000	27.198500
504.000000	26.740100
503.000000	26.300800
502.000000	25.875900
501.000000	25.455800
500.000000	25.024000
499.000000	24.623400
498.000000	24.238700
497.000000	23.879100
496.000000	23.542500
495.000000	23.242200
494.000000	22.979100
493.000000	22.737500
492.000000	22.523800
491.000000	22.346900
490.000000	22.170900
489.000000	22.028700
488.000000	21.910900
487.000000	21.789500
486.000000	21.708500
485.000000	21.614100
484.000000	21.523100
483.000000	21.426900
482.000000	21.353200
481.000000	21.284300
480.000000	21.213100
479.000000	21.118700
478.000000	21.013000
477.000000	20.898400
476.000000	20.775600
475.000000	20.655200
474.000000	20.512600
473.000000	20.399000
472.000000	20.289600
471.000000	20.148100
470.000000	20.005300
469.000000	19.864700
468.000000	19.716300
467.000000	19.567100
466.000000	19.419600
465.000000	19.256400
464.000000	19.088100
463.000000	18.906500
462.000000	18.717700
461.000000	18.523400
460.000000	18.323300
459.000000	18.111400
458.000000	17.905400
457.000000	17.692300
456.000000	17.480900
455.000000	17.281400
454.000000	17.047000
453.000000	16.805500
452.000000	16.575600
451.000000	16.338800
450.000000	16.088300
449.000000	15.840700
448.000000	15.586800
447.000000	15.330500
446.000000	15.060300
445.000000	14.767600
444.000000	14.474500
443.000000	14.185000
442.000000	13.890200
441.000000	13.585800
440.000000	13.278100
439.000000	12.979400
438.000000	12.696400
437.000000	12.413700
436.000000	12.115400
435.000000	11.824500
434.000000	11.537500
433.000000	11.241700
432.000000	10.964800
431.000000	10.684100
430.000000	10.403900
429.000000	10.138800
428.000000	9.891600
427.000000	9.638500
426.000000	9.384600
425.000000	9.141600
424.000000	8.899500
423.000000	8.663900
422.000000	8.447600
421.000000	8.239100
420.000000	8.030200
419.000000	7.838500
418.000000	7.672800
417.000000	7.511500
416.000000	7.362100
415.000000	7.219700
414.000000	7.086500
413.000000	6.957800
412.000000	6.839900
411.000000	6.725000
410.000000	6.615500
409.000000	6.516700
408.000000	6.429200
407.000000	6.355700
406.000000	6.288600
405.000000	6.226100
404.000000	6.164700
403.000000	6.120000
402.000000	6.082800
401.000000	6.038800
400.000000	5.997200
399.000000	5.966600
398.000000	5.928200
397.000000	5.903800
396.000000	5.873700
395.000000	5.862800
394.000000	5.839200
393.000000	5.817000
392.000000	5.778700
391.000000	5.786900
390.000000	5.783100
389.000000	5.749000
388.000000	5.737100
387.000000	5.726800
386.000000	5.731600
385.000000	5.707300
384.000000	5.699400
383.000000	5.678200
382.000000	5.664200
381.000000	5.659600
380.000000	5.660900
379.000000	5.636400
378.000000	5.615900
377.000000	5.605600
376.000000	5.568100
375.000000	5.367100
374.000000	5.292200
373.000000	5.434200
372.000000	5.509700
371.000000	5.500900
370.000000	5.500500
369.000000	5.558600
368.000000	5.564300
367.000000	5.598900
366.000000	5.587500
365.000000	5.557900
364.000000	5.551000
363.000000	5.536100
362.000000	5.573000
361.000000	5.571800
360.000000	5.550200
359.000000	5.463400
358.000000	5.499000
357.000000	5.543800
356.000000	5.492300
355.000000	5.610500
354.000000	5.579300
353.000000	5.586300
352.000000	5.638800
351.000000	5.594800
350.000000	5.550000
349.000000	5.580100
348.000000	5.565000
347.000000	5.577700
346.000000	5.606700
345.000000	5.538000
344.000000	5.530600
343.000000	5.615200
342.000000	5.621100
341.000000	5.740500
340.000000	5.648000
339.000000	5.499800
338.000000	5.624600
337.000000	5.653800
336.000000	5.678000
335.000000	5.556300
334.000000	5.591100
333.000000	5.440500
332.000000	5.557000
331.000000	5.611100
330.000000	5.682100
329.000000	5.822700
328.000000	5.628300
327.000000	5.640600
326.000000	5.781900
325.000000	5.750800
324.000000	5.781400
323.000000	5.721500
322.000000	5.889800
321.000000	5.768400
320.000000	6.294500
319.000000	5.855600
318.000000	5.805700
317.000000	5.810400
316.000000	5.639300
315.000000	5.585100
314.000000	5.624900
313.000000	5.610900
312.000000	5.620500
311.000000	5.624300
310.000000	5.671300
309.000000	5.667500
308.000000	5.676600
307.000000	5.655400
306.000000	5.625400
305.000000	5.648300
304.000000	5.649100
303.000000	5.650100
302.000000	5.645800
301.000000	5.640400
300.000000	5.647300
299.000000	5.614600
298.000000	5.676600
297.000000	5.717800
296.000000	5.715800
295.000000	5.716200
294.000000	5.679500
293.000000	5.702500
292.000000	5.665100
291.000000	5.750000
290.000000	5.717500
289.000000	5.765300
288.000000	5.713600
287.000000	5.705200
286.000000	5.738900
285.000000	5.770700
284.000000	5.768200
283.000000	5.803700
282.000000	5.783300
281.000000	5.722100
280.000000	5.823600
279.000000	5.797700
278.000000	5.870400
277.000000	5.852700
276.000000	5.818800
275.000000	5.859300
274.000000	5.885200
273.000000	5.920000
272.000000	5.884200
271.000000	5.893900
270.000000	5.912200
269.000000	5.938900
268.000000	5.912400
267.000000	5.982500
266.000000	6.092100
265.000000	6.048900
264.000000	6.067600
263.000000	6.094800
262.000000	6.111500
261.000000	6.157000
260.000000	6.164300
259.000000	6.192200
258.000000	6.271000
257.000000	6.228400
256.000000	6.280900
255.000000	6.283900
254.000000	6.318100
253.000000	6.335900
252.000000	6.290600
251.000000	6.321000
250.000000	6.353800
