PE UV       SUBTECH     SPECTRUM    ASCII       PEDS        4.00        
   -1
CICIMAUCR0097-3.Sample.ASC
24/04/18
13:31:23.00
24/04/18
13:31:23.00
Vinicio Soto Monge
C. kalinini
250,000000
1
Lambda 1050
1050L1511233
PerkinElmer UV WinLab 6.3.2.0749 / 2.02.05 Lambda 900 UV/VIS/NIR, Aug  7 2015 09:38:08

0
0
3350/servo 860,8/2
0
0
UV/VIS
1
1
1
DoubleDePol,CommonBeamDepol,RBeamAtt,SBeamAtt,60mm sphere, WB InGaAs Detector
0
0
0
0
Program
Program
3350/servo 860,8/2
3350/0,2 860,8/0,2
3350/0,2 860,8/0,2
0
15.00
 
 
 
0
 
860,8
319,2
860,8
Front
100
on
S:100 R:100
0
0
0
0
 
0
 
 
 
0
 
 
0
0
0
0
0
 
 
 
 
0
0


0
0
#HDR
-1
-1
#GR
nm
%R
1.0
0.0
2500,000000
-1,000000
2251
8
97,988000
5,671400
#DATA
2500.000000	17.532088
2499.000000	17.547709
2498.000000	17.539333
2497.000000	17.567745
2496.000000	17.502996
2495.000000	17.514769
2494.000000	17.447642
2493.000000	17.442435
2492.000000	17.472546
2491.000000	17.433040
2490.000000	17.435756
2489.000000	17.407117
2488.000000	17.464396
2487.000000	17.322672
2486.000000	17.369649
2485.000000	17.425342
2484.000000	17.416400
2483.000000	17.451604
2482.000000	17.449453
2481.000000	17.506845
2480.000000	17.476960
2479.000000	17.516467
2478.000000	17.483866
2477.000000	17.584612
2476.000000	17.545106
2475.000000	17.550539
2474.000000	17.624344
2473.000000	17.647097
2472.000000	17.721242
2471.000000	17.764936
2470.000000	17.793575
2469.000000	17.843608
2468.000000	17.902585
2467.000000	17.954995
2466.000000	17.989068
2465.000000	18.062986
2464.000000	18.085625
2463.000000	18.179919
2462.000000	18.267195
2461.000000	18.358659
2460.000000	18.442652
2459.000000	18.507061
2458.000000	18.569999
2457.000000	18.672670
2456.000000	18.801036
2455.000000	18.867144
2454.000000	18.989624
2453.000000	19.096030
2452.000000	19.213642
2451.000000	19.300465
2450.000000	19.455433
2449.000000	19.567046
2448.000000	19.705940
2447.000000	19.842343
2446.000000	19.950334
2445.000000	20.065796
2444.000000	20.212387
2443.000000	20.356488
2442.000000	20.479987
2441.000000	20.601109
2440.000000	20.748153
2439.000000	20.874934
2438.000000	21.018922
2437.000000	21.135742
2436.000000	21.247469
2435.000000	21.377533
2434.000000	21.499447
2433.000000	21.614117
2432.000000	21.741011
2431.000000	21.856134
2430.000000	21.963898
2429.000000	22.068153
2428.000000	22.169692
2427.000000	22.262401
2426.000000	22.383636
2425.000000	22.482797
2424.000000	22.576638
2423.000000	22.713381
2422.000000	22.844917
2421.000000	23.009507
2420.000000	23.167531
2419.000000	23.270428
2418.000000	23.369023
2417.000000	23.445998
2416.000000	23.545046
2415.000000	23.623832
2414.000000	23.711560
2413.000000	23.798496
2412.000000	23.886904
2411.000000	23.959011
2410.000000	24.038928
2409.000000	24.086245
2408.000000	24.156994
2407.000000	24.250382
2406.000000	24.323961
2405.000000	24.360637
2404.000000	24.397313
2403.000000	24.450063
2402.000000	24.531000
2401.000000	24.595862
2400.000000	24.602767
2399.000000	24.621332
2398.000000	24.685968
2397.000000	24.746642
2396.000000	24.752528
2395.000000	24.778790
2394.000000	24.825427
2393.000000	24.858481
2392.000000	24.878178
2391.000000	24.892554
2390.000000	24.916325
2389.000000	24.929230
2388.000000	24.944398
2387.000000	24.952322
2386.000000	24.968396
2385.000000	24.975188
2384.000000	24.954020
2383.000000	24.950511
2382.000000	24.950511
2381.000000	24.957303
2380.000000	24.935569
2379.000000	24.931267
2378.000000	24.928211
2377.000000	24.892667
2376.000000	24.866631
2375.000000	24.859274
2374.000000	24.851916
2373.000000	24.803693
2372.000000	24.768376
2371.000000	24.774602
2370.000000	24.777092
2369.000000	24.762376
2368.000000	24.747094
2367.000000	24.743246
2366.000000	24.746528
2365.000000	24.726379
2364.000000	24.719248
2363.000000	24.713022
2362.000000	24.696721
2361.000000	24.684836
2360.000000	24.679628
2359.000000	24.665932
2358.000000	24.644650
2357.000000	24.630161
2356.000000	24.640009
2355.000000	24.627331
2354.000000	24.586693
2353.000000	24.567563
2352.000000	24.563601
2351.000000	24.542885
2350.000000	24.519793
2349.000000	24.520246
2348.000000	24.517869
2347.000000	24.494097
2346.000000	24.474174
2345.000000	24.476212
2344.000000	24.463760
2343.000000	24.482891
2342.000000	24.479268
2341.000000	24.452214
2340.000000	24.437045
2339.000000	24.439989
2338.000000	24.458666
2337.000000	24.459798
2336.000000	24.456855
2335.000000	24.453686
2334.000000	24.476778
2333.000000	24.520359
2332.000000	24.524095
2331.000000	24.520585
2330.000000	24.504738
2329.000000	24.554318
2328.000000	24.605597
2327.000000	24.629482
2326.000000	24.661177
2325.000000	24.672157
2324.000000	24.697287
2323.000000	24.723096
2322.000000	24.730002
2321.000000	24.703513
2320.000000	24.686986
2319.000000	24.698872
2318.000000	24.682911
2317.000000	24.650084
2316.000000	24.620086
2315.000000	24.589749
2314.000000	24.529754
2313.000000	24.500889
2312.000000	24.448252
2311.000000	24.387804
2310.000000	24.315018
2309.000000	24.276870
2308.000000	24.243590
2307.000000	24.214046
2306.000000	24.166616
2305.000000	24.150202
2304.000000	24.118054
2303.000000	24.109451
2302.000000	24.100621
2301.000000	24.093490
2300.000000	24.084887
2299.000000	24.093716
2298.000000	24.095527
2297.000000	24.105602
2296.000000	24.155069
2295.000000	24.182916
2294.000000	24.210197
2293.000000	24.226611
2292.000000	24.273814
2291.000000	24.304378
2290.000000	24.332564
2289.000000	24.381692
2288.000000	24.434215
2287.000000	24.470212
2286.000000	24.501908
2285.000000	24.573562
2284.000000	24.595975
2283.000000	24.640688
2282.000000	24.671025
2281.000000	24.749698
2280.000000	24.773356
2279.000000	24.796222
2278.000000	24.840822
2277.000000	24.886101
2276.000000	24.918589
2275.000000	24.943040
2274.000000	24.974962
2273.000000	25.020920
2272.000000	25.049672
2271.000000	25.108648
2270.000000	25.151098
2269.000000	25.237807
2268.000000	25.286030
2267.000000	25.372626
2266.000000	25.443827
2265.000000	25.556459
2264.000000	25.682675
2263.000000	25.806400
2262.000000	25.964764
2261.000000	26.118487
2260.000000	26.294283
2259.000000	26.493851
2258.000000	26.679269
2257.000000	26.911891
2256.000000	27.118137
2255.000000	27.333100
2254.000000	27.531196
2253.000000	27.767214
2252.000000	27.972215
2251.000000	28.227363
2250.000000	28.410744
2249.000000	28.617443
2248.000000	28.803427
2247.000000	28.976054
2246.000000	29.158303
2245.000000	29.296291
2244.000000	29.447297
2243.000000	29.557325
2242.000000	29.664976
2241.000000	29.793796
2240.000000	29.869412
2239.000000	29.960310
2238.000000	29.992118
2237.000000	30.030040
2236.000000	30.094449
2235.000000	30.089468
2234.000000	30.122069
2233.000000	30.114259
2232.000000	30.078941
2231.000000	30.064791
2230.000000	30.045661
2229.000000	29.995514
2228.000000	29.940726
2227.000000	29.872468
2226.000000	29.793796
2225.000000	29.741272
2224.000000	29.673806
2223.000000	29.563664
2222.000000	29.507405
2221.000000	29.406546
2220.000000	29.286556
2219.000000	29.202450
2218.000000	29.112005
2217.000000	28.994958
2216.000000	28.903607
2215.000000	28.784523
2214.000000	28.684004
2213.000000	28.594464
2212.000000	28.505717
2211.000000	28.415045
2210.000000	28.340561
2209.000000	28.240041
2208.000000	28.182877
2207.000000	28.120504
2206.000000	28.074207
2205.000000	28.025531
2204.000000	27.986818
2203.000000	27.912673
2202.000000	27.864564
2201.000000	27.820304
2200.000000	27.770497
2199.000000	27.721142
2198.000000	27.689673
2197.000000	27.658544
2196.000000	27.654695
2195.000000	27.620849
2194.000000	27.585531
2193.000000	27.558817
2192.000000	27.539913
2191.000000	27.512971
2190.000000	27.491803
2189.000000	27.466560
2188.000000	27.449354
2187.000000	27.403962
2186.000000	27.396604
2185.000000	27.378266
2184.000000	27.348269
2183.000000	27.322686
2182.000000	27.302084
2181.000000	27.275369
2180.000000	27.245485
2179.000000	27.235410
2178.000000	27.224090
2177.000000	27.183452
2176.000000	27.190923
2175.000000	27.196131
2174.000000	27.183226
2173.000000	27.198847
2172.000000	27.220695
2171.000000	27.219110
2170.000000	27.230882
2169.000000	27.280463
2168.000000	27.306951
2167.000000	27.336949
2166.000000	27.379285
2165.000000	27.446298
2164.000000	27.508330
2163.000000	27.550780
2162.000000	27.622660
2161.000000	27.708804
2160.000000	27.790419
2159.000000	27.882789
2158.000000	27.965763
2157.000000	28.086432
2156.000000	28.208912
2155.000000	28.305243
2154.000000	28.434515
2153.000000	28.549751
2152.000000	28.655025
2151.000000	28.786900
2150.000000	28.924096
2149.000000	29.037407
2148.000000	29.166113
2147.000000	29.312252
2146.000000	29.435751
2145.000000	29.554269
2144.000000	29.691578
2143.000000	29.813152
2142.000000	29.952159
2141.000000	30.062075
2140.000000	30.182517
2139.000000	30.308846
2138.000000	30.434496
2137.000000	30.552901
2136.000000	30.685229
2135.000000	30.774655
2134.000000	30.873024
2133.000000	30.975468
2132.000000	31.066140
2131.000000	31.154660
2130.000000	31.220994
2129.000000	31.323439
2128.000000	31.401545
2127.000000	31.449315
2126.000000	31.496744
2125.000000	31.555834
2124.000000	31.626696
2123.000000	31.671748
2122.000000	31.729593
2121.000000	31.773627
2120.000000	31.804982
2119.000000	31.840979
2118.000000	31.859317
2117.000000	31.897239
2116.000000	31.918293
2115.000000	31.937990
2114.000000	31.961082
2113.000000	31.951234
2112.000000	31.973647
2111.000000	31.999909
2110.000000	32.009418
2109.000000	32.020851
2108.000000	32.018134
2107.000000	32.020737
2106.000000	32.025492
2105.000000	32.016096
2104.000000	32.022549
2103.000000	32.028548
2102.000000	32.037491
2101.000000	32.054018
2100.000000	32.033302
2099.000000	32.014512
2098.000000	32.032057
2097.000000	32.063300
2096.000000	32.077563
2095.000000	32.080280
2094.000000	32.078582
2093.000000	32.082996
2092.000000	32.130539
2091.000000	32.163140
2090.000000	32.167782
2089.000000	32.179101
2088.000000	32.189176
2087.000000	32.189516
2086.000000	32.191779
2085.000000	32.183403
2084.000000	32.164272
2083.000000	32.148311
2082.000000	32.124766
2081.000000	32.083676
2080.000000	32.039302
2079.000000	31.970025
2078.000000	31.887956
2077.000000	31.832376
2076.000000	31.754836
2075.000000	31.658617
2074.000000	31.558437
2073.000000	31.455767
2072.000000	31.345286
2071.000000	31.220542
2070.000000	31.083912
2069.000000	30.944792
2068.000000	30.820614
2067.000000	30.681607
2066.000000	30.533431
2065.000000	30.396121
2064.000000	30.239229
2063.000000	30.112221
2062.000000	29.992911
2061.000000	29.855262
2060.000000	29.748403
2059.000000	29.654223
2058.000000	29.550533
2057.000000	29.478200
2056.000000	29.430317
2055.000000	29.407451
2054.000000	29.394773
2053.000000	29.432694
2052.000000	29.462579
2051.000000	29.514876
2050.000000	29.632036
2049.000000	29.744328
2048.000000	29.891599
2047.000000	30.043623
2046.000000	30.219306
2045.000000	30.390235
2044.000000	30.598632
2043.000000	30.806917
2042.000000	30.987920
2041.000000	31.186016
2040.000000	31.372453
2039.000000	31.554928
2038.000000	31.753477
2037.000000	31.955535
2036.000000	32.109258
2035.000000	32.274301
2034.000000	32.435042
2033.000000	32.574615
2032.000000	32.713735
2031.000000	32.865420
2030.000000	32.977146
2029.000000	33.085816
2028.000000	33.212258
2027.000000	33.335418
2026.000000	33.431409
2025.000000	33.520043
2024.000000	33.587057
2023.000000	33.677049
2022.000000	33.773380
2021.000000	33.834168
2020.000000	33.870504
2019.000000	33.917481
2018.000000	33.992418
2017.000000	34.024566
2016.000000	34.057620
2015.000000	34.077430
2014.000000	34.115804
2013.000000	34.146933
2012.000000	34.164139
2011.000000	34.146594
2010.000000	34.147273
2009.000000	34.144103
2008.000000	34.122143
2007.000000	34.099164
2006.000000	34.060563
2005.000000	34.012115
2004.000000	33.995927
2003.000000	33.945894
2002.000000	33.887484
2001.000000	33.808811
2000.000000	33.725045
1999.000000	33.686671
1998.000000	33.603697
1997.000000	33.519251
1996.000000	33.419637
1995.000000	33.328852
1994.000000	33.260481
1993.000000	33.158716
1992.000000	33.060007
1991.000000	32.957903
1990.000000	32.846403
1989.000000	32.737393
1988.000000	32.635968
1987.000000	32.520393
1986.000000	32.420552
1985.000000	32.299091
1984.000000	32.175253
1983.000000	32.067488
1982.000000	31.938895
1981.000000	31.828301
1980.000000	31.698463
1979.000000	31.581190
1978.000000	31.468445
1977.000000	31.345399
1976.000000	31.194733
1975.000000	31.095571
1974.000000	30.970827
1973.000000	30.860912
1972.000000	30.739451
1971.000000	30.637346
1970.000000	30.502641
1969.000000	30.399857
1968.000000	30.278169
1967.000000	30.149237
1966.000000	30.043850
1965.000000	29.935859
1964.000000	29.855036
1963.000000	29.696672
1962.000000	29.594001
1961.000000	29.489633
1960.000000	29.349833
1959.000000	29.246710
1958.000000	29.120608
1957.000000	28.988845
1956.000000	28.868290
1955.000000	28.758261
1954.000000	28.640083
1953.000000	28.526772
1952.000000	28.388897
1951.000000	28.295848
1950.000000	28.177556
1949.000000	28.081564
1948.000000	27.993610
1947.000000	27.885166
1946.000000	27.819738
1945.000000	27.733141
1944.000000	27.666468
1943.000000	27.596511
1942.000000	27.516594
1941.000000	27.478899
1940.000000	27.469277
1939.000000	27.435431
1938.000000	27.408150
1937.000000	27.394906
1936.000000	27.409622
1935.000000	27.421055
1934.000000	27.447543
1933.000000	27.500859
1932.000000	27.560854
1931.000000	27.636697
1930.000000	27.729972
1929.000000	27.816115
1928.000000	27.950028
1927.000000	28.067415
1926.000000	28.213327
1925.000000	28.389123
1924.000000	28.565712
1923.000000	28.716039
1922.000000	28.927945
1921.000000	29.204940
1920.000000	29.473898
1919.000000	29.737310
1918.000000	30.001853
1917.000000	30.283942
1916.000000	30.560372
1915.000000	30.869741
1914.000000	31.252577
1913.000000	31.691671
1912.000000	32.097146
1911.000000	32.490961
1910.000000	32.895757
1909.000000	33.263537
1908.000000	33.677728
1907.000000	34.166969
1906.000000	34.726167
1905.000000	35.328832
1904.000000	35.929913
1903.000000	36.477338
1902.000000	37.062118
1901.000000	37.623014
1900.000000	38.281260
1899.000000	39.007990
1898.000000	39.674046
1897.000000	40.353573
1896.000000	40.963370
1895.000000	41.516115
1894.000000	42.147194
1893.000000	42.820042
1892.000000	43.549715
1891.000000	44.275653
1890.000000	44.939106
1889.000000	45.549129
1888.000000	46.177604
1887.000000	46.744386
1886.000000	47.312866
1885.000000	47.886666
1884.000000	48.490350
1883.000000	49.030304
1882.000000	49.476870
1881.000000	49.909625
1880.000000	50.318835
1879.000000	50.694426
1878.000000	51.084053
1877.000000	51.438136
1876.000000	51.771957
1875.000000	52.089477
1874.000000	52.399186
1873.000000	52.719989
1872.000000	53.025057
1871.000000	53.284167
1870.000000	53.529807
1869.000000	53.747486
1868.000000	53.945809
1867.000000	54.073949
1866.000000	54.129076
1865.000000	54.220880
1864.000000	54.301929
1863.000000	54.365999
1862.000000	54.468217
1861.000000	54.601224
1860.000000	54.727327
1859.000000	54.826715
1858.000000	54.918971
1857.000000	54.980211
1856.000000	55.005114
1855.000000	55.039640
1854.000000	55.110389
1853.000000	55.146046
1852.000000	55.144235
1851.000000	55.171742
1850.000000	55.185665
1849.000000	55.224039
1848.000000	55.286524
1847.000000	55.345048
1846.000000	55.303730
1845.000000	55.216229
1844.000000	55.129406
1843.000000	55.098503
1842.000000	55.151479
1841.000000	55.202984
1840.000000	55.177288
1839.000000	55.106087
1838.000000	55.047677
1837.000000	55.031716
1836.000000	55.019264
1835.000000	54.972966
1834.000000	54.872786
1833.000000	54.770568
1832.000000	54.702650
1831.000000	54.682953
1830.000000	54.681482
1829.000000	54.656578
1828.000000	54.590131
1827.000000	54.539418
1826.000000	54.530589
1825.000000	54.496630
1824.000000	54.453048
1823.000000	54.423730
1822.000000	54.454520
1821.000000	54.525948
1820.000000	54.570321
1819.000000	54.527193
1818.000000	54.465161
1817.000000	54.443879
1816.000000	54.455878
1815.000000	54.454180
1814.000000	54.423164
1813.000000	54.414448
1812.000000	54.407882
1811.000000	54.395431
1810.000000	54.334191
1809.000000	54.280761
1808.000000	54.250311
1807.000000	54.235369
1806.000000	54.225294
1805.000000	54.194391
1804.000000	54.156357
1803.000000	54.128171
1802.000000	54.123303
1801.000000	54.131340
1800.000000	54.085721
1799.000000	54.047121
1798.000000	54.024255
1797.000000	53.999351
1796.000000	53.989843
1795.000000	53.963354
1794.000000	53.937206
1793.000000	53.921245
1792.000000	53.902567
1791.000000	53.890795
1790.000000	53.870645
1789.000000	53.883323
1788.000000	53.887172
1787.000000	53.891700
1786.000000	53.906303
1785.000000	53.917736
1784.000000	53.931319
1783.000000	53.912302
1782.000000	53.900643
1781.000000	53.890568
1780.000000	53.872004
1779.000000	53.858307
1778.000000	53.842685
1777.000000	53.813028
1776.000000	53.765598
1775.000000	53.712961
1774.000000	53.675379
1773.000000	53.647645
1772.000000	53.601574
1771.000000	53.547465
1770.000000	53.519732
1769.000000	53.481358
1768.000000	53.436758
1767.000000	53.402798
1766.000000	53.361481
1765.000000	53.349369
1764.000000	53.325937
1763.000000	53.306014
1762.000000	53.301373
1761.000000	53.301826
1760.000000	53.314844
1759.000000	53.321749
1758.000000	53.339068
1757.000000	53.341672
1756.000000	53.342238
1755.000000	53.353444
1754.000000	53.343370
1753.000000	53.351180
1752.000000	53.359783
1751.000000	53.334087
1750.000000	53.316994
1749.000000	53.285299
1748.000000	53.228813
1747.000000	53.176969
1746.000000	53.106220
1745.000000	53.033094
1744.000000	52.940951
1743.000000	52.859562
1742.000000	52.761080
1741.000000	52.667125
1740.000000	52.573511
1739.000000	52.468803
1738.000000	52.407676
1737.000000	52.336248
1736.000000	52.270933
1735.000000	52.206750
1734.000000	52.170300
1733.000000	52.137812
1732.000000	52.100117
1731.000000	52.059819
1730.000000	52.021445
1729.000000	51.973336
1728.000000	51.941640
1727.000000	51.909492
1726.000000	51.863986
1725.000000	51.842705
1724.000000	51.848139
1723.000000	51.879721
1722.000000	51.948772
1721.000000	52.096382
1720.000000	52.270706
1719.000000	52.516006
1718.000000	52.753382
1717.000000	53.022906
1716.000000	53.283601
1715.000000	53.541013
1714.000000	53.764919
1713.000000	53.977957
1712.000000	54.174921
1711.000000	54.343360
1710.000000	54.505119
1709.000000	54.625788
1708.000000	54.751891
1707.000000	54.837242
1706.000000	54.921348
1705.000000	54.972287
1704.000000	55.016095
1703.000000	55.025490
1702.000000	55.028320
1701.000000	55.058883
1700.000000	55.033074
1699.000000	55.028320
1698.000000	55.016887
1697.000000	55.007039
1696.000000	54.998209
1695.000000	54.961647
1694.000000	54.902557
1693.000000	54.832827
1692.000000	54.782454
1691.000000	54.727440
1690.000000	54.674350
1689.000000	54.671181
1688.000000	54.712838
1687.000000	54.815848
1686.000000	54.950553
1685.000000	55.159516
1684.000000	55.415570
1683.000000	55.683623
1682.000000	55.978956
1681.000000	56.273384
1680.000000	56.574490
1679.000000	56.862465
1678.000000	57.140253
1677.000000	57.411588
1676.000000	57.647040
1675.000000	57.884755
1674.000000	58.112962
1673.000000	58.322152
1672.000000	58.542775
1671.000000	58.751964
1670.000000	58.974398
1669.000000	59.187210
1668.000000	59.403079
1667.000000	59.579780
1666.000000	59.734296
1665.000000	59.896508
1664.000000	60.026346
1663.000000	60.182446
1662.000000	60.298361
1661.000000	60.415520
1660.000000	60.506192
1659.000000	60.597090
1658.000000	60.683460
1657.000000	60.740172
1656.000000	60.815675
1655.000000	60.862312
1654.000000	60.910308
1653.000000	60.943702
1652.000000	60.971322
1651.000000	60.974944
1650.000000	60.975737
1649.000000	60.993396
1648.000000	60.982981
1647.000000	60.968945
1646.000000	60.974265
1645.000000	60.962379
1644.000000	60.934306
1643.000000	60.911327
1642.000000	60.901139
1641.000000	60.872727
1640.000000	60.857898
1639.000000	60.856539
1638.000000	60.846804
1637.000000	60.824504
1636.000000	60.840352
1635.000000	60.795299
1634.000000	60.776848
1633.000000	60.731456
1632.000000	60.703835
1631.000000	60.668970
1630.000000	60.610221
1629.000000	60.564602
1628.000000	60.523511
1627.000000	60.484798
1626.000000	60.440311
1625.000000	60.383825
1624.000000	60.359940
1623.000000	60.328698
1622.000000	60.294059
1621.000000	60.252629
1620.000000	60.226254
1619.000000	60.197275
1618.000000	60.166711
1617.000000	60.139884
1616.000000	60.104339
1615.000000	60.072757
1614.000000	60.046156
1613.000000	60.008008
1612.000000	59.954126
1611.000000	59.896282
1610.000000	59.839230
1609.000000	59.774594
1608.000000	59.715844
1607.000000	59.651888
1606.000000	59.568008
1605.000000	59.489675
1604.000000	59.406475
1603.000000	59.314331
1602.000000	59.253318
1601.000000	59.173513
1600.000000	59.075937
1599.000000	58.992736
1598.000000	58.917460
1597.000000	58.844673
1596.000000	58.770642
1595.000000	58.694460
1594.000000	58.620655
1593.000000	58.557604
1592.000000	58.499193
1591.000000	58.448028
1590.000000	58.396410
1589.000000	58.323624
1588.000000	58.263629
1587.000000	58.205105
1586.000000	58.154393
1585.000000	58.105038
1584.000000	58.063382
1583.000000	58.011877
1582.000000	57.960598
1581.000000	57.921205
1580.000000	57.883963
1579.000000	57.852720
1578.000000	57.829628
1577.000000	57.814912
1576.000000	57.818648
1575.000000	57.820912
1574.000000	57.806196
1573.000000	57.808800
1572.000000	57.822949
1571.000000	57.843212
1570.000000	57.855777
1569.000000	57.878643
1568.000000	57.922450
1567.000000	57.961504
1566.000000	57.984483
1565.000000	58.012556
1564.000000	58.045044
1563.000000	58.072890
1562.000000	58.082738
1561.000000	58.085342
1560.000000	58.082172
1559.000000	58.075947
1558.000000	58.061797
1557.000000	58.026819
1556.000000	57.980747
1555.000000	57.935242
1554.000000	57.875020
1553.000000	57.814912
1552.000000	57.754691
1551.000000	57.673189
1550.000000	57.580366
1549.000000	57.495694
1548.000000	57.401627
1547.000000	57.329407
1546.000000	57.273260
1545.000000	57.211002
1544.000000	57.154063
1543.000000	57.108331
1542.000000	57.076183
1541.000000	57.045280
1540.000000	57.003397
1539.000000	56.974871
1538.000000	56.941251
1537.000000	56.912386
1536.000000	56.882728
1535.000000	56.839713
1534.000000	56.803263
1533.000000	56.763644
1532.000000	56.711233
1531.000000	56.649767
1530.000000	56.605280
1529.000000	56.553322
1528.000000	56.493893
1527.000000	56.422465
1526.000000	56.359640
1525.000000	56.301230
1524.000000	56.230595
1523.000000	56.170826
1522.000000	56.111397
1521.000000	56.043592
1520.000000	55.974541
1519.000000	55.901415
1518.000000	55.827497
1517.000000	55.750749
1516.000000	55.673322
1515.000000	55.602233
1514.000000	55.515750
1513.000000	55.440021
1512.000000	55.351613
1511.000000	55.273846
1510.000000	55.208757
1509.000000	55.117746
1508.000000	55.046545
1507.000000	54.964929
1506.000000	54.895426
1505.000000	54.811546
1504.000000	54.742043
1503.000000	54.682501
1502.000000	54.624317
1501.000000	54.558322
1500.000000	54.496516
1499.000000	54.443540
1498.000000	54.417504
1497.000000	54.385356
1496.000000	54.372904
1495.000000	54.355811
1494.000000	54.345850
1493.000000	54.349472
1492.000000	54.359094
1491.000000	54.378677
1490.000000	54.382413
1489.000000	54.408562
1488.000000	54.445917
1487.000000	54.465274
1486.000000	54.494818
1485.000000	54.498667
1484.000000	54.532627
1483.000000	54.558436
1482.000000	54.597376
1481.000000	54.637787
1480.000000	54.671520
1479.000000	54.695745
1478.000000	54.750759
1477.000000	54.788567
1476.000000	54.826035
1475.000000	54.886370
1474.000000	54.977155
1473.000000	55.057865
1472.000000	55.158498
1471.000000	55.251320
1470.000000	55.307013
1469.000000	55.368366
1468.000000	55.454736
1467.000000	55.555709
1466.000000	55.671963
1465.000000	55.753239
1464.000000	55.851495
1463.000000	55.955863
1462.000000	56.041441
1461.000000	56.148753
1460.000000	56.283798
1459.000000	56.374809
1458.000000	56.478725
1457.000000	56.604601
1456.000000	56.703309
1455.000000	56.832128
1454.000000	56.932648
1453.000000	57.041318
1452.000000	57.199003
1451.000000	57.314691
1450.000000	57.425738
1449.000000	57.471017
1448.000000	57.554557
1447.000000	57.701148
1446.000000	57.860871
1445.000000	57.961277
1444.000000	58.031233
1443.000000	58.122471
1442.000000	58.253780
1441.000000	58.378298
1440.000000	58.482553
1439.000000	58.610127
1438.000000	58.767359
1437.000000	58.859842
1436.000000	59.006999
1435.000000	59.132649
1434.000000	59.328708
1433.000000	59.472922
1432.000000	59.640681
1431.000000	59.806969
1430.000000	59.957522
1429.000000	60.141921
1428.000000	60.367185
1427.000000	60.558829
1426.000000	60.782508
1425.000000	60.996905
1424.000000	61.278428
1423.000000	61.530406
1422.000000	61.737672
1421.000000	61.994857
1420.000000	62.314868
1419.000000	62.661932
1418.000000	62.916741
1417.000000	63.114045
1416.000000	63.435640
1415.000000	63.794477
1414.000000	64.225422
1413.000000	64.549960
1412.000000	64.790505
1411.000000	65.185566
1410.000000	65.612888
1409.000000	66.086168
1408.000000	66.436516
1407.000000	66.813238
1406.000000	67.164152
1405.000000	67.587172
1404.000000	67.892580
1403.000000	68.285603
1402.000000	68.578672
1401.000000	69.078328
1400.000000	69.538704
1399.000000	69.776646
1398.000000	69.852715
1397.000000	70.193667
1396.000000	70.657552
1395.000000	71.051707
1394.000000	71.202486
1393.000000	71.375113
1392.000000	71.705538
1391.000000	71.943819
1390.000000	72.131841
1389.000000	72.399327
1388.000000	72.793822
1387.000000	72.990786
1386.000000	73.204617
1385.000000	73.454332
1384.000000	73.763362
1383.000000	73.962930
1382.000000	74.196683
1381.000000	74.323012
1380.000000	74.321314
1379.000000	74.450020
1378.000000	74.496431
1377.000000	74.562086
1376.000000	74.628080
1375.000000	74.715356
1374.000000	74.802632
1373.000000	74.946506
1372.000000	75.077702
1371.000000	75.221237
1370.000000	75.271724
1369.000000	75.353339
1368.000000	75.517703
1367.000000	75.557209
1366.000000	75.615845
1365.000000	75.735608
1364.000000	75.830129
1363.000000	75.871786
1362.000000	76.045318
1361.000000	76.080070
1360.000000	76.063316
1359.000000	76.041130
1358.000000	76.040564
1357.000000	76.081654
1356.000000	76.139499
1355.000000	76.255753
1354.000000	76.380384
1353.000000	76.403363
1352.000000	76.489054
1351.000000	76.631683
1350.000000	76.757106
1349.000000	76.885812
1348.000000	77.035913
1347.000000	77.175599
1346.000000	77.235933
1345.000000	77.364300
1344.000000	77.511230
1343.000000	77.612316
1342.000000	77.690309
1341.000000	77.797055
1340.000000	77.896330
1339.000000	77.978172
1338.000000	78.054580
1337.000000	78.120461
1336.000000	78.184418
1335.000000	78.249620
1334.000000	78.318897
1333.000000	78.374477
1332.000000	78.418285
1331.000000	78.455188
1330.000000	78.495260
1329.000000	78.522314
1328.000000	78.558990
1327.000000	78.584120
1326.000000	78.612872
1325.000000	78.634153
1324.000000	78.646718
1323.000000	78.665170
1322.000000	78.690186
1321.000000	78.695393
1320.000000	78.704110
1319.000000	78.733315
1318.000000	78.743163
1317.000000	78.745540
1316.000000	78.758105
1315.000000	78.781197
1314.000000	78.787084
1313.000000	78.789574
1312.000000	78.792970
1311.000000	78.798177
1310.000000	78.811987
1309.000000	78.814251
1308.000000	78.802365
1307.000000	78.807686
1306.000000	78.821949
1305.000000	78.810063
1304.000000	78.798064
1303.000000	78.796026
1302.000000	78.788442
1301.000000	78.783688
1300.000000	78.780066
1299.000000	78.769085
1298.000000	78.758897
1297.000000	78.747917
1296.000000	78.734900
1295.000000	78.726297
1294.000000	78.705921
1293.000000	78.673659
1292.000000	78.654869
1291.000000	78.633474
1290.000000	78.597477
1289.000000	78.573932
1288.000000	78.566348
1287.000000	78.551632
1286.000000	78.521974
1285.000000	78.495826
1284.000000	78.453716
1283.000000	78.404588
1282.000000	78.377081
1281.000000	78.349461
1280.000000	78.321388
1279.000000	78.292183
1278.000000	78.275203
1277.000000	78.247017
1276.000000	78.210454
1275.000000	78.184305
1274.000000	78.164156
1273.000000	78.152496
1272.000000	78.138573
1271.000000	78.122499
1270.000000	78.106538
1269.000000	78.093747
1268.000000	78.061146
1267.000000	78.040317
1266.000000	78.024470
1265.000000	77.989718
1264.000000	77.961532
1263.000000	77.954400
1262.000000	77.922365
1261.000000	77.882746
1260.000000	77.864295
1259.000000	77.851503
1258.000000	77.829769
1257.000000	77.787094
1256.000000	77.760153
1255.000000	77.730042
1254.000000	77.695630
1253.000000	77.680688
1252.000000	77.642653
1251.000000	77.591827
1250.000000	77.533530
1249.000000	77.507721
1248.000000	77.446028
1247.000000	77.389316
1246.000000	77.341207
1245.000000	77.283250
1244.000000	77.219633
1243.000000	77.165977
1242.000000	77.119000
1241.000000	77.064099
1240.000000	77.016556
1239.000000	76.972975
1238.000000	76.935619
1237.000000	76.901547
1236.000000	76.857626
1235.000000	76.805894
1234.000000	76.759370
1233.000000	76.729599
1232.000000	76.703450
1231.000000	76.665755
1230.000000	76.636550
1229.000000	76.585838
1228.000000	76.556293
1227.000000	76.531842
1226.000000	76.499128
1225.000000	76.475583
1224.000000	76.441963
1223.000000	76.412305
1222.000000	76.392609
1221.000000	76.356952
1220.000000	76.324803
1219.000000	76.278619
1218.000000	76.270921
1217.000000	76.231755
1216.000000	76.208096
1215.000000	76.164289
1214.000000	76.104634
1213.000000	76.076447
1212.000000	76.010227
1211.000000	75.970154
1210.000000	75.927252
1209.000000	75.882879
1208.000000	75.807376
1207.000000	75.725987
1206.000000	75.684330
1205.000000	75.608714
1204.000000	75.547700
1203.000000	75.476385
1202.000000	75.408240
1201.000000	75.341453
1200.000000	75.270252
1199.000000	75.188976
1198.000000	75.115058
1197.000000	75.051101
1196.000000	74.958958
1195.000000	74.868173
1194.000000	74.762446
1193.000000	74.697584
1192.000000	74.596725
1191.000000	74.524052
1190.000000	74.440851
1189.000000	74.356858
1188.000000	74.286449
1187.000000	74.226794
1186.000000	74.201777
1185.000000	74.157630
1184.000000	74.134990
1183.000000	74.135104
1182.000000	74.133179
1181.000000	74.147216
1180.000000	74.161705
1179.000000	74.161139
1178.000000	74.180270
1177.000000	74.192948
1176.000000	74.217625
1175.000000	74.214003
1174.000000	74.245585
1173.000000	74.242302
1172.000000	74.280676
1171.000000	74.304448
1170.000000	74.330144
1169.000000	74.389120
1168.000000	74.410288
1167.000000	74.492243
1166.000000	74.521335
1165.000000	74.579858
1164.000000	74.660455
1163.000000	74.737769
1162.000000	74.791199
1161.000000	74.835119
1160.000000	74.874286
1159.000000	74.938129
1158.000000	74.977749
1157.000000	75.021103
1156.000000	75.063779
1155.000000	75.093211
1154.000000	75.115963
1153.000000	75.125698
1152.000000	75.157281
1151.000000	75.166450
1150.000000	75.134528
1149.000000	75.102040
1148.000000	75.121736
1147.000000	75.126604
1146.000000	75.131698
1145.000000	75.123095
1144.000000	75.090494
1143.000000	75.087890
1142.000000	75.070345
1141.000000	75.080872
1140.000000	75.095361
1139.000000	75.086079
1138.000000	75.100229
1137.000000	75.102946
1136.000000	75.147998
1135.000000	75.190447
1134.000000	75.228935
1133.000000	75.159431
1132.000000	75.144376
1131.000000	75.128528
1130.000000	75.161016
1129.000000	75.152526
1128.000000	75.134754
1127.000000	75.114492
1126.000000	75.083589
1125.000000	75.090381
1124.000000	75.062647
1123.000000	75.032084
1122.000000	75.007407
1121.000000	74.968014
1120.000000	74.924546
1119.000000	74.853910
1118.000000	74.839421
1117.000000	74.805461
1116.000000	74.762333
1115.000000	74.716828
1114.000000	74.662153
1113.000000	74.620270
1112.000000	74.591404
1111.000000	74.545899
1110.000000	74.513977
1109.000000	74.468471
1108.000000	74.431116
1107.000000	74.378253
1106.000000	74.331276
1105.000000	74.301278
1104.000000	74.259508
1103.000000	74.218417
1102.000000	74.167139
1101.000000	74.119030
1100.000000	74.090390
1099.000000	74.027792
1098.000000	73.988399
1097.000000	73.932366
1096.000000	73.890030
1095.000000	73.844864
1094.000000	73.795170
1093.000000	73.758268
1092.000000	73.680727
1091.000000	73.643372
1090.000000	73.595263
1089.000000	73.533683
1088.000000	73.487159
1087.000000	73.444483
1086.000000	73.397053
1085.000000	73.344982
1084.000000	73.288157
1083.000000	73.242991
1082.000000	73.197146
1081.000000	73.152546
1080.000000	73.095268
1079.000000	73.047951
1078.000000	72.991126
1077.000000	72.938828
1076.000000	72.909963
1075.000000	72.867061
1074.000000	72.818952
1073.000000	72.771069
1072.000000	72.727262
1071.000000	72.690925
1070.000000	72.640099
1069.000000	72.594367
1068.000000	72.551805
1067.000000	72.506299
1066.000000	72.476528
1065.000000	72.435777
1064.000000	72.389592
1063.000000	72.344766
1062.000000	72.298015
1061.000000	72.259415
1060.000000	72.232700
1059.000000	72.209381
1058.000000	72.168743
1057.000000	72.127086
1056.000000	72.081807
1055.000000	72.026001
1054.000000	71.982533
1053.000000	71.965213
1052.000000	71.935782
1051.000000	71.902728
1050.000000	71.869674
1049.000000	71.839111
1048.000000	71.809340
1047.000000	71.781154
1046.000000	71.753420
1045.000000	71.735309
1044.000000	71.714593
1043.000000	71.691275
1042.000000	71.667163
1041.000000	71.637845
1040.000000	71.619734
1039.000000	71.604225
1038.000000	71.595509
1037.000000	71.605357
1036.000000	71.596188
1035.000000	71.565512
1034.000000	71.544457
1033.000000	71.554192
1032.000000	71.565059
1031.000000	71.567889
1030.000000	71.567549
1029.000000	71.582718
1028.000000	71.590981
1027.000000	71.607961
1026.000000	71.642147
1025.000000	71.665239
1024.000000	71.695123
1023.000000	71.742327
1022.000000	71.789644
1021.000000	71.848167
1020.000000	71.902049
1019.000000	71.948800
1018.000000	72.017964
1017.000000	72.104447
1016.000000	72.180289
1015.000000	72.267225
1014.000000	72.372726
1013.000000	72.462152
1012.000000	72.560521
1011.000000	72.655268
1010.000000	72.764617
1009.000000	72.897398
1008.000000	73.027915
1007.000000	73.133416
1006.000000	73.244916
1005.000000	73.374980
1004.000000	73.521458
1003.000000	73.655597
1002.000000	73.779549
1001.000000	73.913802
1000.000000	74.035150
999.000000	74.169969
998.000000	74.312711
997.000000	74.446171
996.000000	74.569670
995.000000	74.711847
994.000000	74.852325
993.000000	74.998351
992.000000	75.155017
991.000000	75.299004
990.000000	75.451595
989.000000	75.609506
988.000000	75.803301
987.000000	75.980003
986.000000	76.137121
985.000000	76.290844
984.000000	76.476036
983.000000	76.647870
982.000000	76.823553
981.000000	77.001614
980.000000	77.196993
979.000000	77.380034
978.000000	77.567150
977.000000	77.732985
976.000000	77.919762
975.000000	78.097143
974.000000	78.289239
973.000000	78.455640
972.000000	78.656114
971.000000	78.852286
970.000000	79.018913
969.000000	79.219952
968.000000	79.419973
967.000000	79.591468
966.000000	79.770207
965.000000	79.986755
964.000000	80.163344
963.000000	80.332574
962.000000	80.563725
961.000000	80.776876
960.000000	80.944183
959.000000	81.112508
958.000000	81.276984
957.000000	81.488891
956.000000	81.684270
955.000000	81.862331
954.000000	82.009941
953.000000	82.173851
952.000000	82.345006
951.000000	82.543329
950.000000	82.734407
949.000000	82.890167
948.000000	83.030533
947.000000	83.184482
946.000000	83.405557
945.000000	83.567317
944.000000	83.698061
943.000000	83.921513
942.000000	84.064143
941.000000	84.217752
940.000000	84.417320
939.000000	84.538895
938.000000	84.682090
937.000000	84.821663
936.000000	84.966217
935.000000	85.189103
934.000000	85.323356
933.000000	85.461231
932.000000	85.564581
931.000000	85.768224
930.000000	85.863649
929.000000	86.051671
928.000000	86.158530
927.000000	86.264483
926.000000	86.374285
925.000000	86.468805
924.000000	86.642111
923.000000	86.719539
922.000000	86.808852
921.000000	86.906881
920.000000	87.031059
919.000000	87.108147
918.000000	87.273755
917.000000	87.315073
916.000000	87.378237
915.000000	87.455098
914.000000	87.541468
913.000000	87.614934
912.000000	87.700398
911.000000	87.784504
910.000000	87.847669
909.000000	87.898721
908.000000	87.958150
907.000000	88.156359
906.000000	88.218052
905.000000	88.213864
904.000000	88.274311
903.000000	88.332382
902.000000	88.410828
901.000000	88.474445
900.000000	88.525045
899.000000	88.588096
898.000000	88.649223
897.000000	88.716689
896.000000	88.773740
895.000000	88.817322
894.000000	88.881052
893.000000	88.891466
892.000000	88.817435
891.000000	88.869845
890.000000	88.897805
889.000000	88.951688
888.000000	88.968554
887.000000	89.027643
886.000000	89.066470
885.000000	89.063301
884.000000	88.999231
883.000000	89.060584
882.000000	89.067715
881.000000	89.013833
880.000000	89.070885
879.000000	89.099864
878.000000	89.156349
877.000000	89.143784
876.000000	89.078016
875.000000	89.049604
874.000000	88.935727
873.000000	88.901428
872.000000	88.909125
871.000000	88.761289
870.000000	88.683182
869.000000	88.520404
868.000000	88.435279
867.000000	88.263444
866.000000	88.175716
865.000000	87.959395
864.000000	87.855366
863.000000	87.629423
862.000000	87.500377
861.000000	87.130447
860.000000	86.804777
859.000000	86.584720
858.000000	88.356267
857.000000	87.886400
856.000000	88.375100
855.000000	88.807300
854.000000	89.276500
853.000000	89.492700
852.000000	90.021500
851.000000	90.159400
850.000000	90.418700
849.000000	91.015000
848.000000	91.291700
847.000000	91.616500
846.000000	91.615300
845.000000	92.131400
844.000000	92.371300
843.000000	92.856300
842.000000	93.381600
841.000000	93.573800
840.000000	93.601000
839.000000	94.142900
838.000000	94.392000
837.000000	94.537600
836.000000	94.780300
835.000000	95.258900
834.000000	95.308700
833.000000	95.589800
832.000000	95.917900
831.000000	95.927900
830.000000	96.191700
829.000000	96.255500
828.000000	96.368400
827.000000	96.709300
826.000000	96.772700
825.000000	96.977400
824.000000	97.209300
823.000000	97.345900
822.000000	97.287300
821.000000	97.503900
820.000000	97.692200
819.000000	97.725600
818.000000	97.672100
817.000000	97.828900
816.000000	97.767700
815.000000	97.920500
814.000000	97.988000
813.000000	97.867800
812.000000	97.761600
811.000000	97.755200
810.000000	97.825100
809.000000	97.902600
808.000000	97.820100
807.000000	97.983600
806.000000	97.949900
805.000000	97.954400
804.000000	97.934200
803.000000	97.967700
802.000000	97.856400
801.000000	97.808300
800.000000	97.732900
799.000000	97.700300
798.000000	97.633100
797.000000	97.620500
796.000000	97.560600
795.000000	97.403600
794.000000	97.460200
793.000000	97.402700
792.000000	97.279300
791.000000	97.234400
790.000000	97.088800
789.000000	97.003300
788.000000	96.969800
787.000000	96.859200
786.000000	96.843500
785.000000	96.945700
784.000000	96.855800
783.000000	96.737000
782.000000	96.648900
781.000000	96.550300
780.000000	96.463500
779.000000	96.353600
778.000000	96.313200
777.000000	96.248600
776.000000	96.181700
775.000000	96.190800
774.000000	96.186100
773.000000	96.121600
772.000000	96.115500
771.000000	96.046800
770.000000	95.990500
769.000000	95.877500
768.000000	95.787100
767.000000	95.778400
766.000000	95.731300
765.000000	95.700200
764.000000	95.757500
763.000000	95.702800
762.000000	95.628500
761.000000	95.446500
760.000000	95.335900
759.000000	95.301600
758.000000	95.186600
757.000000	95.075100
756.000000	94.957400
755.000000	94.830000
754.000000	94.713100
753.000000	94.606900
752.000000	94.489800
751.000000	94.347000
750.000000	94.259400
749.000000	94.135800
748.000000	94.049900
747.000000	93.880300
746.000000	93.585000
745.000000	93.380000
744.000000	93.228900
743.000000	92.998500
742.000000	92.786700
741.000000	92.524900
740.000000	92.244500
739.000000	92.025900
738.000000	91.757800
737.000000	91.408000
736.000000	91.043300
735.000000	90.717400
734.000000	90.385700
733.000000	90.044000
732.000000	89.716400
731.000000	89.308900
730.000000	88.858300
729.000000	88.426100
728.000000	87.999600
727.000000	87.612600
726.000000	87.252400
725.000000	86.813800
724.000000	86.348100
723.000000	85.880900
722.000000	85.446500
721.000000	85.047300
720.000000	84.540600
719.000000	84.099500
718.000000	83.665700
717.000000	83.188300
716.000000	82.791100
715.000000	82.265300
714.000000	81.730700
713.000000	81.211500
712.000000	80.794100
711.000000	80.355400
710.000000	79.829200
709.000000	79.339700
708.000000	78.859400
707.000000	78.381400
706.000000	77.929500
705.000000	77.547600
704.000000	77.101700
703.000000	76.681500
702.000000	76.228500
701.000000	75.791700
700.000000	75.404900
699.000000	74.979800
698.000000	74.584300
697.000000	74.237600
696.000000	73.890500
695.000000	73.487800
694.000000	73.165700
693.000000	72.741000
692.000000	72.444800
691.000000	72.144400
690.000000	71.717000
689.000000	71.397200
688.000000	71.024700
687.000000	70.656800
686.000000	70.314700
685.000000	69.997700
684.000000	69.664400
683.000000	69.324500
682.000000	69.005700
681.000000	68.718900
680.000000	68.417600
679.000000	68.073200
678.000000	67.779700
677.000000	67.452600
676.000000	67.206200
675.000000	66.913200
674.000000	66.648500
673.000000	66.396400
672.000000	66.104200
671.000000	65.883900
670.000000	65.660600
669.000000	65.509100
668.000000	65.281900
667.000000	65.086900
666.000000	64.933600
665.000000	64.793500
664.000000	64.669200
663.000000	64.522800
662.000000	64.360000
661.000000	64.252500
660.000000	64.098000
659.000000	63.993500
658.000000	63.836400
657.000000	63.661900
656.000000	63.505200
655.000000	63.374200
654.000000	63.150700
653.000000	62.982500
652.000000	62.808200
651.000000	62.606100
650.000000	62.383600
649.000000	62.178900
648.000000	62.002800
647.000000	61.806700
646.000000	61.661800
645.000000	61.510400
644.000000	61.392500
643.000000	61.302300
642.000000	61.199400
641.000000	61.172600
640.000000	61.180800
639.000000	61.229100
638.000000	61.310600
637.000000	61.404100
636.000000	61.462700
635.000000	61.693900
634.000000	61.908500
633.000000	62.101000
632.000000	62.406100
631.000000	62.696400
630.000000	62.944900
629.000000	63.247000
628.000000	63.619600
627.000000	64.015000
626.000000	64.406000
625.000000	64.807300
624.000000	65.155100
623.000000	65.570000
622.000000	65.951900
621.000000	66.381200
620.000000	66.830000
619.000000	67.197600
618.000000	67.636700
617.000000	68.084300
616.000000	68.549600
615.000000	68.912800
614.000000	69.392300
613.000000	69.819900
612.000000	70.205100
611.000000	70.590700
610.000000	70.934900
609.000000	71.280000
608.000000	71.639100
607.000000	71.905200
606.000000	72.234000
605.000000	72.416800
604.000000	72.651300
603.000000	72.868700
602.000000	73.044800
601.000000	73.226500
600.000000	73.313200
599.000000	73.447200
598.000000	73.573700
597.000000	73.567800
596.000000	73.641500
595.000000	73.620300
594.000000	73.624100
593.000000	73.594900
592.000000	73.620700
591.000000	73.539900
590.000000	73.530100
589.000000	73.462000
588.000000	73.381700
587.000000	73.274200
586.000000	73.204900
585.000000	73.062700
584.000000	72.953700
583.000000	72.799800
582.000000	72.681700
581.000000	72.514300
580.000000	72.326000
579.000000	72.180800
578.000000	71.986600
577.000000	71.833200
576.000000	71.615800
575.000000	71.437100
574.000000	71.195700
573.000000	70.940700
572.000000	70.662800
571.000000	70.359500
570.000000	70.017800
569.000000	69.752600
568.000000	69.433900
567.000000	69.094700
566.000000	68.740400
565.000000	68.371500
564.000000	67.978600
563.000000	67.596600
562.000000	67.168900
561.000000	66.745200
560.000000	66.327800
559.000000	65.902300
558.000000	65.408900
557.000000	64.949700
556.000000	64.461700
555.000000	63.947700
554.000000	63.434600
553.000000	62.906700
552.000000	62.338800
551.000000	61.752100
550.000000	61.132100
549.000000	60.534000
548.000000	59.943100
547.000000	59.278800
546.000000	58.645400
545.000000	57.972200
544.000000	57.310600
543.000000	56.623800
542.000000	55.942100
541.000000	55.263800
540.000000	54.571800
539.000000	53.869100
538.000000	53.184800
537.000000	52.497200
536.000000	51.808900
535.000000	51.127600
534.000000	50.424500
533.000000	49.741300
532.000000	49.062200
531.000000	48.376200
530.000000	47.682500
529.000000	46.961600
528.000000	46.262600
527.000000	45.589700
526.000000	44.910600
525.000000	44.234300
524.000000	43.540300
523.000000	42.824500
522.000000	42.099900
521.000000	41.413200
520.000000	40.710400
519.000000	39.999200
518.000000	39.310700
517.000000	38.621100
516.000000	37.914200
515.000000	37.196600
514.000000	36.505900
513.000000	35.788800
512.000000	35.105100
511.000000	34.424600
510.000000	33.755400
509.000000	33.092100
508.000000	32.459300
507.000000	31.845200
506.000000	31.268400
505.000000	30.731600
504.000000	30.198500
503.000000	29.708000
502.000000	29.253900
501.000000	28.858500
500.000000	28.490400
499.000000	28.141000
498.000000	27.857500
497.000000	27.655500
496.000000	27.442700
495.000000	27.285100
494.000000	27.167000
493.000000	27.094500
492.000000	27.049000
491.000000	27.011800
490.000000	27.007800
489.000000	27.010900
488.000000	27.058500
487.000000	27.121200
486.000000	27.183700
485.000000	27.236500
484.000000	27.298800
483.000000	27.376500
482.000000	27.425000
481.000000	27.446500
480.000000	27.465700
479.000000	27.492400
478.000000	27.524900
477.000000	27.530100
476.000000	27.555800
475.000000	27.589800
474.000000	27.598200
473.000000	27.591000
472.000000	27.578300
471.000000	27.567300
470.000000	27.543900
469.000000	27.526900
468.000000	27.489100
467.000000	27.436300
466.000000	27.390400
465.000000	27.329600
464.000000	27.270400
463.000000	27.192700
462.000000	27.096400
461.000000	27.003400
460.000000	26.892300
459.000000	26.776300
458.000000	26.655400
457.000000	26.528000
456.000000	26.381000
455.000000	26.222700
454.000000	26.057600
453.000000	25.891600
452.000000	25.708200
451.000000	25.500500
450.000000	25.291900
449.000000	25.077500
448.000000	24.838300
447.000000	24.580500
446.000000	24.322900
445.000000	24.061500
444.000000	23.781100
443.000000	23.474800
442.000000	23.157300
441.000000	22.834000
440.000000	22.498800
439.000000	22.142900
438.000000	21.775400
437.000000	21.417800
436.000000	21.055300
435.000000	20.666100
434.000000	20.255700
433.000000	19.841300
432.000000	19.437400
431.000000	19.017100
430.000000	18.570800
429.000000	18.134400
428.000000	17.705800
427.000000	17.275100
426.000000	16.831500
425.000000	16.384900
424.000000	15.947600
423.000000	15.507400
422.000000	15.067300
421.000000	14.637400
420.000000	14.224700
419.000000	13.816200
418.000000	13.416400
417.000000	13.024000
416.000000	12.655500
415.000000	12.299400
414.000000	11.958500
413.000000	11.619100
412.000000	11.284000
411.000000	10.978000
410.000000	10.669700
409.000000	10.390000
408.000000	10.131700
407.000000	9.870400
406.000000	9.637800
405.000000	9.411600
404.000000	9.185000
403.000000	8.992100
402.000000	8.810000
401.000000	8.633300
400.000000	8.459800
399.000000	8.304000
398.000000	8.154000
397.000000	8.027500
396.000000	7.908100
395.000000	7.765900
394.000000	7.648900
393.000000	7.550700
392.000000	7.436000
391.000000	7.360700
390.000000	7.289800
389.000000	7.212000
388.000000	7.155000
387.000000	7.076700
386.000000	6.983600
385.000000	6.937000
384.000000	6.895500
383.000000	6.836500
382.000000	6.777900
381.000000	6.730300
380.000000	6.698500
379.000000	6.650800
378.000000	6.585700
377.000000	6.550700
376.000000	6.568500
375.000000	6.526300
374.000000	6.541000
373.000000	6.531800
372.000000	6.451700
371.000000	6.376300
370.000000	6.353500
369.000000	6.331800
368.000000	6.295200
367.000000	6.278500
366.000000	6.270900
365.000000	6.283600
364.000000	6.242000
363.000000	6.237000
362.000000	6.196500
361.000000	6.170000
360.000000	6.183100
359.000000	6.093200
358.000000	6.036900
357.000000	6.053600
356.000000	6.058900
355.000000	6.066400
354.000000	6.122900
353.000000	5.994600
352.000000	5.959900
351.000000	5.894000
350.000000	5.948300
349.000000	5.872500
348.000000	5.876400
347.000000	5.935200
346.000000	5.940200
345.000000	5.907500
344.000000	5.844100
343.000000	5.864500
342.000000	5.882300
341.000000	5.884000
340.000000	6.715600
339.000000	6.032800
338.000000	5.811600
337.000000	6.049400
336.000000	5.988000
335.000000	5.760100
334.000000	5.802900
333.000000	5.762300
332.000000	5.784100
331.000000	5.917400
330.000000	5.864100
329.000000	5.842600
328.000000	5.885300
327.000000	5.980900
326.000000	5.736700
325.000000	5.671400
324.000000	5.935300
323.000000	6.067400
322.000000	6.031800
321.000000	5.758000
320.000000	5.827500
319.000000	5.739700
318.000000	5.879500
317.000000	6.063700
316.000000	5.750100
315.000000	5.746100
314.000000	5.725300
313.000000	5.759000
312.000000	5.687000
311.000000	5.725900
310.000000	5.689300
309.000000	5.689700
308.000000	5.733000
307.000000	5.755900
306.000000	5.746100
305.000000	5.766800
304.000000	5.758600
303.000000	5.730500
302.000000	5.703800
301.000000	5.764100
300.000000	5.760100
299.000000	5.774900
298.000000	5.748100
297.000000	5.835700
296.000000	5.738700
295.000000	5.735600
294.000000	5.710500
293.000000	5.813400
292.000000	5.765900
291.000000	5.772200
290.000000	5.833200
289.000000	5.805900
288.000000	5.828100
287.000000	5.814400
286.000000	5.806300
285.000000	5.828100
284.000000	5.830000
283.000000	5.822000
282.000000	5.806000
281.000000	5.838800
280.000000	5.919900
279.000000	5.868000
278.000000	5.871900
277.000000	5.889100
276.000000	5.900200
275.000000	5.931900
274.000000	5.935200
273.000000	5.970500
272.000000	5.975600
271.000000	6.039100
270.000000	6.013500
269.000000	6.007900
268.000000	6.075500
267.000000	6.109900
266.000000	6.183800
265.000000	6.145600
264.000000	6.183500
263.000000	6.229800
262.000000	6.205700
261.000000	6.230700
260.000000	6.272400
259.000000	6.320200
258.000000	6.375400
257.000000	6.385500
256.000000	6.368300
255.000000	6.380200
254.000000	6.345900
253.000000	6.400400
252.000000	6.424100
251.000000	6.450700
250.000000	6.475500
