PE UV       SUBTECH     SPECTRUM    ASCII       PEDS        4.00        
   -1
CICIMAUCR0158-2.Sample.ASC
24/04/11
11:32:05.00
24/04/11
11:32:05.00
Vinicio Soto Monge
C.cupreomarginata
250,000000
1
Lambda 1050
1050L1511233
PerkinElmer UV WinLab 6.3.2.0749 / 2.02.05 Lambda 900 UV/VIS/NIR, Aug  7 2015 09:38:08

0
0
3350/2 860,8/2
0
0
UV/VIS
1
1
1
DoubleDePol,CommonBeamDepol,RBeamAtt,SBeamAtt,60mm sphere, WB InGaAs Detector
0
0
0
0
Program
Program
3350/2 860,8/2
3350/0,2 860,8/0,2
3350/0,2 860,8/0,2
0
15.00
 
 
 
0
 
860,8
319,2
860,8
Front
100
on
S:100 R:100
0
0
0
0
 
0
 
 
 
0
 
 
0
0
0
0
0
 
 
 
 
0
0


0
0
#HDR
-1
-1
#GR
nm
%R
1.0
0.0
2400,000000
-1,000000
2151
8
75,735800
5,513200
#DATA
2400.000000	25.709600
2399.000000	27.179900
2398.000000	27.343300
2397.000000	26.441600
2396.000000	26.188000
2395.000000	27.060500
2394.000000	26.288200
2393.000000	26.817800
2392.000000	26.324400
2391.000000	27.815000
2390.000000	27.384600
2389.000000	26.713000
2388.000000	26.670400
2387.000000	27.022200
2386.000000	26.607700
2385.000000	27.089300
2384.000000	26.831000
2383.000000	26.847200
2382.000000	27.008700
2381.000000	26.865400
2380.000000	26.906200
2379.000000	26.763300
2378.000000	26.382500
2377.000000	26.482500
2376.000000	26.253600
2375.000000	26.840800
2374.000000	26.854900
2373.000000	26.865200
2372.000000	27.323400
2371.000000	26.957400
2370.000000	27.245300
2369.000000	26.237800
2368.000000	26.096800
2367.000000	26.648800
2366.000000	26.288400
2365.000000	26.381100
2364.000000	27.092900
2363.000000	27.465300
2362.000000	26.823000
2361.000000	26.319400
2360.000000	26.508000
2359.000000	26.738100
2358.000000	26.879100
2357.000000	26.470700
2356.000000	26.373800
2355.000000	26.192400
2354.000000	26.039700
2353.000000	26.081200
2352.000000	26.306100
2351.000000	26.184900
2350.000000	26.553800
2349.000000	26.153200
2348.000000	26.302400
2347.000000	25.337000
2346.000000	25.957100
2345.000000	25.708700
2344.000000	25.784500
2343.000000	25.730900
2342.000000	26.241800
2341.000000	26.539000
2340.000000	26.230100
2339.000000	26.552300
2338.000000	25.752000
2337.000000	25.847200
2336.000000	26.268200
2335.000000	25.905100
2334.000000	26.314000
2333.000000	26.139800
2332.000000	25.850100
2331.000000	25.759700
2330.000000	25.578900
2329.000000	25.399000
2328.000000	26.044600
2327.000000	26.360900
2326.000000	25.899900
2325.000000	26.150100
2324.000000	26.429100
2323.000000	25.965400
2322.000000	25.938800
2321.000000	25.735500
2320.000000	25.904800
2319.000000	26.251900
2318.000000	26.322300
2317.000000	26.013500
2316.000000	25.716200
2315.000000	25.916900
2314.000000	25.872000
2313.000000	25.723100
2312.000000	25.509700
2311.000000	25.509700
2310.000000	25.600800
2309.000000	25.268200
2308.000000	25.094900
2307.000000	25.382100
2306.000000	25.069700
2305.000000	24.829300
2304.000000	25.439800
2303.000000	25.496700
2302.000000	25.282900
2301.000000	25.365700
2300.000000	25.139300
2299.000000	25.047300
2298.000000	24.977000
2297.000000	24.978400
2296.000000	25.011300
2295.000000	25.031400
2294.000000	25.010900
2293.000000	25.119800
2292.000000	25.033400
2291.000000	25.188100
2290.000000	25.191600
2289.000000	25.143100
2288.000000	25.395800
2287.000000	25.063200
2286.000000	25.090300
2285.000000	25.323600
2284.000000	25.528700
2283.000000	25.173200
2282.000000	25.199500
2281.000000	25.456700
2280.000000	25.084600
2279.000000	25.095300
2278.000000	25.694200
2277.000000	25.759600
2276.000000	25.467600
2275.000000	25.663800
2274.000000	25.838400
2273.000000	25.835100
2272.000000	25.537000
2271.000000	25.632100
2270.000000	25.872200
2269.000000	25.931000
2268.000000	25.746700
2267.000000	25.706100
2266.000000	25.977800
2265.000000	25.865200
2264.000000	25.983500
2263.000000	26.461200
2262.000000	26.403900
2261.000000	26.294200
2260.000000	26.454500
2259.000000	26.561800
2258.000000	26.664400
2257.000000	26.747700
2256.000000	26.951700
2255.000000	27.356300
2254.000000	27.497000
2253.000000	27.570100
2252.000000	27.857900
2251.000000	28.022500
2250.000000	28.091200
2249.000000	28.272700
2248.000000	28.340600
2247.000000	28.182900
2246.000000	28.483700
2245.000000	28.609300
2244.000000	28.624700
2243.000000	28.834600
2242.000000	28.850300
2241.000000	29.207900
2240.000000	29.247100
2239.000000	29.196900
2238.000000	29.395200
2237.000000	29.620700
2236.000000	29.548900
2235.000000	29.192800
2234.000000	29.482300
2233.000000	29.644600
2232.000000	29.323400
2231.000000	29.416500
2230.000000	29.355800
2229.000000	29.495100
2228.000000	29.352300
2227.000000	29.389900
2226.000000	29.231300
2225.000000	29.256600
2224.000000	29.059600
2223.000000	28.955500
2222.000000	28.893900
2221.000000	28.709700
2220.000000	28.742600
2219.000000	28.653000
2218.000000	28.531300
2217.000000	28.525900
2216.000000	28.407600
2215.000000	28.268400
2214.000000	28.155800
2213.000000	27.956700
2212.000000	28.080600
2211.000000	27.830300
2210.000000	27.859500
2209.000000	27.747600
2208.000000	27.676900
2207.000000	27.785700
2206.000000	27.570300
2205.000000	27.674200
2204.000000	27.714400
2203.000000	27.470200
2202.000000	27.357200
2201.000000	27.679500
2200.000000	27.458100
2199.000000	27.143900
2198.000000	27.148500
2197.000000	27.027500
2196.000000	26.746700
2195.000000	26.990800
2194.000000	27.240700
2193.000000	27.063300
2192.000000	27.118000
2191.000000	27.350300
2190.000000	27.399200
2189.000000	27.268500
2188.000000	27.085100
2187.000000	26.872900
2186.000000	27.143800
2185.000000	26.892500
2184.000000	26.902800
2183.000000	26.665600
2182.000000	26.679300
2181.000000	26.935800
2180.000000	26.744800
2179.000000	27.068500
2178.000000	27.038900
2177.000000	26.801900
2176.000000	26.787200
2175.000000	26.820900
2174.000000	26.475000
2173.000000	26.640500
2172.000000	26.572700
2171.000000	26.738100
2170.000000	27.221700
2169.000000	27.101000
2168.000000	26.886000
2167.000000	26.986800
2166.000000	26.908000
2165.000000	26.552200
2164.000000	26.942500
2163.000000	27.261100
2162.000000	27.134800
2161.000000	27.177100
2160.000000	27.489500
2159.000000	27.506500
2158.000000	27.348500
2157.000000	27.488800
2156.000000	27.729600
2155.000000	27.810000
2154.000000	27.992100
2153.000000	27.940200
2152.000000	28.171600
2151.000000	28.014000
2150.000000	28.083700
2149.000000	28.791900
2148.000000	28.405200
2147.000000	29.103700
2146.000000	29.233500
2145.000000	28.960900
2144.000000	28.966400
2143.000000	29.009700
2142.000000	29.441500
2141.000000	28.762700
2140.000000	29.402900
2139.000000	29.434100
2138.000000	29.722700
2137.000000	30.089900
2136.000000	30.028500
2135.000000	30.222000
2134.000000	30.234500
2133.000000	29.844500
2132.000000	30.451000
2131.000000	30.242300
2130.000000	30.409800
2129.000000	30.367400
2128.000000	30.622700
2127.000000	30.573100
2126.000000	30.406300
2125.000000	30.888800
2124.000000	30.789100
2123.000000	30.428800
2122.000000	30.864300
2121.000000	30.628800
2120.000000	30.650500
2119.000000	30.775400
2118.000000	30.550400
2117.000000	30.882700
2116.000000	30.970900
2115.000000	31.043500
2114.000000	31.045100
2113.000000	30.835100
2112.000000	30.984200
2111.000000	30.860400
2110.000000	30.897500
2109.000000	30.936900
2108.000000	30.847100
2107.000000	31.102600
2106.000000	30.835300
2105.000000	30.994800
2104.000000	30.642800
2103.000000	30.596600
2102.000000	30.962400
2101.000000	30.788800
2100.000000	30.744200
2099.000000	31.057600
2098.000000	30.675100
2097.000000	30.962600
2096.000000	31.006900
2095.000000	30.775400
2094.000000	30.719400
2093.000000	30.914600
2092.000000	30.746800
2091.000000	30.651500
2090.000000	30.689700
2089.000000	31.063700
2088.000000	31.025800
2087.000000	30.671100
2086.000000	30.596400
2085.000000	30.696600
2084.000000	30.538300
2083.000000	30.656100
2082.000000	30.665100
2081.000000	30.585800
2080.000000	30.387300
2079.000000	30.526700
2078.000000	30.414400
2077.000000	30.262200
2076.000000	30.117100
2075.000000	30.075000
2074.000000	29.954200
2073.000000	29.944900
2072.000000	29.899400
2071.000000	29.770500
2070.000000	29.550800
2069.000000	29.309800
2068.000000	29.385700
2067.000000	29.171200
2066.000000	29.078100
2065.000000	28.881000
2064.000000	28.740600
2063.000000	28.697000
2062.000000	28.563700
2061.000000	28.549700
2060.000000	28.276800
2059.000000	28.197300
2058.000000	28.173700
2057.000000	28.073100
2056.000000	28.066700
2055.000000	27.857900
2054.000000	27.857800
2053.000000	28.005500
2052.000000	27.900200
2051.000000	27.994100
2050.000000	28.130100
2049.000000	28.118800
2048.000000	28.129800
2047.000000	28.396600
2046.000000	28.556100
2045.000000	28.762400
2044.000000	28.893500
2043.000000	29.029000
2042.000000	29.094000
2041.000000	29.298900
2040.000000	29.495400
2039.000000	29.565100
2038.000000	29.577100
2037.000000	29.759600
2036.000000	29.886800
2035.000000	29.928900
2034.000000	30.058200
2033.000000	30.144600
2032.000000	30.353300
2031.000000	30.479700
2030.000000	30.451500
2029.000000	30.574100
2028.000000	30.711700
2027.000000	30.729700
2026.000000	30.790600
2025.000000	30.775200
2024.000000	30.815100
2023.000000	30.857700
2022.000000	30.985300
2021.000000	31.044400
2020.000000	31.017300
2019.000000	31.062300
2018.000000	31.164500
2017.000000	31.197800
2016.000000	31.157200
2015.000000	31.109100
2014.000000	31.149800
2013.000000	31.101900
2012.000000	31.054300
2011.000000	31.078800
2010.000000	31.118400
2009.000000	31.100200
2008.000000	31.088400
2007.000000	31.034700
2006.000000	30.941000
2005.000000	30.951700
2004.000000	30.885800
2003.000000	30.857500
2002.000000	30.843400
2001.000000	30.759300
2000.000000	30.684100
1999.000000	30.485000
1998.000000	30.361300
1997.000000	30.348900
1996.000000	30.195200
1995.000000	30.092100
1994.000000	29.990600
1993.000000	29.913800
1992.000000	29.842700
1991.000000	29.752300
1990.000000	29.695900
1989.000000	29.591400
1988.000000	29.425900
1987.000000	29.298900
1986.000000	29.206100
1985.000000	29.124500
1984.000000	28.996600
1983.000000	28.872300
1982.000000	28.745600
1981.000000	28.626000
1980.000000	28.479900
1979.000000	28.385600
1978.000000	28.291600
1977.000000	28.143800
1976.000000	28.005700
1975.000000	27.880700
1974.000000	27.768100
1973.000000	27.742400
1972.000000	27.620600
1971.000000	27.490600
1970.000000	27.389100
1969.000000	27.314500
1968.000000	27.265100
1967.000000	27.166400
1966.000000	27.024200
1965.000000	26.902100
1964.000000	26.763300
1963.000000	26.736600
1962.000000	26.654300
1961.000000	26.555300
1960.000000	26.486500
1959.000000	26.382000
1958.000000	26.236500
1957.000000	26.092800
1956.000000	26.050000
1955.000000	25.921400
1954.000000	25.822400
1953.000000	25.744100
1952.000000	25.639400
1951.000000	25.543900
1950.000000	25.472100
1949.000000	25.394800
1948.000000	25.296700
1947.000000	25.230700
1946.000000	25.159000
1945.000000	25.144000
1944.000000	25.049100
1943.000000	24.950900
1942.000000	24.958000
1941.000000	24.973700
1940.000000	24.975500
1939.000000	24.941300
1938.000000	24.845500
1937.000000	24.892900
1936.000000	24.857600
1935.000000	24.799400
1934.000000	24.926100
1933.000000	25.005900
1932.000000	25.030800
1931.000000	25.136300
1930.000000	25.192800
1929.000000	25.305400
1928.000000	25.483500
1927.000000	25.525500
1926.000000	25.550100
1925.000000	25.711500
1924.000000	25.852500
1923.000000	25.950800
1922.000000	26.170100
1921.000000	26.569800
1920.000000	26.679200
1919.000000	26.614900
1918.000000	26.826400
1917.000000	27.250200
1916.000000	27.570500
1915.000000	27.935900
1914.000000	28.253100
1913.000000	28.463600
1912.000000	28.679800
1911.000000	29.163100
1910.000000	29.350900
1909.000000	29.749700
1908.000000	30.182300
1907.000000	30.773300
1906.000000	31.274400
1905.000000	31.676800
1904.000000	32.121300
1903.000000	32.717300
1902.000000	33.219900
1901.000000	33.592800
1900.000000	34.638800
1899.000000	34.997800
1898.000000	35.533700
1897.000000	35.913900
1896.000000	36.511700
1895.000000	37.212400
1894.000000	37.849000
1893.000000	38.471900
1892.000000	39.050500
1891.000000	39.670100
1890.000000	40.406100
1889.000000	40.893300
1888.000000	41.336700
1887.000000	42.081800
1886.000000	42.564900
1885.000000	43.068700
1884.000000	43.672400
1883.000000	43.914400
1882.000000	44.460300
1881.000000	44.932900
1880.000000	45.206100
1879.000000	45.567500
1878.000000	46.107200
1877.000000	46.599100
1876.000000	46.718200
1875.000000	46.984300
1874.000000	47.579200
1873.000000	47.909700
1872.000000	47.987300
1871.000000	48.520900
1870.000000	48.218900
1869.000000	48.404800
1868.000000	48.752300
1867.000000	48.546200
1866.000000	48.438600
1865.000000	48.867200
1864.000000	49.069800
1863.000000	48.932300
1862.000000	49.087700
1861.000000	49.530300
1860.000000	49.687300
1859.000000	49.400500
1858.000000	49.472000
1857.000000	49.749900
1856.000000	49.567600
1855.000000	49.553800
1854.000000	50.037600
1853.000000	49.879400
1852.000000	49.535800
1851.000000	49.723800
1850.000000	49.838800
1849.000000	50.107100
1848.000000	50.394700
1847.000000	50.176600
1846.000000	49.602500
1845.000000	49.557100
1844.000000	49.766300
1843.000000	49.946800
1842.000000	50.129900
1841.000000	49.810700
1840.000000	49.838900
1839.000000	49.757100
1838.000000	49.761600
1837.000000	49.785700
1836.000000	49.743100
1835.000000	49.549000
1834.000000	49.363900
1833.000000	49.396800
1832.000000	49.432100
1831.000000	49.512500
1830.000000	49.430400
1829.000000	49.294300
1828.000000	49.231300
1827.000000	49.280700
1826.000000	49.242800
1825.000000	48.973500
1824.000000	49.020000
1823.000000	49.207000
1822.000000	49.338200
1821.000000	49.315200
1820.000000	49.210300
1819.000000	49.022300
1818.000000	49.070200
1817.000000	49.081000
1816.000000	49.094300
1815.000000	48.971400
1814.000000	48.950700
1813.000000	49.036200
1812.000000	49.029900
1811.000000	48.953200
1810.000000	48.864200
1809.000000	48.810000
1808.000000	48.861300
1807.000000	48.885400
1806.000000	48.852000
1805.000000	48.739100
1804.000000	48.703200
1803.000000	48.766300
1802.000000	48.772900
1801.000000	48.718400
1800.000000	48.649700
1799.000000	48.580100
1798.000000	48.558300
1797.000000	48.588700
1796.000000	48.544800
1795.000000	48.527300
1794.000000	48.510400
1793.000000	48.487700
1792.000000	48.460300
1791.000000	48.456800
1790.000000	48.453700
1789.000000	48.409800
1788.000000	48.433000
1787.000000	48.466500
1786.000000	48.464900
1785.000000	48.462000
1784.000000	48.436000
1783.000000	48.416700
1782.000000	48.437300
1781.000000	48.433200
1780.000000	48.408700
1779.000000	48.420900
1778.000000	48.383500
1777.000000	48.367500
1776.000000	48.339600
1775.000000	48.291000
1774.000000	48.244500
1773.000000	48.164700
1772.000000	48.114600
1771.000000	48.112900
1770.000000	48.084400
1769.000000	48.042500
1768.000000	48.031200
1767.000000	47.990900
1766.000000	47.962300
1765.000000	47.932900
1764.000000	47.883100
1763.000000	47.814100
1762.000000	47.803000
1761.000000	47.794500
1760.000000	47.791700
1759.000000	47.774000
1758.000000	47.788700
1757.000000	47.799600
1756.000000	47.788700
1755.000000	47.779600
1754.000000	47.759900
1753.000000	47.761700
1752.000000	47.780200
1751.000000	47.748100
1750.000000	47.703400
1749.000000	47.684300
1748.000000	47.650600
1747.000000	47.599700
1746.000000	47.536500
1745.000000	47.481800
1744.000000	47.428300
1743.000000	47.378500
1742.000000	47.301500
1741.000000	47.241700
1740.000000	47.213700
1739.000000	47.137300
1738.000000	47.060200
1737.000000	47.020500
1736.000000	46.964200
1735.000000	46.943500
1734.000000	46.956000
1733.000000	46.911100
1732.000000	46.855800
1731.000000	46.837600
1730.000000	46.804800
1729.000000	46.778900
1728.000000	46.791900
1727.000000	46.784400
1726.000000	46.751400
1725.000000	46.745200
1724.000000	46.768700
1723.000000	46.830000
1722.000000	46.907900
1721.000000	47.016800
1720.000000	47.186400
1719.000000	47.367100
1718.000000	47.573500
1717.000000	47.793400
1716.000000	47.985100
1715.000000	48.189700
1714.000000	48.382700
1713.000000	48.548500
1712.000000	48.683900
1711.000000	48.798500
1710.000000	48.905800
1709.000000	49.045400
1708.000000	49.153100
1707.000000	49.234000
1706.000000	49.259700
1705.000000	49.291500
1704.000000	49.332200
1703.000000	49.353700
1702.000000	49.418900
1701.000000	49.420200
1700.000000	49.412600
1699.000000	49.432000
1698.000000	49.419100
1697.000000	49.428900
1696.000000	49.447600
1695.000000	49.418800
1694.000000	49.362900
1693.000000	49.324500
1692.000000	49.271700
1691.000000	49.234400
1690.000000	49.234500
1689.000000	49.214600
1688.000000	49.250600
1687.000000	49.366500
1686.000000	49.507100
1685.000000	49.665900
1684.000000	49.882500
1683.000000	50.051700
1682.000000	50.274100
1681.000000	50.528500
1680.000000	50.744000
1679.000000	50.948400
1678.000000	51.133100
1677.000000	51.322800
1676.000000	51.495500
1675.000000	51.660800
1674.000000	51.840300
1673.000000	51.985000
1672.000000	52.195900
1671.000000	52.367700
1670.000000	52.534800
1669.000000	52.709800
1668.000000	52.843200
1667.000000	53.034900
1666.000000	53.178000
1665.000000	53.319300
1664.000000	53.421600
1663.000000	53.553300
1662.000000	53.684000
1661.000000	53.799400
1660.000000	53.881500
1659.000000	53.954100
1658.000000	54.032300
1657.000000	54.114700
1656.000000	54.157800
1655.000000	54.202300
1654.000000	54.248300
1653.000000	54.246800
1652.000000	54.282900
1651.000000	54.311800
1650.000000	54.294700
1649.000000	54.289800
1648.000000	54.320700
1647.000000	54.280800
1646.000000	54.272200
1645.000000	54.268900
1644.000000	54.244000
1643.000000	54.213000
1642.000000	54.232900
1641.000000	54.200000
1640.000000	54.214800
1639.000000	54.181000
1638.000000	54.192100
1637.000000	54.136600
1636.000000	54.142600
1635.000000	54.133300
1634.000000	54.086600
1633.000000	54.037300
1632.000000	53.989000
1631.000000	53.948900
1630.000000	53.913300
1629.000000	53.838100
1628.000000	53.821800
1627.000000	53.762800
1626.000000	53.736000
1625.000000	53.683900
1624.000000	53.638200
1623.000000	53.556400
1622.000000	53.506300
1621.000000	53.501200
1620.000000	53.451600
1619.000000	53.449000
1618.000000	53.420000
1617.000000	53.387200
1616.000000	53.327700
1615.000000	53.292700
1614.000000	53.248800
1613.000000	53.224700
1612.000000	53.173800
1611.000000	53.100100
1610.000000	53.067900
1609.000000	52.974100
1608.000000	52.923300
1607.000000	52.848800
1606.000000	52.804400
1605.000000	52.709300
1604.000000	52.661100
1603.000000	52.579900
1602.000000	52.482000
1601.000000	52.446400
1600.000000	52.341800
1599.000000	52.279300
1598.000000	52.194400
1597.000000	52.101000
1596.000000	52.062600
1595.000000	51.999600
1594.000000	51.939400
1593.000000	51.864800
1592.000000	51.799400
1591.000000	51.754300
1590.000000	51.691100
1589.000000	51.643800
1588.000000	51.588600
1587.000000	51.549800
1586.000000	51.491600
1585.000000	51.434600
1584.000000	51.370100
1583.000000	51.321700
1582.000000	51.280500
1581.000000	51.269400
1580.000000	51.211800
1579.000000	51.174100
1578.000000	51.152700
1577.000000	51.138700
1576.000000	51.123300
1575.000000	51.079700
1574.000000	51.065600
1573.000000	51.082800
1572.000000	51.069200
1571.000000	51.088500
1570.000000	51.064300
1569.000000	51.097700
1568.000000	51.101900
1567.000000	51.129900
1566.000000	51.132600
1565.000000	51.109100
1564.000000	51.099300
1563.000000	51.137000
1562.000000	51.132800
1561.000000	51.125400
1560.000000	51.094200
1559.000000	51.057000
1558.000000	51.016500
1557.000000	51.009000
1556.000000	50.923300
1555.000000	50.868300
1554.000000	50.825100
1553.000000	50.760200
1552.000000	50.659400
1551.000000	50.597000
1550.000000	50.511900
1549.000000	50.417500
1548.000000	50.338700
1547.000000	50.273600
1546.000000	50.205200
1545.000000	50.117500
1544.000000	50.072200
1543.000000	50.008300
1542.000000	49.977100
1541.000000	49.925200
1540.000000	49.876300
1539.000000	49.845100
1538.000000	49.797900
1537.000000	49.742700
1536.000000	49.727000
1535.000000	49.668000
1534.000000	49.609600
1533.000000	49.560200
1532.000000	49.526900
1531.000000	49.467200
1530.000000	49.406300
1529.000000	49.344600
1528.000000	49.272200
1527.000000	49.235600
1526.000000	49.177100
1525.000000	49.114500
1524.000000	49.047800
1523.000000	48.989600
1522.000000	48.930500
1521.000000	48.857000
1520.000000	48.823700
1519.000000	48.768000
1518.000000	48.671600
1517.000000	48.615700
1516.000000	48.572200
1515.000000	48.496400
1514.000000	48.435600
1513.000000	48.373200
1512.000000	48.299000
1511.000000	48.232700
1510.000000	48.159400
1509.000000	48.099300
1508.000000	48.034300
1507.000000	47.973100
1506.000000	47.914000
1505.000000	47.856900
1504.000000	47.805300
1503.000000	47.749500
1502.000000	47.699700
1501.000000	47.665600
1500.000000	47.630400
1499.000000	47.586200
1498.000000	47.558600
1497.000000	47.547200
1496.000000	47.530600
1495.000000	47.523800
1494.000000	47.534600
1493.000000	47.543100
1492.000000	47.560700
1491.000000	47.589900
1490.000000	47.632600
1489.000000	47.666500
1488.000000	47.683600
1487.000000	47.709600
1486.000000	47.734800
1485.000000	47.765900
1484.000000	47.797400
1483.000000	47.829600
1482.000000	47.890100
1481.000000	47.934500
1480.000000	47.962600
1479.000000	47.986400
1478.000000	48.032000
1477.000000	48.078700
1476.000000	48.093000
1475.000000	48.138600
1474.000000	48.206700
1473.000000	48.285200
1472.000000	48.356100
1471.000000	48.417100
1470.000000	48.467500
1469.000000	48.500900
1468.000000	48.551300
1467.000000	48.639700
1466.000000	48.720100
1465.000000	48.785200
1464.000000	48.866900
1463.000000	48.937400
1462.000000	49.019700
1461.000000	49.112700
1460.000000	49.190600
1459.000000	49.273400
1458.000000	49.371200
1457.000000	49.479400
1456.000000	49.565900
1455.000000	49.636900
1454.000000	49.728700
1453.000000	49.834000
1452.000000	49.939600
1451.000000	50.061200
1450.000000	50.129300
1449.000000	50.176800
1448.000000	50.269200
1447.000000	50.395700
1446.000000	50.516200
1445.000000	50.565900
1444.000000	50.619200
1443.000000	50.737600
1442.000000	50.857400
1441.000000	50.948400
1440.000000	51.062400
1439.000000	51.186400
1438.000000	51.299700
1437.000000	51.384000
1436.000000	51.489900
1435.000000	51.641000
1434.000000	51.776800
1433.000000	51.947700
1432.000000	52.116400
1431.000000	52.190400
1430.000000	52.335800
1429.000000	52.545700
1428.000000	52.733200
1427.000000	52.886700
1426.000000	53.071600
1425.000000	53.308000
1424.000000	53.567900
1423.000000	53.773500
1422.000000	53.986000
1421.000000	54.258300
1420.000000	54.573100
1419.000000	54.834300
1418.000000	55.047800
1417.000000	55.289800
1416.000000	55.655800
1415.000000	56.070100
1414.000000	56.366600
1413.000000	56.620100
1412.000000	56.938100
1411.000000	57.376000
1410.000000	57.858500
1409.000000	58.211500
1408.000000	58.583800
1407.000000	59.009800
1406.000000	59.367600
1405.000000	59.801900
1404.000000	60.118400
1403.000000	60.454100
1402.000000	61.039800
1401.000000	61.598300
1400.000000	61.792000
1399.000000	61.903900
1398.000000	62.302300
1397.000000	62.879800
1396.000000	63.321300
1395.000000	63.483900
1394.000000	63.694800
1393.000000	64.125000
1392.000000	64.380300
1391.000000	64.562200
1390.000000	64.960700
1389.000000	65.362400
1388.000000	65.704100
1387.000000	65.901600
1386.000000	66.230500
1385.000000	66.581600
1384.000000	66.915400
1383.000000	67.278500
1382.000000	67.297900
1381.000000	67.389300
1380.000000	67.468500
1379.000000	67.555900
1378.000000	67.669800
1377.000000	67.796700
1376.000000	67.964900
1375.000000	68.093100
1374.000000	68.198300
1373.000000	68.386300
1372.000000	68.600600
1371.000000	68.688600
1370.000000	68.744700
1369.000000	68.973200
1368.000000	69.118900
1367.000000	69.084100
1366.000000	69.259400
1365.000000	69.470300
1364.000000	69.357000
1363.000000	69.605600
1362.000000	69.843400
1361.000000	69.677000
1360.000000	69.690400
1359.000000	69.710200
1358.000000	69.775800
1357.000000	69.905700
1356.000000	70.087900
1355.000000	70.226700
1354.000000	70.192700
1353.000000	70.297700
1352.000000	70.495900
1351.000000	70.607000
1350.000000	70.757600
1349.000000	70.967300
1348.000000	71.171300
1347.000000	71.229700
1346.000000	71.363400
1345.000000	71.540600
1344.000000	71.702100
1343.000000	71.834300
1342.000000	71.972900
1341.000000	72.134700
1340.000000	72.231000
1339.000000	72.331600
1338.000000	72.485900
1337.000000	72.597300
1336.000000	72.701400
1335.000000	72.794900
1334.000000	72.881600
1333.000000	73.012200
1332.000000	73.075400
1331.000000	73.147300
1330.000000	73.211100
1329.000000	73.303900
1328.000000	73.379000
1327.000000	73.437000
1326.000000	73.517100
1325.000000	73.577200
1324.000000	73.641200
1323.000000	73.695700
1322.000000	73.731000
1321.000000	73.786500
1320.000000	73.843200
1319.000000	73.875300
1318.000000	73.912500
1317.000000	73.952900
1316.000000	73.986100
1315.000000	74.045300
1314.000000	74.079300
1313.000000	74.114100
1312.000000	74.145400
1311.000000	74.171600
1310.000000	74.184900
1309.000000	74.225800
1308.000000	74.267200
1307.000000	74.260000
1306.000000	74.273700
1305.000000	74.326800
1304.000000	74.337000
1303.000000	74.324900
1302.000000	74.319700
1301.000000	74.332600
1300.000000	74.342900
1299.000000	74.350600
1298.000000	74.350100
1297.000000	74.345700
1296.000000	74.353100
1295.000000	74.342900
1294.000000	74.326000
1293.000000	74.328100
1292.000000	74.320600
1291.000000	74.297400
1290.000000	74.284300
1289.000000	74.277500
1288.000000	74.258600
1287.000000	74.225200
1286.000000	74.213200
1285.000000	74.175500
1284.000000	74.167900
1283.000000	74.146400
1282.000000	74.122900
1281.000000	74.088500
1280.000000	74.062800
1279.000000	74.070700
1278.000000	74.046600
1277.000000	74.023800
1276.000000	74.021600
1275.000000	74.022900
1274.000000	74.025900
1273.000000	74.014600
1272.000000	74.007900
1271.000000	74.008200
1270.000000	74.010300
1269.000000	74.031500
1268.000000	74.039700
1267.000000	74.047800
1266.000000	74.048500
1265.000000	74.060300
1264.000000	74.051500
1263.000000	74.062100
1262.000000	74.067200
1261.000000	74.074300
1260.000000	74.073200
1259.000000	74.071900
1258.000000	74.068400
1257.000000	74.074300
1256.000000	74.070400
1255.000000	74.065100
1254.000000	74.046600
1253.000000	74.045900
1252.000000	74.029500
1251.000000	73.988800
1250.000000	73.969100
1249.000000	73.944600
1248.000000	73.917800
1247.000000	73.885900
1246.000000	73.846000
1245.000000	73.806900
1244.000000	73.770000
1243.000000	73.727300
1242.000000	73.694700
1241.000000	73.685800
1240.000000	73.646300
1239.000000	73.619400
1238.000000	73.580900
1237.000000	73.556000
1236.000000	73.550400
1235.000000	73.517000
1234.000000	73.497500
1233.000000	73.477400
1232.000000	73.449100
1231.000000	73.425600
1230.000000	73.405500
1229.000000	73.386600
1228.000000	73.367200
1227.000000	73.342200
1226.000000	73.310800
1225.000000	73.280200
1224.000000	73.249900
1223.000000	73.216800
1222.000000	73.189300
1221.000000	73.163800
1220.000000	73.121800
1219.000000	73.095400
1218.000000	73.078500
1217.000000	73.052400
1216.000000	73.012900
1215.000000	72.964400
1214.000000	72.922800
1213.000000	72.892700
1212.000000	72.851400
1211.000000	72.808500
1210.000000	72.748000
1209.000000	72.689300
1208.000000	72.640800
1207.000000	72.599200
1206.000000	72.541200
1205.000000	72.489500
1204.000000	72.456700
1203.000000	72.406900
1202.000000	72.341200
1201.000000	72.284000
1200.000000	72.231000
1199.000000	72.161400
1198.000000	72.091900
1197.000000	72.031600
1196.000000	71.979900
1195.000000	71.919900
1194.000000	71.842700
1193.000000	71.780100
1192.000000	71.723100
1191.000000	71.654300
1190.000000	71.591400
1189.000000	71.550800
1188.000000	71.516800
1187.000000	71.501600
1186.000000	71.514700
1185.000000	71.529200
1184.000000	71.537300
1183.000000	71.554900
1182.000000	71.603100
1181.000000	71.639400
1180.000000	71.700900
1179.000000	71.760400
1178.000000	71.804900
1177.000000	71.848900
1176.000000	71.899400
1175.000000	71.974200
1174.000000	72.035800
1173.000000	72.097500
1172.000000	72.164100
1171.000000	72.222400
1170.000000	72.301800
1169.000000	72.392000
1168.000000	72.479200
1167.000000	72.573900
1166.000000	72.697700
1165.000000	72.811600
1164.000000	72.898500
1163.000000	73.014000
1162.000000	73.130600
1161.000000	73.224600
1160.000000	73.333200
1159.000000	73.449000
1158.000000	73.560100
1157.000000	73.667000
1156.000000	73.727900
1155.000000	73.803600
1154.000000	73.876600
1153.000000	73.968700
1152.000000	74.016500
1151.000000	74.060100
1150.000000	74.112600
1149.000000	74.146100
1148.000000	74.204300
1147.000000	74.274200
1146.000000	74.335300
1145.000000	74.393800
1144.000000	74.422100
1143.000000	74.428000
1142.000000	74.528000
1141.000000	74.600300
1140.000000	74.652400
1139.000000	74.742300
1138.000000	74.842600
1137.000000	74.927800
1136.000000	75.077100
1135.000000	75.234200
1134.000000	75.222800
1133.000000	75.213000
1132.000000	75.289700
1131.000000	75.365100
1130.000000	75.454000
1129.000000	75.514400
1128.000000	75.558700
1127.000000	75.567100
1126.000000	75.650700
1125.000000	75.662800
1124.000000	75.700900
1123.000000	75.735800
1122.000000	75.702900
1121.000000	75.689400
1120.000000	75.697400
1119.000000	75.699400
1118.000000	75.670900
1117.000000	75.662700
1116.000000	75.682900
1115.000000	75.631200
1114.000000	75.620700
1113.000000	75.597400
1112.000000	75.599700
1111.000000	75.576600
1110.000000	75.565900
1109.000000	75.549300
1108.000000	75.553100
1107.000000	75.550200
1106.000000	75.527800
1105.000000	75.488600
1104.000000	75.474400
1103.000000	75.431800
1102.000000	75.470500
1101.000000	75.423300
1100.000000	75.410300
1099.000000	75.376300
1098.000000	75.366300
1097.000000	75.316600
1096.000000	75.308400
1095.000000	75.301800
1094.000000	75.260500
1093.000000	75.250100
1092.000000	75.173600
1091.000000	75.197400
1090.000000	75.164700
1089.000000	75.117100
1088.000000	75.090900
1087.000000	75.026500
1086.000000	74.992100
1085.000000	74.906800
1084.000000	74.868500
1083.000000	74.856600
1082.000000	74.831100
1081.000000	74.801400
1080.000000	74.696400
1079.000000	74.666500
1078.000000	74.627500
1077.000000	74.550300
1076.000000	74.542700
1075.000000	74.477400
1074.000000	74.423900
1073.000000	74.351800
1072.000000	74.320700
1071.000000	74.269900
1070.000000	74.215500
1069.000000	74.167100
1068.000000	74.068000
1067.000000	74.037900
1066.000000	74.001600
1065.000000	73.893100
1064.000000	73.892400
1063.000000	73.797400
1062.000000	73.760600
1061.000000	73.690300
1060.000000	73.661000
1059.000000	73.601600
1058.000000	73.472400
1057.000000	73.424600
1056.000000	73.359400
1055.000000	73.344600
1054.000000	73.322100
1053.000000	73.246900
1052.000000	73.183200
1051.000000	73.109000
1050.000000	73.047200
1049.000000	73.041300
1048.000000	72.915100
1047.000000	72.906400
1046.000000	72.882300
1045.000000	72.810100
1044.000000	72.757200
1043.000000	72.669300
1042.000000	72.642400
1041.000000	72.591000
1040.000000	72.531800
1039.000000	72.486200
1038.000000	72.484800
1037.000000	72.445600
1036.000000	72.417400
1035.000000	72.303800
1034.000000	72.259100
1033.000000	72.192700
1032.000000	72.143200
1031.000000	72.130000
1030.000000	72.101800
1029.000000	72.007000
1028.000000	72.007100
1027.000000	71.895100
1026.000000	71.856200
1025.000000	71.798600
1024.000000	71.758000
1023.000000	71.711900
1022.000000	71.662000
1021.000000	71.623200
1020.000000	71.606200
1019.000000	71.523900
1018.000000	71.519800
1017.000000	71.465100
1016.000000	71.351800
1015.000000	71.329300
1014.000000	71.294400
1013.000000	71.253300
1012.000000	71.218300
1011.000000	71.194100
1010.000000	71.145600
1009.000000	71.087300
1008.000000	71.073700
1007.000000	70.969200
1006.000000	70.940500
1005.000000	70.920300
1004.000000	70.866600
1003.000000	70.785900
1002.000000	70.764300
1001.000000	70.726800
1000.000000	70.694500
999.000000	70.621900
998.000000	70.582300
997.000000	70.478700
996.000000	70.463100
995.000000	70.437200
994.000000	70.358900
993.000000	70.274500
992.000000	70.250400
991.000000	70.207900
990.000000	70.078800
989.000000	70.012600
988.000000	69.964500
987.000000	69.928800
986.000000	69.888900
985.000000	69.882500
984.000000	69.814000
983.000000	69.736200
982.000000	69.633800
981.000000	69.583700
980.000000	69.519200
979.000000	69.474000
978.000000	69.348100
977.000000	69.310300
976.000000	69.267000
975.000000	69.199000
974.000000	69.146100
973.000000	69.085500
972.000000	68.936000
971.000000	68.906800
970.000000	68.871800
969.000000	68.767100
968.000000	68.674300
967.000000	68.615300
966.000000	68.588400
965.000000	68.569600
964.000000	68.576000
963.000000	68.409300
962.000000	68.400800
961.000000	68.322700
960.000000	68.246700
959.000000	68.234500
958.000000	68.196200
957.000000	68.159700
956.000000	68.185200
955.000000	68.191800
954.000000	68.116700
953.000000	68.064600
952.000000	68.132800
951.000000	68.150800
950.000000	68.038700
949.000000	68.047800
948.000000	68.003500
947.000000	67.931100
946.000000	67.866100
945.000000	67.733800
944.000000	67.768300
943.000000	67.800600
942.000000	67.749500
941.000000	67.733100
940.000000	67.685700
939.000000	67.687800
938.000000	67.616100
937.000000	67.599000
936.000000	67.637000
935.000000	67.528100
934.000000	67.555300
933.000000	67.593600
932.000000	67.513100
931.000000	67.495100
930.000000	67.473400
929.000000	67.475600
928.000000	67.455800
927.000000	67.357100
926.000000	67.262500
925.000000	67.202600
924.000000	67.163000
923.000000	67.117800
922.000000	67.094900
921.000000	67.013000
920.000000	67.042800
919.000000	67.092600
918.000000	66.963100
917.000000	66.881800
916.000000	66.927300
915.000000	66.646000
914.000000	66.403400
913.000000	66.403100
912.000000	66.499000
911.000000	66.637700
910.000000	66.689100
909.000000	66.618300
908.000000	66.559200
907.000000	66.558800
906.000000	66.581300
905.000000	66.653600
904.000000	66.532900
903.000000	66.609700
902.000000	66.804500
901.000000	66.920800
900.000000	66.693400
899.000000	66.650100
898.000000	66.887200
897.000000	66.916300
896.000000	66.837500
895.000000	66.954400
894.000000	67.340100
893.000000	67.129000
892.000000	67.271100
891.000000	67.449800
890.000000	67.662200
889.000000	67.650400
888.000000	67.711700
887.000000	67.564600
886.000000	67.483000
885.000000	68.188700
884.000000	68.250600
883.000000	67.946200
882.000000	68.058100
881.000000	68.354900
880.000000	68.581900
879.000000	68.631800
878.000000	68.422900
877.000000	68.699400
876.000000	68.802600
875.000000	68.579300
874.000000	69.011900
873.000000	69.339300
872.000000	68.646400
871.000000	69.028900
870.000000	69.163200
869.000000	69.562300
868.000000	68.892800
867.000000	69.313500
866.000000	69.011500
865.000000	69.219000
864.000000	70.035000
863.000000	69.861700
862.000000	69.762800
861.000000	70.062600
860.000000	70.066900
859.000000	69.371200
858.000000	68.813100
857.000000	69.677000
856.000000	69.387466
855.000000	69.425354
854.000000	69.596765
853.000000	69.759869
852.000000	69.858542
851.000000	69.663425
850.000000	69.739911
849.000000	69.671833
848.000000	69.515922
847.000000	69.458684
846.000000	70.199236
845.000000	69.994596
844.000000	70.209164
843.000000	70.268428
842.000000	70.078478
841.000000	70.274101
840.000000	70.379258
839.000000	70.271569
838.000000	70.287575
837.000000	70.063485
836.000000	70.466179
835.000000	70.568397
834.000000	70.490999
833.000000	70.636779
832.000000	70.575793
831.000000	70.569410
830.000000	70.606793
829.000000	70.850942
828.000000	70.886399
827.000000	70.808291
826.000000	70.910510
825.000000	71.123254
824.000000	70.766857
823.000000	70.985882
822.000000	70.996722
821.000000	70.943536
820.000000	71.027418
819.000000	70.775569
818.000000	70.850536
817.000000	70.975447
816.000000	70.962278
815.000000	70.920843
814.000000	70.642452
813.000000	70.658763
812.000000	70.650253
811.000000	70.597371
810.000000	70.591191
809.000000	70.549656
808.000000	70.482388
807.000000	70.423022
806.000000	70.321513
805.000000	70.409245
804.000000	70.304088
803.000000	70.177759
802.000000	70.271670
801.000000	70.044743
800.000000	70.073514
799.000000	70.045148
798.000000	69.863506
797.000000	69.954378
796.000000	69.769189
795.000000	69.773647
794.000000	69.790160
793.000000	69.693310
792.000000	69.635566
791.000000	69.635768
790.000000	69.519569
789.000000	69.497890
788.000000	69.415122
787.000000	69.433763
786.000000	69.462838
785.000000	69.246751
784.000000	69.237329
783.000000	69.040490
782.000000	69.017392
781.000000	69.103908
780.000000	69.008781
779.000000	68.902612
778.000000	68.966131
777.000000	68.765037
776.000000	68.688754
775.000000	68.630603
774.000000	68.557967
773.000000	68.370245
772.000000	68.299837
771.000000	68.175737
770.000000	68.014963
769.000000	67.907274
768.000000	67.826127
767.000000	67.705167
766.000000	67.514001
765.000000	67.417861
764.000000	67.332663
763.000000	67.135925
762.000000	67.095402
761.000000	67.054981
760.000000	66.882557
759.000000	66.740120
758.000000	66.552804
757.000000	66.433971
756.000000	66.349988
755.000000	66.207348
754.000000	66.027630
753.000000	65.989640
752.000000	65.828259
751.000000	65.729687
750.000000	65.642867
749.000000	65.515120
748.000000	65.431035
747.000000	65.340771
746.000000	65.202386
745.000000	65.163383
744.000000	65.027328
743.000000	64.984374
742.000000	64.927541
741.000000	64.845989
740.000000	64.732931
739.000000	64.624735
738.000000	64.546729
737.000000	64.488985
736.000000	64.436001
735.000000	64.372381
734.000000	64.265401
733.000000	64.201172
732.000000	64.089634
731.000000	64.023582
730.000000	63.919742
729.000000	63.831403
728.000000	63.773658
727.000000	63.714495
726.000000	63.691904
725.000000	63.593332
724.000000	63.506107
723.000000	63.552607
722.000000	63.437827
721.000000	63.305014
720.000000	63.298935
719.000000	63.257703
718.000000	63.109492
717.000000	63.038881
716.000000	62.980427
715.000000	62.847513
714.000000	62.672556
713.000000	62.630413
712.000000	62.570844
711.000000	62.418884
710.000000	62.297012
709.000000	62.162072
708.000000	61.972122
707.000000	61.879325
706.000000	61.718855
705.000000	61.573683
704.000000	61.430840
703.000000	61.255276
702.000000	61.075051
701.000000	60.898474
700.000000	60.686236
699.000000	60.520701
698.000000	60.347669
697.000000	60.202193
696.000000	60.018423
695.000000	59.795852
694.000000	59.591820
693.000000	59.414230
692.000000	59.237551
691.000000	59.079817
690.000000	58.943863
689.000000	58.811557
688.000000	58.668815
687.000000	58.567205
686.000000	58.493150
685.000000	58.407444
684.000000	58.300768
683.000000	58.194092
682.000000	58.112541
681.000000	58.031799
680.000000	57.937685
679.000000	57.889666
678.000000	57.843571
677.000000	57.746722
676.000000	57.648657
675.000000	57.584530
674.000000	57.539246
673.000000	57.496596
672.000000	57.460734
671.000000	57.433077
670.000000	57.359629
669.000000	57.315764
668.000000	57.280509
667.000000	57.238669
666.000000	57.219421
665.000000	57.155497
664.000000	57.107781
663.000000	57.055811
662.000000	56.958556
661.000000	56.927151
660.000000	56.879841
659.000000	56.805381
658.000000	56.730515
657.000000	56.644911
656.000000	56.520810
655.000000	56.376550
654.000000	56.211217
653.000000	56.030993
652.000000	55.807409
651.000000	55.550799
650.000000	55.306954
649.000000	55.026031
648.000000	54.741257
647.000000	54.495184
646.000000	54.215476
645.000000	53.903553
644.000000	53.609966
643.000000	53.331879
642.000000	53.042750
641.000000	52.706108
640.000000	52.415662
639.000000	52.165941
638.000000	51.883599
637.000000	51.594875
636.000000	51.329756
635.000000	51.114074
634.000000	50.923111
633.000000	50.727488
632.000000	50.593459
631.000000	50.467028
630.000000	50.361669
629.000000	50.299973
628.000000	50.267251
627.000000	50.285689
626.000000	50.340192
625.000000	50.416780
624.000000	50.543312
623.000000	50.714216
622.000000	50.947526
621.000000	51.215380
620.000000	51.486680
619.000000	51.801136
618.000000	52.094824
617.000000	52.421234
616.000000	52.766082
615.000000	53.054805
614.000000	53.357408
613.000000	53.657783
612.000000	53.961804
611.000000	54.265623
610.000000	54.559817
609.000000	54.867688
608.000000	55.160262
607.000000	55.443617
606.000000	55.762226
605.000000	56.077290
604.000000	56.425076
603.000000	56.768505
602.000000	57.133716
601.000000	57.449590
600.000000	57.757157
599.000000	58.089443
598.000000	58.377052
597.000000	58.666992
596.000000	58.940419
595.000000	59.209996
594.000000	59.456475
593.000000	59.650072
592.000000	59.849342
591.000000	60.064112
590.000000	60.278882
589.000000	60.485345
588.000000	60.676106
587.000000	60.893814
586.000000	61.094705
585.000000	61.335409
584.000000	61.558183
583.000000	61.808309
582.000000	62.031791
581.000000	62.208774
580.000000	62.475413
579.000000	62.680559
578.000000	62.860379
577.000000	63.022469
576.000000	63.191347
575.000000	63.379778
574.000000	63.533257
573.000000	63.690283
572.000000	63.828870
571.000000	63.998660
570.000000	64.165411
569.000000	64.315750
568.000000	64.452109
567.000000	64.599915
566.000000	64.721078
565.000000	64.822182
564.000000	64.916093
563.000000	65.022769
562.000000	65.112527
561.000000	65.206540
560.000000	65.220013
559.000000	65.272085
558.000000	65.264284
557.000000	65.265297
556.000000	65.186380
555.000000	65.115668
554.000000	65.023276
553.000000	64.931188
552.000000	64.806074
551.000000	64.658471
550.000000	64.465380
549.000000	64.261652
548.000000	64.060356
547.000000	63.839710
546.000000	63.589179
545.000000	63.311092
544.000000	63.022165
543.000000	62.682079
542.000000	62.338548
541.000000	61.936867
540.000000	61.505301
539.000000	61.050738
538.000000	60.546636
537.000000	60.005658
536.000000	59.416459
535.000000	58.767083
534.000000	58.102005
533.000000	57.396100
532.000000	56.643290
531.000000	55.892101
530.000000	55.138684
529.000000	54.341299
528.000000	53.557388
527.000000	52.755748
526.000000	51.948132
525.000000	51.125521
524.000000	50.279003
523.000000	49.442615
522.000000	48.650093
521.000000	47.817960
520.000000	47.036278
519.000000	46.244870
518.000000	45.458832
517.000000	44.695790
516.000000	43.943082
515.000000	43.229781
514.000000	42.531880
513.000000	41.827799
512.000000	41.133341
511.000000	40.471404
510.000000	39.791129
509.000000	39.153100
508.000000	38.537561
507.000000	37.950894
506.000000	37.397861
505.000000	36.828112
504.000000	36.286020
503.000000	35.739268
502.000000	35.209232
501.000000	34.680816
500.000000	34.165469
499.000000	33.643335
498.000000	33.167599
497.000000	32.690951
496.000000	32.238313
495.000000	31.738871
494.000000	31.276102
493.000000	30.834405
492.000000	30.396254
491.000000	29.975628
490.000000	29.489863
489.000000	29.054852
488.000000	28.629567
487.000000	28.220794
486.000000	27.841502
485.000000	27.453498
484.000000	27.098722
483.000000	26.705956
482.000000	26.324840
481.000000	25.923767
480.000000	25.577501
479.000000	25.238529
478.000000	24.915057
477.000000	24.605869
476.000000	24.306609
475.000000	24.015757
474.000000	23.741723
473.000000	23.472956
472.000000	23.210876
471.000000	22.932789
470.000000	22.707686
469.000000	22.466373
468.000000	22.244106
467.000000	22.033287
466.000000	21.841007
465.000000	21.637887
464.000000	21.433653
463.000000	21.224556
462.000000	21.053247
461.000000	20.861676
460.000000	20.666255
459.000000	20.461616
458.000000	20.305502
457.000000	20.094480
456.000000	19.910710
455.000000	19.688545
454.000000	19.480562
453.000000	19.264070
452.000000	18.989630
451.000000	18.766350
450.000000	18.510652
449.000000	18.252421
448.000000	17.973220
447.000000	17.714179
446.000000	17.434674
445.000000	17.172492
444.000000	16.914464
443.000000	16.610443
442.000000	16.323239
441.000000	16.071593
440.000000	15.840614
439.000000	15.621183
438.000000	15.373590
437.000000	15.197316
436.000000	15.016585
435.000000	14.826939
434.000000	14.672953
433.000000	14.538215
432.000000	14.446026
431.000000	14.337932
430.000000	14.269651
429.000000	14.177462
428.000000	14.122858
427.000000	14.088414
426.000000	14.078688
425.000000	14.035532
424.000000	14.037862
423.000000	14.018107
422.000000	14.009901
421.000000	14.020538
420.000000	14.013447
419.000000	14.014561
418.000000	14.017803
417.000000	14.007166
416.000000	14.009293
415.000000	13.999669
414.000000	13.963604
413.000000	13.935947
412.000000	13.910620
411.000000	13.873137
410.000000	13.816405
409.000000	13.764840
408.000000	13.693824
407.000000	13.620985
406.000000	13.535887
405.000000	13.452512
404.000000	13.364172
403.000000	13.267222
402.000000	13.150820
401.000000	13.029354
400.000000	12.914067
399.000000	12.766868
398.000000	12.617441
397.000000	12.454844
396.000000	12.259220
395.000000	12.087404
394.000000	11.899784
393.000000	11.726044
392.000000	11.512185
391.000000	11.292654
390.000000	11.080619
389.000000	10.866659
388.000000	10.641353
387.000000	10.424759
386.000000	10.181927
385.000000	9.966043
384.000000	9.724426
383.000000	9.496385
382.000000	9.283439
381.000000	9.070695
380.000000	8.849846
379.000000	8.655033
378.000000	8.442087
377.000000	8.282124
376.000000	8.127631
375.000000	7.914583
374.000000	7.591820
373.000000	7.456576
372.000000	7.386066
371.000000	7.193381
370.000000	7.133509
369.000000	7.002620
368.000000	6.917523
367.000000	6.835971
366.000000	6.673475
365.000000	6.549881
364.000000	6.529012
363.000000	6.457287
362.000000	6.351725
361.000000	6.268248
360.000000	6.289827
359.000000	6.152455
358.000000	6.020554
357.000000	6.029874
356.000000	6.060570
355.000000	6.015995
354.000000	5.915701
353.000000	5.877407
352.000000	5.828983
351.000000	5.759588
350.000000	5.811153
349.000000	5.725245
348.000000	5.666689
347.000000	5.729702
346.000000	5.662333
345.000000	5.628902
344.000000	5.701944
343.000000	5.703362
342.000000	5.687153
341.000000	5.625863
340.000000	5.608134
339.000000	5.596484
338.000000	5.645618
337.000000	5.665676
336.000000	5.626775
335.000000	5.622824
334.000000	5.678542
333.000000	5.831009
332.000000	5.774277
331.000000	5.654229
330.000000	5.725549
329.000000	5.703059
328.000000	5.645212
327.000000	5.714810
326.000000	5.736287
325.000000	5.798996
324.000000	5.802238
323.000000	5.756245
322.000000	5.891995
321.000000	5.928770
320.000000	5.947309
319.000000	5.945080
318.000000	5.787346
317.000000	5.759284
316.000000	5.759284
315.000000	5.680974
314.000000	5.667196
313.000000	5.699209
312.000000	5.645719
311.000000	5.619582
310.000000	5.640451
309.000000	5.668108
308.000000	5.667095
307.000000	5.623432
306.000000	5.628396
305.000000	5.648049
304.000000	5.625559
303.000000	5.633360
302.000000	5.607121
301.000000	5.630827
300.000000	5.618771
299.000000	5.599321
298.000000	5.607020
297.000000	5.601853
296.000000	5.624546
295.000000	5.603778
294.000000	5.598915
293.000000	5.625154
292.000000	5.617150
291.000000	5.614314
290.000000	5.600131
289.000000	5.585239
288.000000	5.609958
287.000000	5.634373
286.000000	5.638526
285.000000	5.654938
284.000000	5.637716
283.000000	5.628598
282.000000	5.658281
281.000000	5.620696
280.000000	5.631030
279.000000	5.644807
278.000000	5.677833
277.000000	5.651696
276.000000	5.673984
275.000000	5.705591
274.000000	5.757562
273.000000	5.789473
272.000000	5.814800
271.000000	5.795248
270.000000	5.789068
269.000000	5.826551
268.000000	5.838607
267.000000	5.860590
266.000000	5.900607
265.000000	5.906482
264.000000	5.959060
263.000000	5.929682
262.000000	6.003230
261.000000	6.030684
260.000000	6.062393
259.000000	6.060570
258.000000	6.075057
257.000000	6.123886
256.000000	6.125609
255.000000	6.089746
254.000000	6.106867
253.000000	6.134625
252.000000	6.149922
251.000000	6.160559
250.000000	6.213138
