PE UV       SUBTECH     SPECTRUM    ASCII       PEDS        4.00        
   -1
CICIMAUCR0098-3.Sample.ASC
24/04/18
13:56:50.00
24/04/18
13:56:50.00
Vinicio Soto Monge
C. cupreomarginata
250,000000
1
Lambda 1050
1050L1511233
PerkinElmer UV WinLab 6.3.2.0749 / 2.02.05 Lambda 900 UV/VIS/NIR, Aug  7 2015 09:38:08

0
0
3350/servo 860,8/2
0
0
UV/VIS
1
1
1
DoubleDePol,CommonBeamDepol,RBeamAtt,SBeamAtt,60mm sphere, WB InGaAs Detector
0
0
0
0
Program
Program
3350/servo 860,8/2
3350/0,2 860,8/0,2
3350/0,2 860,8/0,2
0
15.00
 
 
 
0
 
860,8
319,2
860,8
Front
100
on
S:100 R:100
0
0
0
0
 
0
 
 
 
0
 
 
0
0
0
0
0
 
 
 
 
0
0


0
0
#HDR
-1
-1
#GR
nm
%R
1.0
0.0
2500,000000
-1,000000
2251
8
63,481300
4,596200
#DATA
2500.000000	15.061000
2499.000000	14.972300
2498.000000	15.019100
2497.000000	15.021500
2496.000000	14.859000
2495.000000	14.903700
2494.000000	15.033000
2493.000000	14.995500
2492.000000	14.828000
2491.000000	14.854500
2490.000000	14.884400
2489.000000	14.863500
2488.000000	14.885600
2487.000000	14.811300
2486.000000	14.874400
2485.000000	14.836100
2484.000000	14.897900
2483.000000	14.838400
2482.000000	14.853700
2481.000000	14.842200
2480.000000	14.850900
2479.000000	14.850600
2478.000000	14.850700
2477.000000	14.905100
2476.000000	14.894500
2475.000000	14.943500
2474.000000	14.971000
2473.000000	15.005400
2472.000000	14.970400
2471.000000	15.009400
2470.000000	15.022200
2469.000000	15.070200
2468.000000	15.119500
2467.000000	15.164000
2466.000000	15.225200
2465.000000	15.251200
2464.000000	15.284300
2463.000000	15.334300
2462.000000	15.394800
2461.000000	15.454600
2460.000000	15.488800
2459.000000	15.595900
2458.000000	15.649400
2457.000000	15.720300
2456.000000	15.797500
2455.000000	15.868000
2454.000000	15.932000
2453.000000	16.059200
2452.000000	16.150900
2451.000000	16.224600
2450.000000	16.332200
2449.000000	16.416700
2448.000000	16.506500
2447.000000	16.612000
2446.000000	16.710700
2445.000000	16.819500
2444.000000	16.930000
2443.000000	17.029800
2442.000000	17.127700
2441.000000	17.235500
2440.000000	17.318800
2439.000000	17.407400
2438.000000	17.514300
2437.000000	17.626800
2436.000000	17.713600
2435.000000	17.782000
2434.000000	17.878400
2433.000000	17.956800
2432.000000	18.053400
2431.000000	18.130700
2430.000000	18.213900
2429.000000	18.281100
2428.000000	18.360500
2427.000000	18.439300
2426.000000	18.519300
2425.000000	18.576800
2424.000000	18.648000
2423.000000	18.739700
2422.000000	18.824900
2421.000000	18.901700
2420.000000	18.966000
2419.000000	19.031900
2418.000000	19.081400
2417.000000	19.131200
2416.000000	19.187900
2415.000000	19.246300
2414.000000	19.311000
2413.000000	19.355500
2412.000000	19.385500
2411.000000	19.430800
2410.000000	19.473200
2409.000000	19.508200
2408.000000	19.543200
2407.000000	19.581200
2406.000000	19.607200
2405.000000	19.643100
2404.000000	19.687900
2403.000000	19.711100
2402.000000	19.729300
2401.000000	19.753800
2400.000000	19.763800
2399.000000	19.786400
2398.000000	19.809200
2397.000000	19.820800
2396.000000	19.841200
2395.000000	19.853100
2394.000000	19.874900
2393.000000	19.876500
2392.000000	19.888900
2391.000000	19.901200
2390.000000	19.902800
2389.000000	19.918200
2388.000000	19.912000
2387.000000	19.915700
2386.000000	19.910000
2385.000000	19.897400
2384.000000	19.904800
2383.000000	19.914400
2382.000000	19.897500
2381.000000	19.869400
2380.000000	19.855800
2379.000000	19.841900
2378.000000	19.824600
2377.000000	19.807400
2376.000000	19.772400
2375.000000	19.757900
2374.000000	19.751100
2373.000000	19.712700
2372.000000	19.675700
2371.000000	19.651600
2370.000000	19.645100
2369.000000	19.632000
2368.000000	19.606100
2367.000000	19.572600
2366.000000	19.537700
2365.000000	19.509200
2364.000000	19.486900
2363.000000	19.466700
2362.000000	19.443600
2361.000000	19.417900
2360.000000	19.394900
2359.000000	19.370000
2358.000000	19.330700
2357.000000	19.302600
2356.000000	19.280500
2355.000000	19.256500
2354.000000	19.236100
2353.000000	19.217700
2352.000000	19.206500
2351.000000	19.198200
2350.000000	19.202300
2349.000000	19.196000
2348.000000	19.190600
2347.000000	19.186400
2346.000000	19.187500
2345.000000	19.180500
2344.000000	19.193100
2343.000000	19.192600
2342.000000	19.196400
2341.000000	19.215200
2340.000000	19.214200
2339.000000	19.194500
2338.000000	19.195100
2337.000000	19.190500
2336.000000	19.183600
2335.000000	19.187700
2334.000000	19.172300
2333.000000	19.172100
2332.000000	19.178200
2331.000000	19.167800
2330.000000	19.143600
2329.000000	19.128300
2328.000000	19.116900
2327.000000	19.106200
2326.000000	19.105700
2325.000000	19.089400
2324.000000	19.056200
2323.000000	19.018200
2322.000000	18.995100
2321.000000	18.959000
2320.000000	18.910900
2319.000000	18.872400
2318.000000	18.830500
2317.000000	18.760800
2316.000000	18.688800
2315.000000	18.611700
2314.000000	18.556500
2313.000000	18.480500
2312.000000	18.417700
2311.000000	18.357200
2310.000000	18.272900
2309.000000	18.231500
2308.000000	18.179000
2307.000000	18.118600
2306.000000	18.099200
2305.000000	18.071500
2304.000000	18.048900
2303.000000	18.040400
2302.000000	18.031400
2301.000000	18.038000
2300.000000	18.060500
2299.000000	18.074500
2298.000000	18.102200
2297.000000	18.130400
2296.000000	18.164900
2295.000000	18.201400
2294.000000	18.212200
2293.000000	18.241100
2292.000000	18.285600
2291.000000	18.319900
2290.000000	18.333900
2289.000000	18.354500
2288.000000	18.374600
2287.000000	18.413800
2286.000000	18.438400
2285.000000	18.444000
2284.000000	18.453800
2283.000000	18.473800
2282.000000	18.485700
2281.000000	18.475800
2280.000000	18.498200
2279.000000	18.507400
2278.000000	18.508100
2277.000000	18.508500
2276.000000	18.511000
2275.000000	18.505900
2274.000000	18.525800
2273.000000	18.541000
2272.000000	18.548200
2271.000000	18.575300
2270.000000	18.615200
2269.000000	18.646300
2268.000000	18.697700
2267.000000	18.783400
2266.000000	18.864400
2265.000000	18.938100
2264.000000	19.053100
2263.000000	19.159600
2262.000000	19.296800
2261.000000	19.453700
2260.000000	19.607300
2259.000000	19.770600
2258.000000	19.956700
2257.000000	20.130700
2256.000000	20.340500
2255.000000	20.513400
2254.000000	20.685300
2253.000000	20.883700
2252.000000	21.075900
2251.000000	21.256700
2250.000000	21.416200
2249.000000	21.578100
2248.000000	21.754100
2247.000000	21.898700
2246.000000	22.032300
2245.000000	22.130700
2244.000000	22.248900
2243.000000	22.358000
2242.000000	22.463100
2241.000000	22.551000
2240.000000	22.592600
2239.000000	22.683600
2238.000000	22.716100
2237.000000	22.773500
2236.000000	22.822200
2235.000000	22.844400
2234.000000	22.835800
2233.000000	22.842800
2232.000000	22.848700
2231.000000	22.828900
2230.000000	22.807900
2229.000000	22.787800
2228.000000	22.749500
2227.000000	22.709000
2226.000000	22.662900
2225.000000	22.615300
2224.000000	22.563500
2223.000000	22.520500
2222.000000	22.443200
2221.000000	22.379400
2220.000000	22.290400
2219.000000	22.229900
2218.000000	22.153900
2217.000000	22.071100
2216.000000	22.005100
2215.000000	21.931300
2214.000000	21.868100
2213.000000	21.811600
2212.000000	21.720200
2211.000000	21.649400
2210.000000	21.602200
2209.000000	21.565800
2208.000000	21.507300
2207.000000	21.426400
2206.000000	21.379100
2205.000000	21.355200
2204.000000	21.320900
2203.000000	21.284800
2202.000000	21.254800
2201.000000	21.190900
2200.000000	21.184600
2199.000000	21.152500
2198.000000	21.116000
2197.000000	21.104900
2196.000000	21.090400
2195.000000	21.073100
2194.000000	21.042500
2193.000000	21.027200
2192.000000	21.024600
2191.000000	20.999100
2190.000000	20.996200
2189.000000	20.973400
2188.000000	20.960700
2187.000000	20.941200
2186.000000	20.935100
2185.000000	20.933100
2184.000000	20.914700
2183.000000	20.887900
2182.000000	20.872100
2181.000000	20.868100
2180.000000	20.862800
2179.000000	20.840100
2178.000000	20.816600
2177.000000	20.810400
2176.000000	20.827600
2175.000000	20.815200
2174.000000	20.827900
2173.000000	20.832800
2172.000000	20.847000
2171.000000	20.859700
2170.000000	20.884100
2169.000000	20.899400
2168.000000	20.927500
2167.000000	20.956800
2166.000000	20.986500
2165.000000	21.035300
2164.000000	21.081200
2163.000000	21.127700
2162.000000	21.168000
2161.000000	21.226900
2160.000000	21.280200
2159.000000	21.356500
2158.000000	21.425500
2157.000000	21.501000
2156.000000	21.568900
2155.000000	21.660500
2154.000000	21.735800
2153.000000	21.832000
2152.000000	21.936300
2151.000000	22.034100
2150.000000	22.122500
2149.000000	22.207300
2148.000000	22.323900
2147.000000	22.418700
2146.000000	22.520900
2145.000000	22.618900
2144.000000	22.714000
2143.000000	22.786300
2142.000000	22.888400
2141.000000	22.992400
2140.000000	23.075100
2139.000000	23.176500
2138.000000	23.273700
2137.000000	23.357400
2136.000000	23.443000
2135.000000	23.536500
2134.000000	23.612500
2133.000000	23.680800
2132.000000	23.759200
2131.000000	23.835500
2130.000000	23.888900
2129.000000	23.949700
2128.000000	24.010600
2127.000000	24.062900
2126.000000	24.115600
2125.000000	24.163500
2124.000000	24.199000
2123.000000	24.234300
2122.000000	24.280700
2121.000000	24.317100
2120.000000	24.345000
2119.000000	24.379900
2118.000000	24.398400
2117.000000	24.417600
2116.000000	24.438700
2115.000000	24.434900
2114.000000	24.448200
2113.000000	24.461400
2112.000000	24.474700
2111.000000	24.475500
2110.000000	24.482900
2109.000000	24.497000
2108.000000	24.486600
2107.000000	24.474000
2106.000000	24.480200
2105.000000	24.486800
2104.000000	24.486500
2103.000000	24.481700
2102.000000	24.470200
2101.000000	24.456600
2100.000000	24.451600
2099.000000	24.453200
2098.000000	24.462200
2097.000000	24.451300
2096.000000	24.436500
2095.000000	24.446700
2094.000000	24.439000
2093.000000	24.427500
2092.000000	24.428800
2091.000000	24.432100
2090.000000	24.438200
2089.000000	24.434800
2088.000000	24.421300
2087.000000	24.419900
2086.000000	24.409500
2085.000000	24.383600
2084.000000	24.364500
2083.000000	24.333800
2082.000000	24.294700
2081.000000	24.246800
2080.000000	24.187200
2079.000000	24.128200
2078.000000	24.068000
2077.000000	24.009300
2076.000000	23.927800
2075.000000	23.835400
2074.000000	23.744800
2073.000000	23.657300
2072.000000	23.553100
2071.000000	23.450900
2070.000000	23.354600
2069.000000	23.258900
2068.000000	23.135300
2067.000000	23.026400
2066.000000	22.932300
2065.000000	22.828200
2064.000000	22.719200
2063.000000	22.598100
2062.000000	22.516900
2061.000000	22.457200
2060.000000	22.381300
2059.000000	22.300600
2058.000000	22.255600
2057.000000	22.213300
2056.000000	22.177600
2055.000000	22.187200
2054.000000	22.196600
2053.000000	22.207200
2052.000000	22.263500
2051.000000	22.328500
2050.000000	22.426000
2049.000000	22.529000
2048.000000	22.633100
2047.000000	22.767700
2046.000000	22.913300
2045.000000	23.061700
2044.000000	23.209600
2043.000000	23.362400
2042.000000	23.516300
2041.000000	23.667900
2040.000000	23.836400
2039.000000	23.991700
2038.000000	24.132500
2037.000000	24.257400
2036.000000	24.404100
2035.000000	24.541800
2034.000000	24.656300
2033.000000	24.768300
2032.000000	24.893900
2031.000000	24.993200
2030.000000	25.077400
2029.000000	25.179000
2028.000000	25.262300
2027.000000	25.358900
2026.000000	25.418800
2025.000000	25.499600
2024.000000	25.565900
2023.000000	25.648100
2022.000000	25.703400
2021.000000	25.751500
2020.000000	25.804100
2019.000000	25.842700
2018.000000	25.908000
2017.000000	25.944300
2016.000000	25.957200
2015.000000	25.984800
2014.000000	26.020100
2013.000000	26.040300
2012.000000	26.055400
2011.000000	26.062700
2010.000000	26.081500
2009.000000	26.071600
2008.000000	26.067000
2007.000000	26.053000
2006.000000	26.048600
2005.000000	26.037200
2004.000000	26.012900
2003.000000	25.979100
2002.000000	25.934200
2001.000000	25.907500
2000.000000	25.861300
1999.000000	25.794100
1998.000000	25.750200
1997.000000	25.705100
1996.000000	25.654700
1995.000000	25.579400
1994.000000	25.516500
1993.000000	25.450200
1992.000000	25.388000
1991.000000	25.311900
1990.000000	25.239900
1989.000000	25.168000
1988.000000	25.087100
1987.000000	24.985300
1986.000000	24.907400
1985.000000	24.830500
1984.000000	24.739900
1983.000000	24.656900
1982.000000	24.595400
1981.000000	24.493800
1980.000000	24.426900
1979.000000	24.334000
1978.000000	24.245700
1977.000000	24.178400
1976.000000	24.095200
1975.000000	24.033700
1974.000000	23.945700
1973.000000	23.879300
1972.000000	23.814700
1971.000000	23.750300
1970.000000	23.652800
1969.000000	23.582500
1968.000000	23.499500
1967.000000	23.462100
1966.000000	23.406200
1965.000000	23.303900
1964.000000	23.270300
1963.000000	23.183300
1962.000000	23.112100
1961.000000	23.042500
1960.000000	22.968900
1959.000000	22.878000
1958.000000	22.808200
1957.000000	22.758200
1956.000000	22.668100
1955.000000	22.589500
1954.000000	22.506300
1953.000000	22.430100
1952.000000	22.325400
1951.000000	22.282500
1950.000000	22.216600
1949.000000	22.175900
1948.000000	22.111500
1947.000000	22.049700
1946.000000	21.987400
1945.000000	21.952400
1944.000000	21.910700
1943.000000	21.856800
1942.000000	21.855800
1941.000000	21.847100
1940.000000	21.826700
1939.000000	21.812800
1938.000000	21.797000
1937.000000	21.794600
1936.000000	21.817200
1935.000000	21.820900
1934.000000	21.864700
1933.000000	21.912100
1932.000000	21.987000
1931.000000	22.049000
1930.000000	22.115700
1929.000000	22.202600
1928.000000	22.308200
1927.000000	22.395200
1926.000000	22.487800
1925.000000	22.626200
1924.000000	22.785400
1923.000000	22.918300
1922.000000	23.064600
1921.000000	23.244500
1920.000000	23.432300
1919.000000	23.624800
1918.000000	23.821300
1917.000000	24.025700
1916.000000	24.245600
1915.000000	24.485400
1914.000000	24.757100
1913.000000	25.037600
1912.000000	25.319600
1911.000000	25.580800
1910.000000	25.882100
1909.000000	26.168400
1908.000000	26.476900
1907.000000	26.845700
1906.000000	27.264900
1905.000000	27.687900
1904.000000	28.067500
1903.000000	28.453200
1902.000000	28.897800
1901.000000	29.302600
1900.000000	29.750700
1899.000000	30.245500
1898.000000	30.700100
1897.000000	31.176700
1896.000000	31.600900
1895.000000	32.032600
1894.000000	32.499500
1893.000000	32.997200
1892.000000	33.505600
1891.000000	34.021600
1890.000000	34.497400
1889.000000	34.926700
1888.000000	35.380900
1887.000000	35.808000
1886.000000	36.238700
1885.000000	36.665600
1884.000000	37.096900
1883.000000	37.488800
1882.000000	37.850800
1881.000000	38.186300
1880.000000	38.492500
1879.000000	38.793700
1878.000000	39.083000
1877.000000	39.348700
1876.000000	39.610300
1875.000000	39.867300
1874.000000	40.121600
1873.000000	40.342100
1872.000000	40.551300
1871.000000	40.738800
1870.000000	40.859700
1869.000000	40.984100
1868.000000	41.119100
1867.000000	41.197600
1866.000000	41.245800
1865.000000	41.300700
1864.000000	41.369000
1863.000000	41.436000
1862.000000	41.517600
1861.000000	41.617400
1860.000000	41.700800
1859.000000	41.755800
1858.000000	41.799100
1857.000000	41.831700
1856.000000	41.851000
1855.000000	41.878800
1854.000000	41.918100
1853.000000	41.904700
1852.000000	41.889000
1851.000000	41.935900
1850.000000	41.985500
1849.000000	42.031400
1848.000000	42.043500
1847.000000	42.024500
1846.000000	41.968000
1845.000000	41.908500
1844.000000	41.866800
1843.000000	41.890700
1842.000000	41.936200
1841.000000	41.934500
1840.000000	41.908300
1839.000000	41.874700
1838.000000	41.840400
1837.000000	41.819600
1836.000000	41.766300
1835.000000	41.692200
1834.000000	41.629000
1833.000000	41.580600
1832.000000	41.545200
1831.000000	41.522900
1830.000000	41.499400
1829.000000	41.460100
1828.000000	41.411100
1827.000000	41.371100
1826.000000	41.349900
1825.000000	41.306300
1824.000000	41.283900
1823.000000	41.307700
1822.000000	41.336900
1821.000000	41.363600
1820.000000	41.354100
1819.000000	41.278800
1818.000000	41.240000
1817.000000	41.254400
1816.000000	41.272500
1815.000000	41.249900
1814.000000	41.215000
1813.000000	41.218400
1812.000000	41.221500
1811.000000	41.194700
1810.000000	41.142100
1809.000000	41.110800
1808.000000	41.099700
1807.000000	41.095400
1806.000000	41.078800
1805.000000	41.033300
1804.000000	40.992700
1803.000000	40.982700
1802.000000	40.978100
1801.000000	40.955500
1800.000000	40.906800
1799.000000	40.876200
1798.000000	40.858000
1797.000000	40.835000
1796.000000	40.816100
1795.000000	40.802400
1794.000000	40.785800
1793.000000	40.755300
1792.000000	40.735800
1791.000000	40.723100
1790.000000	40.701600
1789.000000	40.684000
1788.000000	40.672300
1787.000000	40.674400
1786.000000	40.655900
1785.000000	40.640900
1784.000000	40.618200
1783.000000	40.588400
1782.000000	40.571700
1781.000000	40.566700
1780.000000	40.528000
1779.000000	40.490800
1778.000000	40.458100
1777.000000	40.393700
1776.000000	40.338000
1775.000000	40.296800
1774.000000	40.241800
1773.000000	40.179500
1772.000000	40.119600
1771.000000	40.056200
1770.000000	39.986500
1769.000000	39.938900
1768.000000	39.872700
1767.000000	39.817700
1766.000000	39.783700
1765.000000	39.732100
1764.000000	39.687900
1763.000000	39.663800
1762.000000	39.646300
1761.000000	39.623600
1760.000000	39.614000
1759.000000	39.590400
1758.000000	39.573800
1757.000000	39.558600
1756.000000	39.547800
1755.000000	39.532800
1754.000000	39.514700
1753.000000	39.479900
1752.000000	39.459100
1751.000000	39.421500
1750.000000	39.383900
1749.000000	39.319600
1748.000000	39.261700
1747.000000	39.203600
1746.000000	39.115600
1745.000000	39.049400
1744.000000	38.975700
1743.000000	38.880600
1742.000000	38.801400
1741.000000	38.708300
1740.000000	38.609900
1739.000000	38.528600
1738.000000	38.444800
1737.000000	38.386400
1736.000000	38.337500
1735.000000	38.313800
1734.000000	38.290400
1733.000000	38.284700
1732.000000	38.264700
1731.000000	38.265400
1730.000000	38.265400
1729.000000	38.275200
1728.000000	38.271600
1727.000000	38.269700
1726.000000	38.280500
1725.000000	38.279400
1724.000000	38.298700
1723.000000	38.329500
1722.000000	38.397100
1721.000000	38.470200
1720.000000	38.584200
1719.000000	38.728000
1718.000000	38.873800
1717.000000	39.035300
1716.000000	39.183100
1715.000000	39.348600
1714.000000	39.485400
1713.000000	39.617600
1712.000000	39.712300
1711.000000	39.825700
1710.000000	39.893900
1709.000000	39.963100
1708.000000	40.033300
1707.000000	40.072900
1706.000000	40.107000
1705.000000	40.102900
1704.000000	40.109500
1703.000000	40.095600
1702.000000	40.072000
1701.000000	40.010500
1700.000000	39.981200
1699.000000	39.952300
1698.000000	39.924100
1697.000000	39.921600
1696.000000	39.874000
1695.000000	39.869400
1694.000000	39.868300
1693.000000	39.848100
1692.000000	39.859500
1691.000000	39.857000
1690.000000	39.843600
1689.000000	39.884500
1688.000000	39.912600
1687.000000	40.001300
1686.000000	40.119200
1685.000000	40.284000
1684.000000	40.473000
1683.000000	40.662300
1682.000000	40.905000
1681.000000	41.153900
1680.000000	41.398500
1679.000000	41.658100
1678.000000	41.887300
1677.000000	42.132400
1676.000000	42.347300
1675.000000	42.549000
1674.000000	42.732900
1673.000000	42.922100
1672.000000	43.119400
1671.000000	43.295500
1670.000000	43.488000
1669.000000	43.660500
1668.000000	43.823100
1667.000000	44.008300
1666.000000	44.159100
1665.000000	44.293400
1664.000000	44.419900
1663.000000	44.541100
1662.000000	44.659700
1661.000000	44.756000
1660.000000	44.880000
1659.000000	44.957800
1658.000000	45.025500
1657.000000	45.084200
1656.000000	45.151400
1655.000000	45.188900
1654.000000	45.244000
1653.000000	45.256000
1652.000000	45.261300
1651.000000	45.284800
1650.000000	45.289200
1649.000000	45.304000
1648.000000	45.276300
1647.000000	45.260800
1646.000000	45.269500
1645.000000	45.257700
1644.000000	45.234200
1643.000000	45.227700
1642.000000	45.216300
1641.000000	45.198000
1640.000000	45.181800
1639.000000	45.190300
1638.000000	45.167400
1637.000000	45.155600
1636.000000	45.135000
1635.000000	45.124500
1634.000000	45.103300
1633.000000	45.074800
1632.000000	45.037700
1631.000000	45.008800
1630.000000	44.978700
1629.000000	44.942300
1628.000000	44.872600
1627.000000	44.830800
1626.000000	44.809500
1625.000000	44.768800
1624.000000	44.739400
1623.000000	44.695400
1622.000000	44.675300
1621.000000	44.644800
1620.000000	44.621700
1619.000000	44.598400
1618.000000	44.552500
1617.000000	44.528800
1616.000000	44.510400
1615.000000	44.461000
1614.000000	44.442500
1613.000000	44.409900
1612.000000	44.361800
1611.000000	44.319700
1610.000000	44.270300
1609.000000	44.222500
1608.000000	44.170100
1607.000000	44.127500
1606.000000	44.073700
1605.000000	44.003400
1604.000000	43.941700
1603.000000	43.871000
1602.000000	43.808900
1601.000000	43.744400
1600.000000	43.683100
1599.000000	43.619900
1598.000000	43.545100
1597.000000	43.482000
1596.000000	43.435400
1595.000000	43.385500
1594.000000	43.324200
1593.000000	43.273200
1592.000000	43.235400
1591.000000	43.185800
1590.000000	43.141000
1589.000000	43.093900
1588.000000	43.051700
1587.000000	43.022700
1586.000000	42.983100
1585.000000	42.936600
1584.000000	42.906000
1583.000000	42.874600
1582.000000	42.841000
1581.000000	42.798600
1580.000000	42.760900
1579.000000	42.742100
1578.000000	42.725700
1577.000000	42.717000
1576.000000	42.706700
1575.000000	42.704300
1574.000000	42.703800
1573.000000	42.713200
1572.000000	42.731400
1571.000000	42.744200
1570.000000	42.766400
1569.000000	42.792400
1568.000000	42.812100
1567.000000	42.841000
1566.000000	42.872800
1565.000000	42.896800
1564.000000	42.911700
1563.000000	42.932400
1562.000000	42.950000
1561.000000	42.946700
1560.000000	42.939100
1559.000000	42.926300
1558.000000	42.900400
1557.000000	42.872400
1556.000000	42.843800
1555.000000	42.813200
1554.000000	42.754800
1553.000000	42.696700
1552.000000	42.649300
1551.000000	42.572800
1550.000000	42.492500
1549.000000	42.426400
1548.000000	42.364000
1547.000000	42.299200
1546.000000	42.229900
1545.000000	42.172200
1544.000000	42.143000
1543.000000	42.103000
1542.000000	42.058900
1541.000000	42.043000
1540.000000	42.011200
1539.000000	41.979700
1538.000000	41.953800
1537.000000	41.940800
1536.000000	41.926800
1535.000000	41.902800
1534.000000	41.864200
1533.000000	41.835400
1532.000000	41.814700
1531.000000	41.785600
1530.000000	41.745400
1529.000000	41.706800
1528.000000	41.675600
1527.000000	41.640900
1526.000000	41.603600
1525.000000	41.555700
1524.000000	41.521100
1523.000000	41.481900
1522.000000	41.427700
1521.000000	41.387800
1520.000000	41.349000
1519.000000	41.314200
1518.000000	41.275500
1517.000000	41.226300
1516.000000	41.178200
1515.000000	41.144600
1514.000000	41.087200
1513.000000	41.039000
1512.000000	41.002400
1511.000000	40.959300
1510.000000	40.917500
1509.000000	40.886400
1508.000000	40.840700
1507.000000	40.799500
1506.000000	40.749100
1505.000000	40.721800
1504.000000	40.691000
1503.000000	40.650700
1502.000000	40.612700
1501.000000	40.585900
1500.000000	40.546300
1499.000000	40.551300
1498.000000	40.549000
1497.000000	40.539200
1496.000000	40.540900
1495.000000	40.549700
1494.000000	40.564900
1493.000000	40.578900
1492.000000	40.612700
1491.000000	40.644600
1490.000000	40.684100
1489.000000	40.722800
1488.000000	40.763200
1487.000000	40.819400
1486.000000	40.859700
1485.000000	40.887400
1484.000000	40.934800
1483.000000	40.984100
1482.000000	41.041700
1481.000000	41.090500
1480.000000	41.123500
1479.000000	41.172300
1478.000000	41.228800
1477.000000	41.278200
1476.000000	41.313100
1475.000000	41.356400
1474.000000	41.451400
1473.000000	41.529000
1472.000000	41.592400
1471.000000	41.677000
1470.000000	41.720500
1469.000000	41.752600
1468.000000	41.819800
1467.000000	41.915100
1466.000000	41.999900
1465.000000	42.061200
1464.000000	42.122900
1463.000000	42.211800
1462.000000	42.290400
1461.000000	42.383500
1460.000000	42.468400
1459.000000	42.522100
1458.000000	42.622800
1457.000000	42.728200
1456.000000	42.823400
1455.000000	42.919000
1454.000000	42.986900
1453.000000	43.088800
1452.000000	43.213500
1451.000000	43.320400
1450.000000	43.404300
1449.000000	43.440600
1448.000000	43.516700
1447.000000	43.668300
1446.000000	43.790300
1445.000000	43.865100
1444.000000	43.937400
1443.000000	44.031000
1442.000000	44.148600
1441.000000	44.264700
1440.000000	44.340100
1439.000000	44.473000
1438.000000	44.576800
1437.000000	44.685000
1436.000000	44.782000
1435.000000	44.913600
1434.000000	45.074600
1433.000000	45.202800
1432.000000	45.338200
1431.000000	45.449700
1430.000000	45.576600
1429.000000	45.743100
1428.000000	45.942800
1427.000000	46.079200
1426.000000	46.253000
1425.000000	46.445900
1424.000000	46.656200
1423.000000	46.862900
1422.000000	47.037800
1421.000000	47.254100
1420.000000	47.499100
1419.000000	47.777600
1418.000000	47.974600
1417.000000	48.156400
1416.000000	48.422100
1415.000000	48.712200
1414.000000	49.033900
1413.000000	49.251600
1412.000000	49.479700
1411.000000	49.752400
1410.000000	50.104500
1409.000000	50.480900
1408.000000	50.725600
1407.000000	51.028900
1406.000000	51.301800
1405.000000	51.647400
1404.000000	51.858900
1403.000000	52.169300
1402.000000	52.433700
1401.000000	52.834600
1400.000000	53.130100
1399.000000	53.298000
1398.000000	53.442100
1397.000000	53.707400
1396.000000	54.051100
1395.000000	54.325300
1394.000000	54.448100
1393.000000	54.628300
1392.000000	54.878900
1391.000000	55.060300
1390.000000	55.226400
1389.000000	55.474200
1388.000000	55.808200
1387.000000	55.980100
1386.000000	56.184100
1385.000000	56.425000
1384.000000	56.705800
1383.000000	56.863000
1382.000000	57.035800
1381.000000	57.128600
1380.000000	57.142000
1379.000000	57.271600
1378.000000	57.341900
1377.000000	57.432300
1376.000000	57.525200
1375.000000	57.607000
1374.000000	57.710500
1373.000000	57.867000
1372.000000	57.990300
1371.000000	58.118700
1370.000000	58.232600
1369.000000	58.348500
1368.000000	58.474000
1367.000000	58.537600
1366.000000	58.615900
1365.000000	58.736300
1364.000000	58.829200
1363.000000	58.883400
1362.000000	59.009300
1361.000000	59.098400
1360.000000	59.100500
1359.000000	59.123900
1358.000000	59.183800
1357.000000	59.250000
1356.000000	59.326700
1355.000000	59.452800
1354.000000	59.568600
1353.000000	59.652000
1352.000000	59.776700
1351.000000	59.929000
1350.000000	60.073100
1349.000000	60.211300
1348.000000	60.370700
1347.000000	60.486200
1346.000000	60.557300
1345.000000	60.693300
1344.000000	60.849000
1343.000000	60.951500
1342.000000	61.054200
1341.000000	61.175700
1340.000000	61.270000
1339.000000	61.353600
1338.000000	61.448900
1337.000000	61.541900
1336.000000	61.620600
1335.000000	61.701700
1334.000000	61.759400
1333.000000	61.837600
1332.000000	61.916800
1331.000000	61.972500
1330.000000	62.018000
1329.000000	62.070400
1328.000000	62.116400
1327.000000	62.164400
1326.000000	62.213900
1325.000000	62.250800
1324.000000	62.291800
1323.000000	62.337100
1322.000000	62.371000
1321.000000	62.391900
1320.000000	62.430700
1319.000000	62.469600
1318.000000	62.484000
1317.000000	62.518600
1316.000000	62.552400
1315.000000	62.580600
1314.000000	62.606700
1313.000000	62.634000
1312.000000	62.660100
1311.000000	62.684600
1310.000000	62.703300
1309.000000	62.719900
1308.000000	62.734300
1307.000000	62.753900
1306.000000	62.756400
1305.000000	62.757500
1304.000000	62.761400
1303.000000	62.766000
1302.000000	62.768300
1301.000000	62.773000
1300.000000	62.770200
1299.000000	62.768800
1298.000000	62.773100
1297.000000	62.773500
1296.000000	62.773300
1295.000000	62.766700
1294.000000	62.753600
1293.000000	62.738900
1292.000000	62.726600
1291.000000	62.724800
1290.000000	62.723000
1289.000000	62.714600
1288.000000	62.712000
1287.000000	62.693100
1286.000000	62.679200
1285.000000	62.661800
1284.000000	62.626300
1283.000000	62.606000
1282.000000	62.589400
1281.000000	62.569700
1280.000000	62.572900
1279.000000	62.568400
1278.000000	62.544900
1277.000000	62.524800
1276.000000	62.510800
1275.000000	62.514800
1274.000000	62.525700
1273.000000	62.525500
1272.000000	62.537500
1271.000000	62.556500
1270.000000	62.568900
1269.000000	62.585100
1268.000000	62.597900
1267.000000	62.611800
1266.000000	62.618200
1265.000000	62.622100
1264.000000	62.630000
1263.000000	62.638100
1262.000000	62.638400
1261.000000	62.628600
1260.000000	62.625500
1259.000000	62.634900
1258.000000	62.641900
1257.000000	62.621600
1256.000000	62.611600
1255.000000	62.616700
1254.000000	62.597700
1253.000000	62.590300
1252.000000	62.568300
1251.000000	62.536000
1250.000000	62.509300
1249.000000	62.495300
1248.000000	62.479100
1247.000000	62.438600
1246.000000	62.406900
1245.000000	62.366900
1244.000000	62.323100
1243.000000	62.296300
1242.000000	62.267200
1241.000000	62.227100
1240.000000	62.205900
1239.000000	62.164600
1238.000000	62.123800
1237.000000	62.112000
1236.000000	62.078300
1235.000000	62.056400
1234.000000	62.035800
1233.000000	62.011800
1232.000000	61.982400
1231.000000	61.944500
1230.000000	61.910700
1229.000000	61.882400
1228.000000	61.858000
1227.000000	61.826800
1226.000000	61.784800
1225.000000	61.748000
1224.000000	61.711700
1223.000000	61.679400
1222.000000	61.643600
1221.000000	61.599700
1220.000000	61.570400
1219.000000	61.531500
1218.000000	61.484200
1217.000000	61.427900
1216.000000	61.381300
1215.000000	61.328100
1214.000000	61.295400
1213.000000	61.249000
1212.000000	61.174200
1211.000000	61.117000
1210.000000	61.067800
1209.000000	60.996300
1208.000000	60.934500
1207.000000	60.859900
1206.000000	60.794600
1205.000000	60.743100
1204.000000	60.682200
1203.000000	60.628400
1202.000000	60.544900
1201.000000	60.491300
1200.000000	60.427500
1199.000000	60.361900
1198.000000	60.301700
1197.000000	60.212500
1196.000000	60.128300
1195.000000	60.045700
1194.000000	59.958800
1193.000000	59.857300
1192.000000	59.746500
1191.000000	59.655800
1190.000000	59.588900
1189.000000	59.525600
1188.000000	59.464200
1187.000000	59.460700
1186.000000	59.447900
1185.000000	59.449800
1184.000000	59.501600
1183.000000	59.562600
1182.000000	59.628800
1181.000000	59.666100
1180.000000	59.765600
1179.000000	59.850900
1178.000000	59.929000
1177.000000	60.002300
1176.000000	60.064200
1175.000000	60.135900
1174.000000	60.206300
1173.000000	60.293000
1172.000000	60.349600
1171.000000	60.464200
1170.000000	60.551500
1169.000000	60.641900
1168.000000	60.737700
1167.000000	60.835000
1166.000000	60.933200
1165.000000	61.063800
1164.000000	61.167400
1163.000000	61.279700
1162.000000	61.379500
1161.000000	61.498100
1160.000000	61.603300
1159.000000	61.699900
1158.000000	61.787300
1157.000000	61.868400
1156.000000	61.938900
1155.000000	61.988000
1154.000000	62.064000
1153.000000	62.104700
1152.000000	62.129300
1151.000000	62.156200
1150.000000	62.193400
1149.000000	62.240100
1148.000000	62.251800
1147.000000	62.299800
1146.000000	62.328400
1145.000000	62.377600
1144.000000	62.423300
1143.000000	62.450100
1142.000000	62.511000
1141.000000	62.570200
1140.000000	62.624500
1139.000000	62.702800
1138.000000	62.775800
1137.000000	62.861000
1136.000000	62.987300
1135.000000	63.057900
1134.000000	63.126000
1133.000000	63.155900
1132.000000	63.192500
1131.000000	63.264800
1130.000000	63.337900
1129.000000	63.378200
1128.000000	63.396300
1127.000000	63.409500
1126.000000	63.438100
1125.000000	63.474200
1124.000000	63.476800
1123.000000	63.481300
1122.000000	63.467500
1121.000000	63.459100
1120.000000	63.447200
1119.000000	63.412800
1118.000000	63.416300
1117.000000	63.394500
1116.000000	63.379600
1115.000000	63.338300
1114.000000	63.305000
1113.000000	63.291300
1112.000000	63.268000
1111.000000	63.232900
1110.000000	63.217900
1109.000000	63.196400
1108.000000	63.161000
1107.000000	63.126800
1106.000000	63.108700
1105.000000	63.077300
1104.000000	63.064700
1103.000000	63.034700
1102.000000	63.013400
1101.000000	62.979400
1100.000000	62.955600
1099.000000	62.940100
1098.000000	62.906600
1097.000000	62.894400
1096.000000	62.862700
1095.000000	62.801700
1094.000000	62.781400
1093.000000	62.747300
1092.000000	62.724600
1091.000000	62.686000
1090.000000	62.631300
1089.000000	62.597600
1088.000000	62.552500
1087.000000	62.519200
1086.000000	62.478700
1085.000000	62.456100
1084.000000	62.415800
1083.000000	62.369800
1082.000000	62.328300
1081.000000	62.296400
1080.000000	62.256300
1079.000000	62.206900
1078.000000	62.181000
1077.000000	62.135100
1076.000000	62.083800
1075.000000	62.050600
1074.000000	62.008100
1073.000000	61.964400
1072.000000	61.920500
1071.000000	61.873500
1070.000000	61.822800
1069.000000	61.781000
1068.000000	61.750600
1067.000000	61.695800
1066.000000	61.644500
1065.000000	61.604000
1064.000000	61.558700
1063.000000	61.507700
1062.000000	61.470400
1061.000000	61.417200
1060.000000	61.377700
1059.000000	61.337900
1058.000000	61.280900
1057.000000	61.231400
1056.000000	61.202300
1055.000000	61.166000
1054.000000	61.108400
1053.000000	61.058200
1052.000000	61.020200
1051.000000	60.971200
1050.000000	60.931100
1049.000000	60.891300
1048.000000	60.846200
1047.000000	60.800900
1046.000000	60.755900
1045.000000	60.698100
1044.000000	60.647900
1043.000000	60.617400
1042.000000	60.574800
1041.000000	60.521400
1040.000000	60.470800
1039.000000	60.430200
1038.000000	60.386300
1037.000000	60.333900
1036.000000	60.286600
1035.000000	60.247500
1034.000000	60.195900
1033.000000	60.155000
1032.000000	60.117200
1031.000000	60.068900
1030.000000	60.009500
1029.000000	59.955800
1028.000000	59.910800
1027.000000	59.849900
1026.000000	59.794500
1025.000000	59.751000
1024.000000	59.695900
1023.000000	59.634800
1022.000000	59.580000
1021.000000	59.525800
1020.000000	59.476100
1019.000000	59.434600
1018.000000	59.368800
1017.000000	59.325100
1016.000000	59.294700
1015.000000	59.241600
1014.000000	59.192800
1013.000000	59.148100
1012.000000	59.095000
1011.000000	59.054600
1010.000000	58.999300
1009.000000	58.961500
1008.000000	58.933200
1007.000000	58.881400
1006.000000	58.839900
1005.000000	58.796600
1004.000000	58.746700
1003.000000	58.712500
1002.000000	58.670000
1001.000000	58.624000
1000.000000	58.558300
999.000000	58.506100
998.000000	58.470400
997.000000	58.427800
996.000000	58.388700
995.000000	58.334100
994.000000	58.280900
993.000000	58.245200
992.000000	58.205100
991.000000	58.153500
990.000000	58.101200
989.000000	58.034100
988.000000	57.988100
987.000000	57.958500
986.000000	57.900300
985.000000	57.846400
984.000000	57.811300
983.000000	57.779100
982.000000	57.740100
981.000000	57.699200
980.000000	57.645800
979.000000	57.602200
978.000000	57.573100
977.000000	57.534000
976.000000	57.476300
975.000000	57.438600
974.000000	57.423500
973.000000	57.392700
972.000000	57.331200
971.000000	57.289600
970.000000	57.277900
969.000000	57.253700
968.000000	57.211500
967.000000	57.193200
966.000000	57.154500
965.000000	57.135900
964.000000	57.121600
963.000000	57.084000
962.000000	57.062600
961.000000	57.054500
960.000000	57.064000
959.000000	57.057400
958.000000	57.027400
957.000000	57.017300
956.000000	56.993300
955.000000	57.008500
954.000000	56.993300
953.000000	56.998700
952.000000	56.970100
951.000000	56.953400
950.000000	56.974900
949.000000	56.948200
948.000000	56.935800
947.000000	56.955700
946.000000	56.940900
945.000000	56.930900
944.000000	56.948800
943.000000	56.949700
942.000000	56.929300
941.000000	56.905400
940.000000	56.931400
939.000000	56.923600
938.000000	56.935100
937.000000	56.943800
936.000000	56.909000
935.000000	56.876900
934.000000	56.861400
933.000000	56.856500
932.000000	56.859000
931.000000	56.842300
930.000000	56.828200
929.000000	56.848900
928.000000	56.804600
927.000000	56.792000
926.000000	56.783000
925.000000	56.788400
924.000000	56.749900
923.000000	56.740300
922.000000	56.721300
921.000000	56.681300
920.000000	56.707500
919.000000	56.672500
918.000000	56.615000
917.000000	56.589300
916.000000	56.604900
915.000000	56.566400
914.000000	56.534100
913.000000	56.505600
912.000000	56.480400
911.000000	56.465500
910.000000	56.462000
909.000000	56.430500
908.000000	56.418900
907.000000	56.388300
906.000000	56.382100
905.000000	56.375100
904.000000	56.370800
903.000000	56.373200
902.000000	56.372800
901.000000	56.363300
900.000000	56.355100
899.000000	56.363900
898.000000	56.372600
897.000000	56.371000
896.000000	56.383000
895.000000	56.384700
894.000000	56.372200
893.000000	56.358600
892.000000	56.358900
891.000000	56.376700
890.000000	56.388500
889.000000	56.418300
888.000000	56.431800
887.000000	56.443300
886.000000	56.470100
885.000000	56.455600
884.000000	56.473500
883.000000	56.494500
882.000000	56.505800
881.000000	56.504900
880.000000	56.532300
879.000000	56.543900
878.000000	56.569400
877.000000	56.578000
876.000000	56.601000
875.000000	56.610400
874.000000	56.645500
873.000000	56.671400
872.000000	56.684700
871.000000	56.703200
870.000000	56.728500
869.000000	56.760700
868.000000	56.775000
867.000000	56.803400
866.000000	56.813700
865.000000	56.806500
864.000000	56.812600
863.000000	56.773000
862.000000	56.722700
861.000000	56.669900
860.000000	56.552000
859.000000	56.380600
858.000000	56.333600
857.000000	56.474040
856.000000	56.730067
855.000000	56.633042
854.000000	56.459981
853.000000	56.893425
852.000000	56.609974
851.000000	56.817290
850.000000	56.584035
849.000000	56.449289
848.000000	56.604331
847.000000	56.590569
846.000000	56.558293
845.000000	56.506514
844.000000	56.341274
843.000000	56.436220
842.000000	56.400083
841.000000	56.546512
840.000000	56.477604
839.000000	56.277119
838.000000	56.279693
837.000000	56.260189
836.000000	56.394143
835.000000	56.351076
834.000000	56.275436
833.000000	56.356026
832.000000	56.276624
831.000000	56.182767
830.000000	56.133760
829.000000	56.066931
828.000000	55.936740
827.000000	55.965055
826.000000	55.930800
825.000000	55.937334
824.000000	55.829517
823.000000	55.753086
822.000000	55.645071
821.000000	55.622399
820.000000	55.536067
819.000000	55.469139
818.000000	55.327166
817.000000	55.233408
816.000000	55.116285
815.000000	55.090841
814.000000	54.999459
813.000000	54.820656
812.000000	54.731156
811.000000	54.665318
810.000000	54.520869
809.000000	54.267911
808.000000	54.173560
807.000000	54.117226
806.000000	54.136136
805.000000	53.990004
804.000000	53.853278
803.000000	53.757145
802.000000	53.599430
801.000000	53.545274
800.000000	53.397558
799.000000	53.241230
798.000000	53.169748
797.000000	52.982529
796.000000	52.883623
795.000000	52.767689
794.000000	52.704622
793.000000	52.584826
792.000000	52.461070
791.000000	52.277218
790.000000	52.196925
789.000000	52.180688
788.000000	52.020993
787.000000	51.987331
786.000000	51.912780
785.000000	51.806251
784.000000	51.694375
783.000000	51.656357
782.000000	51.593786
781.000000	51.507949
780.000000	51.353303
779.000000	51.273604
778.000000	51.145195
777.000000	51.094702
776.000000	51.087871
775.000000	51.034606
774.000000	50.953224
773.000000	50.881841
772.000000	50.756204
771.000000	50.637893
770.000000	50.576114
769.000000	50.518889
768.000000	50.482851
767.000000	50.403449
766.000000	50.312265
765.000000	50.185440
764.000000	50.115938
763.000000	50.035249
762.000000	49.968718
761.000000	49.871396
760.000000	49.763976
759.000000	49.654674
758.000000	49.567253
757.000000	49.513592
756.000000	49.442506
755.000000	49.340333
754.000000	49.265980
753.000000	49.188064
752.000000	49.064109
751.000000	48.964015
750.000000	48.880455
749.000000	48.783925
748.000000	48.673535
747.000000	48.586410
746.000000	48.488890
745.000000	48.389390
744.000000	48.338700
743.000000	48.236427
742.000000	48.108018
741.000000	48.040298
740.000000	47.992776
739.000000	47.898226
738.000000	47.814468
737.000000	47.715859
736.000000	47.616557
735.000000	47.521215
734.000000	47.443892
733.000000	47.376371
732.000000	47.261822
731.000000	47.139749
730.000000	47.052130
729.000000	46.947184
728.000000	46.829863
727.000000	46.781351
726.000000	46.714225
725.000000	46.666901
724.000000	46.617597
723.000000	46.581856
722.000000	46.496810
721.000000	46.384836
720.000000	46.299592
719.000000	46.235635
718.000000	46.145442
717.000000	46.093365
716.000000	46.037130
715.000000	46.004954
714.000000	45.918027
713.000000	45.852090
712.000000	45.794766
711.000000	45.740610
710.000000	45.704077
709.000000	45.641506
708.000000	45.588638
707.000000	45.522700
706.000000	45.497652
705.000000	45.482999
704.000000	45.374985
703.000000	45.279940
702.000000	45.221230
701.000000	45.185489
700.000000	45.092622
699.000000	45.009557
698.000000	44.896196
697.000000	44.829467
696.000000	44.764124
695.000000	44.668881
694.000000	44.519086
693.000000	44.349392
692.000000	44.252862
691.000000	44.119700
690.000000	43.991093
689.000000	43.820309
688.000000	43.721898
687.000000	43.540224
686.000000	43.376569
685.000000	43.216082
684.000000	43.080346
683.000000	42.907582
682.000000	42.729769
681.000000	42.577301
680.000000	42.340877
679.000000	42.169005
678.000000	41.984756
677.000000	41.836942
676.000000	41.639427
675.000000	41.450129
674.000000	41.225784
673.000000	40.995498
672.000000	40.777885
671.000000	40.578489
670.000000	40.408102
669.000000	40.219101
668.000000	40.068811
667.000000	39.901196
666.000000	39.756748
665.000000	39.661406
664.000000	39.568242
663.000000	39.473791
662.000000	39.469336
661.000000	39.422507
660.000000	39.378845
659.000000	39.338946
658.000000	39.339738
657.000000	39.314195
656.000000	39.296176
655.000000	39.322908
654.000000	39.241328
653.000000	39.219942
652.000000	39.199943
651.000000	39.145689
650.000000	39.137075
649.000000	39.144897
648.000000	39.097572
647.000000	39.106186
646.000000	39.101037
645.000000	39.093612
644.000000	39.079553
643.000000	39.050446
642.000000	39.027279
641.000000	39.041436
640.000000	38.998369
639.000000	38.957282
638.000000	38.875702
637.000000	38.793330
636.000000	38.637991
635.000000	38.513443
634.000000	38.292662
633.000000	38.098513
632.000000	37.842981
631.000000	37.592597
630.000000	37.377855
629.000000	37.106582
628.000000	36.885206
627.000000	36.664128
626.000000	36.483345
625.000000	36.324145
624.000000	36.197518
623.000000	36.111383
622.000000	36.019903
621.000000	35.988518
620.000000	35.952579
619.000000	35.992379
618.000000	35.980499
617.000000	36.051584
616.000000	36.120690
615.000000	36.217220
614.000000	36.319987
613.000000	36.452257
612.000000	36.611061
611.000000	36.830655
610.000000	37.045198
609.000000	37.307067
608.000000	37.632298
607.000000	38.000795
606.000000	38.406418
605.000000	38.870752
604.000000	39.378548
603.000000	39.920799
602.000000	40.480672
601.000000	41.059158
600.000000	41.626457
599.000000	42.216824
598.000000	42.828873
597.000000	43.384984
596.000000	43.888722
595.000000	44.345531
594.000000	44.792736
593.000000	45.201429
592.000000	45.516859
591.000000	45.808627
590.000000	46.096830
589.000000	46.360877
588.000000	46.596409
587.000000	46.835012
586.000000	47.064604
585.000000	47.271327
584.000000	47.506959
583.000000	47.723185
582.000000	47.955748
581.000000	48.192370
580.000000	48.466119
579.000000	48.648684
578.000000	48.870554
577.000000	49.084108
576.000000	49.290138
575.000000	49.437259
574.000000	49.578044
573.000000	49.719918
572.000000	49.814666
571.000000	49.850011
570.000000	49.867733
569.000000	49.898226
568.000000	49.862189
567.000000	49.796053
566.000000	49.751798
565.000000	49.715364
564.000000	49.645467
563.000000	49.609033
562.000000	49.586064
561.000000	49.550323
560.000000	49.548145
559.000000	49.501909
558.000000	49.504385
557.000000	49.449932
556.000000	49.422705
555.000000	49.330928
554.000000	49.250932
553.000000	49.158956
552.000000	49.002825
551.000000	48.831745
550.000000	48.615815
549.000000	48.365431
548.000000	48.090692
547.000000	47.789618
546.000000	47.435873
545.000000	47.091038
544.000000	46.717889
543.000000	46.342165
542.000000	45.956738
541.000000	45.537254
540.000000	45.091434
539.000000	44.670960
538.000000	44.227022
537.000000	43.751501
536.000000	43.265287
535.000000	42.736006
534.000000	42.147322
533.000000	41.542897
532.000000	40.925502
531.000000	40.292464
530.000000	39.638239
529.000000	38.968668
528.000000	38.295434
527.000000	37.653584
526.000000	37.012527
525.000000	36.375034
524.000000	35.735065
523.000000	35.067771
522.000000	34.431169
521.000000	33.767737
520.000000	33.087968
519.000000	32.416219
518.000000	31.727541
517.000000	31.012724
516.000000	30.293354
515.000000	29.591012
514.000000	28.865999
513.000000	28.144648
512.000000	27.446960
511.000000	26.775112
510.000000	26.094255
509.000000	25.459831
508.000000	24.873424
507.000000	24.313749
506.000000	23.768429
505.000000	23.260929
504.000000	22.777488
503.000000	22.317907
502.000000	21.884067
501.000000	21.459038
500.000000	21.079948
499.000000	20.707491
498.000000	20.310679
497.000000	19.957231
496.000000	19.599229
495.000000	19.239643
494.000000	18.896195
493.000000	18.565518
492.000000	18.238504
491.000000	17.941885
490.000000	17.673780
489.000000	17.424980
488.000000	17.207169
487.000000	17.013020
486.000000	16.846593
485.000000	16.709273
484.000000	16.597793
483.000000	16.504729
482.000000	16.439682
481.000000	16.427109
480.000000	16.404239
479.000000	16.363944
478.000000	16.310283
477.000000	16.270285
476.000000	16.229198
475.000000	16.186230
474.000000	16.137519
473.000000	16.070889
472.000000	15.989507
471.000000	15.912778
470.000000	15.849316
469.000000	15.776547
468.000000	15.695957
467.000000	15.612001
466.000000	15.519233
465.000000	15.435376
464.000000	15.352211
463.000000	15.257761
462.000000	15.164003
461.000000	15.072225
460.000000	14.969557
459.000000	14.846692
458.000000	14.723926
457.000000	14.603932
456.000000	14.476413
455.000000	14.336024
454.000000	14.185338
453.000000	14.037227
452.000000	13.889214
451.000000	13.720807
450.000000	13.555766
449.000000	13.401219
448.000000	13.222416
447.000000	13.048068
446.000000	12.873918
445.000000	12.691749
444.000000	12.522450
443.000000	12.345231
442.000000	12.163260
441.000000	11.981883
440.000000	11.789516
439.000000	11.601704
438.000000	11.400526
437.000000	11.175586
436.000000	10.967676
435.000000	10.758181
434.000000	10.526707
433.000000	10.305431
432.000000	10.107223
431.000000	9.903174
430.000000	9.693085
429.000000	9.494481
428.000000	9.294293
427.000000	9.084303
426.000000	8.888273
425.000000	8.698283
424.000000	8.497303
423.000000	8.293748
422.000000	8.104055
421.000000	7.910203
420.000000	7.709223
419.000000	7.519529
418.000000	7.336271
417.000000	7.157864
416.000000	6.984902
415.000000	6.821643
414.000000	6.666601
413.000000	6.518589
412.000000	6.382358
411.000000	6.254443
410.000000	6.134053
409.000000	6.011386
408.000000	5.898718
407.000000	5.785160
406.000000	5.685066
405.000000	5.596159
404.000000	5.509233
403.000000	5.432801
402.000000	5.350330
401.000000	5.290729
400.000000	5.238553
399.000000	5.178655
398.000000	5.136083
397.000000	5.091134
396.000000	5.064403
395.000000	5.016683
394.000000	4.992822
393.000000	4.972922
392.000000	4.935796
391.000000	4.905599
390.000000	4.879264
389.000000	4.854711
388.000000	4.849760
387.000000	4.834811
386.000000	4.801446
385.000000	4.791149
384.000000	4.784813
383.000000	4.773823
382.000000	4.759072
381.000000	4.731548
380.000000	4.730162
379.000000	4.733330
378.000000	4.710262
377.000000	4.689471
376.000000	4.733825
375.000000	4.678482
374.000000	4.647493
373.000000	4.619871
372.000000	4.686897
371.000000	4.648978
370.000000	4.727984
369.000000	4.697986
368.000000	4.651453
367.000000	4.666799
366.000000	4.641058
365.000000	4.694124
364.000000	4.657691
363.000000	4.740756
362.000000	4.731548
361.000000	4.740558
360.000000	4.694124
359.000000	4.738776
358.000000	4.702639
357.000000	4.637692
356.000000	4.601159
355.000000	4.634622
354.000000	4.656998
353.000000	4.634523
352.000000	4.603436
351.000000	4.587595
350.000000	4.597099
349.000000	4.699570
348.000000	4.675115
347.000000	4.614623
346.000000	4.751646
345.000000	4.720361
344.000000	4.677492
343.000000	4.672739
342.000000	4.700065
341.000000	4.662542
340.000000	4.739865
339.000000	4.671650
338.000000	4.802832
337.000000	4.742934
336.000000	4.762933
335.000000	4.670165
334.000000	4.831543
333.000000	4.829860
332.000000	4.763230
331.000000	4.961834
330.000000	4.853621
329.000000	4.728875
328.000000	4.737390
327.000000	4.916886
326.000000	5.062819
325.000000	5.027870
324.000000	4.811742
323.000000	4.889065
322.000000	4.988169
321.000000	4.961438
320.000000	4.914213
319.000000	4.770358
318.000000	4.853225
317.000000	4.841048
316.000000	4.604822
315.000000	4.596802
314.000000	4.674620
313.000000	4.570764
312.000000	4.588189
311.000000	4.574031
310.000000	4.590565
309.000000	4.665710
308.000000	4.610861
307.000000	4.570071
306.000000	4.590862
305.000000	4.588882
304.000000	4.550468
303.000000	4.648681
302.000000	4.609475
301.000000	4.628781
300.000000	4.561953
299.000000	4.550468
298.000000	4.649671
297.000000	4.633533
296.000000	4.608287
295.000000	4.600367
294.000000	4.630464
293.000000	4.599278
292.000000	4.636800
291.000000	4.602248
290.000000	4.630167
289.000000	4.670957
288.000000	4.655512
287.000000	4.658384
286.000000	4.629276
285.000000	4.698283
284.000000	4.688283
283.000000	4.623831
282.000000	4.706203
281.000000	4.613336
280.000000	4.704223
279.000000	4.716004
278.000000	4.713529
277.000000	4.702243
276.000000	4.657988
275.000000	4.737786
274.000000	4.753329
273.000000	4.776893
272.000000	4.736301
271.000000	4.793921
270.000000	4.799961
269.000000	4.791050
268.000000	4.812831
267.000000	4.815109
266.000000	4.830553
265.000000	4.878274
264.000000	4.884115
263.000000	4.978962
262.000000	4.971239
261.000000	4.967675
260.000000	5.009059
259.000000	5.050938
258.000000	5.014406
257.000000	5.043414
256.000000	5.051631
255.000000	5.036286
254.000000	5.029652
253.000000	5.089550
252.000000	5.098758
251.000000	5.084105
250.000000	5.102421
