PE UV       SUBTECH     SPECTRUM    ASCII       PEDS        4.00        
   -1
CICIMAUCR0018-4.Sample.ASC
24/04/25
09:33:39.00
24/04/25
09:33:39.00
Vinicio Soto Monge
C. cupreomarginata
250,000000
1
Lambda 1050
1050L1511233
PerkinElmer UV WinLab 6.3.2.0749 / 2.02.05 Lambda 900 UV/VIS/NIR, Aug  7 2015 09:38:08

0
0
3350/servo 860,8/2
0
0
UV/VIS
1
1
1
DoubleDePol,CommonBeamDepol,RBeamAtt,SBeamAtt,60mm sphere, WB InGaAs Detector
0
0
0
0
Program
Program
3350/servo 860,8/2
3350/0,2 860,8/0,2
3350/0,2 860,8/0,2
0
15.00
 
 
 
0
 
860,8
319,2
860,8
Front
100
on
S:100 R:100
0
0
0
0
 
0
 
 
 
0
 
 
0
0
0
0
0
 
 
 
 
0
0


0
0
#HDR
-1
-1
#GR
nm
%R
1.0
0.0
2500,000000
-1,000000
2251
8
71,686800
5,649200
#DATA
2500.000000	6.424600
2499.000000	6.358000
2498.000000	6.468600
2497.000000	6.366200
2496.000000	6.365300
2495.000000	6.388800
2494.000000	6.289100
2493.000000	6.236200
2492.000000	6.303100
2491.000000	6.195600
2490.000000	6.216500
2489.000000	6.316500
2488.000000	6.273200
2487.000000	6.236400
2486.000000	6.175300
2485.000000	6.239600
2484.000000	6.201700
2483.000000	6.214900
2482.000000	6.285200
2481.000000	6.238200
2480.000000	6.238900
2479.000000	6.193900
2478.000000	6.270300
2477.000000	6.191400
2476.000000	6.208900
2475.000000	6.254600
2474.000000	6.222300
2473.000000	6.210700
2472.000000	6.239100
2471.000000	6.213200
2470.000000	6.222900
2469.000000	6.205900
2468.000000	6.266700
2467.000000	6.214000
2466.000000	6.236400
2465.000000	6.276200
2464.000000	6.250100
2463.000000	6.312100
2462.000000	6.294000
2461.000000	6.314200
2460.000000	6.344900
2459.000000	6.385700
2458.000000	6.418100
2457.000000	6.441100
2456.000000	6.466900
2455.000000	6.509200
2454.000000	6.554000
2453.000000	6.530600
2452.000000	6.593200
2451.000000	6.618000
2450.000000	6.653800
2449.000000	6.681600
2448.000000	6.754700
2447.000000	6.770400
2446.000000	6.786200
2445.000000	6.855900
2444.000000	6.899500
2443.000000	6.925900
2442.000000	6.974900
2441.000000	7.000000
2440.000000	7.029000
2439.000000	7.079400
2438.000000	7.107200
2437.000000	7.142100
2436.000000	7.173200
2435.000000	7.203600
2434.000000	7.224400
2433.000000	7.236900
2432.000000	7.295000
2431.000000	7.305200
2430.000000	7.333800
2429.000000	7.356300
2428.000000	7.396500
2427.000000	7.399700
2426.000000	7.411500
2425.000000	7.444900
2424.000000	7.464800
2423.000000	7.489900
2422.000000	7.506400
2421.000000	7.521000
2420.000000	7.541600
2419.000000	7.545000
2418.000000	7.563600
2417.000000	7.574900
2416.000000	7.588800
2415.000000	7.603200
2414.000000	7.629200
2413.000000	7.659400
2412.000000	7.699900
2411.000000	7.730700
2410.000000	7.763600
2409.000000	7.791900
2408.000000	7.801100
2407.000000	7.810100
2406.000000	7.821100
2405.000000	7.859700
2404.000000	7.881600
2403.000000	7.892000
2402.000000	7.908500
2401.000000	7.926500
2400.000000	7.945100
2399.000000	7.970300
2398.000000	7.992800
2397.000000	7.997400
2396.000000	8.024600
2395.000000	8.053100
2394.000000	8.061200
2393.000000	8.067000
2392.000000	8.073500
2391.000000	8.086300
2390.000000	8.104000
2389.000000	8.113600
2388.000000	8.120300
2387.000000	8.148000
2386.000000	8.151300
2385.000000	8.149900
2384.000000	8.152900
2383.000000	8.148600
2382.000000	8.148700
2381.000000	8.142700
2380.000000	8.139300
2379.000000	8.139500
2378.000000	8.139600
2377.000000	8.129200
2376.000000	8.117200
2375.000000	8.105700
2374.000000	8.103400
2373.000000	8.098500
2372.000000	8.080700
2371.000000	8.053500
2370.000000	8.036100
2369.000000	8.024400
2368.000000	8.009800
2367.000000	7.985500
2366.000000	7.965000
2365.000000	7.939200
2364.000000	7.912000
2363.000000	7.877400
2362.000000	7.852900
2361.000000	7.824200
2360.000000	7.783200
2359.000000	7.761500
2358.000000	7.741200
2357.000000	7.731000
2356.000000	7.712700
2355.000000	7.695400
2354.000000	7.689600
2353.000000	7.689500
2352.000000	7.690900
2351.000000	7.712700
2350.000000	7.732200
2349.000000	7.740400
2348.000000	7.760700
2347.000000	7.787200
2346.000000	7.802800
2345.000000	7.839200
2344.000000	7.879000
2343.000000	7.904600
2342.000000	7.920100
2341.000000	7.937900
2340.000000	7.943400
2339.000000	7.968400
2338.000000	7.989000
2337.000000	7.987400
2336.000000	8.002300
2335.000000	8.004600
2334.000000	7.989100
2333.000000	7.971500
2332.000000	7.972100
2331.000000	7.954000
2330.000000	7.925100
2329.000000	7.908300
2328.000000	7.857100
2327.000000	7.843000
2326.000000	7.811200
2325.000000	7.780000
2324.000000	7.744900
2323.000000	7.704800
2322.000000	7.659900
2321.000000	7.621800
2320.000000	7.569800
2319.000000	7.527500
2318.000000	7.489300
2317.000000	7.439600
2316.000000	7.388400
2315.000000	7.333600
2314.000000	7.291000
2313.000000	7.257100
2312.000000	7.221200
2311.000000	7.188400
2310.000000	7.171700
2309.000000	7.162800
2308.000000	7.134100
2307.000000	7.126600
2306.000000	7.152500
2305.000000	7.143200
2304.000000	7.177300
2303.000000	7.206600
2302.000000	7.239800
2301.000000	7.275300
2300.000000	7.334200
2299.000000	7.377400
2298.000000	7.432600
2297.000000	7.475300
2296.000000	7.523200
2295.000000	7.578900
2294.000000	7.601000
2293.000000	7.642500
2292.000000	7.669300
2291.000000	7.687100
2290.000000	7.706700
2289.000000	7.715300
2288.000000	7.720700
2287.000000	7.708200
2286.000000	7.717400
2285.000000	7.709300
2284.000000	7.672100
2283.000000	7.662200
2282.000000	7.652200
2281.000000	7.641200
2280.000000	7.604400
2279.000000	7.590500
2278.000000	7.572900
2277.000000	7.567000
2276.000000	7.552100
2275.000000	7.532400
2274.000000	7.549800
2273.000000	7.536300
2272.000000	7.547600
2271.000000	7.564400
2270.000000	7.599000
2269.000000	7.616900
2268.000000	7.658100
2267.000000	7.702800
2266.000000	7.759100
2265.000000	7.843900
2264.000000	7.924300
2263.000000	8.004200
2262.000000	8.118300
2261.000000	8.233200
2260.000000	8.350300
2259.000000	8.466100
2258.000000	8.608900
2257.000000	8.733500
2256.000000	8.887400
2255.000000	9.014100
2254.000000	9.159100
2253.000000	9.288400
2252.000000	9.436100
2251.000000	9.523000
2250.000000	9.653000
2249.000000	9.762900
2248.000000	9.882200
2247.000000	9.989800
2246.000000	10.064000
2245.000000	10.155500
2244.000000	10.260000
2243.000000	10.325800
2242.000000	10.401400
2241.000000	10.481800
2240.000000	10.543100
2239.000000	10.607000
2238.000000	10.665200
2237.000000	10.719700
2236.000000	10.747900
2235.000000	10.794700
2234.000000	10.861700
2233.000000	10.871200
2232.000000	10.928500
2231.000000	10.940900
2230.000000	10.975100
2229.000000	10.979400
2228.000000	10.996700
2227.000000	11.026200
2226.000000	11.011000
2225.000000	11.028900
2224.000000	11.020700
2223.000000	11.016500
2222.000000	11.019700
2221.000000	11.008100
2220.000000	10.999300
2219.000000	10.988400
2218.000000	10.989300
2217.000000	10.996900
2216.000000	10.954800
2215.000000	10.953100
2214.000000	10.936700
2213.000000	10.930200
2212.000000	10.915400
2211.000000	10.909900
2210.000000	10.876200
2209.000000	10.860300
2208.000000	10.873000
2207.000000	10.855200
2206.000000	10.831300
2205.000000	10.835000
2204.000000	10.822700
2203.000000	10.817700
2202.000000	10.822200
2201.000000	10.813400
2200.000000	10.793500
2199.000000	10.788700
2198.000000	10.772000
2197.000000	10.767800
2196.000000	10.755800
2195.000000	10.752200
2194.000000	10.760100
2193.000000	10.726300
2192.000000	10.722500
2191.000000	10.735500
2190.000000	10.723100
2189.000000	10.729700
2188.000000	10.720200
2187.000000	10.682200
2186.000000	10.698200
2185.000000	10.670600
2184.000000	10.666700
2183.000000	10.640400
2182.000000	10.648500
2181.000000	10.636000
2180.000000	10.615100
2179.000000	10.584800
2178.000000	10.583000
2177.000000	10.588300
2176.000000	10.587300
2175.000000	10.589700
2174.000000	10.592400
2173.000000	10.596000
2172.000000	10.584200
2171.000000	10.590700
2170.000000	10.602300
2169.000000	10.621200
2168.000000	10.606900
2167.000000	10.625200
2166.000000	10.632800
2165.000000	10.644000
2164.000000	10.648200
2163.000000	10.651700
2162.000000	10.668200
2161.000000	10.675600
2160.000000	10.694700
2159.000000	10.714300
2158.000000	10.727500
2157.000000	10.750900
2156.000000	10.764400
2155.000000	10.767800
2154.000000	10.799700
2153.000000	10.812800
2152.000000	10.831300
2151.000000	10.854500
2150.000000	10.885800
2149.000000	10.892100
2148.000000	10.899700
2147.000000	10.923000
2146.000000	10.944500
2145.000000	10.939900
2144.000000	10.946800
2143.000000	10.961400
2142.000000	10.971700
2141.000000	10.993300
2140.000000	10.998900
2139.000000	11.008400
2138.000000	11.026000
2137.000000	11.041600
2136.000000	11.022900
2135.000000	11.027300
2134.000000	11.039800
2133.000000	11.032700
2132.000000	11.032200
2131.000000	11.024200
2130.000000	11.023800
2129.000000	11.011500
2128.000000	10.997700
2127.000000	10.982200
2126.000000	10.977000
2125.000000	10.969700
2124.000000	10.951500
2123.000000	10.936500
2122.000000	10.923100
2121.000000	10.908900
2120.000000	10.882500
2119.000000	10.856900
2118.000000	10.838700
2117.000000	10.816800
2116.000000	10.784000
2115.000000	10.768100
2114.000000	10.758600
2113.000000	10.735300
2112.000000	10.706900
2111.000000	10.691400
2110.000000	10.663900
2109.000000	10.637200
2108.000000	10.615100
2107.000000	10.584800
2106.000000	10.570300
2105.000000	10.557200
2104.000000	10.535300
2103.000000	10.510800
2102.000000	10.490800
2101.000000	10.461300
2100.000000	10.435400
2099.000000	10.422800
2098.000000	10.399700
2097.000000	10.391800
2096.000000	10.380000
2095.000000	10.363700
2094.000000	10.349400
2093.000000	10.328500
2092.000000	10.310900
2091.000000	10.297200
2090.000000	10.282700
2089.000000	10.269700
2088.000000	10.266800
2087.000000	10.258700
2086.000000	10.236700
2085.000000	10.222500
2084.000000	10.223800
2083.000000	10.201600
2082.000000	10.186500
2081.000000	10.168400
2080.000000	10.149100
2079.000000	10.148800
2078.000000	10.126000
2077.000000	10.113600
2076.000000	10.105300
2075.000000	10.086100
2074.000000	10.064500
2073.000000	10.051500
2072.000000	10.034800
2071.000000	10.021800
2070.000000	10.013300
2069.000000	9.983400
2068.000000	9.970500
2067.000000	9.950700
2066.000000	9.938900
2065.000000	9.932000
2064.000000	9.914000
2063.000000	9.904300
2062.000000	9.911300
2061.000000	9.914700
2060.000000	9.904800
2059.000000	9.911800
2058.000000	9.915400
2057.000000	9.929700
2056.000000	9.936200
2055.000000	9.961300
2054.000000	10.002800
2053.000000	10.029300
2052.000000	10.069300
2051.000000	10.102700
2050.000000	10.154700
2049.000000	10.213000
2048.000000	10.272200
2047.000000	10.348400
2046.000000	10.421300
2045.000000	10.482600
2044.000000	10.546800
2043.000000	10.595700
2042.000000	10.662700
2041.000000	10.742000
2040.000000	10.816300
2039.000000	10.869400
2038.000000	10.937800
2037.000000	10.998100
2036.000000	11.075700
2035.000000	11.126400
2034.000000	11.193700
2033.000000	11.234300
2032.000000	11.271200
2031.000000	11.328200
2030.000000	11.366500
2029.000000	11.432100
2028.000000	11.457700
2027.000000	11.507600
2026.000000	11.544800
2025.000000	11.576200
2024.000000	11.615200
2023.000000	11.648600
2022.000000	11.680500
2021.000000	11.722300
2020.000000	11.739200
2019.000000	11.768800
2018.000000	11.801000
2017.000000	11.807800
2016.000000	11.831000
2015.000000	11.852600
2014.000000	11.876200
2013.000000	11.890900
2012.000000	11.879200
2011.000000	11.888800
2010.000000	11.896900
2009.000000	11.898800
2008.000000	11.892200
2007.000000	11.917000
2006.000000	11.902800
2005.000000	11.906900
2004.000000	11.884500
2003.000000	11.892000
2002.000000	11.872000
2001.000000	11.853400
2000.000000	11.835300
1999.000000	11.821200
1998.000000	11.787700
1997.000000	11.773800
1996.000000	11.751300
1995.000000	11.731200
1994.000000	11.718300
1993.000000	11.681000
1992.000000	11.645500
1991.000000	11.630800
1990.000000	11.590500
1989.000000	11.546500
1988.000000	11.510300
1987.000000	11.484300
1986.000000	11.452300
1985.000000	11.399200
1984.000000	11.368900
1983.000000	11.343700
1982.000000	11.292600
1981.000000	11.262500
1980.000000	11.234200
1979.000000	11.196900
1978.000000	11.146700
1977.000000	11.119800
1976.000000	11.084500
1975.000000	11.044700
1974.000000	11.025500
1973.000000	10.985400
1972.000000	10.942200
1971.000000	10.902300
1970.000000	10.882900
1969.000000	10.830700
1968.000000	10.811800
1967.000000	10.793500
1966.000000	10.752300
1965.000000	10.719400
1964.000000	10.700900
1963.000000	10.673600
1962.000000	10.627400
1961.000000	10.597200
1960.000000	10.577100
1959.000000	10.544700
1958.000000	10.524800
1957.000000	10.483000
1956.000000	10.448600
1955.000000	10.424400
1954.000000	10.395000
1953.000000	10.377700
1952.000000	10.346500
1951.000000	10.316000
1950.000000	10.315100
1949.000000	10.285700
1948.000000	10.264100
1947.000000	10.238900
1946.000000	10.221200
1945.000000	10.203900
1944.000000	10.180800
1943.000000	10.182600
1942.000000	10.177200
1941.000000	10.178500
1940.000000	10.194900
1939.000000	10.192800
1938.000000	10.187400
1937.000000	10.188800
1936.000000	10.201400
1935.000000	10.219600
1934.000000	10.241800
1933.000000	10.291700
1932.000000	10.321700
1931.000000	10.338500
1930.000000	10.378900
1929.000000	10.421800
1928.000000	10.482000
1927.000000	10.523900
1926.000000	10.575400
1925.000000	10.638900
1924.000000	10.680900
1923.000000	10.766500
1922.000000	10.832000
1921.000000	10.911500
1920.000000	10.989400
1919.000000	11.062200
1918.000000	11.157200
1917.000000	11.272100
1916.000000	11.349000
1915.000000	11.464500
1914.000000	11.586700
1913.000000	11.677100
1912.000000	11.782400
1911.000000	11.901500
1910.000000	12.025600
1909.000000	12.135000
1908.000000	12.255900
1907.000000	12.398400
1906.000000	12.558400
1905.000000	12.699800
1904.000000	12.827900
1903.000000	12.975700
1902.000000	13.114200
1901.000000	13.290100
1900.000000	13.463000
1899.000000	13.629600
1898.000000	13.798900
1897.000000	13.950200
1896.000000	14.107500
1895.000000	14.278100
1894.000000	14.465700
1893.000000	14.667400
1892.000000	14.890300
1891.000000	15.075700
1890.000000	15.280200
1889.000000	15.507700
1888.000000	15.742600
1887.000000	16.012800
1886.000000	16.306600
1885.000000	16.687400
1884.000000	17.053100
1883.000000	17.412600
1882.000000	17.811300
1881.000000	18.197400
1880.000000	18.582700
1879.000000	18.994300
1878.000000	19.365000
1877.000000	19.720000
1876.000000	20.067000
1875.000000	20.388100
1874.000000	20.705200
1873.000000	20.991000
1872.000000	21.247000
1871.000000	21.467100
1870.000000	21.678200
1869.000000	21.850400
1868.000000	21.977600
1867.000000	22.068300
1866.000000	22.157600
1865.000000	22.243500
1864.000000	22.311900
1863.000000	22.395500
1862.000000	22.463600
1861.000000	22.509800
1860.000000	22.529800
1859.000000	22.547800
1858.000000	22.553900
1857.000000	22.537200
1856.000000	22.516600
1855.000000	22.491500
1854.000000	22.426900
1853.000000	22.363100
1852.000000	22.327700
1851.000000	22.301600
1850.000000	22.261600
1849.000000	22.191500
1848.000000	22.108000
1847.000000	22.018900
1846.000000	21.943700
1845.000000	21.891600
1844.000000	21.880200
1843.000000	21.866000
1842.000000	21.837200
1841.000000	21.798300
1840.000000	21.745900
1839.000000	21.693700
1838.000000	21.634900
1837.000000	21.562400
1836.000000	21.486100
1835.000000	21.409300
1834.000000	21.334500
1833.000000	21.271000
1832.000000	21.208200
1831.000000	21.118900
1830.000000	21.026000
1829.000000	20.938300
1828.000000	20.857500
1827.000000	20.787100
1826.000000	20.713400
1825.000000	20.658700
1824.000000	20.634900
1823.000000	20.619800
1822.000000	20.592500
1821.000000	20.555600
1820.000000	20.510900
1819.000000	20.486700
1818.000000	20.469700
1817.000000	20.460000
1816.000000	20.456200
1815.000000	20.447900
1814.000000	20.447000
1813.000000	20.435100
1812.000000	20.406800
1811.000000	20.366500
1810.000000	20.320300
1809.000000	20.281700
1808.000000	20.250200
1807.000000	20.202900
1806.000000	20.151900
1805.000000	20.099900
1804.000000	20.064700
1803.000000	20.041300
1802.000000	19.989000
1801.000000	19.937600
1800.000000	19.889700
1799.000000	19.844100
1798.000000	19.802900
1797.000000	19.768200
1796.000000	19.724900
1795.000000	19.687300
1794.000000	19.644700
1793.000000	19.592300
1792.000000	19.541700
1791.000000	19.490000
1790.000000	19.443600
1789.000000	19.385200
1788.000000	19.332800
1787.000000	19.273200
1786.000000	19.198200
1785.000000	19.129400
1784.000000	19.071100
1783.000000	19.005600
1782.000000	18.932400
1781.000000	18.880000
1780.000000	18.797000
1779.000000	18.696100
1778.000000	18.627400
1777.000000	18.544000
1776.000000	18.443500
1775.000000	18.328200
1774.000000	18.234500
1773.000000	18.127700
1772.000000	18.021900
1771.000000	17.917700
1770.000000	17.792500
1769.000000	17.705600
1768.000000	17.626800
1767.000000	17.545300
1766.000000	17.471900
1765.000000	17.458100
1764.000000	17.427100
1763.000000	17.443400
1762.000000	17.490900
1761.000000	17.539500
1760.000000	17.597400
1759.000000	17.673200
1758.000000	17.750200
1757.000000	17.784800
1756.000000	17.838100
1755.000000	17.873500
1754.000000	17.888200
1753.000000	17.883000
1752.000000	17.857500
1751.000000	17.831400
1750.000000	17.818000
1749.000000	17.754300
1748.000000	17.673200
1747.000000	17.593600
1746.000000	17.507700
1745.000000	17.388100
1744.000000	17.245000
1743.000000	17.080600
1742.000000	16.870900
1741.000000	16.705700
1740.000000	16.520600
1739.000000	16.340400
1738.000000	16.201300
1737.000000	16.078200
1736.000000	15.991100
1735.000000	15.950700
1734.000000	15.966200
1733.000000	15.995600
1732.000000	16.057100
1731.000000	16.147700
1730.000000	16.243100
1729.000000	16.342500
1728.000000	16.460100
1727.000000	16.555900
1726.000000	16.619900
1725.000000	16.689200
1724.000000	16.732200
1723.000000	16.729800
1722.000000	16.759800
1721.000000	16.763900
1720.000000	16.776900
1719.000000	16.796700
1718.000000	16.814500
1717.000000	16.832400
1716.000000	16.882600
1715.000000	16.939300
1714.000000	16.995500
1713.000000	17.030200
1712.000000	17.040200
1711.000000	17.043200
1710.000000	17.044800
1709.000000	17.041100
1708.000000	17.008600
1707.000000	16.984400
1706.000000	16.948500
1705.000000	16.880700
1704.000000	16.833100
1703.000000	16.732500
1702.000000	16.609900
1701.000000	16.499800
1700.000000	16.361600
1699.000000	16.237500
1698.000000	16.120300
1697.000000	16.048200
1696.000000	16.030400
1695.000000	16.034200
1694.000000	16.137500
1693.000000	16.245800
1692.000000	16.368200
1691.000000	16.509100
1690.000000	16.628200
1689.000000	16.703300
1688.000000	16.719300
1687.000000	16.744500
1686.000000	16.746400
1685.000000	16.781900
1684.000000	16.919800
1683.000000	17.118000
1682.000000	17.452700
1681.000000	17.880800
1680.000000	18.338900
1679.000000	18.830900
1678.000000	19.292200
1677.000000	19.750000
1676.000000	20.108500
1675.000000	20.415500
1674.000000	20.746000
1673.000000	20.987700
1672.000000	21.158100
1671.000000	21.359800
1670.000000	21.534100
1669.000000	21.655700
1668.000000	21.748800
1667.000000	21.854200
1666.000000	21.917900
1665.000000	21.977500
1664.000000	22.041900
1663.000000	22.080900
1662.000000	22.107000
1661.000000	22.130700
1660.000000	22.159600
1659.000000	22.161300
1658.000000	22.157900
1657.000000	22.151300
1656.000000	22.124700
1655.000000	22.116300
1654.000000	22.086400
1653.000000	22.057300
1652.000000	22.017200
1651.000000	21.986100
1650.000000	21.945900
1649.000000	21.896100
1648.000000	21.832200
1647.000000	21.776000
1646.000000	21.715900
1645.000000	21.657800
1644.000000	21.590500
1643.000000	21.530600
1642.000000	21.461400
1641.000000	21.396100
1640.000000	21.322100
1639.000000	21.252100
1638.000000	21.189600
1637.000000	21.124500
1636.000000	21.047200
1635.000000	20.982600
1634.000000	20.901600
1633.000000	20.815700
1632.000000	20.735300
1631.000000	20.671800
1630.000000	20.578000
1629.000000	20.498100
1628.000000	20.419400
1627.000000	20.331600
1626.000000	20.252900
1625.000000	20.173700
1624.000000	20.122800
1623.000000	20.038600
1622.000000	19.963800
1621.000000	19.894600
1620.000000	19.837900
1619.000000	19.772200
1618.000000	19.672800
1617.000000	19.610100
1616.000000	19.547500
1615.000000	19.493600
1614.000000	19.417800
1613.000000	19.341500
1612.000000	19.299100
1611.000000	19.267300
1610.000000	19.210000
1609.000000	19.142900
1608.000000	19.083600
1607.000000	19.029000
1606.000000	18.970700
1605.000000	18.929700
1604.000000	18.877600
1603.000000	18.821300
1602.000000	18.771600
1601.000000	18.727200
1600.000000	18.669300
1599.000000	18.635300
1598.000000	18.578300
1597.000000	18.535800
1596.000000	18.511200
1595.000000	18.473000
1594.000000	18.445300
1593.000000	18.413700
1592.000000	18.386400
1591.000000	18.369300
1590.000000	18.343300
1589.000000	18.312600
1588.000000	18.301400
1587.000000	18.288600
1586.000000	18.260900
1585.000000	18.248200
1584.000000	18.239500
1583.000000	18.236900
1582.000000	18.226300
1581.000000	18.216800
1580.000000	18.219100
1579.000000	18.220100
1578.000000	18.221600
1577.000000	18.236600
1576.000000	18.242400
1575.000000	18.254600
1574.000000	18.279000
1573.000000	18.305300
1572.000000	18.335100
1571.000000	18.345100
1570.000000	18.361900
1569.000000	18.400700
1568.000000	18.429900
1567.000000	18.453900
1566.000000	18.477700
1565.000000	18.498300
1564.000000	18.516300
1563.000000	18.547400
1562.000000	18.583900
1561.000000	18.602100
1560.000000	18.615300
1559.000000	18.636600
1558.000000	18.657000
1557.000000	18.666900
1556.000000	18.675900
1555.000000	18.679300
1554.000000	18.690200
1553.000000	18.695200
1552.000000	18.689000
1551.000000	18.694200
1550.000000	18.700100
1549.000000	18.693500
1548.000000	18.681300
1547.000000	18.687700
1546.000000	18.695300
1545.000000	18.685600
1544.000000	18.688300
1543.000000	18.684900
1542.000000	18.677800
1541.000000	18.682100
1540.000000	18.682300
1539.000000	18.672000
1538.000000	18.667600
1537.000000	18.672800
1536.000000	18.671400
1535.000000	18.651100
1534.000000	18.632900
1533.000000	18.628600
1532.000000	18.612300
1531.000000	18.597300
1530.000000	18.569600
1529.000000	18.557300
1528.000000	18.528700
1527.000000	18.495300
1526.000000	18.474500
1525.000000	18.453900
1524.000000	18.437600
1523.000000	18.411100
1522.000000	18.380600
1521.000000	18.343500
1520.000000	18.311700
1519.000000	18.283300
1518.000000	18.237600
1517.000000	18.215300
1516.000000	18.194900
1515.000000	18.151500
1514.000000	18.112800
1513.000000	18.086000
1512.000000	18.055800
1511.000000	18.014500
1510.000000	17.979400
1509.000000	17.938700
1508.000000	17.890000
1507.000000	17.845600
1506.000000	17.832500
1505.000000	17.789000
1504.000000	17.757700
1503.000000	17.712100
1502.000000	17.671700
1501.000000	17.645400
1500.000000	17.617100
1499.000000	17.592200
1498.000000	17.549300
1497.000000	17.523500
1496.000000	17.504400
1495.000000	17.483300
1494.000000	17.461200
1493.000000	17.433100
1492.000000	17.434900
1491.000000	17.406500
1490.000000	17.396000
1489.000000	17.377900
1488.000000	17.377100
1487.000000	17.358900
1486.000000	17.345400
1485.000000	17.335200
1484.000000	17.333000
1483.000000	17.325300
1482.000000	17.335100
1481.000000	17.342300
1480.000000	17.336800
1479.000000	17.347800
1478.000000	17.351400
1477.000000	17.354700
1476.000000	17.367500
1475.000000	17.380400
1474.000000	17.408600
1473.000000	17.428800
1472.000000	17.428900
1471.000000	17.442400
1470.000000	17.460500
1469.000000	17.475300
1468.000000	17.493600
1467.000000	17.519700
1466.000000	17.555400
1465.000000	17.575800
1464.000000	17.637100
1463.000000	17.661400
1462.000000	17.715700
1461.000000	17.770000
1460.000000	17.813500
1459.000000	17.888300
1458.000000	17.958700
1457.000000	18.024400
1456.000000	18.095200
1455.000000	18.161500
1454.000000	18.255800
1453.000000	18.361900
1452.000000	18.418600
1451.000000	18.521900
1450.000000	18.614300
1449.000000	18.694900
1448.000000	18.837000
1447.000000	18.947300
1446.000000	19.055200
1445.000000	19.146200
1444.000000	19.256800
1443.000000	19.388700
1442.000000	19.501000
1441.000000	19.615300
1440.000000	19.731300
1439.000000	19.859000
1438.000000	19.976900
1437.000000	20.100100
1436.000000	20.214400
1435.000000	20.354700
1434.000000	20.466900
1433.000000	20.644700
1432.000000	20.765200
1431.000000	20.908800
1430.000000	21.063800
1429.000000	21.257500
1428.000000	21.427800
1427.000000	21.614600
1426.000000	21.830900
1425.000000	22.040400
1424.000000	22.249000
1423.000000	22.445900
1422.000000	22.680600
1421.000000	22.908100
1420.000000	23.169400
1419.000000	23.380200
1418.000000	23.576100
1417.000000	23.810600
1416.000000	24.059000
1415.000000	24.313700
1414.000000	24.547100
1413.000000	24.756400
1412.000000	25.022800
1411.000000	25.320200
1410.000000	25.658200
1409.000000	25.990100
1408.000000	26.343000
1407.000000	26.666000
1406.000000	27.068600
1405.000000	27.414800
1404.000000	27.791300
1403.000000	28.141300
1402.000000	28.570600
1401.000000	28.899000
1400.000000	29.178100
1399.000000	29.363200
1398.000000	29.643100
1397.000000	29.914000
1396.000000	30.148800
1395.000000	30.319000
1394.000000	30.473100
1393.000000	30.677700
1392.000000	30.886500
1391.000000	31.107200
1390.000000	31.374900
1389.000000	31.712300
1388.000000	32.022000
1387.000000	32.386000
1386.000000	32.795100
1385.000000	33.245600
1384.000000	33.673500
1383.000000	34.066900
1382.000000	34.365300
1381.000000	34.528400
1380.000000	34.700600
1379.000000	34.785400
1378.000000	34.894800
1377.000000	35.024300
1376.000000	35.203800
1375.000000	35.465700
1374.000000	35.794600
1373.000000	36.136700
1372.000000	36.519800
1371.000000	36.879100
1370.000000	37.191100
1369.000000	37.507700
1368.000000	37.757900
1367.000000	37.994300
1366.000000	38.212500
1365.000000	38.389400
1364.000000	38.552000
1363.000000	38.724200
1362.000000	38.847600
1361.000000	38.914500
1360.000000	38.962300
1359.000000	39.049500
1358.000000	39.197500
1357.000000	39.449300
1356.000000	39.845600
1355.000000	40.335800
1354.000000	40.851500
1353.000000	41.439900
1352.000000	42.000600
1351.000000	42.517300
1350.000000	42.985000
1349.000000	43.410500
1348.000000	43.791000
1347.000000	44.156400
1346.000000	44.510200
1345.000000	44.839700
1344.000000	45.156900
1343.000000	45.445800
1342.000000	45.737100
1341.000000	46.027000
1340.000000	46.293500
1339.000000	46.549400
1338.000000	46.796900
1337.000000	47.033500
1336.000000	47.253800
1335.000000	47.465400
1334.000000	47.672900
1333.000000	47.877200
1332.000000	48.079400
1331.000000	48.254100
1330.000000	48.415900
1329.000000	48.580900
1328.000000	48.738100
1327.000000	48.894300
1326.000000	49.033100
1325.000000	49.161900
1324.000000	49.302200
1323.000000	49.426000
1322.000000	49.524100
1321.000000	49.644600
1320.000000	49.764100
1319.000000	49.873600
1318.000000	49.972300
1317.000000	50.065900
1316.000000	50.163500
1315.000000	50.251800
1314.000000	50.352800
1313.000000	50.446700
1312.000000	50.513600
1311.000000	50.589900
1310.000000	50.652100
1309.000000	50.708400
1308.000000	50.769900
1307.000000	50.810100
1306.000000	50.846300
1305.000000	50.873400
1304.000000	50.897200
1303.000000	50.925200
1302.000000	50.938400
1301.000000	50.956000
1300.000000	50.970900
1299.000000	50.989600
1298.000000	51.007900
1297.000000	51.010600
1296.000000	51.021800
1295.000000	51.036000
1294.000000	51.024300
1293.000000	51.022200
1292.000000	51.005200
1291.000000	50.977000
1290.000000	50.957000
1289.000000	50.936500
1288.000000	50.910500
1287.000000	50.867900
1286.000000	50.817800
1285.000000	50.767100
1284.000000	50.707900
1283.000000	50.649000
1282.000000	50.590600
1281.000000	50.540300
1280.000000	50.480500
1279.000000	50.424200
1278.000000	50.379100
1277.000000	50.333200
1276.000000	50.296600
1275.000000	50.257500
1274.000000	50.210300
1273.000000	50.179400
1272.000000	50.157100
1271.000000	50.109100
1270.000000	50.069200
1269.000000	50.028600
1268.000000	49.980900
1267.000000	49.943000
1266.000000	49.886900
1265.000000	49.835800
1264.000000	49.785400
1263.000000	49.734400
1262.000000	49.691700
1261.000000	49.645000
1260.000000	49.579700
1259.000000	49.515800
1258.000000	49.468300
1257.000000	49.398200
1256.000000	49.326900
1255.000000	49.262600
1254.000000	49.189900
1253.000000	49.093300
1252.000000	49.007400
1251.000000	48.909500
1250.000000	48.810100
1249.000000	48.701100
1248.000000	48.587500
1247.000000	48.451400
1246.000000	48.319700
1245.000000	48.193500
1244.000000	48.022200
1243.000000	47.869000
1242.000000	47.716400
1241.000000	47.548400
1240.000000	47.382500
1239.000000	47.214100
1238.000000	47.039500
1237.000000	46.870100
1236.000000	46.671500
1235.000000	46.476300
1234.000000	46.296800
1233.000000	46.108600
1232.000000	45.906000
1231.000000	45.701400
1230.000000	45.501400
1229.000000	45.303600
1228.000000	45.101800
1227.000000	44.902100
1226.000000	44.698300
1225.000000	44.496000
1224.000000	44.290400
1223.000000	44.108000
1222.000000	43.928700
1221.000000	43.755900
1220.000000	43.573900
1219.000000	43.415300
1218.000000	43.256500
1217.000000	43.114100
1216.000000	42.970400
1215.000000	42.821900
1214.000000	42.695600
1213.000000	42.575600
1212.000000	42.480300
1211.000000	42.365700
1210.000000	42.257100
1209.000000	42.174300
1208.000000	42.113600
1207.000000	42.067200
1206.000000	42.028700
1205.000000	42.016500
1204.000000	42.001600
1203.000000	41.997600
1202.000000	42.001500
1201.000000	41.960900
1200.000000	41.928300
1199.000000	41.822900
1198.000000	41.699500
1197.000000	41.530500
1196.000000	41.280200
1195.000000	40.976500
1194.000000	40.600300
1193.000000	40.144000
1192.000000	39.657600
1191.000000	39.194000
1190.000000	38.790400
1189.000000	38.471500
1188.000000	38.257000
1187.000000	38.223100
1186.000000	38.307300
1185.000000	38.535100
1184.000000	38.906100
1183.000000	39.405900
1182.000000	39.948900
1181.000000	40.542800
1180.000000	41.114500
1179.000000	41.616100
1178.000000	42.064300
1177.000000	42.466500
1176.000000	42.809800
1175.000000	43.171600
1174.000000	43.512400
1173.000000	43.872900
1172.000000	44.261400
1171.000000	44.656000
1170.000000	45.045100
1169.000000	45.433500
1168.000000	45.806800
1167.000000	46.207800
1166.000000	46.607400
1165.000000	47.016900
1164.000000	47.441900
1163.000000	47.835000
1162.000000	48.228900
1161.000000	48.626600
1160.000000	48.963600
1159.000000	49.319500
1158.000000	49.643000
1157.000000	49.906000
1156.000000	50.125100
1155.000000	50.281800
1154.000000	50.390500
1153.000000	50.463400
1152.000000	50.461600
1151.000000	50.472900
1150.000000	50.478100
1149.000000	50.482000
1148.000000	50.539800
1147.000000	50.649900
1146.000000	50.838700
1145.000000	51.084500
1144.000000	51.390900
1143.000000	51.721900
1142.000000	52.078000
1141.000000	52.449100
1140.000000	52.807300
1139.000000	53.202300
1138.000000	53.571500
1137.000000	54.002100
1136.000000	54.404900
1135.000000	54.774800
1134.000000	55.084400
1133.000000	55.388600
1132.000000	55.674500
1131.000000	55.931600
1130.000000	56.157900
1129.000000	56.351500
1128.000000	56.495600
1127.000000	56.613100
1126.000000	56.711200
1125.000000	56.802500
1124.000000	56.878400
1123.000000	56.943700
1122.000000	57.022100
1121.000000	57.069900
1120.000000	57.103500
1119.000000	57.140600
1118.000000	57.161200
1117.000000	57.192700
1116.000000	57.190900
1115.000000	57.197900
1114.000000	57.199600
1113.000000	57.214500
1112.000000	57.214400
1111.000000	57.212300
1110.000000	57.223200
1109.000000	57.226300
1108.000000	57.228700
1107.000000	57.230700
1106.000000	57.230800
1105.000000	57.253800
1104.000000	57.249300
1103.000000	57.250400
1102.000000	57.258200
1101.000000	57.244200
1100.000000	57.223100
1099.000000	57.217500
1098.000000	57.196600
1097.000000	57.170500
1096.000000	57.164500
1095.000000	57.141200
1094.000000	57.111000
1093.000000	57.089300
1092.000000	57.058900
1091.000000	57.028800
1090.000000	56.994400
1089.000000	56.956700
1088.000000	56.912000
1087.000000	56.862300
1086.000000	56.825400
1085.000000	56.781200
1084.000000	56.747100
1083.000000	56.697300
1082.000000	56.664200
1081.000000	56.615100
1080.000000	56.575600
1079.000000	56.532600
1078.000000	56.485100
1077.000000	56.439700
1076.000000	56.394600
1075.000000	56.352600
1074.000000	56.320700
1073.000000	56.278600
1072.000000	56.223800
1071.000000	56.190100
1070.000000	56.154200
1069.000000	56.109200
1068.000000	56.059400
1067.000000	56.019500
1066.000000	55.987400
1065.000000	55.957700
1064.000000	55.909800
1063.000000	55.862500
1062.000000	55.813800
1061.000000	55.773200
1060.000000	55.739100
1059.000000	55.688900
1058.000000	55.635300
1057.000000	55.595000
1056.000000	55.554900
1055.000000	55.527500
1054.000000	55.483900
1053.000000	55.452500
1052.000000	55.423800
1051.000000	55.391200
1050.000000	55.391300
1049.000000	55.380700
1048.000000	55.359500
1047.000000	55.350400
1046.000000	55.358000
1045.000000	55.357700
1044.000000	55.343700
1043.000000	55.350800
1042.000000	55.360500
1041.000000	55.348700
1040.000000	55.355300
1039.000000	55.372700
1038.000000	55.369000
1037.000000	55.362700
1036.000000	55.368800
1035.000000	55.374300
1034.000000	55.367700
1033.000000	55.357500
1032.000000	55.356500
1031.000000	55.363700
1030.000000	55.369000
1029.000000	55.366200
1028.000000	55.359500
1027.000000	55.357900
1026.000000	55.343200
1025.000000	55.332800
1024.000000	55.341600
1023.000000	55.332600
1022.000000	55.328300
1021.000000	55.341300
1020.000000	55.340600
1019.000000	55.343800
1018.000000	55.353100
1017.000000	55.369600
1016.000000	55.390900
1015.000000	55.407400
1014.000000	55.432500
1013.000000	55.476000
1012.000000	55.518900
1011.000000	55.564300
1010.000000	55.624200
1009.000000	55.667700
1008.000000	55.704500
1007.000000	55.743000
1006.000000	55.793000
1005.000000	55.836800
1004.000000	55.856200
1003.000000	55.879700
1002.000000	55.914800
1001.000000	55.936100
1000.000000	55.968000
999.000000	56.001100
998.000000	56.032800
997.000000	56.062600
996.000000	56.100400
995.000000	56.137500
994.000000	56.183700
993.000000	56.234500
992.000000	56.288300
991.000000	56.326200
990.000000	56.370500
989.000000	56.403700
988.000000	56.463400
987.000000	56.498400
986.000000	56.542800
985.000000	56.595900
984.000000	56.653300
983.000000	56.717900
982.000000	56.774600
981.000000	56.836500
980.000000	56.898300
979.000000	56.989500
978.000000	57.051900
977.000000	57.139200
976.000000	57.223300
975.000000	57.305800
974.000000	57.403300
973.000000	57.510100
972.000000	57.619500
971.000000	57.720300
970.000000	57.842400
969.000000	57.951300
968.000000	58.077400
967.000000	58.198400
966.000000	58.297800
965.000000	58.442600
964.000000	58.578100
963.000000	58.707600
962.000000	58.842500
961.000000	58.969100
960.000000	59.108500
959.000000	59.250700
958.000000	59.385200
957.000000	59.526200
956.000000	59.648000
955.000000	59.757200
954.000000	59.888200
953.000000	59.979600
952.000000	60.099400
951.000000	60.216400
950.000000	60.309200
949.000000	60.412700
948.000000	60.500400
947.000000	60.588900
946.000000	60.695500
945.000000	60.796600
944.000000	60.848500
943.000000	60.901700
942.000000	60.962200
941.000000	61.049400
940.000000	61.101800
939.000000	61.162900
938.000000	61.222800
937.000000	61.280900
936.000000	61.337600
935.000000	61.423000
934.000000	61.460500
933.000000	61.538900
932.000000	61.596600
931.000000	61.667000
930.000000	61.733400
929.000000	61.774300
928.000000	61.869000
927.000000	61.912200
926.000000	61.993400
925.000000	62.019400
924.000000	62.070400
923.000000	62.116800
922.000000	62.236000
921.000000	62.268400
920.000000	62.311000
919.000000	62.370800
918.000000	62.422100
917.000000	62.459000
916.000000	62.526400
915.000000	62.591500
914.000000	62.646400
913.000000	62.714200
912.000000	62.786000
911.000000	62.864400
910.000000	62.934100
909.000000	63.022000
908.000000	63.127300
907.000000	63.206100
906.000000	63.326600
905.000000	63.426000
904.000000	63.546900
903.000000	63.655900
902.000000	63.763100
901.000000	63.796900
900.000000	63.920200
899.000000	64.016300
898.000000	64.090300
897.000000	64.168700
896.000000	64.268000
895.000000	64.320600
894.000000	64.360400
893.000000	64.354900
892.000000	64.347300
891.000000	64.399000
890.000000	64.330700
889.000000	64.319900
888.000000	64.314300
887.000000	64.256600
886.000000	64.127900
885.000000	64.037500
884.000000	63.876100
883.000000	63.818200
882.000000	63.724300
881.000000	63.538300
880.000000	63.442400
879.000000	63.249100
878.000000	63.102900
877.000000	62.900200
876.000000	62.755800
875.000000	62.503200
874.000000	62.217100
873.000000	62.013200
872.000000	61.683800
871.000000	61.314600
870.000000	60.934800
869.000000	60.527100
868.000000	60.260600
867.000000	60.212000
866.000000	60.276900
865.000000	60.364000
864.000000	60.446800
863.000000	60.508700
862.000000	60.574800
861.000000	60.625000
860.000000	60.665000
859.000000	60.710300
858.000000	61.977800
857.000000	60.936620
856.000000	60.665244
855.000000	60.518277
854.000000	60.283907
853.000000	60.744982
852.000000	61.107111
851.000000	60.731149
850.000000	60.793178
849.000000	60.900583
848.000000	60.822607
847.000000	61.082265
846.000000	60.969837
845.000000	61.137509
844.000000	61.017152
843.000000	61.241478
842.000000	60.897411
841.000000	60.881640
840.000000	60.976533
839.000000	61.011072
838.000000	60.918998
837.000000	60.789478
836.000000	60.744366
835.000000	60.823840
834.000000	60.700487
833.000000	60.692645
832.000000	60.612202
831.000000	60.620925
830.000000	60.554490
829.000000	60.523123
828.000000	60.542948
827.000000	60.533520
826.000000	60.595990
825.000000	60.527088
824.000000	60.397127
823.000000	60.279766
822.000000	60.319855
821.000000	60.291837
820.000000	60.334393
819.000000	60.222230
818.000000	60.229279
817.000000	60.125486
816.000000	60.040108
815.000000	59.916051
814.000000	59.905830
813.000000	59.848559
812.000000	59.870586
811.000000	59.912086
810.000000	59.724589
809.000000	59.611281
808.000000	59.535595
807.000000	59.468191
806.000000	59.382197
805.000000	59.330829
804.000000	59.232940
803.000000	59.035575
802.000000	58.993987
801.000000	58.935659
800.000000	58.739792
799.000000	58.584632
798.000000	58.530533
797.000000	58.280391
796.000000	58.184528
795.000000	58.105758
794.000000	57.985048
793.000000	57.852620
792.000000	57.709266
791.000000	57.511637
790.000000	57.456657
789.000000	57.381148
788.000000	57.242552
787.000000	57.149244
786.000000	57.064042
785.000000	56.922803
784.000000	56.831698
783.000000	56.756101
782.000000	56.546577
781.000000	56.437850
780.000000	56.341282
779.000000	56.157134
778.000000	56.054663
777.000000	55.996599
776.000000	55.878180
775.000000	55.731390
774.000000	55.664691
773.000000	55.520809
772.000000	55.424329
771.000000	55.408470
770.000000	55.309787
769.000000	55.192866
768.000000	55.075152
767.000000	54.998585
766.000000	55.022904
765.000000	54.904573
764.000000	54.802719
763.000000	54.797432
762.000000	54.730205
761.000000	54.671612
760.000000	54.599715
759.000000	54.525351
758.000000	54.439444
757.000000	54.387372
756.000000	54.367194
755.000000	54.351511
754.000000	54.254062
753.000000	54.134586
752.000000	54.098990
751.000000	54.093175
750.000000	54.073614
749.000000	54.031234
748.000000	53.976782
747.000000	53.916516
746.000000	53.910348
745.000000	53.869201
744.000000	53.880567
743.000000	53.837394
742.000000	53.751487
741.000000	53.704965
740.000000	53.600908
739.000000	53.529011
738.000000	53.450594
737.000000	53.343894
736.000000	53.256489
735.000000	53.150934
734.000000	53.060975
733.000000	52.991192
732.000000	52.925463
731.000000	52.841230
730.000000	52.716468
729.000000	52.623072
728.000000	52.576550
727.000000	52.527914
726.000000	52.489410
725.000000	52.415222
724.000000	52.298037
723.000000	52.197328
722.000000	52.094152
721.000000	51.940401
720.000000	51.818458
719.000000	51.692815
718.000000	51.588493
717.000000	51.494216
716.000000	51.379762
715.000000	51.218258
714.000000	51.100720
713.000000	50.958336
712.000000	50.828551
711.000000	50.674712
710.000000	50.562725
709.000000	50.464131
708.000000	50.335492
707.000000	50.166410
706.000000	50.043938
705.000000	49.893183
704.000000	49.777936
703.000000	49.682778
702.000000	49.530173
701.000000	49.412283
700.000000	49.303732
699.000000	49.157559
698.000000	49.037290
697.000000	48.902483
696.000000	48.780804
695.000000	48.678685
694.000000	48.502995
693.000000	48.352240
692.000000	48.243954
691.000000	48.162629
690.000000	48.047118
689.000000	47.987997
688.000000	47.879534
687.000000	47.843498
686.000000	47.824642
685.000000	47.802879
684.000000	47.805787
683.000000	47.865877
682.000000	47.943502
681.000000	48.005090
680.000000	48.058837
679.000000	48.162629
678.000000	48.242280
677.000000	48.324839
676.000000	48.360787
675.000000	48.399115
674.000000	48.457355
673.000000	48.500088
672.000000	48.550927
671.000000	48.590928
670.000000	48.580355
669.000000	48.582382
668.000000	48.559209
667.000000	48.516124
666.000000	48.513128
665.000000	48.554363
664.000000	48.495594
663.000000	48.432067
662.000000	48.385898
661.000000	48.286070
660.000000	48.226949
659.000000	48.125007
658.000000	47.981477
657.000000	47.845084
656.000000	47.599611
655.000000	47.338544
654.000000	47.090252
653.000000	46.755084
652.000000	46.411018
651.000000	45.998314
650.000000	45.615303
649.000000	45.157487
648.000000	44.709804
647.000000	44.306969
646.000000	43.878582
645.000000	43.476715
644.000000	43.118463
643.000000	42.754924
642.000000	42.480376
641.000000	42.251732
640.000000	42.069875
639.000000	41.979122
638.000000	41.879030
637.000000	41.908106
636.000000	42.017186
635.000000	42.155517
634.000000	42.342221
633.000000	42.668049
632.000000	43.004097
631.000000	43.434687
630.000000	43.918847
629.000000	44.426533
628.000000	44.981974
627.000000	45.594069
626.000000	46.281849
625.000000	46.944695
624.000000	47.661464
623.000000	48.412683
622.000000	49.152977
621.000000	49.964816
620.000000	50.753129
619.000000	51.521883
618.000000	52.344206
617.000000	53.107144
616.000000	53.838187
615.000000	54.521209
614.000000	55.161235
613.000000	55.770510
612.000000	56.359256
611.000000	56.882802
610.000000	57.351543
609.000000	57.766978
608.000000	58.115891
607.000000	58.439340
606.000000	58.711861
605.000000	58.971960
604.000000	59.255936
603.000000	59.464403
602.000000	59.735162
601.000000	59.972264
600.000000	60.214653
599.000000	60.467350
598.000000	60.709386
597.000000	60.955123
596.000000	61.227204
595.000000	61.484043
594.000000	61.747578
593.000000	62.031642
592.000000	62.206010
591.000000	62.434477
590.000000	62.584087
589.000000	62.737132
588.000000	62.864362
587.000000	62.944277
586.000000	62.967626
585.000000	62.949300
584.000000	62.989565
583.000000	62.951943
582.000000	62.974323
581.000000	62.943661
580.000000	62.929211
579.000000	62.946128
578.000000	62.941810
577.000000	62.941634
576.000000	62.983574
575.000000	62.967098
574.000000	63.018025
573.000000	63.100671
572.000000	63.097940
571.000000	63.134153
570.000000	63.162700
569.000000	63.159088
568.000000	63.124020
567.000000	63.102786
566.000000	63.055471
565.000000	62.973001
564.000000	62.854318
563.000000	62.754138
562.000000	62.589109
561.000000	62.409983
560.000000	62.221781
559.000000	61.957013
558.000000	61.743260
557.000000	61.559464
556.000000	61.300599
555.000000	61.077947
554.000000	60.848246
553.000000	60.606563
552.000000	60.297211
551.000000	59.997552
550.000000	59.638947
549.000000	59.261751
548.000000	58.810632
547.000000	58.312022
546.000000	57.758519
545.000000	57.140609
544.000000	56.451595
543.000000	55.710244
542.000000	54.890387
541.000000	54.007885
540.000000	53.084324
539.000000	52.160058
538.000000	51.146097
537.000000	50.120505
536.000000	49.123637
535.000000	48.086503
534.000000	47.039236
533.000000	46.010737
532.000000	44.968933
531.000000	43.941051
530.000000	42.981894
529.000000	42.039037
528.000000	41.119969
527.000000	40.257820
526.000000	39.412148
525.000000	38.595287
524.000000	37.809088
523.000000	37.044212
522.000000	36.302948
521.000000	35.588911
520.000000	34.889236
519.000000	34.226830
518.000000	33.579051
517.000000	32.985195
516.000000	32.410811
515.000000	31.828497
514.000000	31.263276
513.000000	30.685367
512.000000	30.132658
511.000000	29.590257
510.000000	29.083805
509.000000	28.581847
508.000000	28.085968
507.000000	27.625862
506.000000	27.162319
505.000000	26.708028
504.000000	26.262107
503.000000	25.838389
502.000000	25.436611
501.000000	25.056772
500.000000	24.715966
499.000000	24.391283
498.000000	24.071799
497.000000	23.767205
496.000000	23.487546
495.000000	23.220664
494.000000	22.970698
493.000000	22.753861
492.000000	22.534909
491.000000	22.336399
490.000000	22.114452
489.000000	21.885456
488.000000	21.678664
487.000000	21.476541
486.000000	21.256708
485.000000	21.037316
484.000000	20.821273
483.000000	20.554037
482.000000	20.268123
481.000000	19.960974
480.000000	19.648274
479.000000	19.324737
478.000000	18.989834
477.000000	18.630965
476.000000	18.255531
475.000000	17.893402
474.000000	17.528982
473.000000	17.171699
472.000000	16.831069
471.000000	16.504184
470.000000	16.200031
469.000000	15.910504
468.000000	15.656837
467.000000	15.426784
466.000000	15.215762
465.000000	15.022186
464.000000	14.844382
463.000000	14.702350
462.000000	14.587631
461.000000	14.483310
460.000000	14.405774
459.000000	14.349825
458.000000	14.341807
457.000000	14.347269
456.000000	14.335727
455.000000	14.365156
454.000000	14.406743
453.000000	14.458816
452.000000	14.515999
451.000000	14.563754
450.000000	14.622082
449.000000	14.676445
448.000000	14.732835
447.000000	14.788080
446.000000	14.813015
445.000000	14.843060
444.000000	14.850197
443.000000	14.843324
442.000000	14.844029
441.000000	14.816363
440.000000	14.777683
439.000000	14.715918
438.000000	14.633184
437.000000	14.558820
436.000000	14.486306
435.000000	14.409474
434.000000	14.334758
433.000000	14.236780
432.000000	14.137746
431.000000	14.032719
430.000000	13.919763
429.000000	13.801080
428.000000	13.679489
427.000000	13.563626
426.000000	13.426616
425.000000	13.292866
424.000000	13.167487
423.000000	13.029948
422.000000	12.885273
421.000000	12.734782
420.000000	12.575304
419.000000	12.415915
418.000000	12.252472
417.000000	12.085945
416.000000	11.916071
415.000000	11.743994
414.000000	11.545836
413.000000	11.332964
412.000000	11.127846
411.000000	10.930745
410.000000	10.733116
409.000000	10.494781
408.000000	10.278296
407.000000	10.075204
406.000000	9.863654
405.000000	9.626552
404.000000	9.405750
403.000000	9.168825
402.000000	8.936304
401.000000	8.719908
400.000000	8.507388
399.000000	8.288966
398.000000	8.076710
397.000000	7.872561
396.000000	7.682774
395.000000	7.501093
394.000000	7.326724
393.000000	7.166630
392.000000	6.996491
391.000000	6.843445
390.000000	6.716920
389.000000	6.570042
388.000000	6.463342
387.000000	6.343161
386.000000	6.232408
385.000000	6.147118
384.000000	6.055749
383.000000	5.958917
382.000000	5.889663
381.000000	5.825343
380.000000	5.767191
379.000000	5.708069
378.000000	5.655380
377.000000	5.617317
376.000000	5.596435
375.000000	5.312195
374.000000	5.137915
373.000000	5.172277
372.000000	5.123200
371.000000	5.134478
370.000000	5.146902
369.000000	5.308670
368.000000	5.403564
367.000000	5.276599
366.000000	5.130601
365.000000	5.240474
364.000000	5.353518
363.000000	5.188489
362.000000	5.174127
361.000000	5.239681
360.000000	5.158885
359.000000	5.279066
358.000000	5.196948
357.000000	5.212896
356.000000	5.207697
355.000000	5.173423
354.000000	5.135976
353.000000	5.211398
352.000000	5.252897
351.000000	5.301093
350.000000	5.199679
349.000000	5.138884
348.000000	5.286555
347.000000	5.140734
346.000000	5.133862
345.000000	5.143465
344.000000	5.235716
343.000000	5.154479
342.000000	5.160559
341.000000	5.080203
340.000000	5.247082
339.000000	5.121174
338.000000	5.165669
337.000000	5.262237
336.000000	5.379863
335.000000	5.197300
334.000000	5.080203
333.000000	5.317041
332.000000	5.021522
331.000000	4.977468
330.000000	5.164876
329.000000	5.244791
328.000000	5.220209
327.000000	5.474932
326.000000	5.361536
325.000000	5.413785
324.000000	5.603219
323.000000	5.723136
322.000000	5.386030
321.000000	5.196243
320.000000	5.684192
319.000000	5.869045
318.000000	5.759349
317.000000	5.960414
316.000000	5.159237
315.000000	5.026016
314.000000	5.041699
313.000000	5.075709
312.000000	5.065929
311.000000	5.156858
310.000000	5.120557
309.000000	5.132980
308.000000	5.164083
307.000000	5.168048
306.000000	5.154567
305.000000	5.151043
304.000000	5.167872
303.000000	5.102407
302.000000	5.120557
301.000000	5.129720
300.000000	5.127870
299.000000	5.139324
298.000000	5.124522
297.000000	5.157122
296.000000	5.101790
295.000000	5.183379
294.000000	5.149809
293.000000	5.195538
292.000000	5.192630
291.000000	5.214217
290.000000	5.195890
289.000000	5.196772
288.000000	5.216067
287.000000	5.206992
286.000000	5.196595
285.000000	5.203204
284.000000	5.185229
283.000000	5.228315
282.000000	5.205759
281.000000	5.205759
280.000000	5.254219
279.000000	5.255893
278.000000	5.268845
277.000000	5.295542
276.000000	5.296511
275.000000	5.296952
274.000000	5.368144
273.000000	5.321799
272.000000	5.354135
271.000000	5.369730
270.000000	5.423653
269.000000	5.386030
268.000000	5.408674
267.000000	5.479955
266.000000	5.476607
265.000000	5.479867
264.000000	5.490087
263.000000	5.562689
262.000000	5.604717
261.000000	5.632472
260.000000	5.608418
259.000000	5.621722
258.000000	5.681901
257.000000	5.701285
256.000000	5.656173
255.000000	5.720140
254.000000	5.700756
253.000000	5.770891
252.000000	5.796972
251.000000	5.816973
250.000000	5.848251
