PE UV       SUBTECH     SPECTRUM    ASCII       PEDS        4.00        
   -1
CICIMAUCR0104-3.Sample.ASC
24/04/22
09:54:19.00
24/04/22
09:54:19.00
Vinicio Soto Monge
C. resplendens
250,000000
1
Lambda 1050
1050L1511233
PerkinElmer UV WinLab 6.3.2.0749 / 2.02.05 Lambda 900 UV/VIS/NIR, Aug  7 2015 09:38:08

0
0
3350/servo 860,8/2
0
0
UV/VIS
1
1
1
DoubleDePol,CommonBeamDepol,RBeamAtt,SBeamAtt,60mm sphere, WB InGaAs Detector
0
0
0
0
Program
Program
3350/servo 860,8/2
3350/0,2 860,8/0,2
3350/0,2 860,8/0,2
0
15.00
 
 
 
0
 
860,8
319,2
860,8
Front
100
on
S:100 R:100
0
0
0
0
 
0
 
 
 
0
 
 
0
0
0
0
0
 
 
 
 
0
0


0
0
#HDR
-1
-1
#GR
nm
%R
1.0
0.0
2500,000000
-1,000000
2251
8
90,434600
6,014800
#DATA
2500.000000	16.801800
2499.000000	16.753900
2498.000000	16.790000
2497.000000	16.804900
2496.000000	16.739200
2495.000000	16.699800
2494.000000	16.658700
2493.000000	16.632600
2492.000000	16.715300
2491.000000	16.687100
2490.000000	16.642100
2489.000000	16.703400
2488.000000	16.710000
2487.000000	16.657800
2486.000000	16.699000
2485.000000	16.769700
2484.000000	16.773000
2483.000000	16.747700
2482.000000	16.764400
2481.000000	16.797000
2480.000000	16.795500
2479.000000	16.840600
2478.000000	16.845900
2477.000000	16.852400
2476.000000	16.921300
2475.000000	16.931900
2474.000000	16.994500
2473.000000	17.060100
2472.000000	17.028900
2471.000000	17.108400
2470.000000	17.160900
2469.000000	17.182400
2468.000000	17.241900
2467.000000	17.320100
2466.000000	17.342200
2465.000000	17.419100
2464.000000	17.444700
2463.000000	17.534400
2462.000000	17.592900
2461.000000	17.633500
2460.000000	17.738500
2459.000000	17.792300
2458.000000	17.883200
2457.000000	17.966700
2456.000000	18.037400
2455.000000	18.114200
2454.000000	18.228500
2453.000000	18.328000
2452.000000	18.450600
2451.000000	18.561600
2450.000000	18.664400
2449.000000	18.765600
2448.000000	18.880200
2447.000000	18.997100
2446.000000	19.097100
2445.000000	19.226000
2444.000000	19.341400
2443.000000	19.442100
2442.000000	19.558800
2441.000000	19.680300
2440.000000	19.789300
2439.000000	19.888000
2438.000000	20.020900
2437.000000	20.109100
2436.000000	20.224000
2435.000000	20.331400
2434.000000	20.423800
2433.000000	20.522100
2432.000000	20.624800
2431.000000	20.712800
2430.000000	20.812000
2429.000000	20.900500
2428.000000	21.000700
2427.000000	21.084000
2426.000000	21.174500
2425.000000	21.256700
2424.000000	21.387700
2423.000000	21.548800
2422.000000	21.678600
2421.000000	21.799300
2420.000000	21.899300
2419.000000	21.973000
2418.000000	22.049600
2417.000000	22.118200
2416.000000	22.181100
2415.000000	22.250400
2414.000000	22.352400
2413.000000	22.418400
2412.000000	22.475700
2411.000000	22.552500
2410.000000	22.595600
2409.000000	22.666400
2408.000000	22.758600
2407.000000	22.802600
2406.000000	22.817300
2405.000000	22.856100
2404.000000	22.913800
2403.000000	22.976600
2402.000000	23.015900
2401.000000	23.040500
2400.000000	23.072500
2399.000000	23.119000
2398.000000	23.171700
2397.000000	23.202100
2396.000000	23.240400
2395.000000	23.275000
2394.000000	23.277500
2393.000000	23.313100
2392.000000	23.356000
2391.000000	23.362400
2390.000000	23.359600
2389.000000	23.380300
2388.000000	23.414200
2387.000000	23.442700
2386.000000	23.469200
2385.000000	23.462400
2384.000000	23.460100
2383.000000	23.453600
2382.000000	23.461700
2381.000000	23.469300
2380.000000	23.453300
2379.000000	23.461900
2378.000000	23.461900
2377.000000	23.441900
2376.000000	23.430000
2375.000000	23.425700
2374.000000	23.416100
2373.000000	23.397800
2372.000000	23.390200
2371.000000	23.391100
2370.000000	23.392000
2369.000000	23.372800
2368.000000	23.376900
2367.000000	23.376900
2366.000000	23.367000
2365.000000	23.361900
2364.000000	23.373100
2363.000000	23.377700
2362.000000	23.352500
2361.000000	23.340000
2360.000000	23.344500
2359.000000	23.339800
2358.000000	23.336500
2357.000000	23.331600
2356.000000	23.328400
2355.000000	23.334500
2354.000000	23.318700
2353.000000	23.311100
2352.000000	23.324900
2351.000000	23.319600
2350.000000	23.308800
2349.000000	23.320200
2348.000000	23.324000
2347.000000	23.315700
2346.000000	23.313900
2345.000000	23.322800
2344.000000	23.304700
2343.000000	23.328000
2342.000000	23.342800
2341.000000	23.334700
2340.000000	23.334800
2339.000000	23.339100
2338.000000	23.371200
2337.000000	23.383000
2336.000000	23.379900
2335.000000	23.382400
2334.000000	23.394000
2333.000000	23.432400
2332.000000	23.451000
2331.000000	23.448400
2330.000000	23.456600
2329.000000	23.500400
2328.000000	23.550200
2327.000000	23.566500
2326.000000	23.567900
2325.000000	23.574800
2324.000000	23.598100
2323.000000	23.601000
2322.000000	23.616600
2321.000000	23.624600
2320.000000	23.610900
2319.000000	23.595700
2318.000000	23.593700
2317.000000	23.591800
2316.000000	23.557800
2315.000000	23.510000
2314.000000	23.477000
2313.000000	23.431100
2312.000000	23.415100
2311.000000	23.377300
2310.000000	23.317100
2309.000000	23.301800
2308.000000	23.287700
2307.000000	23.254500
2306.000000	23.237700
2305.000000	23.233300
2304.000000	23.215100
2303.000000	23.186500
2302.000000	23.194400
2301.000000	23.197700
2300.000000	23.192400
2299.000000	23.211600
2298.000000	23.229300
2297.000000	23.231700
2296.000000	23.252100
2295.000000	23.272700
2294.000000	23.304600
2293.000000	23.314500
2292.000000	23.361200
2291.000000	23.398400
2290.000000	23.406300
2289.000000	23.448600
2288.000000	23.487400
2287.000000	23.512700
2286.000000	23.563300
2285.000000	23.593900
2284.000000	23.647700
2283.000000	23.691000
2282.000000	23.731600
2281.000000	23.768000
2280.000000	23.798500
2279.000000	23.849900
2278.000000	23.887700
2277.000000	23.911500
2276.000000	23.947600
2275.000000	23.996000
2274.000000	24.015200
2273.000000	24.065600
2272.000000	24.119900
2271.000000	24.143600
2270.000000	24.212100
2269.000000	24.266400
2268.000000	24.343200
2267.000000	24.421600
2266.000000	24.503000
2265.000000	24.610200
2264.000000	24.735800
2263.000000	24.835500
2262.000000	24.963100
2261.000000	25.127500
2260.000000	25.274500
2259.000000	25.480800
2258.000000	25.617000
2257.000000	25.793500
2256.000000	25.981400
2255.000000	26.171300
2254.000000	26.396200
2253.000000	26.559200
2252.000000	26.727800
2251.000000	26.932500
2250.000000	27.084500
2249.000000	27.289200
2248.000000	27.429800
2247.000000	27.593900
2246.000000	27.709500
2245.000000	27.872400
2244.000000	27.989900
2243.000000	28.068300
2242.000000	28.173300
2241.000000	28.256100
2240.000000	28.349800
2239.000000	28.420300
2238.000000	28.446200
2237.000000	28.496700
2236.000000	28.536900
2235.000000	28.554100
2234.000000	28.593900
2233.000000	28.590500
2232.000000	28.570000
2231.000000	28.561400
2230.000000	28.530500
2229.000000	28.494800
2228.000000	28.469200
2227.000000	28.433700
2226.000000	28.376600
2225.000000	28.300600
2224.000000	28.255900
2223.000000	28.176100
2222.000000	28.100500
2221.000000	28.003500
2220.000000	27.908200
2219.000000	27.835300
2218.000000	27.757700
2217.000000	27.657500
2216.000000	27.581100
2215.000000	27.514400
2214.000000	27.428400
2213.000000	27.353000
2212.000000	27.286600
2211.000000	27.198900
2210.000000	27.127800
2209.000000	27.080400
2208.000000	27.027600
2207.000000	26.968300
2206.000000	26.916200
2205.000000	26.889000
2204.000000	26.836700
2203.000000	26.786100
2202.000000	26.745600
2201.000000	26.729200
2200.000000	26.690400
2199.000000	26.656900
2198.000000	26.629200
2197.000000	26.598600
2196.000000	26.572800
2195.000000	26.546200
2194.000000	26.515600
2193.000000	26.500300
2192.000000	26.489500
2191.000000	26.459200
2190.000000	26.429400
2189.000000	26.426800
2188.000000	26.403900
2187.000000	26.365200
2186.000000	26.337700
2185.000000	26.342300
2184.000000	26.323100
2183.000000	26.298400
2182.000000	26.281900
2181.000000	26.250200
2180.000000	26.216000
2179.000000	26.206100
2178.000000	26.194100
2177.000000	26.189200
2176.000000	26.182000
2175.000000	26.177400
2174.000000	26.173500
2173.000000	26.178600
2172.000000	26.190300
2171.000000	26.204400
2170.000000	26.224900
2169.000000	26.221700
2168.000000	26.264400
2167.000000	26.306700
2166.000000	26.343600
2165.000000	26.371000
2164.000000	26.422400
2163.000000	26.472500
2162.000000	26.542600
2161.000000	26.592000
2160.000000	26.669900
2159.000000	26.741400
2158.000000	26.823100
2157.000000	26.924200
2156.000000	27.026200
2155.000000	27.123000
2154.000000	27.215600
2153.000000	27.316300
2152.000000	27.444300
2151.000000	27.551600
2150.000000	27.661000
2149.000000	27.770900
2148.000000	27.872300
2147.000000	27.999300
2146.000000	28.121400
2145.000000	28.217800
2144.000000	28.321200
2143.000000	28.432500
2142.000000	28.544900
2141.000000	28.651000
2140.000000	28.759600
2139.000000	28.871700
2138.000000	28.961700
2137.000000	29.059500
2136.000000	29.149800
2135.000000	29.250000
2134.000000	29.341000
2133.000000	29.417900
2132.000000	29.495200
2131.000000	29.578900
2130.000000	29.650300
2129.000000	29.709400
2128.000000	29.770700
2127.000000	29.835400
2126.000000	29.889800
2125.000000	29.947100
2124.000000	29.995300
2123.000000	30.050200
2122.000000	30.095500
2121.000000	30.124700
2120.000000	30.159500
2119.000000	30.203400
2118.000000	30.219100
2117.000000	30.231100
2116.000000	30.267900
2115.000000	30.283100
2114.000000	30.297800
2113.000000	30.305400
2112.000000	30.321800
2111.000000	30.344400
2110.000000	30.330400
2109.000000	30.355400
2108.000000	30.375900
2107.000000	30.373600
2106.000000	30.370100
2105.000000	30.364000
2104.000000	30.372600
2103.000000	30.374600
2102.000000	30.383600
2101.000000	30.383200
2100.000000	30.375800
2099.000000	30.379500
2098.000000	30.393000
2097.000000	30.401500
2096.000000	30.399200
2095.000000	30.418200
2094.000000	30.438000
2093.000000	30.451700
2092.000000	30.469900
2091.000000	30.479600
2090.000000	30.482500
2089.000000	30.499000
2088.000000	30.516100
2087.000000	30.520100
2086.000000	30.512000
2085.000000	30.495400
2084.000000	30.483500
2083.000000	30.475200
2082.000000	30.443500
2081.000000	30.408500
2080.000000	30.362000
2079.000000	30.305400
2078.000000	30.250200
2077.000000	30.177300
2076.000000	30.104800
2075.000000	30.012600
2074.000000	29.937300
2073.000000	29.858900
2072.000000	29.744400
2071.000000	29.641600
2070.000000	29.535400
2069.000000	29.424400
2068.000000	29.316600
2067.000000	29.201100
2066.000000	29.097000
2065.000000	28.997200
2064.000000	28.887600
2063.000000	28.780400
2062.000000	28.676400
2061.000000	28.606900
2060.000000	28.532800
2059.000000	28.467100
2058.000000	28.419200
2057.000000	28.400200
2056.000000	28.384900
2055.000000	28.394300
2054.000000	28.417000
2053.000000	28.463300
2052.000000	28.536800
2051.000000	28.619700
2050.000000	28.737300
2049.000000	28.871700
2048.000000	29.013000
2047.000000	29.161400
2046.000000	29.331400
2045.000000	29.497000
2044.000000	29.674400
2043.000000	29.833500
2042.000000	30.003900
2041.000000	30.186800
2040.000000	30.359500
2039.000000	30.511000
2038.000000	30.682500
2037.000000	30.835100
2036.000000	30.983600
2035.000000	31.118700
2034.000000	31.258000
2033.000000	31.389400
2032.000000	31.501800
2031.000000	31.606800
2030.000000	31.722400
2029.000000	31.837500
2028.000000	31.901000
2027.000000	31.976500
2026.000000	32.068600
2025.000000	32.164300
2024.000000	32.229200
2023.000000	32.270900
2022.000000	32.332200
2021.000000	32.390900
2020.000000	32.451600
2019.000000	32.495500
2018.000000	32.524800
2017.000000	32.563600
2016.000000	32.579900
2015.000000	32.612400
2014.000000	32.620500
2013.000000	32.618500
2012.000000	32.621800
2011.000000	32.608000
2010.000000	32.624200
2009.000000	32.620600
2008.000000	32.575500
2007.000000	32.560200
2006.000000	32.507700
2005.000000	32.490500
2004.000000	32.420300
2003.000000	32.376800
2002.000000	32.335400
2001.000000	32.245200
2000.000000	32.192700
1999.000000	32.119200
1998.000000	32.032900
1997.000000	31.949400
1996.000000	31.881000
1995.000000	31.775200
1994.000000	31.685200
1993.000000	31.597400
1992.000000	31.497900
1991.000000	31.391700
1990.000000	31.287900
1989.000000	31.170300
1988.000000	31.066500
1987.000000	30.952700
1986.000000	30.840100
1985.000000	30.735700
1984.000000	30.617300
1983.000000	30.511800
1982.000000	30.386100
1981.000000	30.282600
1980.000000	30.169500
1979.000000	30.051300
1978.000000	29.929700
1977.000000	29.830600
1976.000000	29.720500
1975.000000	29.617600
1974.000000	29.522700
1973.000000	29.415100
1972.000000	29.313100
1971.000000	29.218500
1970.000000	29.124300
1969.000000	28.994100
1968.000000	28.896800
1967.000000	28.809200
1966.000000	28.706500
1965.000000	28.610900
1964.000000	28.497500
1963.000000	28.408700
1962.000000	28.310200
1961.000000	28.171000
1960.000000	28.082000
1959.000000	27.971200
1958.000000	27.878400
1957.000000	27.758300
1956.000000	27.659000
1955.000000	27.543800
1954.000000	27.450500
1953.000000	27.337800
1952.000000	27.234800
1951.000000	27.129700
1950.000000	27.058000
1949.000000	26.974000
1948.000000	26.891000
1947.000000	26.817700
1946.000000	26.748700
1945.000000	26.677300
1944.000000	26.589100
1943.000000	26.563700
1942.000000	26.529800
1941.000000	26.504400
1940.000000	26.492000
1939.000000	26.480800
1938.000000	26.454700
1937.000000	26.462500
1936.000000	26.484200
1935.000000	26.502200
1934.000000	26.527600
1933.000000	26.569400
1932.000000	26.663900
1931.000000	26.744900
1930.000000	26.853900
1929.000000	26.967200
1928.000000	27.082700
1927.000000	27.213000
1926.000000	27.358700
1925.000000	27.521100
1924.000000	27.691500
1923.000000	27.878900
1922.000000	28.105000
1921.000000	28.373800
1920.000000	28.609600
1919.000000	28.820800
1918.000000	29.098700
1917.000000	29.363200
1916.000000	29.644200
1915.000000	29.969700
1914.000000	30.345900
1913.000000	30.731000
1912.000000	31.089700
1911.000000	31.485400
1910.000000	31.816100
1909.000000	32.195800
1908.000000	32.627700
1907.000000	33.112200
1906.000000	33.691500
1905.000000	34.235200
1904.000000	34.723200
1903.000000	35.239500
1902.000000	35.757200
1901.000000	36.350200
1900.000000	36.986400
1899.000000	37.582400
1898.000000	38.208400
1897.000000	38.750600
1896.000000	39.261700
1895.000000	39.807900
1894.000000	40.396200
1893.000000	41.015100
1892.000000	41.653000
1891.000000	42.272800
1890.000000	42.830200
1889.000000	43.347800
1888.000000	43.840200
1887.000000	44.355500
1886.000000	44.856600
1885.000000	45.353000
1884.000000	45.814000
1883.000000	46.217200
1882.000000	46.593600
1881.000000	46.972200
1880.000000	47.303000
1879.000000	47.652000
1878.000000	47.979400
1877.000000	48.272000
1876.000000	48.570200
1875.000000	48.854800
1874.000000	49.125000
1873.000000	49.369600
1872.000000	49.584200
1871.000000	49.766700
1870.000000	49.914600
1869.000000	50.062300
1868.000000	50.162200
1867.000000	50.237400
1866.000000	50.313900
1865.000000	50.403900
1864.000000	50.482400
1863.000000	50.587400
1862.000000	50.717000
1861.000000	50.823000
1860.000000	50.891600
1859.000000	50.936600
1858.000000	50.989000
1857.000000	51.048400
1856.000000	51.085400
1855.000000	51.135300
1854.000000	51.167700
1853.000000	51.155400
1852.000000	51.166400
1851.000000	51.221600
1850.000000	51.283800
1849.000000	51.321600
1848.000000	51.309200
1847.000000	51.206200
1846.000000	51.130100
1845.000000	51.138300
1844.000000	51.153200
1843.000000	51.234000
1842.000000	51.266600
1841.000000	51.207600
1840.000000	51.149800
1839.000000	51.098000
1838.000000	51.071000
1837.000000	51.013400
1836.000000	50.943200
1835.000000	50.881000
1834.000000	50.820300
1833.000000	50.771600
1832.000000	50.749300
1831.000000	50.726900
1830.000000	50.691500
1829.000000	50.647700
1828.000000	50.580300
1827.000000	50.528500
1826.000000	50.495100
1825.000000	50.462300
1824.000000	50.462200
1823.000000	50.545400
1822.000000	50.581600
1821.000000	50.530400
1820.000000	50.468400
1819.000000	50.407300
1818.000000	50.370400
1817.000000	50.375800
1816.000000	50.369200
1815.000000	50.333900
1814.000000	50.317600
1813.000000	50.299500
1812.000000	50.276200
1811.000000	50.211100
1810.000000	50.145100
1809.000000	50.126100
1808.000000	50.119300
1807.000000	50.098900
1806.000000	50.044700
1805.000000	49.994200
1804.000000	49.974600
1803.000000	49.964600
1802.000000	49.939300
1801.000000	49.878500
1800.000000	49.828200
1799.000000	49.799100
1798.000000	49.762300
1797.000000	49.742500
1796.000000	49.713500
1795.000000	49.680100
1794.000000	49.655400
1793.000000	49.638500
1792.000000	49.610900
1791.000000	49.588800
1790.000000	49.567200
1789.000000	49.560600
1788.000000	49.573600
1787.000000	49.574100
1786.000000	49.554400
1785.000000	49.541100
1784.000000	49.514000
1783.000000	49.493300
1782.000000	49.473500
1781.000000	49.455200
1780.000000	49.432900
1779.000000	49.382000
1778.000000	49.337200
1777.000000	49.303100
1776.000000	49.262600
1775.000000	49.198000
1774.000000	49.132600
1773.000000	49.092800
1772.000000	49.046400
1771.000000	48.991600
1770.000000	48.942600
1769.000000	48.903300
1768.000000	48.853000
1767.000000	48.805500
1766.000000	48.757500
1765.000000	48.718600
1764.000000	48.693200
1763.000000	48.676200
1762.000000	48.650200
1761.000000	48.643600
1760.000000	48.628000
1759.000000	48.620900
1758.000000	48.614400
1757.000000	48.578800
1756.000000	48.571800
1755.000000	48.571600
1754.000000	48.542400
1753.000000	48.519000
1752.000000	48.488600
1751.000000	48.455200
1750.000000	48.422300
1749.000000	48.384300
1748.000000	48.335700
1747.000000	48.281000
1746.000000	48.219800
1745.000000	48.158300
1744.000000	48.085200
1743.000000	48.008600
1742.000000	47.949500
1741.000000	47.876300
1740.000000	47.814200
1739.000000	47.774400
1738.000000	47.707300
1737.000000	47.680500
1736.000000	47.659600
1735.000000	47.615500
1734.000000	47.590500
1733.000000	47.588600
1732.000000	47.553700
1731.000000	47.548400
1730.000000	47.531100
1729.000000	47.521000
1728.000000	47.518400
1727.000000	47.517500
1726.000000	47.519300
1725.000000	47.540700
1724.000000	47.591800
1723.000000	47.670300
1722.000000	47.765300
1721.000000	47.892200
1720.000000	48.066600
1719.000000	48.251600
1718.000000	48.446100
1717.000000	48.644800
1716.000000	48.843100
1715.000000	49.023700
1714.000000	49.190100
1713.000000	49.340500
1712.000000	49.485800
1711.000000	49.589800
1710.000000	49.710500
1709.000000	49.793500
1708.000000	49.859400
1707.000000	49.921500
1706.000000	49.954600
1705.000000	50.014500
1704.000000	50.002200
1703.000000	50.003300
1702.000000	50.013300
1701.000000	49.996900
1700.000000	50.000600
1699.000000	49.997400
1698.000000	49.982300
1697.000000	49.953300
1696.000000	49.954200
1695.000000	49.932500
1694.000000	49.879300
1693.000000	49.859200
1692.000000	49.796000
1691.000000	49.780400
1690.000000	49.773100
1689.000000	49.779800
1688.000000	49.859900
1687.000000	49.954800
1686.000000	50.100400
1685.000000	50.298600
1684.000000	50.489700
1683.000000	50.731400
1682.000000	50.934400
1681.000000	51.155400
1680.000000	51.362100
1679.000000	51.577200
1678.000000	51.789100
1677.000000	51.953200
1676.000000	52.137500
1675.000000	52.307200
1674.000000	52.476900
1673.000000	52.669500
1672.000000	52.818800
1671.000000	52.979900
1670.000000	53.155700
1669.000000	53.312300
1668.000000	53.474200
1667.000000	53.639700
1666.000000	53.770300
1665.000000	53.885700
1664.000000	54.035000
1663.000000	54.107600
1662.000000	54.232100
1661.000000	54.326100
1660.000000	54.429300
1659.000000	54.498100
1658.000000	54.551300
1657.000000	54.610900
1656.000000	54.643900
1655.000000	54.681600
1654.000000	54.720000
1653.000000	54.714800
1652.000000	54.723400
1651.000000	54.744700
1650.000000	54.744700
1649.000000	54.726600
1648.000000	54.713700
1647.000000	54.705900
1646.000000	54.678000
1645.000000	54.653200
1644.000000	54.644500
1643.000000	54.635700
1642.000000	54.604700
1641.000000	54.598500
1640.000000	54.594500
1639.000000	54.569600
1638.000000	54.539800
1637.000000	54.525600
1636.000000	54.493700
1635.000000	54.475900
1634.000000	54.443100
1633.000000	54.400200
1632.000000	54.358200
1631.000000	54.327500
1630.000000	54.282700
1629.000000	54.243900
1628.000000	54.197400
1627.000000	54.173700
1626.000000	54.118200
1625.000000	54.075400
1624.000000	54.055500
1623.000000	54.010700
1622.000000	53.986600
1621.000000	53.961100
1620.000000	53.929400
1619.000000	53.911800
1618.000000	53.876300
1617.000000	53.854700
1616.000000	53.834600
1615.000000	53.815400
1614.000000	53.775100
1613.000000	53.733000
1612.000000	53.704200
1611.000000	53.668200
1610.000000	53.628100
1609.000000	53.584500
1608.000000	53.531400
1607.000000	53.485100
1606.000000	53.436700
1605.000000	53.375500
1604.000000	53.330700
1603.000000	53.271400
1602.000000	53.203900
1601.000000	53.146200
1600.000000	53.089800
1599.000000	53.028900
1598.000000	52.983200
1597.000000	52.938300
1596.000000	52.880500
1595.000000	52.833400
1594.000000	52.800800
1593.000000	52.767700
1592.000000	52.723800
1591.000000	52.673700
1590.000000	52.626200
1589.000000	52.592600
1588.000000	52.544900
1587.000000	52.524600
1586.000000	52.509100
1585.000000	52.471700
1584.000000	52.431400
1583.000000	52.399200
1582.000000	52.369600
1581.000000	52.351600
1580.000000	52.339600
1579.000000	52.318000
1578.000000	52.299000
1577.000000	52.280700
1576.000000	52.271600
1575.000000	52.273500
1574.000000	52.277400
1573.000000	52.290900
1572.000000	52.303300
1571.000000	52.326100
1570.000000	52.339900
1569.000000	52.348500
1568.000000	52.364200
1567.000000	52.380100
1566.000000	52.395500
1565.000000	52.405600
1564.000000	52.415900
1563.000000	52.419500
1562.000000	52.414200
1561.000000	52.403100
1560.000000	52.386200
1559.000000	52.344000
1558.000000	52.297800
1557.000000	52.251900
1556.000000	52.217100
1555.000000	52.165100
1554.000000	52.080200
1553.000000	52.004200
1552.000000	51.928000
1551.000000	51.845200
1550.000000	51.761300
1549.000000	51.675100
1548.000000	51.594700
1547.000000	51.518700
1546.000000	51.445400
1545.000000	51.378900
1544.000000	51.322800
1543.000000	51.265100
1542.000000	51.228400
1541.000000	51.191800
1540.000000	51.125200
1539.000000	51.076600
1538.000000	51.037400
1537.000000	51.001400
1536.000000	50.951400
1535.000000	50.899500
1534.000000	50.858900
1533.000000	50.808200
1532.000000	50.760300
1531.000000	50.716700
1530.000000	50.654500
1529.000000	50.600600
1528.000000	50.549300
1527.000000	50.494700
1526.000000	50.441500
1525.000000	50.376300
1524.000000	50.326100
1523.000000	50.269000
1522.000000	50.202800
1521.000000	50.142800
1520.000000	50.084100
1519.000000	50.022700
1518.000000	49.969800
1517.000000	49.913800
1516.000000	49.856300
1515.000000	49.811300
1514.000000	49.752500
1513.000000	49.688700
1512.000000	49.631900
1511.000000	49.578900
1510.000000	49.530600
1509.000000	49.475400
1508.000000	49.425400
1507.000000	49.367400
1506.000000	49.325000
1505.000000	49.296000
1504.000000	49.256600
1503.000000	49.215800
1502.000000	49.188100
1501.000000	49.170200
1500.000000	49.150000
1499.000000	49.137700
1498.000000	49.117400
1497.000000	49.132200
1496.000000	49.147600
1495.000000	49.161800
1494.000000	49.194200
1493.000000	49.227500
1492.000000	49.258500
1491.000000	49.299500
1490.000000	49.342000
1489.000000	49.394800
1488.000000	49.455600
1487.000000	49.499800
1486.000000	49.540300
1485.000000	49.596100
1484.000000	49.640100
1483.000000	49.700800
1482.000000	49.744700
1481.000000	49.816200
1480.000000	49.848800
1479.000000	49.909500
1478.000000	49.969300
1477.000000	50.019700
1476.000000	50.056200
1475.000000	50.148700
1474.000000	50.237800
1473.000000	50.335100
1472.000000	50.408300
1471.000000	50.478300
1470.000000	50.525600
1469.000000	50.597200
1468.000000	50.679900
1467.000000	50.774000
1466.000000	50.848700
1465.000000	50.918700
1464.000000	51.008600
1463.000000	51.085800
1462.000000	51.161300
1461.000000	51.261700
1460.000000	51.338100
1459.000000	51.420000
1458.000000	51.528700
1457.000000	51.621200
1456.000000	51.720500
1455.000000	51.790500
1454.000000	51.877500
1453.000000	51.994400
1452.000000	52.094500
1451.000000	52.204100
1450.000000	52.238800
1449.000000	52.299600
1448.000000	52.412300
1447.000000	52.545100
1446.000000	52.640500
1445.000000	52.709000
1444.000000	52.761500
1443.000000	52.882700
1442.000000	52.988000
1441.000000	53.072900
1440.000000	53.185300
1439.000000	53.324300
1438.000000	53.414500
1437.000000	53.512000
1436.000000	53.611300
1435.000000	53.778700
1434.000000	53.912000
1433.000000	54.061600
1432.000000	54.217100
1431.000000	54.315300
1430.000000	54.503400
1429.000000	54.692500
1428.000000	54.859800
1427.000000	55.013600
1426.000000	55.268300
1425.000000	55.504800
1424.000000	55.719400
1423.000000	55.916900
1422.000000	56.137600
1421.000000	56.470800
1420.000000	56.752100
1419.000000	56.992200
1418.000000	57.222300
1417.000000	57.468600
1416.000000	57.812400
1415.000000	58.195500
1414.000000	58.467100
1413.000000	58.716100
1412.000000	59.017400
1411.000000	59.430700
1410.000000	59.852500
1409.000000	60.145300
1408.000000	60.510600
1407.000000	60.834400
1406.000000	61.179300
1405.000000	61.524900
1404.000000	61.798000
1403.000000	62.102400
1402.000000	62.558800
1401.000000	62.931700
1400.000000	63.147800
1399.000000	63.324900
1398.000000	63.614000
1397.000000	64.000600
1396.000000	64.361700
1395.000000	64.529700
1394.000000	64.699300
1393.000000	64.960100
1392.000000	65.194300
1391.000000	65.404400
1390.000000	65.691100
1389.000000	66.040300
1388.000000	66.215500
1387.000000	66.437300
1386.000000	66.679100
1385.000000	67.005100
1384.000000	67.179700
1383.000000	67.383900
1382.000000	67.494300
1381.000000	67.586300
1380.000000	67.615700
1379.000000	67.698100
1378.000000	67.786800
1377.000000	67.876200
1376.000000	67.966100
1375.000000	68.064400
1374.000000	68.185500
1373.000000	68.379000
1372.000000	68.480400
1371.000000	68.552400
1370.000000	68.638000
1369.000000	68.796300
1368.000000	68.858000
1367.000000	68.918500
1366.000000	69.039500
1365.000000	69.152300
1364.000000	69.203500
1363.000000	69.315500
1362.000000	69.384100
1361.000000	69.365400
1360.000000	69.325400
1359.000000	69.412500
1358.000000	69.479100
1357.000000	69.566300
1356.000000	69.700700
1355.000000	69.759600
1354.000000	69.805500
1353.000000	69.907000
1352.000000	70.037100
1351.000000	70.149800
1350.000000	70.283200
1349.000000	70.431700
1348.000000	70.548800
1347.000000	70.646600
1346.000000	70.764400
1345.000000	70.891600
1344.000000	71.010800
1343.000000	71.105100
1342.000000	71.194900
1341.000000	71.295200
1340.000000	71.395200
1339.000000	71.488000
1338.000000	71.576700
1337.000000	71.644000
1336.000000	71.724400
1335.000000	71.791200
1334.000000	71.857400
1333.000000	71.926700
1332.000000	71.990400
1331.000000	72.038700
1330.000000	72.084300
1329.000000	72.135500
1328.000000	72.172300
1327.000000	72.216500
1326.000000	72.256600
1325.000000	72.294200
1324.000000	72.333200
1323.000000	72.368000
1322.000000	72.403800
1321.000000	72.445400
1320.000000	72.479200
1319.000000	72.492900
1318.000000	72.520600
1317.000000	72.559500
1316.000000	72.584000
1315.000000	72.618200
1314.000000	72.653600
1313.000000	72.667200
1312.000000	72.691600
1311.000000	72.727700
1310.000000	72.743300
1309.000000	72.753700
1308.000000	72.773900
1307.000000	72.790400
1306.000000	72.800800
1305.000000	72.806700
1304.000000	72.815500
1303.000000	72.824500
1302.000000	72.824700
1301.000000	72.820800
1300.000000	72.827700
1299.000000	72.839300
1298.000000	72.833500
1297.000000	72.815200
1296.000000	72.808400
1295.000000	72.796200
1294.000000	72.781700
1293.000000	72.768600
1292.000000	72.748200
1291.000000	72.736100
1290.000000	72.727100
1289.000000	72.703200
1288.000000	72.674600
1287.000000	72.642900
1286.000000	72.613900
1285.000000	72.586200
1284.000000	72.548800
1283.000000	72.519400
1282.000000	72.498400
1281.000000	72.461700
1280.000000	72.434700
1279.000000	72.411000
1278.000000	72.383200
1277.000000	72.368400
1276.000000	72.344600
1275.000000	72.318500
1274.000000	72.317800
1273.000000	72.296800
1272.000000	72.289900
1271.000000	72.282800
1270.000000	72.251100
1269.000000	72.243000
1268.000000	72.256200
1267.000000	72.234600
1266.000000	72.223000
1265.000000	72.212100
1264.000000	72.198900
1263.000000	72.181500
1262.000000	72.163700
1261.000000	72.148500
1260.000000	72.136700
1259.000000	72.103500
1258.000000	72.071300
1257.000000	72.057400
1256.000000	72.044600
1255.000000	72.012800
1254.000000	71.971900
1253.000000	71.944600
1252.000000	71.914800
1251.000000	71.861000
1250.000000	71.825600
1249.000000	71.788400
1248.000000	71.738500
1247.000000	71.685000
1246.000000	71.639500
1245.000000	71.592100
1244.000000	71.543900
1243.000000	71.488900
1242.000000	71.452400
1241.000000	71.402600
1240.000000	71.370500
1239.000000	71.320500
1238.000000	71.290500
1237.000000	71.268500
1236.000000	71.241800
1235.000000	71.194200
1234.000000	71.171900
1233.000000	71.136500
1232.000000	71.084900
1231.000000	71.067000
1230.000000	71.039700
1229.000000	71.014800
1228.000000	70.986800
1227.000000	70.944200
1226.000000	70.914300
1225.000000	70.874300
1224.000000	70.836900
1223.000000	70.798200
1222.000000	70.755100
1221.000000	70.716600
1220.000000	70.683600
1219.000000	70.645800
1218.000000	70.587700
1217.000000	70.543700
1216.000000	70.496000
1215.000000	70.443300
1214.000000	70.388900
1213.000000	70.352600
1212.000000	70.292400
1211.000000	70.217900
1210.000000	70.154800
1209.000000	70.089600
1208.000000	70.018000
1207.000000	69.938800
1206.000000	69.852400
1205.000000	69.806400
1204.000000	69.741400
1203.000000	69.658000
1202.000000	69.572300
1201.000000	69.513500
1200.000000	69.436400
1199.000000	69.356100
1198.000000	69.275900
1197.000000	69.170100
1196.000000	69.102600
1195.000000	69.006400
1194.000000	68.910800
1193.000000	68.812100
1192.000000	68.713800
1191.000000	68.649100
1190.000000	68.574700
1189.000000	68.524700
1188.000000	68.465200
1187.000000	68.452200
1186.000000	68.425500
1185.000000	68.419800
1184.000000	68.443500
1183.000000	68.463600
1182.000000	68.486900
1181.000000	68.496500
1180.000000	68.572200
1179.000000	68.600400
1178.000000	68.639100
1177.000000	68.704000
1176.000000	68.748100
1175.000000	68.776200
1174.000000	68.819300
1173.000000	68.857700
1172.000000	68.930700
1171.000000	69.003100
1170.000000	69.055400
1169.000000	69.155000
1168.000000	69.249300
1167.000000	69.334000
1166.000000	69.410100
1165.000000	69.507200
1164.000000	69.585600
1163.000000	69.705600
1162.000000	69.788100
1161.000000	69.896000
1160.000000	69.976100
1159.000000	70.052200
1158.000000	70.118500
1157.000000	70.192200
1156.000000	70.247500
1155.000000	70.311200
1154.000000	70.344800
1153.000000	70.396000
1152.000000	70.420800
1151.000000	70.428400
1150.000000	70.448400
1149.000000	70.481600
1148.000000	70.502900
1147.000000	70.534000
1146.000000	70.536500
1145.000000	70.578600
1144.000000	70.590300
1143.000000	70.606700
1142.000000	70.635100
1141.000000	70.667000
1140.000000	70.703000
1139.000000	70.755300
1138.000000	70.795700
1137.000000	70.887100
1136.000000	70.939500
1135.000000	70.994500
1134.000000	70.990800
1133.000000	70.975100
1132.000000	71.018300
1131.000000	71.056900
1130.000000	71.088600
1129.000000	71.072500
1128.000000	71.066800
1127.000000	71.056400
1126.000000	71.065000
1125.000000	71.039200
1124.000000	71.022400
1123.000000	71.010900
1122.000000	70.965800
1121.000000	70.929200
1120.000000	70.879100
1119.000000	70.851500
1118.000000	70.800400
1117.000000	70.756700
1116.000000	70.708300
1115.000000	70.661500
1114.000000	70.602200
1113.000000	70.549500
1112.000000	70.517600
1111.000000	70.460200
1110.000000	70.427200
1109.000000	70.396100
1108.000000	70.346400
1107.000000	70.292800
1106.000000	70.261800
1105.000000	70.200100
1104.000000	70.166900
1103.000000	70.118600
1102.000000	70.081800
1101.000000	70.021600
1100.000000	69.973300
1099.000000	69.943700
1098.000000	69.897100
1097.000000	69.846300
1096.000000	69.785500
1095.000000	69.739200
1094.000000	69.707200
1093.000000	69.648700
1092.000000	69.591200
1091.000000	69.538600
1090.000000	69.498000
1089.000000	69.455700
1088.000000	69.403500
1087.000000	69.342800
1086.000000	69.283100
1085.000000	69.247100
1084.000000	69.199300
1083.000000	69.147600
1082.000000	69.089700
1081.000000	69.035800
1080.000000	68.986200
1079.000000	68.933200
1078.000000	68.865600
1077.000000	68.828600
1076.000000	68.775800
1075.000000	68.722200
1074.000000	68.678300
1073.000000	68.619900
1072.000000	68.560300
1071.000000	68.495200
1070.000000	68.440100
1069.000000	68.386900
1068.000000	68.348400
1067.000000	68.289700
1066.000000	68.232500
1065.000000	68.190200
1064.000000	68.133800
1063.000000	68.069300
1062.000000	68.019300
1061.000000	67.966800
1060.000000	67.909900
1059.000000	67.846100
1058.000000	67.792500
1057.000000	67.732000
1056.000000	67.666400
1055.000000	67.609800
1054.000000	67.543900
1053.000000	67.493600
1052.000000	67.435600
1051.000000	67.365300
1050.000000	67.303300
1049.000000	67.249600
1048.000000	67.191300
1047.000000	67.139400
1046.000000	67.080500
1045.000000	67.014700
1044.000000	66.969500
1043.000000	66.910400
1042.000000	66.840800
1041.000000	66.778800
1040.000000	66.720900
1039.000000	66.660200
1038.000000	66.588400
1037.000000	66.526700
1036.000000	66.471600
1035.000000	66.407400
1034.000000	66.347100
1033.000000	66.295100
1032.000000	66.235100
1031.000000	66.171800
1030.000000	66.115300
1029.000000	66.067800
1028.000000	66.009600
1027.000000	65.952100
1026.000000	65.907400
1025.000000	65.854200
1024.000000	65.805600
1023.000000	65.763100
1022.000000	65.715300
1021.000000	65.684900
1020.000000	65.655700
1019.000000	65.616900
1018.000000	65.594100
1017.000000	65.574800
1016.000000	65.548900
1015.000000	65.538900
1014.000000	65.509000
1013.000000	65.489100
1012.000000	65.498700
1011.000000	65.474100
1010.000000	65.458700
1009.000000	65.458100
1008.000000	65.453200
1007.000000	65.440300
1006.000000	65.440800
1005.000000	65.456200
1004.000000	65.456200
1003.000000	65.461600
1002.000000	65.455800
1001.000000	65.458100
1000.000000	65.475200
999.000000	65.471500
998.000000	65.486200
997.000000	65.502700
996.000000	65.512500
995.000000	65.524700
994.000000	65.531800
993.000000	65.542200
992.000000	65.559400
991.000000	65.574300
990.000000	65.591000
989.000000	65.604700
988.000000	65.603600
987.000000	65.617800
986.000000	65.626200
985.000000	65.613500
984.000000	65.622700
983.000000	65.651200
982.000000	65.650900
981.000000	65.661800
980.000000	65.685600
979.000000	65.687200
978.000000	65.685300
977.000000	65.699100
976.000000	65.708800
975.000000	65.726700
974.000000	65.723400
973.000000	65.763000
972.000000	65.773500
971.000000	65.790800
970.000000	65.812800
969.000000	65.837100
968.000000	65.844500
967.000000	65.856600
966.000000	65.882500
965.000000	65.932200
964.000000	65.967600
963.000000	65.995000
962.000000	66.022600
961.000000	66.072700
960.000000	66.104600
959.000000	66.149800
958.000000	66.214000
957.000000	66.253000
956.000000	66.311900
955.000000	66.406100
954.000000	66.473900
953.000000	66.549300
952.000000	66.645200
951.000000	66.744800
950.000000	66.804600
949.000000	66.873000
948.000000	66.941800
947.000000	67.034800
946.000000	67.142200
945.000000	67.219900
944.000000	67.277700
943.000000	67.382000
942.000000	67.453200
941.000000	67.521100
940.000000	67.628200
939.000000	67.692700
938.000000	67.773300
937.000000	67.841600
936.000000	67.924200
935.000000	68.067800
934.000000	68.140500
933.000000	68.202900
932.000000	68.272300
931.000000	68.380000
930.000000	68.426500
929.000000	68.487600
928.000000	68.589300
927.000000	68.635700
926.000000	68.684500
925.000000	68.736800
924.000000	68.801200
923.000000	68.905300
922.000000	68.929300
921.000000	68.971500
920.000000	69.023900
919.000000	69.082800
918.000000	69.119200
917.000000	69.173200
916.000000	69.218500
915.000000	69.277600
914.000000	69.396800
913.000000	69.436600
912.000000	69.450600
911.000000	69.485600
910.000000	69.530300
909.000000	69.578700
908.000000	69.710200
907.000000	69.714700
906.000000	69.749700
905.000000	69.745000
904.000000	69.777000
903.000000	69.805400
902.000000	69.819800
901.000000	69.957500
900.000000	69.990500
899.000000	70.001300
898.000000	69.995600
897.000000	70.011000
896.000000	70.075000
895.000000	70.112000
894.000000	70.163900
893.000000	70.203100
892.000000	70.188900
891.000000	70.225200
890.000000	70.287300
889.000000	70.317100
888.000000	70.356400
887.000000	70.366900
886.000000	70.293900
885.000000	70.329700
884.000000	70.351300
883.000000	70.325100
882.000000	70.208800
881.000000	70.159000
880.000000	70.112700
879.000000	70.025300
878.000000	69.987300
877.000000	69.911600
876.000000	69.754000
875.000000	69.640100
874.000000	69.449600
873.000000	69.384700
872.000000	69.216400
871.000000	68.988300
870.000000	68.820200
869.000000	68.537400
868.000000	68.316600
867.000000	68.029500
866.000000	67.806800
865.000000	67.406400
864.000000	67.003500
863.000000	66.657200
862.000000	66.371200
861.000000	65.929000
860.000000	65.566000
859.000000	65.428000
858.000000	66.963400
857.000000	65.817880
856.000000	66.046784
855.000000	65.615706
854.000000	65.852533
853.000000	65.948919
852.000000	65.909738
851.000000	66.169812
850.000000	66.032069
849.000000	66.229106
848.000000	66.468284
847.000000	66.346040
846.000000	66.457923
845.000000	66.812642
844.000000	67.174587
843.000000	67.064532
842.000000	66.995573
841.000000	67.222040
840.000000	67.545413
839.000000	67.775014
838.000000	67.848500
837.000000	68.281494
836.000000	68.296034
835.000000	68.368649
834.000000	68.953752
833.000000	69.199635
832.000000	69.271902
831.000000	69.612254
830.000000	69.782822
829.000000	70.057524
828.000000	70.274413
827.000000	70.506364
826.000000	70.750854
825.000000	70.878061
824.000000	70.884069
823.000000	71.189158
822.000000	71.533603
821.000000	71.692678
820.000000	71.635909
819.000000	71.899553
818.000000	72.101553
817.000000	72.269770
816.000000	72.410473
815.000000	72.634327
814.000000	72.754656
813.000000	72.777207
812.000000	72.953957
811.000000	73.093703
810.000000	73.256347
809.000000	73.366315
808.000000	73.629002
807.000000	73.638144
806.000000	73.626129
805.000000	73.802617
804.000000	73.843888
803.000000	73.949938
802.000000	74.126426
801.000000	74.339136
800.000000	74.405221
799.000000	74.530600
798.000000	74.614970
797.000000	74.973084
796.000000	75.021059
795.000000	75.243433
794.000000	75.376039
793.000000	75.475471
792.000000	75.585875
791.000000	75.683827
790.000000	75.767065
789.000000	75.875466
788.000000	75.991964
787.000000	76.055611
786.000000	76.083996
785.000000	76.210594
784.000000	76.245073
783.000000	76.317079
782.000000	76.377766
781.000000	76.507760
780.000000	76.533619
779.000000	76.623213
778.000000	76.730743
777.000000	76.773494
776.000000	76.819728
775.000000	76.943104
774.000000	77.039751
773.000000	77.079367
772.000000	77.120725
771.000000	77.129606
770.000000	77.227645
769.000000	77.351457
768.000000	77.443837
767.000000	77.590722
766.000000	77.677704
765.000000	77.716363
764.000000	77.751800
763.000000	77.855673
762.000000	77.968427
761.000000	78.045396
760.000000	78.133945
759.000000	78.221188
758.000000	78.302075
757.000000	78.449918
756.000000	78.520095
755.000000	78.536726
754.000000	78.626581
753.000000	78.626407
752.000000	78.672640
751.000000	78.740380
750.000000	78.730802
749.000000	78.703288
748.000000	78.690141
747.000000	78.547000
746.000000	78.447219
745.000000	78.409779
744.000000	78.350137
743.000000	78.246786
742.000000	78.144219
741.000000	78.010830
740.000000	77.877788
739.000000	77.767472
738.000000	77.657853
737.000000	77.541354
736.000000	77.360338
735.000000	77.174098
734.000000	77.005358
733.000000	76.791953
732.000000	76.578460
731.000000	76.302974
730.000000	76.086782
729.000000	75.895492
728.000000	75.691925
727.000000	75.434114
726.000000	75.144261
725.000000	74.924674
724.000000	74.688717
723.000000	74.382496
722.000000	74.047107
721.000000	73.787380
720.000000	73.560479
719.000000	73.305541
718.000000	73.060616
717.000000	72.837981
716.000000	72.650783
715.000000	72.405510
714.000000	72.110347
713.000000	71.872997
712.000000	71.686931
711.000000	71.530642
710.000000	71.327075
709.000000	71.112712
708.000000	70.938487
707.000000	70.781676
706.000000	70.615723
705.000000	70.409805
704.000000	70.304277
703.000000	70.189434
702.000000	70.036367
701.000000	69.893399
700.000000	69.768804
699.000000	69.688439
698.000000	69.605550
697.000000	69.547475
696.000000	69.418352
695.000000	69.326146
694.000000	69.311344
693.000000	69.185442
692.000000	69.086184
691.000000	69.022275
690.000000	68.945568
689.000000	68.849792
688.000000	68.753146
687.000000	68.675045
686.000000	68.528856
685.000000	68.418975
684.000000	68.345576
683.000000	68.230558
682.000000	68.118326
681.000000	67.954811
680.000000	67.859558
679.000000	67.695172
678.000000	67.541147
677.000000	67.381201
676.000000	67.184426
675.000000	66.966667
674.000000	66.743770
673.000000	66.496321
672.000000	66.229803
671.000000	65.901727
670.000000	65.562681
669.000000	65.191855
668.000000	64.802744
667.000000	64.373320
666.000000	63.869366
665.000000	63.366369
664.000000	62.809738
663.000000	62.243355
662.000000	61.577452
661.000000	60.954823
660.000000	60.310774
659.000000	59.616226
658.000000	58.881452
657.000000	58.190386
656.000000	57.481472
655.000000	56.765853
654.000000	56.073742
653.000000	55.402528
652.000000	54.735232
651.000000	54.072638
650.000000	53.496155
649.000000	53.006567
648.000000	52.561036
647.000000	52.198742
646.000000	51.903666
645.000000	51.690695
644.000000	51.528573
643.000000	51.484516
642.000000	51.549731
641.000000	51.687126
640.000000	51.844546
639.000000	52.144585
638.000000	52.482674
637.000000	52.921327
636.000000	53.389583
635.000000	53.896324
634.000000	54.460269
633.000000	55.128261
632.000000	55.752980
631.000000	56.457193
630.000000	57.149304
629.000000	57.846725
628.000000	58.572531
627.000000	59.284058
626.000000	59.983221
625.000000	60.651649
624.000000	61.339580
623.000000	62.046927
622.000000	62.709696
621.000000	63.364628
620.000000	64.050121
619.000000	64.723599
618.000000	65.380098
617.000000	66.006384
616.000000	66.692051
615.000000	67.365877
614.000000	68.050326
613.000000	68.697247
612.000000	69.396062
611.000000	69.972980
610.000000	70.579067
609.000000	71.150761
608.000000	71.695464
607.000000	72.177216
606.000000	72.678819
605.000000	73.164403
604.000000	73.584423
603.000000	74.034830
602.000000	74.361338
601.000000	74.720759
600.000000	75.106038
599.000000	75.443256
598.000000	75.737810
597.000000	76.041158
596.000000	76.298272
595.000000	76.632878
594.000000	76.867006
593.000000	77.088248
592.000000	77.258119
591.000000	77.395601
590.000000	77.619281
589.000000	77.774960
588.000000	77.881620
587.000000	77.986799
586.000000	78.021017
585.000000	78.092152
584.000000	78.102687
583.000000	78.112613
582.000000	78.091020
581.000000	78.124890
580.000000	78.084838
579.000000	78.088582
578.000000	78.038953
577.000000	78.049749
576.000000	77.931510
575.000000	77.882229
574.000000	77.824764
573.000000	77.726550
572.000000	77.616669
571.000000	77.500345
570.000000	77.383150
569.000000	77.257858
568.000000	77.068483
567.000000	76.905403
566.000000	76.721949
565.000000	76.520994
564.000000	76.285734
563.000000	76.079555
562.000000	75.804331
561.000000	75.596236
560.000000	75.366722
559.000000	75.218618
558.000000	74.982139
557.000000	74.692896
556.000000	74.455024
555.000000	74.177884
554.000000	73.860257
553.000000	73.517554
552.000000	73.175025
551.000000	72.795579
550.000000	72.375907
549.000000	71.904168
548.000000	71.442355
547.000000	70.947107
546.000000	70.415464
545.000000	69.862577
544.000000	69.305510
543.000000	68.676264
542.000000	68.047801
541.000000	67.429786
540.000000	66.783735
539.000000	66.134637
538.000000	65.438608
537.000000	64.766698
536.000000	64.061179
535.000000	63.332325
534.000000	62.559415
533.000000	61.717633
532.000000	60.857741
531.000000	59.951789
530.000000	59.019456
529.000000	58.040889
528.000000	57.043341
527.000000	56.007047
526.000000	54.943501
525.000000	53.839816
524.000000	52.700955
523.000000	51.542504
522.000000	50.364463
521.000000	49.177453
520.000000	48.004548
519.000000	46.801169
518.000000	45.642021
517.000000	44.509691
516.000000	43.392423
515.000000	42.290480
514.000000	41.219533
513.000000	40.205529
512.000000	39.215817
511.000000	38.280697
510.000000	37.395555
509.000000	36.598788
508.000000	35.853391
507.000000	35.186792
506.000000	34.596117
505.000000	34.088418
504.000000	33.620162
503.000000	33.236885
502.000000	32.911247
501.000000	32.686610
500.000000	32.520569
499.000000	32.381869
498.000000	32.315000
497.000000	32.284787
496.000000	32.281565
495.000000	32.285919
494.000000	32.280956
493.000000	32.303071
492.000000	32.333371
491.000000	32.375861
490.000000	32.347215
489.000000	32.300546
488.000000	32.249785
487.000000	32.138250
486.000000	31.979349
485.000000	31.798333
484.000000	31.587017
483.000000	31.310225
482.000000	30.989725
481.000000	30.636922
480.000000	30.223693
479.000000	29.778335
478.000000	29.317306
477.000000	28.828414
476.000000	28.313663
475.000000	27.789073
474.000000	27.229481
473.000000	26.644379
472.000000	26.057012
471.000000	25.468601
470.000000	24.883411
469.000000	24.308495
468.000000	23.759961
467.000000	23.255571
466.000000	22.796370
465.000000	22.382009
464.000000	22.032950
463.000000	21.727687
462.000000	21.479802
461.000000	21.306709
460.000000	21.185944
459.000000	21.119163
458.000000	21.096873
457.000000	21.129437
456.000000	21.216506
455.000000	21.333700
454.000000	21.478148
453.000000	21.642708
452.000000	21.818848
451.000000	22.015711
450.000000	22.213705
449.000000	22.394722
448.000000	22.577305
447.000000	22.763545
446.000000	22.943952
445.000000	23.106597
444.000000	23.251566
443.000000	23.377555
442.000000	23.460967
441.000000	23.544292
440.000000	23.615775
439.000000	23.656698
438.000000	23.680119
437.000000	23.672109
436.000000	23.656349
435.000000	23.633450
434.000000	23.578858
433.000000	23.501889
432.000000	23.418477
431.000000	23.313124
430.000000	23.182695
429.000000	23.062366
428.000000	22.923404
427.000000	22.771469
426.000000	22.613351
425.000000	22.409610
424.000000	22.193941
423.000000	21.971393
422.000000	21.735001
421.000000	21.477538
420.000000	21.211978
419.000000	20.925260
418.000000	20.660049
417.000000	20.388916
416.000000	20.047519
415.000000	19.725190
414.000000	19.399640
413.000000	19.064773
412.000000	18.714669
411.000000	18.344626
410.000000	17.970927
409.000000	17.593135
408.000000	17.181647
407.000000	16.800808
406.000000	16.414048
405.000000	15.991068
404.000000	15.593250
403.000000	15.189251
402.000000	14.758086
401.000000	14.328227
400.000000	13.913430
399.000000	13.525974
398.000000	13.117969
397.000000	12.717627
396.000000	12.339574
395.000000	11.945500
394.000000	11.572758
393.000000	11.212380
392.000000	10.860361
391.000000	10.515220
390.000000	10.192717
389.000000	9.885538
388.000000	9.602129
387.000000	9.312276
386.000000	9.045062
385.000000	8.811979
384.000000	8.583858
383.000000	8.349121
382.000000	8.147034
381.000000	7.945992
380.000000	7.749129
379.000000	7.596149
378.000000	7.440383
377.000000	7.290015
376.000000	7.217399
375.000000	6.907695
374.000000	6.853364
373.000000	6.820017
372.000000	6.692374
371.000000	6.726941
370.000000	6.515711
369.000000	6.405047
368.000000	6.358813
367.000000	6.393728
366.000000	6.375618
365.000000	6.251893
364.000000	6.137658
363.000000	6.142099
362.000000	6.107620
361.000000	5.993821
360.000000	5.970225
359.000000	5.999741
358.000000	5.935659
357.000000	5.949241
356.000000	5.804098
355.000000	5.776671
354.000000	5.751856
353.000000	5.707799
352.000000	5.594175
351.000000	5.552382
350.000000	5.474020
349.000000	5.588080
348.000000	5.510501
347.000000	5.457041
346.000000	5.507889
345.000000	5.621688
344.000000	5.544284
343.000000	5.534707
342.000000	5.451382
341.000000	5.428134
340.000000	5.482204
339.000000	5.330269
338.000000	5.515638
337.000000	5.501185
336.000000	5.494220
335.000000	5.519295
334.000000	5.397660
333.000000	5.319385
332.000000	5.357260
331.000000	5.600269
330.000000	5.369798
329.000000	5.438060
328.000000	5.445026
327.000000	5.507106
326.000000	5.640321
325.000000	5.728609
324.000000	5.569795
323.000000	5.657038
322.000000	5.563700
321.000000	5.571275
320.000000	5.672972
319.000000	5.681156
318.000000	5.810367
317.000000	5.733224
316.000000	5.238237
315.000000	5.237018
314.000000	5.248511
313.000000	5.240414
312.000000	5.243374
311.000000	5.258437
310.000000	5.331488
309.000000	5.301014
308.000000	5.282903
307.000000	5.265490
306.000000	5.272542
305.000000	5.299446
304.000000	5.356128
303.000000	5.284035
302.000000	5.403233
301.000000	5.352471
300.000000	5.312768
299.000000	5.307283
298.000000	5.289434
297.000000	5.263139
296.000000	5.357783
295.000000	5.332271
294.000000	5.332707
293.000000	5.395832
292.000000	5.396789
291.000000	5.368753
290.000000	5.411939
289.000000	5.352820
288.000000	5.404452
287.000000	5.408195
286.000000	5.388605
285.000000	5.367447
284.000000	5.434229
283.000000	5.402362
282.000000	5.415248
281.000000	5.412723
280.000000	5.404974
279.000000	5.438670
278.000000	5.462352
277.000000	5.450163
276.000000	5.436145
275.000000	5.413942
274.000000	5.442152
273.000000	5.485164
272.000000	5.431095
271.000000	5.481943
270.000000	5.510850
269.000000	5.579634
268.000000	5.531746
267.000000	5.514507
266.000000	5.493175
265.000000	5.508151
264.000000	5.576500
263.000000	5.559608
262.000000	5.561001
261.000000	5.651901
260.000000	5.694391
259.000000	5.681418
258.000000	5.686119
257.000000	5.676193
256.000000	5.670969
255.000000	5.738709
254.000000	5.745413
253.000000	5.766310
252.000000	5.754033
251.000000	5.777280
250.000000	5.746197
