PE UV       SUBTECH     SPECTRUM    ASCII       PEDS        4.00        
   -1
CICIMAUCR0158-4.Sample.ASC
24/04/25
13:19:11.00
24/04/25
13:19:11.00
Vinicio Soto Monge
C. cupreomarginata
250,000000
1
Lambda 1050
1050L1511233
PerkinElmer UV WinLab 6.3.2.0749 / 2.02.05 Lambda 900 UV/VIS/NIR, Aug  7 2015 09:38:08

0
0
3350/servo 860,8/2
0
0
UV/VIS
1
1
1
DoubleDePol,CommonBeamDepol,RBeamAtt,SBeamAtt,60mm sphere, WB InGaAs Detector
0
0
0
0
Program
Program
3350/servo 860,8/2
3350/0,2 860,8/0,2
3350/0,2 860,8/0,2
0
15.00
 
 
 
0
 
860,8
319,2
860,8
Front
100
on
S:100 R:100
0
0
0
0
 
0
 
 
 
0
 
 
0
0
0
0
0
 
 
 
 
0
0


0
0
#HDR
-1
-1
#GR
nm
%R
1.0
0.0
2500,000000
-1,000000
2251
8
71,606100
5,632000
#DATA
2500.000000	15.359700
2499.000000	15.196000
2498.000000	15.346900
2497.000000	15.284300
2496.000000	15.287000
2495.000000	15.272000
2494.000000	15.327100
2493.000000	15.158200
2492.000000	15.273500
2491.000000	15.213600
2490.000000	15.177200
2489.000000	15.194000
2488.000000	15.175100
2487.000000	15.232400
2486.000000	15.155800
2485.000000	15.196500
2484.000000	15.169700
2483.000000	15.225600
2482.000000	15.310800
2481.000000	15.238000
2480.000000	15.267600
2479.000000	15.298500
2478.000000	15.324600
2477.000000	15.304900
2476.000000	15.327900
2475.000000	15.387600
2474.000000	15.344300
2473.000000	15.415200
2472.000000	15.436900
2471.000000	15.473200
2470.000000	15.509100
2469.000000	15.554700
2468.000000	15.578200
2467.000000	15.617400
2466.000000	15.667500
2465.000000	15.738400
2464.000000	15.811400
2463.000000	15.821800
2462.000000	15.861300
2461.000000	15.905200
2460.000000	15.939800
2459.000000	16.032000
2458.000000	16.085700
2457.000000	16.127800
2456.000000	16.209200
2455.000000	16.291000
2454.000000	16.379900
2453.000000	16.456600
2452.000000	16.550800
2451.000000	16.615300
2450.000000	16.680400
2449.000000	16.767300
2448.000000	16.871000
2447.000000	16.967300
2446.000000	17.068800
2445.000000	17.165000
2444.000000	17.251300
2443.000000	17.349400
2442.000000	17.441900
2441.000000	17.559800
2440.000000	17.640100
2439.000000	17.725800
2438.000000	17.806300
2437.000000	17.918900
2436.000000	18.020500
2435.000000	18.106000
2434.000000	18.187400
2433.000000	18.266800
2432.000000	18.354400
2431.000000	18.437400
2430.000000	18.529600
2429.000000	18.600400
2428.000000	18.687800
2427.000000	18.761700
2426.000000	18.821500
2425.000000	18.878700
2424.000000	18.956100
2423.000000	19.033400
2422.000000	19.096400
2421.000000	19.152300
2420.000000	19.219400
2419.000000	19.271600
2418.000000	19.317700
2417.000000	19.389200
2416.000000	19.456800
2415.000000	19.497600
2414.000000	19.554700
2413.000000	19.606000
2412.000000	19.649800
2411.000000	19.711800
2410.000000	19.790100
2409.000000	19.890800
2408.000000	19.988100
2407.000000	20.075600
2406.000000	20.097700
2405.000000	20.122700
2404.000000	20.167300
2403.000000	20.205600
2402.000000	20.244800
2401.000000	20.286100
2400.000000	20.334900
2399.000000	20.349000
2398.000000	20.394700
2397.000000	20.440500
2396.000000	20.471200
2395.000000	20.516800
2394.000000	20.540600
2393.000000	20.548500
2392.000000	20.576200
2391.000000	20.629700
2390.000000	20.659800
2389.000000	20.669500
2388.000000	20.677600
2387.000000	20.672800
2386.000000	20.701100
2385.000000	20.727800
2384.000000	20.738700
2383.000000	20.761300
2382.000000	20.757400
2381.000000	20.755500
2380.000000	20.762100
2379.000000	20.780800
2378.000000	20.773100
2377.000000	20.775000
2376.000000	20.791000
2375.000000	20.780200
2374.000000	20.768600
2373.000000	20.772500
2372.000000	20.787400
2371.000000	20.779400
2370.000000	20.788700
2369.000000	20.805200
2368.000000	20.796000
2367.000000	20.789700
2366.000000	20.793900
2365.000000	20.810100
2364.000000	20.822900
2363.000000	20.839300
2362.000000	20.844300
2361.000000	20.834100
2360.000000	20.839100
2359.000000	20.852200
2358.000000	20.841200
2357.000000	20.828100
2356.000000	20.839100
2355.000000	20.847800
2354.000000	20.828000
2353.000000	20.818600
2352.000000	20.829800
2351.000000	20.829400
2350.000000	20.810900
2349.000000	20.806700
2348.000000	20.815100
2347.000000	20.812400
2346.000000	20.819300
2345.000000	20.819900
2344.000000	20.820600
2343.000000	20.834200
2342.000000	20.831800
2341.000000	20.814100
2340.000000	20.837700
2339.000000	20.852100
2338.000000	20.850900
2337.000000	20.872700
2336.000000	20.889400
2335.000000	20.914500
2334.000000	20.952500
2333.000000	20.981700
2332.000000	20.989500
2331.000000	20.988800
2330.000000	21.024700
2329.000000	21.072700
2328.000000	21.094400
2327.000000	21.115100
2326.000000	21.143400
2325.000000	21.173100
2324.000000	21.225700
2323.000000	21.234700
2322.000000	21.231700
2321.000000	21.244100
2320.000000	21.280100
2319.000000	21.267600
2318.000000	21.276700
2317.000000	21.273900
2316.000000	21.250600
2315.000000	21.231800
2314.000000	21.220300
2313.000000	21.204100
2312.000000	21.172900
2311.000000	21.147400
2310.000000	21.114100
2309.000000	21.080100
2308.000000	21.048500
2307.000000	21.024600
2306.000000	20.989700
2305.000000	20.980100
2304.000000	20.961200
2303.000000	20.948300
2302.000000	20.916400
2301.000000	20.920300
2300.000000	20.924300
2299.000000	20.917800
2298.000000	20.922600
2297.000000	20.924600
2296.000000	20.925700
2295.000000	20.940000
2294.000000	20.954700
2293.000000	20.980700
2292.000000	21.016500
2291.000000	21.035300
2290.000000	21.063800
2289.000000	21.086500
2288.000000	21.131200
2287.000000	21.172900
2286.000000	21.204300
2285.000000	21.232000
2284.000000	21.291500
2283.000000	21.325300
2282.000000	21.365100
2281.000000	21.418600
2280.000000	21.456600
2279.000000	21.466400
2278.000000	21.507200
2277.000000	21.551200
2276.000000	21.584500
2275.000000	21.618300
2274.000000	21.646300
2273.000000	21.689900
2272.000000	21.712600
2271.000000	21.738900
2270.000000	21.779000
2269.000000	21.816500
2268.000000	21.867300
2267.000000	21.916500
2266.000000	21.969200
2265.000000	22.043200
2264.000000	22.133100
2263.000000	22.202500
2262.000000	22.311700
2261.000000	22.390100
2260.000000	22.494900
2259.000000	22.645600
2258.000000	22.757600
2257.000000	22.888200
2256.000000	23.021400
2255.000000	23.193800
2254.000000	23.315100
2253.000000	23.440500
2252.000000	23.586000
2251.000000	23.732600
2250.000000	23.887400
2249.000000	24.025900
2248.000000	24.137400
2247.000000	24.260800
2246.000000	24.386300
2245.000000	24.466100
2244.000000	24.582300
2243.000000	24.672700
2242.000000	24.735900
2241.000000	24.829100
2240.000000	24.910700
2239.000000	24.939600
2238.000000	24.970000
2237.000000	24.988800
2236.000000	25.053900
2235.000000	25.066100
2234.000000	25.069900
2233.000000	25.074400
2232.000000	25.083600
2231.000000	25.058300
2230.000000	25.050500
2229.000000	25.011700
2228.000000	24.996900
2227.000000	24.930200
2226.000000	24.888000
2225.000000	24.858000
2224.000000	24.804500
2223.000000	24.730800
2222.000000	24.663400
2221.000000	24.608900
2220.000000	24.525400
2219.000000	24.479900
2218.000000	24.406800
2217.000000	24.329600
2216.000000	24.263400
2215.000000	24.180600
2214.000000	24.111600
2213.000000	24.062500
2212.000000	23.982300
2211.000000	23.935900
2210.000000	23.867600
2209.000000	23.816800
2208.000000	23.776400
2207.000000	23.717000
2206.000000	23.669100
2205.000000	23.637500
2204.000000	23.611000
2203.000000	23.567600
2202.000000	23.539200
2201.000000	23.501200
2200.000000	23.471100
2199.000000	23.438300
2198.000000	23.404600
2197.000000	23.392600
2196.000000	23.352900
2195.000000	23.356500
2194.000000	23.320000
2193.000000	23.317300
2192.000000	23.284000
2191.000000	23.265300
2190.000000	23.239500
2189.000000	23.219600
2188.000000	23.220800
2187.000000	23.195300
2186.000000	23.169000
2185.000000	23.174500
2184.000000	23.150300
2183.000000	23.131800
2182.000000	23.115500
2181.000000	23.102400
2180.000000	23.072900
2179.000000	23.073300
2178.000000	23.072800
2177.000000	23.051100
2176.000000	23.051900
2175.000000	23.045800
2174.000000	23.070600
2173.000000	23.066800
2172.000000	23.061000
2171.000000	23.077900
2170.000000	23.103700
2169.000000	23.128400
2168.000000	23.153800
2167.000000	23.181100
2166.000000	23.212000
2165.000000	23.258600
2164.000000	23.302600
2163.000000	23.329500
2162.000000	23.407100
2161.000000	23.472000
2160.000000	23.539600
2159.000000	23.591500
2158.000000	23.654800
2157.000000	23.742000
2156.000000	23.830300
2155.000000	23.933000
2154.000000	24.024100
2153.000000	24.095800
2152.000000	24.202900
2151.000000	24.298600
2150.000000	24.408400
2149.000000	24.516000
2148.000000	24.619300
2147.000000	24.701800
2146.000000	24.800900
2145.000000	24.885000
2144.000000	24.980300
2143.000000	25.072900
2142.000000	25.175100
2141.000000	25.284500
2140.000000	25.388800
2139.000000	25.471400
2138.000000	25.572100
2137.000000	25.659500
2136.000000	25.748300
2135.000000	25.823100
2134.000000	25.903000
2133.000000	25.970200
2132.000000	26.042800
2131.000000	26.123900
2130.000000	26.173400
2129.000000	26.232200
2128.000000	26.307900
2127.000000	26.361500
2126.000000	26.405900
2125.000000	26.449500
2124.000000	26.493300
2123.000000	26.531300
2122.000000	26.573700
2121.000000	26.621100
2120.000000	26.655600
2119.000000	26.675400
2118.000000	26.707500
2117.000000	26.733600
2116.000000	26.763600
2115.000000	26.789900
2114.000000	26.784800
2113.000000	26.793000
2112.000000	26.814500
2111.000000	26.832100
2110.000000	26.844000
2109.000000	26.844600
2108.000000	26.840100
2107.000000	26.842400
2106.000000	26.836900
2105.000000	26.844200
2104.000000	26.850500
2103.000000	26.841100
2102.000000	26.848300
2101.000000	26.847300
2100.000000	26.842900
2099.000000	26.851700
2098.000000	26.856000
2097.000000	26.849300
2096.000000	26.860900
2095.000000	26.870600
2094.000000	26.866700
2093.000000	26.871400
2092.000000	26.871600
2091.000000	26.887900
2090.000000	26.895500
2089.000000	26.889500
2088.000000	26.901300
2087.000000	26.898400
2086.000000	26.875900
2085.000000	26.859900
2084.000000	26.851100
2083.000000	26.839700
2082.000000	26.802800
2081.000000	26.765600
2080.000000	26.720300
2079.000000	26.670200
2078.000000	26.614400
2077.000000	26.549100
2076.000000	26.482800
2075.000000	26.419800
2074.000000	26.344600
2073.000000	26.248900
2072.000000	26.149200
2071.000000	26.063700
2070.000000	25.958100
2069.000000	25.859400
2068.000000	25.757300
2067.000000	25.657200
2066.000000	25.547300
2065.000000	25.436400
2064.000000	25.351200
2063.000000	25.261500
2062.000000	25.155100
2061.000000	25.060600
2060.000000	24.991100
2059.000000	24.927500
2058.000000	24.859900
2057.000000	24.812400
2056.000000	24.773400
2055.000000	24.761400
2054.000000	24.772900
2053.000000	24.781400
2052.000000	24.796300
2051.000000	24.849600
2050.000000	24.919500
2049.000000	24.984300
2048.000000	25.065600
2047.000000	25.169200
2046.000000	25.276900
2045.000000	25.385400
2044.000000	25.494600
2043.000000	25.608900
2042.000000	25.749200
2041.000000	25.854400
2040.000000	25.960900
2039.000000	26.070500
2038.000000	26.174700
2037.000000	26.294700
2036.000000	26.380000
2035.000000	26.473700
2034.000000	26.565300
2033.000000	26.636300
2032.000000	26.724000
2031.000000	26.785400
2030.000000	26.858500
2029.000000	26.925900
2028.000000	26.989800
2027.000000	27.054700
2026.000000	27.090700
2025.000000	27.126200
2024.000000	27.181500
2023.000000	27.223600
2022.000000	27.259400
2021.000000	27.285700
2020.000000	27.293000
2019.000000	27.329900
2018.000000	27.341900
2017.000000	27.345600
2016.000000	27.375000
2015.000000	27.373700
2014.000000	27.382000
2013.000000	27.358400
2012.000000	27.348500
2011.000000	27.342700
2010.000000	27.332800
2009.000000	27.286300
2008.000000	27.259300
2007.000000	27.218100
2006.000000	27.185200
2005.000000	27.145300
2004.000000	27.086700
2003.000000	27.042900
2002.000000	26.988200
2001.000000	26.927900
2000.000000	26.867700
1999.000000	26.790400
1998.000000	26.731800
1997.000000	26.630600
1996.000000	26.562100
1995.000000	26.474400
1994.000000	26.390000
1993.000000	26.307800
1992.000000	26.216400
1991.000000	26.138600
1990.000000	26.034300
1989.000000	25.941600
1988.000000	25.849300
1987.000000	25.742100
1986.000000	25.650200
1985.000000	25.541600
1984.000000	25.453700
1983.000000	25.347200
1982.000000	25.247300
1981.000000	25.156400
1980.000000	25.064900
1979.000000	24.965900
1978.000000	24.868900
1977.000000	24.774400
1976.000000	24.691400
1975.000000	24.592600
1974.000000	24.500800
1973.000000	24.413600
1972.000000	24.326600
1971.000000	24.235200
1970.000000	24.144500
1969.000000	24.036700
1968.000000	23.974700
1967.000000	23.888000
1966.000000	23.782800
1965.000000	23.716700
1964.000000	23.612900
1963.000000	23.534000
1962.000000	23.463700
1961.000000	23.370800
1960.000000	23.271000
1959.000000	23.174900
1958.000000	23.080100
1957.000000	22.993800
1956.000000	22.935200
1955.000000	22.846600
1954.000000	22.739600
1953.000000	22.646100
1952.000000	22.593200
1951.000000	22.487800
1950.000000	22.402000
1949.000000	22.341700
1948.000000	22.263900
1947.000000	22.201200
1946.000000	22.140100
1945.000000	22.071200
1944.000000	22.004400
1943.000000	21.962300
1942.000000	21.932700
1941.000000	21.906500
1940.000000	21.865200
1939.000000	21.836000
1938.000000	21.824500
1937.000000	21.818600
1936.000000	21.799700
1935.000000	21.809400
1934.000000	21.846800
1933.000000	21.873700
1932.000000	21.907200
1931.000000	21.964700
1930.000000	22.010200
1929.000000	22.093000
1928.000000	22.170200
1927.000000	22.258500
1926.000000	22.340000
1925.000000	22.468300
1924.000000	22.573900
1923.000000	22.713800
1922.000000	22.861700
1921.000000	23.057800
1920.000000	23.217800
1919.000000	23.385300
1918.000000	23.595300
1917.000000	23.776500
1916.000000	23.952400
1915.000000	24.198900
1914.000000	24.497800
1913.000000	24.778400
1912.000000	25.057100
1911.000000	25.310600
1910.000000	25.604500
1909.000000	25.877700
1908.000000	26.217000
1907.000000	26.592800
1906.000000	27.023900
1905.000000	27.453400
1904.000000	27.876500
1903.000000	28.275000
1902.000000	28.704100
1901.000000	29.158200
1900.000000	29.683200
1899.000000	30.170300
1898.000000	30.679300
1897.000000	31.193400
1896.000000	31.619000
1895.000000	32.050700
1894.000000	32.527300
1893.000000	33.040500
1892.000000	33.611200
1891.000000	34.139100
1890.000000	34.631600
1889.000000	35.079200
1888.000000	35.542100
1887.000000	35.973300
1886.000000	36.405300
1885.000000	36.842400
1884.000000	37.285500
1883.000000	37.661100
1882.000000	38.007000
1881.000000	38.344900
1880.000000	38.633400
1879.000000	38.923600
1878.000000	39.229300
1877.000000	39.494000
1876.000000	39.742500
1875.000000	40.006400
1874.000000	40.263300
1873.000000	40.510300
1872.000000	40.734600
1871.000000	40.928300
1870.000000	41.125900
1869.000000	41.319200
1868.000000	41.429400
1867.000000	41.529100
1866.000000	41.587900
1865.000000	41.671000
1864.000000	41.735800
1863.000000	41.800600
1862.000000	41.893200
1861.000000	42.001500
1860.000000	42.108600
1859.000000	42.180000
1858.000000	42.243000
1857.000000	42.309400
1856.000000	42.334000
1855.000000	42.384800
1854.000000	42.426500
1853.000000	42.444000
1852.000000	42.483000
1851.000000	42.488500
1850.000000	42.519300
1849.000000	42.567500
1848.000000	42.623000
1847.000000	42.647200
1846.000000	42.603000
1845.000000	42.540900
1844.000000	42.499900
1843.000000	42.520400
1842.000000	42.575200
1841.000000	42.588300
1840.000000	42.564000
1839.000000	42.532600
1838.000000	42.511600
1837.000000	42.508900
1836.000000	42.507000
1835.000000	42.463400
1834.000000	42.399800
1833.000000	42.336100
1832.000000	42.310000
1831.000000	42.320400
1830.000000	42.303700
1829.000000	42.279900
1828.000000	42.245700
1827.000000	42.220400
1826.000000	42.208000
1825.000000	42.190300
1824.000000	42.164000
1823.000000	42.188100
1822.000000	42.236700
1821.000000	42.250300
1820.000000	42.241000
1819.000000	42.205900
1818.000000	42.168900
1817.000000	42.153200
1816.000000	42.148700
1815.000000	42.142400
1814.000000	42.136400
1813.000000	42.126100
1812.000000	42.126400
1811.000000	42.098200
1810.000000	42.056400
1809.000000	42.045900
1808.000000	42.052100
1807.000000	42.047500
1806.000000	42.022400
1805.000000	41.976900
1804.000000	41.954400
1803.000000	41.959100
1802.000000	41.949100
1801.000000	41.939500
1800.000000	41.922700
1799.000000	41.891400
1798.000000	41.864700
1797.000000	41.857800
1796.000000	41.845500
1795.000000	41.834100
1794.000000	41.835200
1793.000000	41.824300
1792.000000	41.804300
1791.000000	41.803800
1790.000000	41.783800
1789.000000	41.788500
1788.000000	41.780700
1787.000000	41.779300
1786.000000	41.789800
1785.000000	41.782900
1784.000000	41.795900
1783.000000	41.784600
1782.000000	41.782700
1781.000000	41.778700
1780.000000	41.765200
1779.000000	41.750100
1778.000000	41.732700
1777.000000	41.691700
1776.000000	41.667000
1775.000000	41.641000
1774.000000	41.608700
1773.000000	41.588100
1772.000000	41.544000
1771.000000	41.520600
1770.000000	41.490800
1769.000000	41.454100
1768.000000	41.433900
1767.000000	41.411200
1766.000000	41.373800
1765.000000	41.345300
1764.000000	41.326900
1763.000000	41.310000
1762.000000	41.290600
1761.000000	41.286700
1760.000000	41.274500
1759.000000	41.271900
1758.000000	41.260400
1757.000000	41.257700
1756.000000	41.254800
1755.000000	41.263200
1754.000000	41.249000
1753.000000	41.239000
1752.000000	41.237800
1751.000000	41.233500
1750.000000	41.202700
1749.000000	41.172000
1748.000000	41.131400
1747.000000	41.102100
1746.000000	41.062400
1745.000000	41.016500
1744.000000	40.964200
1743.000000	40.912900
1742.000000	40.877500
1741.000000	40.827100
1740.000000	40.776300
1739.000000	40.726700
1738.000000	40.711800
1737.000000	40.674600
1736.000000	40.644000
1735.000000	40.620500
1734.000000	40.581700
1733.000000	40.555400
1732.000000	40.527500
1731.000000	40.517100
1730.000000	40.482900
1729.000000	40.468600
1728.000000	40.451700
1727.000000	40.453100
1726.000000	40.444300
1725.000000	40.433800
1724.000000	40.476600
1723.000000	40.516100
1722.000000	40.597200
1721.000000	40.691500
1720.000000	40.824100
1719.000000	40.967000
1718.000000	41.121400
1717.000000	41.273300
1716.000000	41.424900
1715.000000	41.578500
1714.000000	41.710100
1713.000000	41.825600
1712.000000	41.932300
1711.000000	42.053700
1710.000000	42.108700
1709.000000	42.208800
1708.000000	42.273100
1707.000000	42.355400
1706.000000	42.405400
1705.000000	42.405800
1704.000000	42.430300
1703.000000	42.454600
1702.000000	42.456300
1701.000000	42.467400
1700.000000	42.474300
1699.000000	42.455000
1698.000000	42.475300
1697.000000	42.445700
1696.000000	42.429900
1695.000000	42.398500
1694.000000	42.377600
1693.000000	42.330800
1692.000000	42.297100
1691.000000	42.264500
1690.000000	42.248800
1689.000000	42.247200
1688.000000	42.284000
1687.000000	42.347700
1686.000000	42.449500
1685.000000	42.594700
1684.000000	42.746300
1683.000000	42.904600
1682.000000	43.063400
1681.000000	43.233800
1680.000000	43.386600
1679.000000	43.538900
1678.000000	43.686500
1677.000000	43.812300
1676.000000	43.952800
1675.000000	44.104900
1674.000000	44.213700
1673.000000	44.357100
1672.000000	44.485900
1671.000000	44.618800
1670.000000	44.746800
1669.000000	44.861500
1668.000000	44.985300
1667.000000	45.124300
1666.000000	45.227100
1665.000000	45.341400
1664.000000	45.431500
1663.000000	45.538300
1662.000000	45.634900
1661.000000	45.713400
1660.000000	45.757500
1659.000000	45.822100
1658.000000	45.890000
1657.000000	45.947300
1656.000000	45.986600
1655.000000	46.011900
1654.000000	46.032600
1653.000000	46.069800
1652.000000	46.081900
1651.000000	46.086300
1650.000000	46.075800
1649.000000	46.082300
1648.000000	46.075600
1647.000000	46.074000
1646.000000	46.056100
1645.000000	46.043900
1644.000000	46.029500
1643.000000	46.033800
1642.000000	46.022800
1641.000000	46.010200
1640.000000	46.001600
1639.000000	45.986000
1638.000000	45.990000
1637.000000	45.978700
1636.000000	45.960600
1635.000000	45.938800
1634.000000	45.903900
1633.000000	45.859300
1632.000000	45.838200
1631.000000	45.824400
1630.000000	45.778700
1629.000000	45.748900
1628.000000	45.719400
1627.000000	45.680300
1626.000000	45.646200
1625.000000	45.611700
1624.000000	45.588900
1623.000000	45.562300
1622.000000	45.527900
1621.000000	45.503800
1620.000000	45.482400
1619.000000	45.459000
1618.000000	45.420600
1617.000000	45.389200
1616.000000	45.372300
1615.000000	45.337200
1614.000000	45.309200
1613.000000	45.287200
1612.000000	45.258400
1611.000000	45.217400
1610.000000	45.171100
1609.000000	45.133300
1608.000000	45.093700
1607.000000	45.040900
1606.000000	44.977600
1605.000000	44.925500
1604.000000	44.884500
1603.000000	44.830500
1602.000000	44.777600
1601.000000	44.714700
1600.000000	44.659000
1599.000000	44.602300
1598.000000	44.550900
1597.000000	44.494200
1596.000000	44.454200
1595.000000	44.406800
1594.000000	44.360100
1593.000000	44.318500
1592.000000	44.280100
1591.000000	44.237000
1590.000000	44.208300
1589.000000	44.177000
1588.000000	44.126200
1587.000000	44.085500
1586.000000	44.048900
1585.000000	44.018500
1584.000000	43.989200
1583.000000	43.960200
1582.000000	43.921500
1581.000000	43.879600
1580.000000	43.857100
1579.000000	43.826600
1578.000000	43.809200
1577.000000	43.803400
1576.000000	43.790200
1575.000000	43.772500
1574.000000	43.747900
1573.000000	43.742900
1572.000000	43.765700
1571.000000	43.773300
1570.000000	43.769200
1569.000000	43.770300
1568.000000	43.783000
1567.000000	43.806900
1566.000000	43.815600
1565.000000	43.824100
1564.000000	43.828400
1563.000000	43.818100
1562.000000	43.809900
1561.000000	43.797500
1560.000000	43.781100
1559.000000	43.767600
1558.000000	43.735900
1557.000000	43.706000
1556.000000	43.667700
1555.000000	43.611200
1554.000000	43.561900
1553.000000	43.511500
1552.000000	43.449000
1551.000000	43.384200
1550.000000	43.320400
1549.000000	43.250700
1548.000000	43.180400
1547.000000	43.117100
1546.000000	43.070100
1545.000000	43.011900
1544.000000	42.960900
1543.000000	42.920400
1542.000000	42.883500
1541.000000	42.841500
1540.000000	42.798400
1539.000000	42.771600
1538.000000	42.737100
1537.000000	42.705700
1536.000000	42.661500
1535.000000	42.619700
1534.000000	42.592300
1533.000000	42.553100
1532.000000	42.502400
1531.000000	42.454700
1530.000000	42.418400
1529.000000	42.364800
1528.000000	42.308000
1527.000000	42.262100
1526.000000	42.214700
1525.000000	42.170700
1524.000000	42.114900
1523.000000	42.046400
1522.000000	41.992000
1521.000000	41.942000
1520.000000	41.889800
1519.000000	41.834100
1518.000000	41.782900
1517.000000	41.724900
1516.000000	41.666200
1515.000000	41.599900
1514.000000	41.539500
1513.000000	41.486700
1512.000000	41.426400
1511.000000	41.364000
1510.000000	41.314000
1509.000000	41.266000
1508.000000	41.209000
1507.000000	41.143600
1506.000000	41.094500
1505.000000	41.043400
1504.000000	40.980600
1503.000000	40.931400
1502.000000	40.891500
1501.000000	40.857800
1500.000000	40.820800
1499.000000	40.782200
1498.000000	40.744100
1497.000000	40.741400
1496.000000	40.717200
1495.000000	40.708800
1494.000000	40.702600
1493.000000	40.693200
1492.000000	40.699900
1491.000000	40.722200
1490.000000	40.734200
1489.000000	40.742200
1488.000000	40.761200
1487.000000	40.777900
1486.000000	40.790100
1485.000000	40.795400
1484.000000	40.814300
1483.000000	40.839200
1482.000000	40.857000
1481.000000	40.861000
1480.000000	40.872600
1479.000000	40.900600
1478.000000	40.916700
1477.000000	40.923400
1476.000000	40.969300
1475.000000	40.993800
1474.000000	41.023600
1473.000000	41.082300
1472.000000	41.115600
1471.000000	41.154600
1470.000000	41.197000
1469.000000	41.211200
1468.000000	41.278400
1467.000000	41.342600
1466.000000	41.411300
1465.000000	41.439800
1464.000000	41.487800
1463.000000	41.545700
1462.000000	41.621500
1461.000000	41.683300
1460.000000	41.739100
1459.000000	41.808500
1458.000000	41.869600
1457.000000	41.937500
1456.000000	42.013100
1455.000000	42.103500
1454.000000	42.163100
1453.000000	42.242900
1452.000000	42.313300
1451.000000	42.391800
1450.000000	42.451400
1449.000000	42.487600
1448.000000	42.579700
1447.000000	42.673500
1446.000000	42.765100
1445.000000	42.810500
1444.000000	42.847400
1443.000000	42.949400
1442.000000	43.019700
1441.000000	43.091500
1440.000000	43.190200
1439.000000	43.276200
1438.000000	43.379800
1437.000000	43.455100
1436.000000	43.535600
1435.000000	43.644200
1434.000000	43.775800
1433.000000	43.872700
1432.000000	44.011100
1431.000000	44.101700
1430.000000	44.246300
1429.000000	44.386700
1428.000000	44.541800
1427.000000	44.690200
1426.000000	44.823500
1425.000000	45.010400
1424.000000	45.217100
1423.000000	45.377800
1422.000000	45.548900
1421.000000	45.766500
1420.000000	46.019800
1419.000000	46.248900
1418.000000	46.433300
1417.000000	46.626500
1416.000000	46.888600
1415.000000	47.226000
1414.000000	47.499300
1413.000000	47.735200
1412.000000	47.959100
1411.000000	48.290900
1410.000000	48.649600
1409.000000	48.963100
1408.000000	49.283800
1407.000000	49.584700
1406.000000	49.903300
1405.000000	50.223900
1404.000000	50.539000
1403.000000	50.808900
1402.000000	51.145000
1401.000000	51.556600
1400.000000	51.888300
1399.000000	52.069800
1398.000000	52.273700
1397.000000	52.600700
1396.000000	53.007500
1395.000000	53.282700
1394.000000	53.455000
1393.000000	53.674600
1392.000000	53.987600
1391.000000	54.204500
1390.000000	54.411400
1389.000000	54.720700
1388.000000	55.004800
1387.000000	55.202500
1386.000000	55.444600
1385.000000	55.711300
1384.000000	55.889400
1383.000000	56.120600
1382.000000	56.300200
1381.000000	56.427100
1380.000000	56.479900
1379.000000	56.588000
1378.000000	56.678900
1377.000000	56.787100
1376.000000	56.866100
1375.000000	56.952900
1374.000000	57.059700
1373.000000	57.211600
1372.000000	57.299100
1371.000000	57.409400
1370.000000	57.469100
1369.000000	57.572800
1368.000000	57.695400
1367.000000	57.762900
1366.000000	57.836900
1365.000000	57.940200
1364.000000	58.015000
1363.000000	58.076300
1362.000000	58.190100
1361.000000	58.238400
1360.000000	58.218300
1359.000000	58.288400
1358.000000	58.335400
1357.000000	58.392100
1356.000000	58.490100
1355.000000	58.597400
1354.000000	58.657800
1353.000000	58.699100
1352.000000	58.831800
1351.000000	58.964200
1350.000000	59.077400
1349.000000	59.195300
1348.000000	59.328800
1347.000000	59.439500
1346.000000	59.527800
1345.000000	59.641100
1344.000000	59.757100
1343.000000	59.853100
1342.000000	59.962100
1341.000000	60.063500
1340.000000	60.156300
1339.000000	60.243500
1338.000000	60.332000
1337.000000	60.425400
1336.000000	60.508400
1335.000000	60.587000
1334.000000	60.667000
1333.000000	60.742200
1332.000000	60.805700
1331.000000	60.869100
1330.000000	60.926200
1329.000000	60.994500
1328.000000	61.053700
1327.000000	61.101300
1326.000000	61.141300
1325.000000	61.183400
1324.000000	61.233500
1323.000000	61.282500
1322.000000	61.324300
1321.000000	61.373400
1320.000000	61.412000
1319.000000	61.438600
1318.000000	61.476400
1317.000000	61.504700
1316.000000	61.541800
1315.000000	61.582600
1314.000000	61.613200
1313.000000	61.638300
1312.000000	61.663300
1311.000000	61.691800
1310.000000	61.715200
1309.000000	61.738300
1308.000000	61.760000
1307.000000	61.772700
1306.000000	61.791800
1305.000000	61.808400
1304.000000	61.823500
1303.000000	61.842200
1302.000000	61.849100
1301.000000	61.855400
1300.000000	61.861300
1299.000000	61.857000
1298.000000	61.856600
1297.000000	61.862200
1296.000000	61.866000
1295.000000	61.870900
1294.000000	61.874100
1293.000000	61.875200
1292.000000	61.876400
1291.000000	61.876200
1290.000000	61.870700
1289.000000	61.862500
1288.000000	61.843600
1287.000000	61.841400
1286.000000	61.835800
1285.000000	61.820800
1284.000000	61.815500
1283.000000	61.800700
1282.000000	61.790800
1281.000000	61.784300
1280.000000	61.776000
1279.000000	61.766300
1278.000000	61.769100
1277.000000	61.764800
1276.000000	61.767900
1275.000000	61.771900
1274.000000	61.788000
1273.000000	61.809300
1272.000000	61.802500
1271.000000	61.814900
1270.000000	61.837100
1269.000000	61.852500
1268.000000	61.862000
1267.000000	61.876200
1266.000000	61.878000
1265.000000	61.888900
1264.000000	61.909000
1263.000000	61.917300
1262.000000	61.922100
1261.000000	61.939800
1260.000000	61.944100
1259.000000	61.953200
1258.000000	61.969400
1257.000000	61.967400
1256.000000	61.974100
1255.000000	61.971400
1254.000000	61.983300
1253.000000	61.965200
1252.000000	61.969700
1251.000000	61.951500
1250.000000	61.944700
1249.000000	61.933800
1248.000000	61.916300
1247.000000	61.887300
1246.000000	61.861200
1245.000000	61.846700
1244.000000	61.834100
1243.000000	61.809700
1242.000000	61.782600
1241.000000	61.772600
1240.000000	61.764800
1239.000000	61.740400
1238.000000	61.722200
1237.000000	61.715900
1236.000000	61.699800
1235.000000	61.695100
1234.000000	61.677700
1233.000000	61.671400
1232.000000	61.655700
1231.000000	61.663300
1230.000000	61.646000
1229.000000	61.628800
1228.000000	61.617100
1227.000000	61.592000
1226.000000	61.571300
1225.000000	61.566200
1224.000000	61.560300
1223.000000	61.544000
1222.000000	61.510900
1221.000000	61.488200
1220.000000	61.465600
1219.000000	61.441100
1218.000000	61.421500
1217.000000	61.404900
1216.000000	61.371000
1215.000000	61.344700
1214.000000	61.322700
1213.000000	61.276800
1212.000000	61.239500
1211.000000	61.231700
1210.000000	61.193800
1209.000000	61.141900
1208.000000	61.099800
1207.000000	61.065700
1206.000000	60.999400
1205.000000	60.962700
1204.000000	60.915900
1203.000000	60.884000
1202.000000	60.826700
1201.000000	60.785300
1200.000000	60.733300
1199.000000	60.683000
1198.000000	60.639600
1197.000000	60.590400
1196.000000	60.555800
1195.000000	60.481600
1194.000000	60.436000
1193.000000	60.375500
1192.000000	60.325900
1191.000000	60.292000
1190.000000	60.244800
1189.000000	60.208500
1188.000000	60.197800
1187.000000	60.199400
1186.000000	60.199000
1185.000000	60.194600
1184.000000	60.219800
1183.000000	60.239300
1182.000000	60.274300
1181.000000	60.305300
1180.000000	60.349000
1179.000000	60.406400
1178.000000	60.448400
1177.000000	60.493400
1176.000000	60.539700
1175.000000	60.567800
1174.000000	60.646200
1173.000000	60.685100
1172.000000	60.747700
1171.000000	60.805900
1170.000000	60.857800
1169.000000	60.952800
1168.000000	61.030800
1167.000000	61.122700
1166.000000	61.223900
1165.000000	61.312100
1164.000000	61.400700
1163.000000	61.482800
1162.000000	61.584900
1161.000000	61.675200
1160.000000	61.750500
1159.000000	61.859900
1158.000000	61.953800
1157.000000	62.018000
1156.000000	62.086900
1155.000000	62.172000
1154.000000	62.237100
1153.000000	62.306800
1152.000000	62.348200
1151.000000	62.414200
1150.000000	62.458600
1149.000000	62.502500
1148.000000	62.547600
1147.000000	62.611800
1146.000000	62.663000
1145.000000	62.714900
1144.000000	62.779100
1143.000000	62.823200
1142.000000	62.900300
1141.000000	62.953100
1140.000000	63.027400
1139.000000	63.085400
1138.000000	63.168700
1137.000000	63.278700
1136.000000	63.357300
1135.000000	63.453000
1134.000000	63.516800
1133.000000	63.548400
1132.000000	63.598000
1131.000000	63.664200
1130.000000	63.716900
1129.000000	63.778900
1128.000000	63.808500
1127.000000	63.840900
1126.000000	63.881200
1125.000000	63.907800
1124.000000	63.943800
1123.000000	63.949600
1122.000000	63.955400
1121.000000	63.943400
1120.000000	63.947700
1119.000000	63.963100
1118.000000	63.969600
1117.000000	63.941500
1116.000000	63.943500
1115.000000	63.934900
1114.000000	63.927300
1113.000000	63.919400
1112.000000	63.922700
1111.000000	63.911000
1110.000000	63.889700
1109.000000	63.875400
1108.000000	63.872100
1107.000000	63.871800
1106.000000	63.842400
1105.000000	63.846400
1104.000000	63.816500
1103.000000	63.797000
1102.000000	63.785800
1101.000000	63.787300
1100.000000	63.759300
1099.000000	63.745100
1098.000000	63.721900
1097.000000	63.722200
1096.000000	63.699800
1095.000000	63.689000
1094.000000	63.648100
1093.000000	63.631600
1092.000000	63.619800
1091.000000	63.588300
1090.000000	63.549100
1089.000000	63.522000
1088.000000	63.514000
1087.000000	63.477700
1086.000000	63.451500
1085.000000	63.432700
1084.000000	63.388500
1083.000000	63.370000
1082.000000	63.346700
1081.000000	63.309500
1080.000000	63.287900
1079.000000	63.248000
1078.000000	63.222100
1077.000000	63.202300
1076.000000	63.165700
1075.000000	63.121600
1074.000000	63.082100
1073.000000	63.054300
1072.000000	63.030200
1071.000000	63.001300
1070.000000	62.964800
1069.000000	62.940600
1068.000000	62.922000
1067.000000	62.863900
1066.000000	62.831600
1065.000000	62.809900
1064.000000	62.770800
1063.000000	62.749400
1062.000000	62.727200
1061.000000	62.701900
1060.000000	62.657200
1059.000000	62.636600
1058.000000	62.616600
1057.000000	62.590900
1056.000000	62.551500
1055.000000	62.521400
1054.000000	62.498800
1053.000000	62.465100
1052.000000	62.436900
1051.000000	62.409900
1050.000000	62.392600
1049.000000	62.367200
1048.000000	62.334900
1047.000000	62.313900
1046.000000	62.298500
1045.000000	62.271700
1044.000000	62.249500
1043.000000	62.231100
1042.000000	62.200600
1041.000000	62.170200
1040.000000	62.151500
1039.000000	62.137600
1038.000000	62.104500
1037.000000	62.073200
1036.000000	62.052300
1035.000000	62.027900
1034.000000	62.000200
1033.000000	61.969500
1032.000000	61.950900
1031.000000	61.923400
1030.000000	61.900700
1029.000000	61.884400
1028.000000	61.837000
1027.000000	61.805500
1026.000000	61.779600
1025.000000	61.732700
1024.000000	61.703900
1023.000000	61.679400
1022.000000	61.645900
1021.000000	61.611300
1020.000000	61.582100
1019.000000	61.548400
1018.000000	61.520900
1017.000000	61.494400
1016.000000	61.459700
1015.000000	61.427900
1014.000000	61.402700
1013.000000	61.366900
1012.000000	61.343300
1011.000000	61.317600
1010.000000	61.284300
1009.000000	61.245100
1008.000000	61.211800
1007.000000	61.186400
1006.000000	61.164200
1005.000000	61.124200
1004.000000	61.082500
1003.000000	61.057300
1002.000000	61.025500
1001.000000	60.968600
1000.000000	60.932000
999.000000	60.899500
998.000000	60.887700
997.000000	60.859100
996.000000	60.804400
995.000000	60.749400
994.000000	60.732500
993.000000	60.715000
992.000000	60.668600
991.000000	60.636900
990.000000	60.622100
989.000000	60.590700
988.000000	60.562700
987.000000	60.528600
986.000000	60.501600
985.000000	60.487300
984.000000	60.487500
983.000000	60.443500
982.000000	60.414500
981.000000	60.426100
980.000000	60.396500
979.000000	60.387500
978.000000	60.377700
977.000000	60.386700
976.000000	60.367200
975.000000	60.373800
974.000000	60.369300
973.000000	60.378600
972.000000	60.370500
971.000000	60.376300
970.000000	60.380300
969.000000	60.383200
968.000000	60.409000
967.000000	60.428000
966.000000	60.448300
965.000000	60.448700
964.000000	60.474000
963.000000	60.494000
962.000000	60.498500
961.000000	60.536400
960.000000	60.542700
959.000000	60.557800
958.000000	60.594700
957.000000	60.623500
956.000000	60.624000
955.000000	60.662000
954.000000	60.686300
953.000000	60.707700
952.000000	60.753800
951.000000	60.762500
950.000000	60.792700
949.000000	60.775900
948.000000	60.792900
947.000000	60.824600
946.000000	60.851300
945.000000	60.854600
944.000000	60.889800
943.000000	60.876600
942.000000	60.863200
941.000000	60.881600
940.000000	60.877200
939.000000	60.909800
938.000000	60.917900
937.000000	60.907800
936.000000	60.912400
935.000000	60.935300
934.000000	60.977900
933.000000	60.981000
932.000000	60.984100
931.000000	60.992400
930.000000	61.054200
929.000000	61.058200
928.000000	61.077100
927.000000	61.130800
926.000000	61.154300
925.000000	61.163300
924.000000	61.191400
923.000000	61.212800
922.000000	61.269700
921.000000	61.354000
920.000000	61.374600
919.000000	61.411200
918.000000	61.451600
917.000000	61.498300
916.000000	61.536700
915.000000	61.601300
914.000000	61.656700
913.000000	61.700400
912.000000	61.783000
911.000000	61.843700
910.000000	61.900200
909.000000	61.967300
908.000000	62.111300
907.000000	62.156300
906.000000	62.199700
905.000000	62.252500
904.000000	62.336100
903.000000	62.385100
902.000000	62.432200
901.000000	62.502000
900.000000	62.540900
899.000000	62.585800
898.000000	62.575700
897.000000	62.616700
896.000000	62.660100
895.000000	62.674700
894.000000	62.672100
893.000000	62.693000
892.000000	62.627100
891.000000	62.637000
890.000000	62.648200
889.000000	62.624900
888.000000	62.553900
887.000000	62.540000
886.000000	62.508000
885.000000	62.443600
884.000000	62.302400
883.000000	62.194600
882.000000	62.057800
881.000000	61.920800
880.000000	61.721600
879.000000	61.647200
878.000000	61.493200
877.000000	61.264100
876.000000	61.084700
875.000000	60.779800
874.000000	60.543400
873.000000	60.122500
872.000000	59.759100
871.000000	59.459900
870.000000	58.962700
869.000000	58.431400
868.000000	57.884500
867.000000	57.420900
866.000000	57.213800
865.000000	57.246500
864.000000	57.326400
863.000000	57.437000
862.000000	57.510900
861.000000	57.590200
860.000000	57.671400
859.000000	57.715700
858.000000	59.466600
857.000000	58.039300
856.000000	57.409833
855.000000	58.174216
854.000000	58.194041
853.000000	58.113142
852.000000	58.469081
851.000000	58.342818
850.000000	58.458496
849.000000	58.564346
848.000000	58.818804
847.000000	59.077294
846.000000	59.225987
845.000000	59.247073
844.000000	59.257238
843.000000	59.420548
842.000000	59.444574
841.000000	59.441886
840.000000	59.344101
839.000000	59.564117
838.000000	59.650896
837.000000	59.746496
836.000000	59.742044
835.000000	59.690632
834.000000	59.786904
833.000000	60.034557
832.000000	59.792616
831.000000	59.766238
830.000000	60.020780
829.000000	60.154352
828.000000	60.067992
827.000000	59.917787
826.000000	59.926944
825.000000	59.866963
824.000000	59.816138
823.000000	59.843693
822.000000	59.711885
821.000000	59.684331
820.000000	59.704409
819.000000	59.747336
818.000000	59.752881
817.000000	59.564537
816.000000	59.706341
815.000000	59.605952
814.000000	59.505143
813.000000	59.447010
812.000000	59.458099
811.000000	59.416600
810.000000	59.420044
809.000000	59.340741
808.000000	59.327636
807.000000	59.296553
806.000000	59.155673
805.000000	59.093340
804.000000	59.052008
803.000000	58.990683
802.000000	58.917932
801.000000	58.878113
800.000000	58.919865
799.000000	58.772600
798.000000	58.758150
797.000000	58.653477
796.000000	58.597697
795.000000	58.575435
794.000000	58.480086
793.000000	58.531835
792.000000	58.447996
791.000000	58.367937
790.000000	58.257971
789.000000	58.189757
788.000000	58.132632
787.000000	58.069291
786.000000	57.929082
785.000000	57.777029
784.000000	57.716712
783.000000	57.561214
782.000000	57.478719
781.000000	57.383203
780.000000	57.324902
779.000000	57.272145
778.000000	57.121016
777.000000	56.960310
776.000000	56.838164
775.000000	56.739791
774.000000	56.723074
773.000000	56.614536
772.000000	56.429804
771.000000	56.262966
770.000000	56.165181
769.000000	55.968604
768.000000	55.818063
767.000000	55.728427
766.000000	55.631735
765.000000	55.497323
764.000000	55.376353
763.000000	55.278652
762.000000	55.156085
761.000000	55.035703
760.000000	54.920865
759.000000	54.808715
758.000000	54.715467
757.000000	54.663887
756.000000	54.543924
755.000000	54.429926
754.000000	54.431102
753.000000	54.296187
752.000000	54.260232
751.000000	54.275521
750.000000	54.173620
749.000000	54.071887
748.000000	53.970826
747.000000	53.907065
746.000000	53.823394
745.000000	53.769881
744.000000	53.680581
743.000000	53.628917
742.000000	53.629757
741.000000	53.569860
740.000000	53.494925
739.000000	53.487784
738.000000	53.466447
737.000000	53.395628
736.000000	53.392772
735.000000	53.313805
734.000000	53.220137
733.000000	53.205688
732.000000	53.162424
731.000000	53.095302
730.000000	53.060019
729.000000	53.069344
728.000000	53.003230
727.000000	52.919475
726.000000	52.854957
725.000000	52.751292
724.000000	52.656868
723.000000	52.647795
722.000000	52.586302
721.000000	52.471296
720.000000	52.357718
719.000000	52.295721
718.000000	52.184327
717.000000	52.091079
716.000000	51.970193
715.000000	51.848634
714.000000	51.718843
713.000000	51.621058
712.000000	51.453800
711.000000	51.295866
710.000000	51.214463
709.000000	51.054177
708.000000	50.866253
707.000000	50.727641
706.000000	50.593229
705.000000	50.428071
704.000000	50.275597
703.000000	50.164792
702.000000	50.037185
701.000000	49.913778
700.000000	49.793059
699.000000	49.647223
698.000000	49.537257
697.000000	49.448377
696.000000	49.377139
695.000000	49.304809
694.000000	49.244156
693.000000	49.183754
692.000000	49.117557
691.000000	49.117809
690.000000	49.071185
689.000000	49.047999
688.000000	48.987429
687.000000	48.977600
686.000000	49.009691
685.000000	48.979953
684.000000	48.983649
683.000000	48.960715
682.000000	48.954162
681.000000	48.935093
680.000000	48.924508
679.000000	48.924508
678.000000	48.952902
677.000000	48.949122
676.000000	48.961807
675.000000	48.921568
674.000000	48.927196
673.000000	48.882756
672.000000	48.869231
671.000000	48.847305
670.000000	48.818407
669.000000	48.788920
668.000000	48.693572
667.000000	48.577474
666.000000	48.494474
665.000000	48.374848
664.000000	48.214562
663.000000	48.037055
662.000000	47.888026
661.000000	47.663726
660.000000	47.506381
659.000000	47.243102
658.000000	46.973270
657.000000	46.688906
656.000000	46.428819
655.000000	46.127821
654.000000	45.820018
653.000000	45.529437
652.000000	45.255321
651.000000	44.890645
650.000000	44.553104
649.000000	44.287053
648.000000	43.958332
647.000000	43.667247
646.000000	43.341383
645.000000	43.033076
644.000000	42.788615
643.000000	42.519287
642.000000	42.240047
641.000000	42.029441
640.000000	41.873019
639.000000	41.723486
638.000000	41.640151
637.000000	41.581598
636.000000	41.599491
635.000000	41.638051
634.000000	41.774478
633.000000	41.960303
632.000000	42.222405
631.000000	42.505006
630.000000	42.818773
629.000000	43.227805
628.000000	43.629192
627.000000	44.024698
626.000000	44.428941
625.000000	44.905263
624.000000	45.321183
623.000000	45.791372
622.000000	46.211408
621.000000	46.629512
620.000000	47.053497
619.000000	47.427330
618.000000	47.805447
617.000000	48.186840
616.000000	48.561344
615.000000	48.914427
614.000000	49.306573
613.000000	49.675533
612.000000	50.101618
611.000000	50.549713
610.000000	50.945471
609.000000	51.379117
608.000000	51.780588
607.000000	52.140139
606.000000	52.518760
605.000000	52.890325
604.000000	53.267937
603.000000	53.571708
602.000000	53.876822
601.000000	54.168580
600.000000	54.449500
599.000000	54.638684
598.000000	54.848535
597.000000	55.061577
596.000000	55.171039
595.000000	55.309987
594.000000	55.456748
593.000000	55.609977
592.000000	55.773875
591.000000	55.876868
590.000000	56.004559
589.000000	56.104864
588.000000	56.221718
587.000000	56.307405
586.000000	56.402922
585.000000	56.448454
584.000000	56.600087
583.000000	56.672501
582.000000	56.732230
581.000000	56.863198
580.000000	56.987193
579.000000	57.075568
578.000000	57.208384
577.000000	57.298188
576.000000	57.407145
575.000000	57.456793
574.000000	57.577848
573.000000	57.656983
572.000000	57.719904
571.000000	57.771149
570.000000	57.800719
569.000000	57.810968
568.000000	57.817437
567.000000	57.781314
566.000000	57.728305
565.000000	57.641273
564.000000	57.558106
563.000000	57.424787
562.000000	57.298944
561.000000	57.201915
560.000000	57.069016
559.000000	56.884200
558.000000	56.778014
557.000000	56.674349
556.000000	56.531705
555.000000	56.349829
554.000000	56.201220
553.000000	56.003299
552.000000	55.781100
551.000000	55.522441
550.000000	55.217327
549.000000	54.864748
548.000000	54.481255
547.000000	54.013418
546.000000	53.553898
545.000000	52.975928
544.000000	52.384685
543.000000	51.741105
542.000000	51.061990
541.000000	50.333562
540.000000	49.567500
539.000000	48.792868
538.000000	48.003116
537.000000	47.218236
536.000000	46.432851
535.000000	45.628145
534.000000	44.828480
533.000000	44.040827
532.000000	43.256619
531.000000	42.521807
530.000000	41.801445
529.000000	41.106956
528.000000	40.436494
527.000000	39.765864
526.000000	39.123376
525.000000	38.496850
524.000000	37.881496
523.000000	37.255978
522.000000	36.668851
521.000000	36.094745
520.000000	35.512322
519.000000	34.942837
518.000000	34.425352
517.000000	33.930465
516.000000	33.416844
515.000000	32.916749
514.000000	32.425558
513.000000	31.959401
512.000000	31.499041
511.000000	31.065312
510.000000	30.658548
509.000000	30.251533
508.000000	29.865856
507.000000	29.520081
506.000000	29.187077
505.000000	28.857852
504.000000	28.529299
503.000000	28.215364
502.000000	27.892104
501.000000	27.607151
500.000000	27.314470
499.000000	27.031197
498.000000	26.748513
497.000000	26.493298
496.000000	26.183480
495.000000	25.879961
494.000000	25.562078
493.000000	25.270656
492.000000	24.967642
491.000000	24.661519
490.000000	24.345148
489.000000	24.022560
488.000000	23.716101
487.000000	23.399058
486.000000	23.085542
485.000000	22.787568
484.000000	22.483882
483.000000	22.200441
482.000000	21.899863
481.000000	21.613650
480.000000	21.333402
479.000000	21.078608
478.000000	20.824906
477.000000	20.582881
476.000000	20.351945
475.000000	20.130669
474.000000	19.918551
473.000000	19.725250
472.000000	19.555640
471.000000	19.379224
470.000000	19.192056
469.000000	19.032694
468.000000	18.869804
467.000000	18.705738
466.000000	18.551416
465.000000	18.390542
464.000000	18.231600
463.000000	18.056697
462.000000	17.868437
461.000000	17.665391
460.000000	17.451257
459.000000	17.243591
458.000000	17.013075
457.000000	16.770629
456.000000	16.515163
455.000000	16.238275
454.000000	15.945006
453.000000	15.631154
452.000000	15.327216
451.000000	15.022186
450.000000	14.711190
449.000000	14.408092
448.000000	14.110622
447.000000	13.833482
446.000000	13.573816
445.000000	13.331959
444.000000	13.108247
443.000000	12.901253
442.000000	12.718957
441.000000	12.570600
440.000000	12.447026
439.000000	12.354282
438.000000	12.269854
437.000000	12.223818
436.000000	12.224154
435.000000	12.217602
434.000000	12.212981
433.000000	12.230623
432.000000	12.279011
431.000000	12.317907
430.000000	12.345965
429.000000	12.398722
428.000000	12.462231
427.000000	12.511963
426.000000	12.551951
425.000000	12.594879
424.000000	12.628397
423.000000	12.665697
422.000000	12.687035
421.000000	12.699720
420.000000	12.709885
419.000000	12.703500
418.000000	12.674686
417.000000	12.654860
416.000000	12.617057
415.000000	12.559343
414.000000	12.508099
413.000000	12.438205
412.000000	12.336136
411.000000	12.262126
410.000000	12.180051
409.000000	12.088987
408.000000	11.983641
407.000000	11.871156
406.000000	11.746657
405.000000	11.606869
404.000000	11.459604
403.000000	11.301838
402.000000	11.156254
401.000000	10.984711
400.000000	10.818124
399.000000	10.636416
398.000000	10.458237
397.000000	10.264516
396.000000	10.056430
395.000000	9.838095
394.000000	9.620264
393.000000	9.417050
392.000000	9.198631
391.000000	8.972316
390.000000	8.738439
389.000000	8.526069
388.000000	8.308238
387.000000	8.076378
386.000000	7.877113
385.000000	7.661382
384.000000	7.454724
383.000000	7.260499
382.000000	7.069550
381.000000	6.905820
380.000000	6.723776
379.000000	6.559038
378.000000	6.422862
377.000000	6.282906
376.000000	6.156979
375.000000	5.665788
374.000000	5.528352
373.000000	5.557503
372.000000	5.306573
371.000000	5.443085
370.000000	5.352357
369.000000	5.395117
368.000000	5.360170
367.000000	5.231135
366.000000	5.125873
365.000000	5.194339
364.000000	5.188963
363.000000	5.079081
362.000000	5.055055
361.000000	5.127638
360.000000	5.152000
359.000000	5.052283
358.000000	5.026157
357.000000	4.962731
356.000000	4.870659
355.000000	4.804798
354.000000	4.933749
353.000000	4.883848
352.000000	4.978693
351.000000	4.823279
350.000000	4.786988
349.000000	4.740532
348.000000	4.765818
347.000000	4.887881
346.000000	4.872423
345.000000	4.836216
344.000000	4.802529
343.000000	4.881916
342.000000	4.853354
341.000000	4.828152
340.000000	4.956683
339.000000	4.814962
338.000000	4.791104
337.000000	5.020612
336.000000	4.904262
335.000000	4.731291
334.000000	5.139819
333.000000	5.005743
332.000000	4.942318
331.000000	4.762038
330.000000	4.854866
329.000000	4.984405
328.000000	4.900314
327.000000	4.874944
326.000000	5.322115
325.000000	5.030441
324.000000	4.923416
323.000000	4.794465
322.000000	4.863015
321.000000	5.101007
320.000000	5.440565
319.000000	5.545238
318.000000	5.435356
317.000000	5.586906
316.000000	4.855622
315.000000	4.814038
314.000000	4.828740
313.000000	4.770439
312.000000	4.788836
311.000000	4.817483
310.000000	4.828740
309.000000	4.799673
308.000000	4.746497
307.000000	4.763634
306.000000	4.773715
305.000000	4.813618
304.000000	4.782452
303.000000	4.787240
302.000000	4.758846
301.000000	4.785392
300.000000	4.800597
299.000000	4.775899
298.000000	4.775731
297.000000	4.805722
296.000000	4.776907
295.000000	4.815635
294.000000	4.771195
293.000000	4.732719
292.000000	4.803621
291.000000	4.781024
290.000000	4.794045
289.000000	4.759014
288.000000	4.839409
287.000000	4.820255
286.000000	4.842433
285.000000	4.829244
284.000000	4.833780
283.000000	4.813870
282.000000	4.825379
281.000000	4.806394
280.000000	4.925768
279.000000	4.872507
278.000000	4.833444
277.000000	4.924256
276.000000	4.897878
275.000000	4.919047
274.000000	4.912243
273.000000	4.944754
272.000000	4.950802
271.000000	5.013640
270.000000	4.992302
269.000000	4.989446
268.000000	5.068412
267.000000	5.067572
266.000000	5.096975
265.000000	5.048587
264.000000	5.108316
263.000000	5.141247
262.000000	5.094959
261.000000	5.164517
260.000000	5.212821
259.000000	5.252893
258.000000	5.254405
257.000000	5.231135
256.000000	5.293972
255.000000	5.271290
254.000000	5.248188
253.000000	5.311362
252.000000	5.324887
251.000000	5.343956
250.000000	5.352021
