PE UV       SUBTECH     SPECTRUM    ASCII       PEDS        4.00        
   -1
CICIMAUCR0113-3.Sample.ASC
24/04/18
16:30:55.00
24/04/18
16:30:55.00
Vinicio Soto Monge
C. kalinini
250,000000
1
Lambda 1050
1050L1511233
PerkinElmer UV WinLab 6.3.2.0749 / 2.02.05 Lambda 900 UV/VIS/NIR, Aug  7 2015 09:38:08

0
0
3350/servo 860,8/2
0
0
UV/VIS
1
1
1
DoubleDePol,CommonBeamDepol,RBeamAtt,SBeamAtt,60mm sphere, WB InGaAs Detector
0
0
0
0
Program
Program
3350/servo 860,8/2
3350/0,2 860,8/0,2
3350/0,2 860,8/0,2
0
15.00
 
 
 
0
 
860,8
319,2
860,8
Front
100
on
S:100 R:100
0
0
0
0
 
0
 
 
 
0
 
 
0
0
0
0
0
 
 
 
 
0
0


0
0
#HDR
-1
-1
#GR
nm
%R
1.0
0.0
2500,000000
-1,000000
2251
8
57,813900
3,274400
#DATA
2500.000000	10.934800
2499.000000	10.907800
2498.000000	10.933500
2497.000000	10.848200
2496.000000	10.895900
2495.000000	10.851800
2494.000000	10.745800
2493.000000	10.793900
2492.000000	10.816700
2491.000000	10.812200
2490.000000	10.685400
2489.000000	10.775600
2488.000000	10.769600
2487.000000	10.730900
2486.000000	10.770200
2485.000000	10.718800
2484.000000	10.664300
2483.000000	10.691300
2482.000000	10.630800
2481.000000	10.653500
2480.000000	10.600600
2479.000000	10.647000
2478.000000	10.607300
2477.000000	10.616500
2476.000000	10.541300
2475.000000	10.584500
2474.000000	10.582800
2473.000000	10.559200
2472.000000	10.550000
2471.000000	10.550700
2470.000000	10.534900
2469.000000	10.530400
2468.000000	10.552300
2467.000000	10.565100
2466.000000	10.530700
2465.000000	10.544000
2464.000000	10.515800
2463.000000	10.542400
2462.000000	10.572500
2461.000000	10.601300
2460.000000	10.613800
2459.000000	10.660000
2458.000000	10.678200
2457.000000	10.702600
2456.000000	10.718900
2455.000000	10.772100
2454.000000	10.819300
2453.000000	10.878500
2452.000000	10.919900
2451.000000	10.977000
2450.000000	11.012600
2449.000000	11.063300
2448.000000	11.140300
2447.000000	11.213600
2446.000000	11.270700
2445.000000	11.294200
2444.000000	11.363400
2443.000000	11.407400
2442.000000	11.479600
2441.000000	11.545500
2440.000000	11.586500
2439.000000	11.629600
2438.000000	11.688500
2437.000000	11.742600
2436.000000	11.805100
2435.000000	11.842500
2434.000000	11.897500
2433.000000	11.934600
2432.000000	11.950600
2431.000000	11.990200
2430.000000	12.037700
2429.000000	12.063400
2428.000000	12.120600
2427.000000	12.151400
2426.000000	12.157400
2425.000000	12.188800
2424.000000	12.216100
2423.000000	12.245800
2422.000000	12.270400
2421.000000	12.325500
2420.000000	12.372300
2419.000000	12.393500
2418.000000	12.423600
2417.000000	12.463100
2416.000000	12.481500
2415.000000	12.501000
2414.000000	12.527300
2413.000000	12.554600
2412.000000	12.582600
2411.000000	12.591000
2410.000000	12.618400
2409.000000	12.637000
2408.000000	12.647000
2407.000000	12.668400
2406.000000	12.698500
2405.000000	12.706300
2404.000000	12.720900
2403.000000	12.741300
2402.000000	12.749600
2401.000000	12.758800
2400.000000	12.776300
2399.000000	12.802100
2398.000000	12.822500
2397.000000	12.838000
2396.000000	12.843300
2395.000000	12.858200
2394.000000	12.858700
2393.000000	12.870500
2392.000000	12.894100
2391.000000	12.903400
2390.000000	12.901300
2389.000000	12.890300
2388.000000	12.892500
2387.000000	12.913000
2386.000000	12.923200
2385.000000	12.912000
2384.000000	12.909300
2383.000000	12.904100
2382.000000	12.887500
2381.000000	12.870800
2380.000000	12.855100
2379.000000	12.838300
2378.000000	12.811400
2377.000000	12.796000
2376.000000	12.785300
2375.000000	12.757100
2374.000000	12.727600
2373.000000	12.692400
2372.000000	12.667400
2371.000000	12.641400
2370.000000	12.617500
2369.000000	12.586400
2368.000000	12.533400
2367.000000	12.495100
2366.000000	12.449900
2365.000000	12.399800
2364.000000	12.353100
2363.000000	12.294100
2362.000000	12.239200
2361.000000	12.188200
2360.000000	12.129000
2359.000000	12.084000
2358.000000	12.045900
2357.000000	11.989100
2356.000000	11.937900
2355.000000	11.905500
2354.000000	11.887800
2353.000000	11.868700
2352.000000	11.863100
2351.000000	11.864700
2350.000000	11.863800
2349.000000	11.861300
2348.000000	11.886200
2347.000000	11.923000
2346.000000	11.939100
2345.000000	11.958900
2344.000000	11.990700
2343.000000	12.022900
2342.000000	12.048800
2341.000000	12.058900
2340.000000	12.078200
2339.000000	12.096900
2338.000000	12.104000
2337.000000	12.102200
2336.000000	12.098100
2335.000000	12.088700
2334.000000	12.084200
2333.000000	12.067400
2332.000000	12.016000
2331.000000	11.979600
2330.000000	11.941200
2329.000000	11.891500
2328.000000	11.849700
2327.000000	11.810500
2326.000000	11.731700
2325.000000	11.640500
2324.000000	11.580400
2323.000000	11.532100
2322.000000	11.449100
2321.000000	11.367800
2320.000000	11.287500
2319.000000	11.201600
2318.000000	11.114400
2317.000000	11.036100
2316.000000	10.913600
2315.000000	10.816400
2314.000000	10.726800
2313.000000	10.649500
2312.000000	10.566100
2311.000000	10.495400
2310.000000	10.425900
2309.000000	10.359700
2308.000000	10.317100
2307.000000	10.299800
2306.000000	10.287800
2305.000000	10.280900
2304.000000	10.290000
2303.000000	10.303000
2302.000000	10.361900
2301.000000	10.432200
2300.000000	10.465000
2299.000000	10.511300
2298.000000	10.570900
2297.000000	10.649700
2296.000000	10.690000
2295.000000	10.764000
2294.000000	10.834200
2293.000000	10.875500
2292.000000	10.898700
2291.000000	10.932000
2290.000000	10.952000
2289.000000	10.973500
2288.000000	10.969300
2287.000000	10.976100
2286.000000	10.958400
2285.000000	10.937100
2284.000000	10.925100
2283.000000	10.914000
2282.000000	10.882300
2281.000000	10.838500
2280.000000	10.804200
2279.000000	10.775600
2278.000000	10.749100
2277.000000	10.718500
2276.000000	10.694100
2275.000000	10.674000
2274.000000	10.662200
2273.000000	10.630500
2272.000000	10.651800
2271.000000	10.667700
2270.000000	10.672300
2269.000000	10.696400
2268.000000	10.745400
2267.000000	10.796100
2266.000000	10.877400
2265.000000	10.956700
2264.000000	11.059700
2263.000000	11.209100
2262.000000	11.339200
2261.000000	11.504900
2260.000000	11.641400
2259.000000	11.815100
2258.000000	12.018700
2257.000000	12.230300
2256.000000	12.430700
2255.000000	12.639800
2254.000000	12.833300
2253.000000	13.047500
2252.000000	13.230800
2251.000000	13.414800
2250.000000	13.590000
2249.000000	13.762100
2248.000000	13.938300
2247.000000	14.104100
2246.000000	14.238100
2245.000000	14.368300
2244.000000	14.515700
2243.000000	14.610000
2242.000000	14.726500
2241.000000	14.823400
2240.000000	14.902600
2239.000000	15.009200
2238.000000	15.067600
2237.000000	15.136600
2236.000000	15.193800
2235.000000	15.252500
2234.000000	15.321100
2233.000000	15.358300
2232.000000	15.395400
2231.000000	15.437700
2230.000000	15.441500
2229.000000	15.467900
2228.000000	15.467000
2227.000000	15.461900
2226.000000	15.462600
2225.000000	15.481600
2224.000000	15.442100
2223.000000	15.413900
2222.000000	15.375900
2221.000000	15.374400
2220.000000	15.342000
2219.000000	15.293400
2218.000000	15.264800
2217.000000	15.257400
2216.000000	15.217600
2215.000000	15.172700
2214.000000	15.131800
2213.000000	15.090400
2212.000000	15.063800
2211.000000	15.038300
2210.000000	15.012200
2209.000000	15.011300
2208.000000	14.950900
2207.000000	14.916600
2206.000000	14.908500
2205.000000	14.898900
2204.000000	14.883500
2203.000000	14.862600
2202.000000	14.851400
2201.000000	14.831200
2200.000000	14.818000
2199.000000	14.790300
2198.000000	14.760800
2197.000000	14.783500
2196.000000	14.762200
2195.000000	14.733700
2194.000000	14.739000
2193.000000	14.711400
2192.000000	14.695900
2191.000000	14.688300
2190.000000	14.667900
2189.000000	14.666200
2188.000000	14.675600
2187.000000	14.657500
2186.000000	14.636300
2185.000000	14.612900
2184.000000	14.604700
2183.000000	14.586600
2182.000000	14.591800
2181.000000	14.574300
2180.000000	14.566000
2179.000000	14.572200
2178.000000	14.566600
2177.000000	14.554700
2176.000000	14.550300
2175.000000	14.554700
2174.000000	14.541700
2173.000000	14.538400
2172.000000	14.541800
2171.000000	14.562400
2170.000000	14.590000
2169.000000	14.605400
2168.000000	14.609400
2167.000000	14.604100
2166.000000	14.618200
2165.000000	14.660500
2164.000000	14.683400
2163.000000	14.702500
2162.000000	14.740100
2161.000000	14.785200
2160.000000	14.826700
2159.000000	14.854600
2158.000000	14.898700
2157.000000	14.960100
2156.000000	14.995100
2155.000000	15.044900
2154.000000	15.097800
2153.000000	15.143100
2152.000000	15.198500
2151.000000	15.253400
2150.000000	15.306100
2149.000000	15.355600
2148.000000	15.415600
2147.000000	15.476400
2146.000000	15.526200
2145.000000	15.575300
2144.000000	15.627700
2143.000000	15.680500
2142.000000	15.734200
2141.000000	15.783000
2140.000000	15.833200
2139.000000	15.876600
2138.000000	15.912400
2137.000000	15.968400
2136.000000	16.013300
2135.000000	16.041400
2134.000000	16.090500
2133.000000	16.114800
2132.000000	16.131900
2131.000000	16.172600
2130.000000	16.192100
2129.000000	16.208500
2128.000000	16.234500
2127.000000	16.269700
2126.000000	16.287300
2125.000000	16.285700
2124.000000	16.289300
2123.000000	16.294600
2122.000000	16.307500
2121.000000	16.309300
2120.000000	16.308700
2119.000000	16.296000
2118.000000	16.285300
2117.000000	16.285900
2116.000000	16.278400
2115.000000	16.258500
2114.000000	16.220400
2113.000000	16.220100
2112.000000	16.218900
2111.000000	16.188700
2110.000000	16.164100
2109.000000	16.143200
2108.000000	16.128500
2107.000000	16.102700
2106.000000	16.088400
2105.000000	16.064900
2104.000000	16.043400
2103.000000	16.021700
2102.000000	15.981100
2101.000000	15.966900
2100.000000	15.954900
2099.000000	15.927000
2098.000000	15.903000
2097.000000	15.880400
2096.000000	15.874600
2095.000000	15.855900
2094.000000	15.820400
2093.000000	15.796200
2092.000000	15.775200
2091.000000	15.754400
2090.000000	15.743300
2089.000000	15.733900
2088.000000	15.718800
2087.000000	15.692300
2086.000000	15.671700
2085.000000	15.655000
2084.000000	15.634700
2083.000000	15.607100
2082.000000	15.570600
2081.000000	15.532000
2080.000000	15.499700
2079.000000	15.485100
2078.000000	15.448700
2077.000000	15.397900
2076.000000	15.354000
2075.000000	15.309700
2074.000000	15.264900
2073.000000	15.224000
2072.000000	15.164600
2071.000000	15.109300
2070.000000	15.057000
2069.000000	15.012500
2068.000000	14.975600
2067.000000	14.922100
2066.000000	14.863400
2065.000000	14.816900
2064.000000	14.769400
2063.000000	14.744000
2062.000000	14.715200
2061.000000	14.682000
2060.000000	14.657400
2059.000000	14.636800
2058.000000	14.618800
2057.000000	14.630100
2056.000000	14.640800
2055.000000	14.646100
2054.000000	14.671700
2053.000000	14.728100
2052.000000	14.798400
2051.000000	14.876800
2050.000000	14.942400
2049.000000	15.021400
2048.000000	15.130900
2047.000000	15.238500
2046.000000	15.370400
2045.000000	15.492700
2044.000000	15.607700
2043.000000	15.763400
2042.000000	15.897500
2041.000000	16.030600
2040.000000	16.156000
2039.000000	16.283600
2038.000000	16.410600
2037.000000	16.543200
2036.000000	16.660400
2035.000000	16.776600
2034.000000	16.904300
2033.000000	17.017400
2032.000000	17.096300
2031.000000	17.188800
2030.000000	17.296100
2029.000000	17.385600
2028.000000	17.465100
2027.000000	17.559100
2026.000000	17.627800
2025.000000	17.701900
2024.000000	17.744300
2023.000000	17.812100
2022.000000	17.871700
2021.000000	17.937500
2020.000000	17.998100
2019.000000	18.053900
2018.000000	18.109500
2017.000000	18.138800
2016.000000	18.179500
2015.000000	18.224300
2014.000000	18.248600
2013.000000	18.280600
2012.000000	18.323800
2011.000000	18.316800
2010.000000	18.355000
2009.000000	18.374400
2008.000000	18.375100
2007.000000	18.377200
2006.000000	18.367500
2005.000000	18.375500
2004.000000	18.375800
2003.000000	18.372600
2002.000000	18.349100
2001.000000	18.320800
2000.000000	18.301200
1999.000000	18.259500
1998.000000	18.228300
1997.000000	18.182100
1996.000000	18.157800
1995.000000	18.109300
1994.000000	18.067600
1993.000000	18.024200
1992.000000	17.955500
1991.000000	17.896600
1990.000000	17.827800
1989.000000	17.780200
1988.000000	17.695600
1987.000000	17.658400
1986.000000	17.578700
1985.000000	17.528700
1984.000000	17.448700
1983.000000	17.388900
1982.000000	17.302300
1981.000000	17.228000
1980.000000	17.166200
1979.000000	17.101200
1978.000000	17.026200
1977.000000	16.944000
1976.000000	16.885700
1975.000000	16.809900
1974.000000	16.743000
1973.000000	16.668800
1972.000000	16.627400
1971.000000	16.543000
1970.000000	16.481900
1969.000000	16.425700
1968.000000	16.376100
1967.000000	16.290300
1966.000000	16.244600
1965.000000	16.180800
1964.000000	16.114800
1963.000000	16.065300
1962.000000	16.006700
1961.000000	15.951200
1960.000000	15.852000
1959.000000	15.795000
1958.000000	15.754500
1957.000000	15.668500
1956.000000	15.624800
1955.000000	15.573000
1954.000000	15.508000
1953.000000	15.451400
1952.000000	15.392400
1951.000000	15.327900
1950.000000	15.260700
1949.000000	15.225700
1948.000000	15.200300
1947.000000	15.136200
1946.000000	15.090400
1945.000000	15.071900
1944.000000	15.055400
1943.000000	15.021000
1942.000000	14.978700
1941.000000	14.965700
1940.000000	14.989600
1939.000000	14.998700
1938.000000	15.008700
1937.000000	15.043200
1936.000000	15.052400
1935.000000	15.076200
1934.000000	15.092500
1933.000000	15.121200
1932.000000	15.188300
1931.000000	15.231900
1930.000000	15.312600
1929.000000	15.395000
1928.000000	15.498500
1927.000000	15.632500
1926.000000	15.731000
1925.000000	15.827900
1924.000000	15.937000
1923.000000	16.053800
1922.000000	16.177800
1921.000000	16.382800
1920.000000	16.575000
1919.000000	16.756500
1918.000000	16.923600
1917.000000	17.045800
1916.000000	17.174800
1915.000000	17.340800
1914.000000	17.567200
1913.000000	17.858600
1912.000000	18.119100
1911.000000	18.319900
1910.000000	18.523700
1909.000000	18.705500
1908.000000	18.886200
1907.000000	19.146100
1906.000000	19.452300
1905.000000	19.796000
1904.000000	20.127100
1903.000000	20.392500
1902.000000	20.653700
1901.000000	20.931600
1900.000000	21.242000
1899.000000	21.616800
1898.000000	21.932100
1897.000000	22.271700
1896.000000	22.527100
1895.000000	22.771300
1894.000000	23.066600
1893.000000	23.393000
1892.000000	23.751800
1891.000000	24.143900
1890.000000	24.493400
1889.000000	24.805800
1888.000000	25.164200
1887.000000	25.494000
1886.000000	25.857700
1885.000000	26.267200
1884.000000	26.711900
1883.000000	27.136800
1882.000000	27.550000
1881.000000	27.986800
1880.000000	28.384100
1879.000000	28.759700
1878.000000	29.123000
1877.000000	29.475900
1876.000000	29.815500
1875.000000	30.138700
1874.000000	30.430100
1873.000000	30.704000
1872.000000	30.950600
1871.000000	31.159900
1870.000000	31.340500
1869.000000	31.487700
1868.000000	31.614100
1867.000000	31.690000
1866.000000	31.735500
1865.000000	31.782600
1864.000000	31.817400
1863.000000	31.853700
1862.000000	31.898000
1861.000000	31.951600
1860.000000	32.005300
1859.000000	32.043100
1858.000000	32.068000
1857.000000	32.066700
1856.000000	32.034000
1855.000000	32.016400
1854.000000	31.998800
1853.000000	31.946800
1852.000000	31.901800
1851.000000	31.867000
1850.000000	31.843300
1849.000000	31.838100
1848.000000	31.809800
1847.000000	31.749700
1846.000000	31.676900
1845.000000	31.589600
1844.000000	31.520700
1843.000000	31.499800
1842.000000	31.494800
1841.000000	31.485100
1840.000000	31.451400
1839.000000	31.398400
1838.000000	31.340300
1837.000000	31.289600
1836.000000	31.236700
1835.000000	31.158800
1834.000000	31.062300
1833.000000	30.977400
1832.000000	30.915100
1831.000000	30.859200
1830.000000	30.788800
1829.000000	30.728200
1828.000000	30.662300
1827.000000	30.590800
1826.000000	30.521100
1825.000000	30.440300
1824.000000	30.396700
1823.000000	30.383000
1822.000000	30.381900
1821.000000	30.375800
1820.000000	30.354900
1819.000000	30.309600
1818.000000	30.276300
1817.000000	30.264400
1816.000000	30.265700
1815.000000	30.258500
1814.000000	30.249300
1813.000000	30.240500
1812.000000	30.220600
1811.000000	30.193000
1810.000000	30.141300
1809.000000	30.102000
1808.000000	30.070500
1807.000000	30.046800
1806.000000	30.005500
1805.000000	29.959400
1804.000000	29.906700
1803.000000	29.861300
1802.000000	29.830700
1801.000000	29.802200
1800.000000	29.745600
1799.000000	29.687300
1798.000000	29.639500
1797.000000	29.606800
1796.000000	29.565600
1795.000000	29.519100
1794.000000	29.475200
1793.000000	29.430300
1792.000000	29.382700
1791.000000	29.350500
1790.000000	29.287000
1789.000000	29.235900
1788.000000	29.196500
1787.000000	29.150100
1786.000000	29.082000
1785.000000	29.013600
1784.000000	28.946300
1783.000000	28.865600
1782.000000	28.789600
1781.000000	28.725100
1780.000000	28.635800
1779.000000	28.552200
1778.000000	28.471100
1777.000000	28.361300
1776.000000	28.268800
1775.000000	28.151700
1774.000000	28.025000
1773.000000	27.901800
1772.000000	27.758600
1771.000000	27.616900
1770.000000	27.476600
1769.000000	27.348000
1768.000000	27.222300
1767.000000	27.102000
1766.000000	27.001300
1765.000000	26.919600
1764.000000	26.860300
1763.000000	26.803500
1762.000000	26.789600
1761.000000	26.804200
1760.000000	26.825700
1759.000000	26.864700
1758.000000	26.911800
1757.000000	26.940300
1756.000000	26.960400
1755.000000	26.974100
1754.000000	26.966100
1753.000000	26.947900
1752.000000	26.926700
1751.000000	26.862200
1750.000000	26.806900
1749.000000	26.730200
1748.000000	26.638900
1747.000000	26.546000
1746.000000	26.422900
1745.000000	26.291600
1744.000000	26.128800
1743.000000	25.946800
1742.000000	25.756500
1741.000000	25.535900
1740.000000	25.314900
1739.000000	25.094000
1738.000000	24.898400
1737.000000	24.717000
1736.000000	24.581800
1735.000000	24.491600
1734.000000	24.422200
1733.000000	24.416500
1732.000000	24.429700
1731.000000	24.488000
1730.000000	24.568000
1729.000000	24.638900
1728.000000	24.728200
1727.000000	24.800900
1726.000000	24.886900
1725.000000	24.937200
1724.000000	24.998000
1723.000000	25.037100
1722.000000	25.053400
1721.000000	25.074300
1720.000000	25.123000
1719.000000	25.178700
1718.000000	25.240800
1717.000000	25.299200
1716.000000	25.407300
1715.000000	25.495100
1714.000000	25.582400
1713.000000	25.675200
1712.000000	25.740600
1711.000000	25.790100
1710.000000	25.824900
1709.000000	25.851300
1708.000000	25.866600
1707.000000	25.845800
1706.000000	25.849000
1705.000000	25.813100
1704.000000	25.769500
1703.000000	25.701200
1702.000000	25.608800
1701.000000	25.496000
1700.000000	25.384600
1699.000000	25.219900
1698.000000	25.107200
1697.000000	25.018600
1696.000000	24.946600
1695.000000	24.936400
1694.000000	24.989600
1693.000000	25.071800
1692.000000	25.202400
1691.000000	25.339000
1690.000000	25.464800
1689.000000	25.566200
1688.000000	25.670300
1687.000000	25.719600
1686.000000	25.792100
1685.000000	25.857900
1684.000000	25.951500
1683.000000	26.212100
1682.000000	26.532700
1681.000000	26.956000
1680.000000	27.457000
1679.000000	27.990700
1678.000000	28.506700
1677.000000	29.022700
1676.000000	29.427800
1675.000000	29.844100
1674.000000	30.187200
1673.000000	30.495800
1672.000000	30.763100
1671.000000	31.023200
1670.000000	31.261700
1669.000000	31.461200
1668.000000	31.648600
1667.000000	31.822100
1666.000000	31.968700
1665.000000	32.084100
1664.000000	32.206500
1663.000000	32.309600
1662.000000	32.407900
1661.000000	32.510300
1660.000000	32.572800
1659.000000	32.652900
1658.000000	32.709700
1657.000000	32.766600
1656.000000	32.807000
1655.000000	32.822300
1654.000000	32.839600
1653.000000	32.843800
1652.000000	32.852000
1651.000000	32.837000
1650.000000	32.830700
1649.000000	32.797000
1648.000000	32.775100
1647.000000	32.736300
1646.000000	32.709200
1645.000000	32.661900
1644.000000	32.611000
1643.000000	32.557300
1642.000000	32.512700
1641.000000	32.474000
1640.000000	32.438500
1639.000000	32.392500
1638.000000	32.334400
1637.000000	32.263900
1636.000000	32.210900
1635.000000	32.143900
1634.000000	32.081800
1633.000000	32.026800
1632.000000	31.957300
1631.000000	31.870300
1630.000000	31.803000
1629.000000	31.736900
1628.000000	31.661600
1627.000000	31.574900
1626.000000	31.520200
1625.000000	31.437600
1624.000000	31.355700
1623.000000	31.288800
1622.000000	31.210000
1621.000000	31.138800
1620.000000	31.068600
1619.000000	30.997900
1618.000000	30.915600
1617.000000	30.843100
1616.000000	30.776500
1615.000000	30.688200
1614.000000	30.631100
1613.000000	30.557600
1612.000000	30.494500
1611.000000	30.437500
1610.000000	30.344800
1609.000000	30.273800
1608.000000	30.208200
1607.000000	30.135800
1606.000000	30.059200
1605.000000	29.978100
1604.000000	29.898500
1603.000000	29.822600
1602.000000	29.743800
1601.000000	29.671100
1600.000000	29.588900
1599.000000	29.513400
1598.000000	29.448700
1597.000000	29.383400
1596.000000	29.318500
1595.000000	29.247000
1594.000000	29.195200
1593.000000	29.133200
1592.000000	29.065500
1591.000000	29.015300
1590.000000	28.960800
1589.000000	28.910300
1588.000000	28.874100
1587.000000	28.824300
1586.000000	28.796800
1585.000000	28.759900
1584.000000	28.718000
1583.000000	28.687800
1582.000000	28.653400
1581.000000	28.627100
1580.000000	28.607900
1579.000000	28.588100
1578.000000	28.576700
1577.000000	28.592600
1576.000000	28.595600
1575.000000	28.590700
1574.000000	28.596200
1573.000000	28.606200
1572.000000	28.628100
1571.000000	28.649200
1570.000000	28.668600
1569.000000	28.694400
1568.000000	28.731300
1567.000000	28.774000
1566.000000	28.816800
1565.000000	28.858800
1564.000000	28.892200
1563.000000	28.919100
1562.000000	28.951100
1561.000000	28.964500
1560.000000	28.975000
1559.000000	28.993400
1558.000000	28.999800
1557.000000	28.988600
1556.000000	28.982800
1555.000000	28.968600
1554.000000	28.950400
1553.000000	28.933100
1552.000000	28.908100
1551.000000	28.885800
1550.000000	28.846900
1549.000000	28.811500
1548.000000	28.790400
1547.000000	28.758200
1546.000000	28.728000
1545.000000	28.706600
1544.000000	28.680900
1543.000000	28.660400
1542.000000	28.650900
1541.000000	28.641200
1540.000000	28.631800
1539.000000	28.645400
1538.000000	28.637900
1537.000000	28.633000
1536.000000	28.628200
1535.000000	28.609100
1534.000000	28.612000
1533.000000	28.587700
1532.000000	28.579100
1531.000000	28.570300
1530.000000	28.551100
1529.000000	28.535800
1528.000000	28.504800
1527.000000	28.492100
1526.000000	28.474200
1525.000000	28.437600
1524.000000	28.409700
1523.000000	28.391700
1522.000000	28.376700
1521.000000	28.355900
1520.000000	28.318800
1519.000000	28.282300
1518.000000	28.259400
1517.000000	28.227900
1516.000000	28.203800
1515.000000	28.183800
1514.000000	28.141700
1513.000000	28.105400
1512.000000	28.072400
1511.000000	28.053800
1510.000000	28.025200
1509.000000	28.006800
1508.000000	27.967200
1507.000000	27.951400
1506.000000	27.922400
1505.000000	27.895600
1504.000000	27.854000
1503.000000	27.818800
1502.000000	27.816000
1501.000000	27.790100
1500.000000	27.763900
1499.000000	27.752200
1498.000000	27.731600
1497.000000	27.739100
1496.000000	27.729700
1495.000000	27.728000
1494.000000	27.725300
1493.000000	27.742600
1492.000000	27.761900
1491.000000	27.784300
1490.000000	27.798900
1489.000000	27.811000
1488.000000	27.839400
1487.000000	27.855200
1486.000000	27.877000
1485.000000	27.909000
1484.000000	27.939400
1483.000000	27.938900
1482.000000	27.989500
1481.000000	28.026500
1480.000000	28.078300
1479.000000	28.095300
1478.000000	28.135600
1477.000000	28.186700
1476.000000	28.212000
1475.000000	28.245200
1474.000000	28.294400
1473.000000	28.351700
1472.000000	28.407400
1471.000000	28.449100
1470.000000	28.499400
1469.000000	28.549400
1468.000000	28.593200
1467.000000	28.642200
1466.000000	28.686400
1465.000000	28.743900
1464.000000	28.809100
1463.000000	28.891100
1462.000000	28.951800
1461.000000	29.031400
1460.000000	29.129800
1459.000000	29.199400
1458.000000	29.295800
1457.000000	29.400800
1456.000000	29.499000
1455.000000	29.607600
1454.000000	29.697200
1453.000000	29.816900
1452.000000	29.955300
1451.000000	30.070500
1450.000000	30.170100
1449.000000	30.254200
1448.000000	30.371200
1447.000000	30.513400
1446.000000	30.662900
1445.000000	30.771200
1444.000000	30.899800
1443.000000	31.003700
1442.000000	31.158200
1441.000000	31.293100
1440.000000	31.397000
1439.000000	31.543000
1438.000000	31.686800
1437.000000	31.802200
1436.000000	31.911500
1435.000000	32.079800
1434.000000	32.220700
1433.000000	32.348600
1432.000000	32.515600
1431.000000	32.640400
1430.000000	32.783100
1429.000000	32.974600
1428.000000	33.154100
1427.000000	33.332800
1426.000000	33.537100
1425.000000	33.774400
1424.000000	34.015700
1423.000000	34.216800
1422.000000	34.447700
1421.000000	34.675100
1420.000000	34.919800
1419.000000	35.193400
1418.000000	35.422800
1417.000000	35.629200
1416.000000	35.838900
1415.000000	36.108900
1414.000000	36.380500
1413.000000	36.576800
1412.000000	36.804800
1411.000000	37.068400
1410.000000	37.381800
1409.000000	37.751700
1408.000000	38.077500
1407.000000	38.443200
1406.000000	38.797000
1405.000000	39.182600
1404.000000	39.505700
1403.000000	39.850500
1402.000000	40.231000
1401.000000	40.637500
1400.000000	40.954800
1399.000000	41.182900
1398.000000	41.349200
1397.000000	41.648300
1396.000000	41.899400
1395.000000	42.088800
1394.000000	42.219800
1393.000000	42.386300
1392.000000	42.561400
1391.000000	42.722700
1390.000000	42.900200
1389.000000	43.180900
1388.000000	43.489400
1387.000000	43.733500
1386.000000	44.021500
1385.000000	44.390700
1384.000000	44.780900
1383.000000	45.068700
1382.000000	45.361900
1381.000000	45.533200
1380.000000	45.619200
1379.000000	45.748600
1378.000000	45.844600
1377.000000	45.937600
1376.000000	46.056600
1375.000000	46.215100
1374.000000	46.423100
1373.000000	46.692200
1372.000000	47.005700
1371.000000	47.269800
1370.000000	47.531500
1369.000000	47.790200
1368.000000	48.045700
1367.000000	48.235800
1366.000000	48.439800
1365.000000	48.635400
1364.000000	48.801800
1363.000000	48.927500
1362.000000	49.103800
1361.000000	49.206000
1360.000000	49.248200
1359.000000	49.303100
1358.000000	49.402900
1357.000000	49.544200
1356.000000	49.767500
1355.000000	50.099600
1354.000000	50.469600
1353.000000	50.847200
1352.000000	51.262400
1351.000000	51.666500
1350.000000	52.053900
1349.000000	52.406000
1348.000000	52.737400
1347.000000	53.051300
1346.000000	53.304400
1345.000000	53.585200
1344.000000	53.878000
1343.000000	54.110700
1342.000000	54.334200
1341.000000	54.557100
1340.000000	54.766000
1339.000000	54.978400
1338.000000	55.167900
1337.000000	55.336500
1336.000000	55.498900
1335.000000	55.644500
1334.000000	55.785800
1333.000000	55.937800
1332.000000	56.078800
1331.000000	56.193400
1330.000000	56.300600
1329.000000	56.395400
1328.000000	56.495000
1327.000000	56.587100
1326.000000	56.675200
1325.000000	56.762700
1324.000000	56.838300
1323.000000	56.908600
1322.000000	56.964300
1321.000000	57.029300
1320.000000	57.102800
1319.000000	57.163700
1318.000000	57.229000
1317.000000	57.281800
1316.000000	57.315000
1315.000000	57.350700
1314.000000	57.397400
1313.000000	57.442000
1312.000000	57.484600
1311.000000	57.523400
1310.000000	57.552200
1309.000000	57.574900
1308.000000	57.593700
1307.000000	57.612200
1306.000000	57.623200
1305.000000	57.629700
1304.000000	57.635500
1303.000000	57.631000
1302.000000	57.625000
1301.000000	57.617300
1300.000000	57.607400
1299.000000	57.597800
1298.000000	57.583500
1297.000000	57.574900
1296.000000	57.566600
1295.000000	57.548800
1294.000000	57.539100
1293.000000	57.514100
1292.000000	57.478000
1291.000000	57.441900
1290.000000	57.403900
1289.000000	57.367400
1288.000000	57.316000
1287.000000	57.270200
1286.000000	57.225100
1285.000000	57.177800
1284.000000	57.121700
1283.000000	57.056000
1282.000000	56.997800
1281.000000	56.950700
1280.000000	56.899200
1279.000000	56.842100
1278.000000	56.788900
1277.000000	56.742400
1276.000000	56.704800
1275.000000	56.669800
1274.000000	56.647200
1273.000000	56.618900
1272.000000	56.596200
1271.000000	56.586000
1270.000000	56.572600
1269.000000	56.553500
1268.000000	56.529500
1267.000000	56.502600
1266.000000	56.489100
1265.000000	56.462400
1264.000000	56.435600
1263.000000	56.416800
1262.000000	56.383700
1261.000000	56.341500
1260.000000	56.318800
1259.000000	56.279500
1258.000000	56.236300
1257.000000	56.182800
1256.000000	56.114800
1255.000000	56.068200
1254.000000	56.005400
1253.000000	55.943000
1252.000000	55.878000
1251.000000	55.813800
1250.000000	55.727200
1249.000000	55.648700
1248.000000	55.555700
1247.000000	55.456600
1246.000000	55.361800
1245.000000	55.252800
1244.000000	55.138600
1243.000000	55.027900
1242.000000	54.906700
1241.000000	54.786600
1240.000000	54.691700
1239.000000	54.582100
1238.000000	54.455400
1237.000000	54.353800
1236.000000	54.235300
1235.000000	54.127800
1234.000000	54.004900
1233.000000	53.859000
1232.000000	53.727800
1231.000000	53.608700
1230.000000	53.482800
1229.000000	53.338500
1228.000000	53.193400
1227.000000	53.063500
1226.000000	52.928400
1225.000000	52.792600
1224.000000	52.644300
1223.000000	52.487200
1222.000000	52.332100
1221.000000	52.191900
1220.000000	52.041400
1219.000000	51.919100
1218.000000	51.786400
1217.000000	51.662700
1216.000000	51.537500
1215.000000	51.404200
1214.000000	51.285400
1213.000000	51.166800
1212.000000	51.049700
1211.000000	50.945500
1210.000000	50.820800
1209.000000	50.720700
1208.000000	50.619200
1207.000000	50.521800
1206.000000	50.421900
1205.000000	50.355800
1204.000000	50.269200
1203.000000	50.204100
1202.000000	50.148500
1201.000000	50.069900
1200.000000	49.993300
1199.000000	49.887200
1198.000000	49.780300
1197.000000	49.638900
1196.000000	49.442800
1195.000000	49.237200
1194.000000	48.973900
1193.000000	48.675000
1192.000000	48.361000
1191.000000	48.001600
1190.000000	47.678300
1189.000000	47.382500
1188.000000	47.166300
1187.000000	47.013400
1186.000000	46.980800
1185.000000	47.032700
1184.000000	47.167600
1183.000000	47.389300
1182.000000	47.695300
1181.000000	48.051800
1180.000000	48.402100
1179.000000	48.729500
1178.000000	49.039200
1177.000000	49.301000
1176.000000	49.521100
1175.000000	49.747000
1174.000000	49.957800
1173.000000	50.176300
1172.000000	50.408900
1171.000000	50.643200
1170.000000	50.877200
1169.000000	51.125500
1168.000000	51.376500
1167.000000	51.632800
1166.000000	51.882900
1165.000000	52.148400
1164.000000	52.400300
1163.000000	52.664700
1162.000000	52.936600
1161.000000	53.183800
1160.000000	53.396200
1159.000000	53.612100
1158.000000	53.831900
1157.000000	54.039900
1156.000000	54.207300
1155.000000	54.327400
1154.000000	54.422500
1153.000000	54.469600
1152.000000	54.506300
1151.000000	54.521000
1150.000000	54.502500
1149.000000	54.498000
1148.000000	54.512300
1147.000000	54.548000
1146.000000	54.626300
1145.000000	54.710500
1144.000000	54.836200
1143.000000	54.984500
1142.000000	55.152300
1141.000000	55.333500
1140.000000	55.519100
1139.000000	55.710900
1138.000000	55.925800
1137.000000	56.149900
1136.000000	56.383400
1135.000000	56.588500
1134.000000	56.789400
1133.000000	56.957700
1132.000000	57.084100
1131.000000	57.243100
1130.000000	57.361800
1129.000000	57.486200
1128.000000	57.574200
1127.000000	57.637200
1126.000000	57.694100
1125.000000	57.736600
1124.000000	57.769500
1123.000000	57.792700
1122.000000	57.813900
1121.000000	57.802900
1120.000000	57.803500
1119.000000	57.794700
1118.000000	57.766500
1117.000000	57.749500
1116.000000	57.722700
1115.000000	57.686700
1114.000000	57.652500
1113.000000	57.613100
1112.000000	57.572300
1111.000000	57.542300
1110.000000	57.505300
1109.000000	57.470900
1108.000000	57.424100
1107.000000	57.396900
1106.000000	57.361100
1105.000000	57.314800
1104.000000	57.267100
1103.000000	57.218100
1102.000000	57.190200
1101.000000	57.139100
1100.000000	57.091200
1099.000000	57.027400
1098.000000	56.981100
1097.000000	56.941900
1096.000000	56.882600
1095.000000	56.822100
1094.000000	56.765400
1093.000000	56.712700
1092.000000	56.651900
1091.000000	56.582900
1090.000000	56.515400
1089.000000	56.457100
1088.000000	56.385700
1087.000000	56.308700
1086.000000	56.229600
1085.000000	56.158400
1084.000000	56.100500
1083.000000	56.015000
1082.000000	55.947500
1081.000000	55.877900
1080.000000	55.811100
1079.000000	55.728800
1078.000000	55.661700
1077.000000	55.596500
1076.000000	55.525400
1075.000000	55.441000
1074.000000	55.374100
1073.000000	55.299900
1072.000000	55.223600
1071.000000	55.154300
1070.000000	55.073200
1069.000000	55.000900
1068.000000	54.936000
1067.000000	54.848700
1066.000000	54.776000
1065.000000	54.694600
1064.000000	54.615100
1063.000000	54.533200
1062.000000	54.456500
1061.000000	54.393800
1060.000000	54.314900
1059.000000	54.230900
1058.000000	54.144400
1057.000000	54.057300
1056.000000	53.991000
1055.000000	53.910000
1054.000000	53.822400
1053.000000	53.743900
1052.000000	53.670400
1051.000000	53.587700
1050.000000	53.508800
1049.000000	53.432100
1048.000000	53.368400
1047.000000	53.301300
1046.000000	53.231100
1045.000000	53.160300
1044.000000	53.090000
1043.000000	53.011500
1042.000000	52.938300
1041.000000	52.882500
1040.000000	52.813000
1039.000000	52.735800
1038.000000	52.664700
1037.000000	52.599800
1036.000000	52.530800
1035.000000	52.448000
1034.000000	52.361500
1033.000000	52.295300
1032.000000	52.228600
1031.000000	52.143400
1030.000000	52.049700
1029.000000	51.958000
1028.000000	51.879900
1027.000000	51.806700
1026.000000	51.723300
1025.000000	51.635700
1024.000000	51.539500
1023.000000	51.450900
1022.000000	51.367700
1021.000000	51.280900
1020.000000	51.210200
1019.000000	51.146700
1018.000000	51.056600
1017.000000	50.960700
1016.000000	50.885000
1015.000000	50.801500
1014.000000	50.739100
1013.000000	50.684100
1012.000000	50.618400
1011.000000	50.566600
1010.000000	50.511800
1009.000000	50.464900
1008.000000	50.394600
1007.000000	50.330600
1006.000000	50.294700
1005.000000	50.249000
1004.000000	50.192000
1003.000000	50.133500
1002.000000	50.072000
1001.000000	50.006800
1000.000000	49.954000
999.000000	49.897400
998.000000	49.844900
997.000000	49.781100
996.000000	49.720600
995.000000	49.658500
994.000000	49.602200
993.000000	49.552900
992.000000	49.496200
991.000000	49.418600
990.000000	49.368100
989.000000	49.299700
988.000000	49.241100
987.000000	49.179200
986.000000	49.104500
985.000000	49.044900
984.000000	48.996800
983.000000	48.937300
982.000000	48.863500
981.000000	48.787600
980.000000	48.733400
979.000000	48.674000
978.000000	48.599000
977.000000	48.543600
976.000000	48.480300
975.000000	48.401300
974.000000	48.313500
973.000000	48.253100
972.000000	48.200700
971.000000	48.136000
970.000000	48.051900
969.000000	47.973400
968.000000	47.896200
967.000000	47.833400
966.000000	47.769400
965.000000	47.683100
964.000000	47.605000
963.000000	47.556500
962.000000	47.483600
961.000000	47.417200
960.000000	47.341700
959.000000	47.276200
958.000000	47.202300
957.000000	47.122200
956.000000	47.055800
955.000000	46.977300
954.000000	46.905000
953.000000	46.818800
952.000000	46.742400
951.000000	46.652800
950.000000	46.577800
949.000000	46.474700
948.000000	46.388500
947.000000	46.306700
946.000000	46.234800
945.000000	46.122800
944.000000	46.049300
943.000000	45.946500
942.000000	45.857600
941.000000	45.763300
940.000000	45.695900
939.000000	45.579000
938.000000	45.490900
937.000000	45.422900
936.000000	45.336800
935.000000	45.226100
934.000000	45.133300
933.000000	45.034500
932.000000	44.960400
931.000000	44.854900
930.000000	44.753100
929.000000	44.652800
928.000000	44.580700
927.000000	44.483500
926.000000	44.373900
925.000000	44.309700
924.000000	44.200100
923.000000	44.107200
922.000000	44.017100
921.000000	43.929700
920.000000	43.843900
919.000000	43.763700
918.000000	43.657300
917.000000	43.577000
916.000000	43.504800
915.000000	43.423100
914.000000	43.335300
913.000000	43.245700
912.000000	43.138800
911.000000	43.052000
910.000000	42.975100
909.000000	42.898900
908.000000	42.833100
907.000000	42.773400
906.000000	42.732000
905.000000	42.680900
904.000000	42.659400
903.000000	42.600200
902.000000	42.571000
901.000000	42.538200
900.000000	42.522500
899.000000	42.488900
898.000000	42.482500
897.000000	42.418100
896.000000	42.408500
895.000000	42.402200
894.000000	42.380800
893.000000	42.357400
892.000000	42.342200
891.000000	42.307600
890.000000	42.280700
889.000000	42.266900
888.000000	42.249300
887.000000	42.220100
886.000000	42.210000
885.000000	42.165600
884.000000	42.148300
883.000000	42.119900
882.000000	42.105800
881.000000	42.062500
880.000000	42.018100
879.000000	42.004400
878.000000	41.949800
877.000000	41.912800
876.000000	41.896300
875.000000	41.835300
874.000000	41.794200
873.000000	41.750300
872.000000	41.694700
871.000000	41.636300
870.000000	41.580000
869.000000	41.511700
868.000000	41.424200
867.000000	41.386700
866.000000	41.309800
865.000000	41.236000
864.000000	41.111400
863.000000	41.015100
862.000000	40.900200
861.000000	40.743200
860.000000	40.577700
859.000000	40.431300
858.000000	40.097200
857.000000	40.452320
856.000000	40.167442
855.000000	39.874798
854.000000	39.744583
853.000000	39.996829
852.000000	39.993262
851.000000	39.971961
850.000000	40.136803
849.000000	40.130297
848.000000	39.996619
847.000000	39.849931
846.000000	39.947513
845.000000	39.931354
844.000000	39.982979
843.000000	39.762631
842.000000	39.703662
841.000000	39.785190
840.000000	39.768402
839.000000	39.806910
838.000000	39.769871
837.000000	39.690965
836.000000	39.668616
835.000000	39.736189
834.000000	39.722653
833.000000	39.661690
832.000000	39.576699
831.000000	39.483209
830.000000	39.483733
829.000000	39.551517
828.000000	39.588661
827.000000	39.540184
826.000000	39.640495
825.000000	39.364116
824.000000	39.542912
823.000000	39.585618
822.000000	39.454668
821.000000	39.406611
820.000000	39.462643
819.000000	39.413432
818.000000	39.372615
817.000000	39.416265
816.000000	39.404723
815.000000	39.434522
814.000000	39.358660
813.000000	39.415006
812.000000	39.402100
811.000000	39.266218
810.000000	39.190985
809.000000	39.226136
808.000000	39.279544
807.000000	39.323929
806.000000	39.134010
805.000000	39.080916
804.000000	39.155835
803.000000	39.157408
802.000000	39.073361
801.000000	39.106099
800.000000	39.090255
799.000000	39.098649
798.000000	39.135269
797.000000	39.144502
796.000000	39.099698
795.000000	39.068430
794.000000	39.052271
793.000000	39.052901
792.000000	39.022786
791.000000	38.959095
790.000000	38.912612
789.000000	38.899811
788.000000	38.917439
787.000000	38.955003
786.000000	38.921531
785.000000	38.877357
784.000000	38.952275
783.000000	38.889318
782.000000	38.769806
781.000000	38.702442
780.000000	38.730878
779.000000	38.724897
778.000000	38.673797
777.000000	38.675791
776.000000	38.707164
775.000000	38.725526
774.000000	38.705380
773.000000	38.704856
772.000000	38.689431
771.000000	38.625635
770.000000	38.647670
769.000000	38.628783
768.000000	38.566036
767.000000	38.567086
766.000000	38.574641
765.000000	38.539700
764.000000	38.513048
763.000000	38.480520
762.000000	38.492587
761.000000	38.539175
760.000000	38.478212
759.000000	38.364995
758.000000	38.354712
757.000000	38.302039
756.000000	38.233836
755.000000	38.230478
754.000000	38.177490
753.000000	38.109496
752.000000	38.071618
751.000000	38.080746
750.000000	37.992817
749.000000	37.888309
748.000000	37.860503
747.000000	37.805836
746.000000	37.741620
745.000000	37.689366
744.000000	37.630292
743.000000	37.570903
742.000000	37.509835
741.000000	37.411413
740.000000	37.303023
739.000000	37.301029
738.000000	37.248775
737.000000	37.198410
736.000000	37.144687
735.000000	37.072917
734.000000	37.009016
733.000000	36.918358
732.000000	36.826861
731.000000	36.780798
730.000000	36.691820
729.000000	36.558457
728.000000	36.496025
727.000000	36.423310
726.000000	36.371056
725.000000	36.292780
724.000000	36.184600
723.000000	36.072852
722.000000	35.961104
721.000000	35.874643
720.000000	35.806021
719.000000	35.731102
718.000000	35.623761
717.000000	35.497219
716.000000	35.398062
715.000000	35.291875
714.000000	35.185899
713.000000	35.070583
712.000000	34.909100
711.000000	34.798296
710.000000	34.711521
709.000000	34.549618
708.000000	34.421291
707.000000	34.300205
706.000000	34.189611
705.000000	34.017215
704.000000	33.814914
703.000000	33.626569
702.000000	33.510310
701.000000	33.348616
700.000000	33.168770
699.000000	33.009070
698.000000	32.912957
697.000000	32.749270
696.000000	32.583064
695.000000	32.423155
694.000000	32.259677
693.000000	32.140480
692.000000	31.963677
691.000000	31.805656
690.000000	31.616156
689.000000	31.457611
688.000000	31.286264
687.000000	31.063818
686.000000	30.877046
685.000000	30.727630
684.000000	30.544951
683.000000	30.366993
682.000000	30.145911
681.000000	29.968478
680.000000	29.831233
679.000000	29.705845
678.000000	29.569439
677.000000	29.419077
676.000000	29.274487
675.000000	29.138921
674.000000	28.989609
673.000000	28.865689
672.000000	28.708508
671.000000	28.557097
670.000000	28.401804
669.000000	28.268546
668.000000	28.161100
667.000000	27.993111
666.000000	27.810852
665.000000	27.691339
664.000000	27.553884
663.000000	27.417164
662.000000	27.297546
661.000000	27.137322
660.000000	26.966919
659.000000	26.818761
658.000000	26.686028
657.000000	26.544586
656.000000	26.427591
655.000000	26.268101
654.000000	26.133479
653.000000	26.008406
652.000000	25.880394
651.000000	25.738007
650.000000	25.608002
649.000000	25.493106
648.000000	25.385241
647.000000	25.289651
646.000000	25.179792
645.000000	25.081160
644.000000	24.978856
643.000000	24.865429
642.000000	24.773932
641.000000	24.707933
640.000000	24.633434
639.000000	24.552325
638.000000	24.496714
637.000000	24.435226
636.000000	24.402489
635.000000	24.327990
634.000000	24.251393
633.000000	24.193368
632.000000	24.190325
631.000000	24.155804
630.000000	24.094421
629.000000	24.053080
628.000000	24.030205
627.000000	24.017824
626.000000	23.933147
625.000000	23.904187
624.000000	23.866413
623.000000	23.833466
622.000000	23.810907
621.000000	23.811746
620.000000	23.792125
619.000000	23.760437
618.000000	23.707973
617.000000	23.673242
616.000000	23.681531
615.000000	23.639245
614.000000	23.594651
613.000000	23.554883
612.000000	23.489199
611.000000	23.459714
610.000000	23.433692
609.000000	23.379130
608.000000	23.299699
607.000000	23.240520
606.000000	23.197080
605.000000	23.158677
604.000000	23.097819
603.000000	23.039584
602.000000	22.996564
601.000000	22.919966
600.000000	22.886809
599.000000	22.806750
598.000000	22.761945
597.000000	22.697205
596.000000	22.663104
595.000000	22.653031
594.000000	22.604764
593.000000	22.531629
592.000000	22.503719
591.000000	22.463321
590.000000	22.424393
589.000000	22.417573
588.000000	22.405192
587.000000	22.406346
586.000000	22.404667
585.000000	22.388193
584.000000	22.367837
583.000000	22.382737
582.000000	22.411592
581.000000	22.404877
580.000000	22.406870
579.000000	22.406556
578.000000	22.410438
577.000000	22.406765
576.000000	22.442861
575.000000	22.482733
574.000000	22.466155
573.000000	22.464161
572.000000	22.439818
571.000000	22.469932
570.000000	22.486196
569.000000	22.484202
568.000000	22.464476
567.000000	22.427017
566.000000	22.415999
565.000000	22.412432
564.000000	22.385570
563.000000	22.353672
562.000000	22.331008
561.000000	22.278019
560.000000	22.231536
559.000000	21.863031
558.000000	21.825257
557.000000	21.805635
556.000000	21.756949
555.000000	21.694727
554.000000	21.630931
553.000000	21.570073
552.000000	21.484347
551.000000	21.401559
550.000000	21.371655
549.000000	21.288552
548.000000	21.195691
547.000000	21.099892
546.000000	21.019832
545.000000	20.933792
544.000000	20.866113
543.000000	20.788467
542.000000	20.669059
541.000000	20.530135
540.000000	20.419227
539.000000	20.315663
538.000000	20.221753
537.000000	20.093322
536.000000	19.978216
535.000000	19.840866
534.000000	19.718835
533.000000	19.602051
532.000000	19.467743
531.000000	19.324727
530.000000	19.189685
529.000000	19.056217
528.000000	18.914670
527.000000	18.781517
526.000000	18.655289
525.000000	18.520562
524.000000	18.371460
523.000000	18.202631
522.000000	18.045555
521.000000	17.902643
520.000000	17.746511
519.000000	17.584712
518.000000	17.410533
517.000000	17.238346
516.000000	17.075289
515.000000	16.914750
514.000000	16.732910
513.000000	16.538479
512.000000	16.368077
511.000000	16.191169
510.000000	16.013107
509.000000	15.838822
508.000000	15.657087
507.000000	15.514491
506.000000	15.330238
505.000000	15.141578
504.000000	14.971910
503.000000	14.789966
502.000000	14.624810
501.000000	14.448426
500.000000	14.269735
499.000000	14.090413
498.000000	13.929140
497.000000	13.760416
496.000000	13.581200
495.000000	13.422025
494.000000	13.270299
493.000000	13.117839
492.000000	12.965904
491.000000	12.806309
490.000000	12.658361
489.000000	12.507056
488.000000	12.369076
487.000000	12.235188
486.000000	12.103294
485.000000	11.975283
484.000000	11.836568
483.000000	11.702366
482.000000	11.610554
481.000000	11.557566
480.000000	11.515070
479.000000	11.432807
478.000000	11.307943
477.000000	11.176049
476.000000	11.061468
475.000000	10.966194
474.000000	10.876166
473.000000	10.783725
472.000000	10.682680
471.000000	10.593386
470.000000	10.514166
469.000000	10.430643
468.000000	10.341770
467.000000	10.265068
466.000000	10.213758
465.000000	10.148388
464.000000	10.088265
463.000000	10.029715
462.000000	9.975153
461.000000	9.917442
460.000000	9.869386
459.000000	9.827939
458.000000	9.776210
457.000000	9.743473
456.000000	9.718919
455.000000	9.673171
454.000000	9.632039
453.000000	9.596049
452.000000	9.550616
451.000000	9.506126
450.000000	9.480629
449.000000	9.450095
448.000000	9.394798
447.000000	9.337717
446.000000	9.284099
445.000000	9.217575
444.000000	9.139824
443.000000	9.085367
442.000000	9.032693
441.000000	8.979390
440.000000	8.926821
439.000000	8.850748
438.000000	8.768905
437.000000	8.701541
436.000000	8.634073
435.000000	8.549082
434.000000	8.470701
433.000000	8.407744
432.000000	8.328524
431.000000	8.233984
430.000000	8.157807
429.000000	8.087400
428.000000	8.009964
427.000000	7.925602
426.000000	7.845647
425.000000	7.765063
424.000000	7.683639
423.000000	7.608301
422.000000	7.517224
421.000000	7.438423
420.000000	7.355530
419.000000	7.275470
418.000000	7.206113
417.000000	7.127103
416.000000	7.042636
415.000000	6.970551
414.000000	6.882097
413.000000	6.784829
412.000000	6.696165
411.000000	6.624395
410.000000	6.545279
409.000000	6.447382
408.000000	6.362915
407.000000	6.276559
406.000000	6.190309
405.000000	6.103219
404.000000	6.013506
403.000000	5.938798
402.000000	5.878149
401.000000	5.797250
400.000000	5.702501
399.000000	5.604813
398.000000	5.518143
397.000000	5.428325
396.000000	5.344383
395.000000	5.279747
394.000000	5.205773
393.000000	5.129386
392.000000	5.058665
391.000000	4.989413
390.000000	4.906939
389.000000	4.838632
388.000000	4.785643
387.000000	4.725415
386.000000	4.659730
385.000000	4.605378
384.000000	4.560154
383.000000	4.494994
382.000000	4.445258
381.000000	4.387758
380.000000	4.350299
379.000000	4.310426
378.000000	4.274436
377.000000	4.243482
376.000000	4.109280
375.000000	3.966998
374.000000	3.882216
373.000000	3.824821
372.000000	3.900369
371.000000	3.938563
370.000000	3.934995
369.000000	3.877180
368.000000	3.933421
367.000000	3.943599
366.000000	3.899005
365.000000	3.807403
364.000000	3.881482
363.000000	3.834160
362.000000	3.882531
361.000000	3.839406
360.000000	3.846751
359.000000	3.809816
358.000000	3.790720
357.000000	3.854306
356.000000	3.874872
355.000000	3.800583
354.000000	3.742348
353.000000	3.752526
352.000000	3.805095
351.000000	3.841819
350.000000	3.787362
349.000000	3.767845
348.000000	3.813804
347.000000	3.809397
346.000000	3.632174
345.000000	3.737626
344.000000	3.700482
343.000000	3.715382
342.000000	3.774980
341.000000	3.847171
340.000000	3.804780
339.000000	3.740564
338.000000	3.755464
337.000000	3.783270
336.000000	3.728183
335.000000	3.879803
334.000000	3.789251
333.000000	3.756933
332.000000	3.623570
331.000000	3.737416
330.000000	3.685792
329.000000	3.786837
328.000000	3.727553
327.000000	3.877914
326.000000	3.860182
325.000000	3.964060
324.000000	4.001099
323.000000	3.948111
322.000000	3.665436
321.000000	3.840455
320.000000	4.387968
319.000000	4.073814
318.000000	4.159330
317.000000	4.208856
316.000000	3.603844
315.000000	3.617904
314.000000	3.552324
313.000000	3.571631
312.000000	3.562712
311.000000	3.544979
310.000000	3.539313
309.000000	3.568903
308.000000	3.552114
307.000000	3.587055
306.000000	3.502483
305.000000	3.506890
304.000000	3.497027
303.000000	3.468907
302.000000	3.500700
301.000000	3.511402
300.000000	3.536375
299.000000	3.503743
298.000000	3.471320
297.000000	3.529135
296.000000	3.523994
295.000000	3.478665
294.000000	3.502379
293.000000	3.512661
292.000000	3.448236
291.000000	3.435750
290.000000	3.455581
289.000000	3.520321
288.000000	3.456630
287.000000	3.491991
286.000000	3.468172
285.000000	3.450754
284.000000	3.497552
283.000000	3.485380
282.000000	3.531024
281.000000	3.477616
280.000000	3.479294
279.000000	3.509828
278.000000	3.486534
277.000000	3.560928
276.000000	3.577612
275.000000	3.510983
274.000000	3.513921
273.000000	3.508989
272.000000	3.583488
271.000000	3.598073
270.000000	3.588629
269.000000	3.621471
268.000000	3.658301
267.000000	3.651795
266.000000	3.628082
265.000000	3.661134
264.000000	3.700587
263.000000	3.695865
262.000000	3.705623
261.000000	3.751372
260.000000	3.718424
259.000000	3.730071
258.000000	3.747070
257.000000	3.743502
256.000000	3.769209
255.000000	3.792713
254.000000	3.774036
253.000000	3.760081
252.000000	3.820939
251.000000	3.815168
250.000000	3.825346
