PE UV       SUBTECH     SPECTRUM    ASCII       PEDS        4.00        
   -1
CICIMAUCR0018-3fail.Sample.ASC
24/04/17
10:06:15.00
24/04/17
10:06:15.00
Vinicio Soto Monge
C. cupreomarginata raro
250,000000
1
Lambda 1050
1050L1511233
PerkinElmer UV WinLab 6.3.2.0749 / 2.02.05 Lambda 900 UV/VIS/NIR, Aug  7 2015 09:38:08

0
0
3350/servo 860,8/2
0
0
UV/VIS
1
1
1
DoubleDePol,CommonBeamDepol,RBeamAtt,SBeamAtt,60mm sphere, WB InGaAs Detector
0
0
0
0
Program
Program
3350/servo 860,8/2
3350/0,2 860,8/0,2
3350/0,2 860,8/0,2
0
15.00
 
 
 
0
 
860,8
319,2
860,8
Front
100
on
S:100 R:100
0
0
0
0
 
0
 
 
 
0
 
 
0
0
0
0
0
 
 
 
 
0
0


0
0
#HDR
-1
-1
#GR
nm
%R
1.0
0.0
2500,000000
-1,000000
2251
8
51,088700
2,933400
#DATA
2500.000000	11.597300
2499.000000	11.563300
2498.000000	11.596400
2497.000000	11.483500
2496.000000	11.568600
2495.000000	11.456100
2494.000000	11.496800
2493.000000	11.449400
2492.000000	11.411400
2491.000000	11.484100
2490.000000	11.554200
2489.000000	11.466300
2488.000000	11.490300
2487.000000	11.428100
2486.000000	11.447200
2485.000000	11.451900
2484.000000	11.476300
2483.000000	11.463200
2482.000000	11.461400
2481.000000	11.461100
2480.000000	11.425300
2479.000000	11.495300
2478.000000	11.516100
2477.000000	11.442400
2476.000000	11.483200
2475.000000	11.540500
2474.000000	11.554300
2473.000000	11.569900
2472.000000	11.554800
2471.000000	11.587600
2470.000000	11.649100
2469.000000	11.682600
2468.000000	11.717400
2467.000000	11.704800
2466.000000	11.694600
2465.000000	11.750900
2464.000000	11.795400
2463.000000	11.804200
2462.000000	11.815600
2461.000000	11.864700
2460.000000	11.895800
2459.000000	11.937200
2458.000000	11.956800
2457.000000	12.000600
2456.000000	12.060600
2455.000000	12.090700
2454.000000	12.167300
2453.000000	12.219300
2452.000000	12.269300
2451.000000	12.337900
2450.000000	12.410600
2449.000000	12.478500
2448.000000	12.542100
2447.000000	12.614800
2446.000000	12.686100
2445.000000	12.736200
2444.000000	12.832800
2443.000000	12.888500
2442.000000	12.953100
2441.000000	13.017700
2440.000000	13.069600
2439.000000	13.163300
2438.000000	13.229100
2437.000000	13.289500
2436.000000	13.353300
2435.000000	13.409300
2434.000000	13.475300
2433.000000	13.515100
2432.000000	13.577300
2431.000000	13.619200
2430.000000	13.675000
2429.000000	13.723900
2428.000000	13.782800
2427.000000	13.832100
2426.000000	13.887100
2425.000000	13.916100
2424.000000	13.954600
2423.000000	14.001600
2422.000000	14.037800
2421.000000	14.086400
2420.000000	14.129300
2419.000000	14.178500
2418.000000	14.223100
2417.000000	14.247800
2416.000000	14.295800
2415.000000	14.349400
2414.000000	14.398700
2413.000000	14.428700
2412.000000	14.461400
2411.000000	14.497900
2410.000000	14.520600
2409.000000	14.545000
2408.000000	14.581500
2407.000000	14.615300
2406.000000	14.623000
2405.000000	14.637800
2404.000000	14.670500
2403.000000	14.692400
2402.000000	14.716000
2401.000000	14.723600
2400.000000	14.734900
2399.000000	14.767900
2398.000000	14.773900
2397.000000	14.782800
2396.000000	14.802300
2395.000000	14.810600
2394.000000	14.835600
2393.000000	14.865900
2392.000000	14.863200
2391.000000	14.865500
2390.000000	14.870200
2389.000000	14.879100
2388.000000	14.877500
2387.000000	14.887300
2386.000000	14.891200
2385.000000	14.886800
2384.000000	14.889800
2383.000000	14.875800
2382.000000	14.871800
2381.000000	14.877400
2380.000000	14.869400
2379.000000	14.848200
2378.000000	14.830100
2377.000000	14.835100
2376.000000	14.835400
2375.000000	14.822300
2374.000000	14.804400
2373.000000	14.785100
2372.000000	14.787000
2371.000000	14.794800
2370.000000	14.787600
2369.000000	14.785900
2368.000000	14.782900
2367.000000	14.753800
2366.000000	14.758400
2365.000000	14.776800
2364.000000	14.774900
2363.000000	14.761600
2362.000000	14.765900
2361.000000	14.778000
2360.000000	14.770500
2359.000000	14.755000
2358.000000	14.756500
2357.000000	14.772700
2356.000000	14.760400
2355.000000	14.740400
2354.000000	14.733400
2353.000000	14.738500
2352.000000	14.745900
2351.000000	14.747800
2350.000000	14.757800
2349.000000	14.740600
2348.000000	14.718000
2347.000000	14.727600
2346.000000	14.732000
2345.000000	14.727200
2344.000000	14.721600
2343.000000	14.717200
2342.000000	14.725600
2341.000000	14.741400
2340.000000	14.745500
2339.000000	14.741600
2338.000000	14.766200
2337.000000	14.760900
2336.000000	14.778100
2335.000000	14.811100
2334.000000	14.816000
2333.000000	14.823900
2332.000000	14.830400
2331.000000	14.853500
2330.000000	14.881700
2329.000000	14.896800
2328.000000	14.919100
2327.000000	14.931100
2326.000000	14.956300
2325.000000	14.979800
2324.000000	14.978800
2323.000000	15.001500
2322.000000	15.003000
2321.000000	14.991700
2320.000000	15.000400
2319.000000	14.993700
2318.000000	14.981500
2317.000000	14.972200
2316.000000	14.984800
2315.000000	14.983300
2314.000000	14.952600
2313.000000	14.930500
2312.000000	14.910000
2311.000000	14.878200
2310.000000	14.846000
2309.000000	14.811300
2308.000000	14.799500
2307.000000	14.790300
2306.000000	14.775800
2305.000000	14.756600
2304.000000	14.767600
2303.000000	14.769700
2302.000000	14.750900
2301.000000	14.754700
2300.000000	14.761700
2299.000000	14.766500
2298.000000	14.763400
2297.000000	14.787000
2296.000000	14.797600
2295.000000	14.812300
2294.000000	14.853400
2293.000000	14.859300
2292.000000	14.881700
2291.000000	14.904600
2290.000000	14.932200
2289.000000	14.934400
2288.000000	14.980900
2287.000000	15.011900
2286.000000	15.049600
2285.000000	15.087600
2284.000000	15.112900
2283.000000	15.159600
2282.000000	15.177300
2281.000000	15.203200
2280.000000	15.233700
2279.000000	15.278700
2278.000000	15.291000
2277.000000	15.313800
2276.000000	15.352200
2275.000000	15.381200
2274.000000	15.386400
2273.000000	15.404400
2272.000000	15.446000
2271.000000	15.498500
2270.000000	15.539500
2269.000000	15.560500
2268.000000	15.602300
2267.000000	15.655500
2266.000000	15.712300
2265.000000	15.768500
2264.000000	15.826500
2263.000000	15.921000
2262.000000	16.048600
2261.000000	16.128400
2260.000000	16.243200
2259.000000	16.328900
2258.000000	16.453700
2257.000000	16.612900
2256.000000	16.741300
2255.000000	16.873900
2254.000000	16.985400
2253.000000	17.106200
2252.000000	17.260400
2251.000000	17.372900
2250.000000	17.479600
2249.000000	17.600300
2248.000000	17.705400
2247.000000	17.830300
2246.000000	17.917600
2245.000000	18.001200
2244.000000	18.076600
2243.000000	18.171400
2242.000000	18.224400
2241.000000	18.284200
2240.000000	18.337600
2239.000000	18.370000
2238.000000	18.434900
2237.000000	18.474300
2236.000000	18.471200
2235.000000	18.494300
2234.000000	18.473300
2233.000000	18.476300
2232.000000	18.499000
2231.000000	18.477100
2230.000000	18.424000
2229.000000	18.427000
2228.000000	18.410200
2227.000000	18.364800
2226.000000	18.299400
2225.000000	18.306600
2224.000000	18.239700
2223.000000	18.193100
2222.000000	18.136400
2221.000000	18.092700
2220.000000	18.032600
2219.000000	17.971400
2218.000000	17.900400
2217.000000	17.855600
2216.000000	17.806800
2215.000000	17.745900
2214.000000	17.700000
2213.000000	17.657900
2212.000000	17.588800
2211.000000	17.539600
2210.000000	17.499500
2209.000000	17.463100
2208.000000	17.426800
2207.000000	17.377400
2206.000000	17.350600
2205.000000	17.327600
2204.000000	17.303400
2203.000000	17.284700
2202.000000	17.245400
2201.000000	17.232100
2200.000000	17.211900
2199.000000	17.202900
2198.000000	17.170600
2197.000000	17.160100
2196.000000	17.132400
2195.000000	17.085600
2194.000000	17.077400
2193.000000	17.080500
2192.000000	17.066100
2191.000000	17.037300
2190.000000	17.010900
2189.000000	17.000500
2188.000000	17.005500
2187.000000	16.999900
2186.000000	16.984200
2185.000000	16.949200
2184.000000	16.922100
2183.000000	16.923100
2182.000000	16.903700
2181.000000	16.897600
2180.000000	16.874800
2179.000000	16.862600
2178.000000	16.882900
2177.000000	16.879200
2176.000000	16.854300
2175.000000	16.825800
2174.000000	16.826000
2173.000000	16.843000
2172.000000	16.869000
2171.000000	16.885000
2170.000000	16.887000
2169.000000	16.900100
2168.000000	16.925000
2167.000000	16.961600
2166.000000	16.988100
2165.000000	16.995900
2164.000000	17.023000
2163.000000	17.067900
2162.000000	17.112000
2161.000000	17.140300
2160.000000	17.201600
2159.000000	17.278000
2158.000000	17.339200
2157.000000	17.412200
2156.000000	17.465700
2155.000000	17.544800
2154.000000	17.628400
2153.000000	17.712500
2152.000000	17.799800
2151.000000	17.878800
2150.000000	17.974700
2149.000000	18.046200
2148.000000	18.134200
2147.000000	18.220500
2146.000000	18.318100
2145.000000	18.405400
2144.000000	18.492100
2143.000000	18.564900
2142.000000	18.648300
2141.000000	18.738300
2140.000000	18.817800
2139.000000	18.912600
2138.000000	18.982400
2137.000000	19.042000
2136.000000	19.121200
2135.000000	19.192100
2134.000000	19.260700
2133.000000	19.351100
2132.000000	19.425600
2131.000000	19.475700
2130.000000	19.547800
2129.000000	19.625400
2128.000000	19.673600
2127.000000	19.714400
2126.000000	19.765100
2125.000000	19.828200
2124.000000	19.870700
2123.000000	19.916900
2122.000000	19.949500
2121.000000	19.980400
2120.000000	20.024000
2119.000000	20.063000
2118.000000	20.102400
2117.000000	20.127900
2116.000000	20.157700
2115.000000	20.201600
2114.000000	20.195100
2113.000000	20.210000
2112.000000	20.237700
2111.000000	20.231400
2110.000000	20.245800
2109.000000	20.294800
2108.000000	20.308900
2107.000000	20.303000
2106.000000	20.315800
2105.000000	20.323900
2104.000000	20.319800
2103.000000	20.336100
2102.000000	20.352200
2101.000000	20.353000
2100.000000	20.367800
2099.000000	20.394400
2098.000000	20.392500
2097.000000	20.390800
2096.000000	20.414100
2095.000000	20.421200
2094.000000	20.436100
2093.000000	20.456200
2092.000000	20.473800
2091.000000	20.493600
2090.000000	20.516000
2089.000000	20.518000
2088.000000	20.526500
2087.000000	20.544400
2086.000000	20.548300
2085.000000	20.559100
2084.000000	20.546600
2083.000000	20.523000
2082.000000	20.516400
2081.000000	20.499600
2080.000000	20.460100
2079.000000	20.435200
2078.000000	20.397800
2077.000000	20.346600
2076.000000	20.312400
2075.000000	20.260900
2074.000000	20.193100
2073.000000	20.135500
2072.000000	20.066500
2071.000000	19.981700
2070.000000	19.910100
2069.000000	19.839400
2068.000000	19.750000
2067.000000	19.678100
2066.000000	19.591600
2065.000000	19.496000
2064.000000	19.419700
2063.000000	19.352900
2062.000000	19.277700
2061.000000	19.231200
2060.000000	19.167800
2059.000000	19.098600
2058.000000	19.051900
2057.000000	19.024100
2056.000000	19.012200
2055.000000	19.017300
2054.000000	19.021900
2053.000000	19.030900
2052.000000	19.064700
2051.000000	19.142400
2050.000000	19.207200
2049.000000	19.299700
2048.000000	19.406500
2047.000000	19.479800
2046.000000	19.566700
2045.000000	19.682600
2044.000000	19.831100
2043.000000	19.938600
2042.000000	20.043900
2041.000000	20.151600
2040.000000	20.282900
2039.000000	20.389600
2038.000000	20.498000
2037.000000	20.611200
2036.000000	20.710400
2035.000000	20.800000
2034.000000	20.921900
2033.000000	21.000500
2032.000000	21.076100
2031.000000	21.161300
2030.000000	21.247000
2029.000000	21.345600
2028.000000	21.424600
2027.000000	21.466900
2026.000000	21.524400
2025.000000	21.580400
2024.000000	21.638500
2023.000000	21.712700
2022.000000	21.759300
2021.000000	21.800500
2020.000000	21.816800
2019.000000	21.869900
2018.000000	21.893800
2017.000000	21.930100
2016.000000	21.942600
2015.000000	21.961000
2014.000000	21.991000
2013.000000	22.005700
2012.000000	22.012400
2011.000000	21.993700
2010.000000	21.991600
2009.000000	21.992900
2008.000000	21.986800
2007.000000	21.967500
2006.000000	21.946300
2005.000000	21.927000
2004.000000	21.894300
2003.000000	21.871400
2002.000000	21.839400
2001.000000	21.794200
2000.000000	21.748500
1999.000000	21.703900
1998.000000	21.666400
1997.000000	21.601100
1996.000000	21.541500
1995.000000	21.477900
1994.000000	21.435600
1993.000000	21.361900
1992.000000	21.279100
1991.000000	21.200700
1990.000000	21.137400
1989.000000	21.076500
1988.000000	20.980800
1987.000000	20.910300
1986.000000	20.836500
1985.000000	20.775800
1984.000000	20.706200
1983.000000	20.613500
1982.000000	20.540300
1981.000000	20.459400
1980.000000	20.377400
1979.000000	20.302300
1978.000000	20.225400
1977.000000	20.170900
1976.000000	20.074300
1975.000000	19.987300
1974.000000	19.935300
1973.000000	19.847800
1972.000000	19.777800
1971.000000	19.722000
1970.000000	19.669100
1969.000000	19.574600
1968.000000	19.500700
1967.000000	19.424200
1966.000000	19.355800
1965.000000	19.295500
1964.000000	19.220800
1963.000000	19.150900
1962.000000	19.093800
1961.000000	19.009100
1960.000000	18.915000
1959.000000	18.833200
1958.000000	18.759400
1957.000000	18.701100
1956.000000	18.616400
1955.000000	18.544800
1954.000000	18.467700
1953.000000	18.408600
1952.000000	18.337900
1951.000000	18.236300
1950.000000	18.154900
1949.000000	18.100400
1948.000000	18.039200
1947.000000	17.983400
1946.000000	17.946100
1945.000000	17.901900
1944.000000	17.857100
1943.000000	17.812900
1942.000000	17.730400
1941.000000	17.680300
1940.000000	17.628500
1939.000000	17.620300
1938.000000	17.637300
1937.000000	17.656200
1936.000000	17.638800
1935.000000	17.651300
1934.000000	17.634200
1933.000000	17.661100
1932.000000	17.657900
1931.000000	17.689500
1930.000000	17.717900
1929.000000	17.779900
1928.000000	17.886400
1927.000000	17.993800
1926.000000	18.071300
1925.000000	18.166300
1924.000000	18.215100
1923.000000	18.265100
1922.000000	18.417400
1921.000000	18.641200
1920.000000	18.846800
1919.000000	19.013600
1918.000000	19.183600
1917.000000	19.296600
1916.000000	19.392600
1915.000000	19.543900
1914.000000	19.818500
1913.000000	20.161700
1912.000000	20.475200
1911.000000	20.727500
1910.000000	20.948600
1909.000000	21.043900
1908.000000	21.238100
1907.000000	21.537600
1906.000000	21.923600
1905.000000	22.436000
1904.000000	22.856400
1903.000000	23.171100
1902.000000	23.467300
1901.000000	23.806500
1900.000000	24.287700
1899.000000	24.864000
1898.000000	25.392200
1897.000000	25.823600
1896.000000	26.125100
1895.000000	26.338500
1894.000000	26.691000
1893.000000	27.105200
1892.000000	27.634800
1891.000000	28.161700
1890.000000	28.601400
1889.000000	28.974200
1888.000000	29.340700
1887.000000	29.622100
1886.000000	29.937600
1885.000000	30.332100
1884.000000	30.726000
1883.000000	31.051400
1882.000000	31.345300
1881.000000	31.615200
1880.000000	31.757300
1879.000000	31.911700
1878.000000	32.105700
1877.000000	32.262900
1876.000000	32.414800
1875.000000	32.629000
1874.000000	32.761600
1873.000000	32.956500
1872.000000	33.182900
1871.000000	33.412400
1870.000000	33.722700
1869.000000	33.988900
1868.000000	34.173700
1867.000000	34.286300
1866.000000	34.288900
1865.000000	34.323500
1864.000000	34.303100
1863.000000	34.221600
1862.000000	34.202900
1861.000000	34.290700
1860.000000	34.402300
1859.000000	34.525100
1858.000000	34.645700
1857.000000	34.664300
1856.000000	34.594500
1855.000000	34.644700
1854.000000	34.771500
1853.000000	34.813700
1852.000000	34.832700
1851.000000	34.742900
1850.000000	34.563200
1849.000000	34.538800
1848.000000	34.778700
1847.000000	35.062400
1846.000000	35.120900
1845.000000	34.944100
1844.000000	34.679000
1843.000000	34.566800
1842.000000	34.680300
1841.000000	34.842800
1840.000000	34.866600
1839.000000	34.758300
1838.000000	34.669700
1837.000000	34.754500
1836.000000	34.890900
1835.000000	34.943100
1834.000000	34.863800
1833.000000	34.697900
1832.000000	34.584700
1831.000000	34.569100
1830.000000	34.632500
1829.000000	34.651900
1828.000000	34.592800
1827.000000	34.608300
1826.000000	34.678000
1825.000000	34.655700
1824.000000	34.550900
1823.000000	34.406200
1822.000000	34.411300
1821.000000	34.576900
1820.000000	34.712700
1819.000000	34.704400
1818.000000	34.608200
1817.000000	34.539000
1816.000000	34.567800
1815.000000	34.602400
1814.000000	34.606300
1813.000000	34.570300
1812.000000	34.541700
1811.000000	34.561500
1810.000000	34.556500
1809.000000	34.494300
1808.000000	34.437100
1807.000000	34.451800
1806.000000	34.483700
1805.000000	34.475500
1804.000000	34.432900
1803.000000	34.404500
1802.000000	34.425800
1801.000000	34.440400
1800.000000	34.419200
1799.000000	34.357200
1798.000000	34.318300
1797.000000	34.315200
1796.000000	34.316600
1795.000000	34.303100
1794.000000	34.299300
1793.000000	34.300500
1792.000000	34.296000
1791.000000	34.270500
1790.000000	34.258300
1789.000000	34.257200
1788.000000	34.246700
1787.000000	34.231000
1786.000000	34.248400
1785.000000	34.251800
1784.000000	34.246100
1783.000000	34.232200
1782.000000	34.233900
1781.000000	34.226700
1780.000000	34.210300
1779.000000	34.205500
1778.000000	34.186100
1777.000000	34.160300
1776.000000	34.136500
1775.000000	34.114100
1774.000000	34.080600
1773.000000	34.061000
1772.000000	34.026600
1771.000000	34.018300
1770.000000	33.986000
1769.000000	33.956800
1768.000000	33.915500
1767.000000	33.872800
1766.000000	33.830500
1765.000000	33.805200
1764.000000	33.804600
1763.000000	33.765100
1762.000000	33.758700
1761.000000	33.763900
1760.000000	33.749700
1759.000000	33.745600
1758.000000	33.715500
1757.000000	33.708000
1756.000000	33.720300
1755.000000	33.741300
1754.000000	33.707100
1753.000000	33.691300
1752.000000	33.658300
1751.000000	33.624300
1750.000000	33.619100
1749.000000	33.600300
1748.000000	33.534600
1747.000000	33.521500
1746.000000	33.485900
1745.000000	33.435700
1744.000000	33.385200
1743.000000	33.340900
1742.000000	33.284900
1741.000000	33.231900
1740.000000	33.182300
1739.000000	33.110900
1738.000000	33.057600
1737.000000	33.025700
1736.000000	32.997600
1735.000000	32.977300
1734.000000	32.951100
1733.000000	32.936500
1732.000000	32.911700
1731.000000	32.885400
1730.000000	32.855900
1729.000000	32.818100
1728.000000	32.794900
1727.000000	32.783600
1726.000000	32.750600
1725.000000	32.756400
1724.000000	32.754200
1723.000000	32.797800
1722.000000	32.832300
1721.000000	32.910300
1720.000000	33.049100
1719.000000	33.172200
1718.000000	33.306200
1717.000000	33.442000
1716.000000	33.583700
1715.000000	33.723800
1714.000000	33.855100
1713.000000	33.964600
1712.000000	34.096700
1711.000000	34.177600
1710.000000	34.248000
1709.000000	34.315500
1708.000000	34.360100
1707.000000	34.418300
1706.000000	34.468700
1705.000000	34.498600
1704.000000	34.514700
1703.000000	34.530100
1702.000000	34.549500
1701.000000	34.545800
1700.000000	34.551500
1699.000000	34.543300
1698.000000	34.528000
1697.000000	34.523800
1696.000000	34.509200
1695.000000	34.480100
1694.000000	34.439400
1693.000000	34.408900
1692.000000	34.380100
1691.000000	34.328300
1690.000000	34.292000
1689.000000	34.286900
1688.000000	34.291800
1687.000000	34.333900
1686.000000	34.435300
1685.000000	34.521700
1684.000000	34.665500
1683.000000	34.837200
1682.000000	34.999100
1681.000000	35.159500
1680.000000	35.306900
1679.000000	35.443700
1678.000000	35.585900
1677.000000	35.736100
1676.000000	35.870100
1675.000000	36.014500
1674.000000	36.133800
1673.000000	36.266400
1672.000000	36.374700
1671.000000	36.487400
1670.000000	36.626300
1669.000000	36.746100
1668.000000	36.862100
1667.000000	36.950600
1666.000000	37.078600
1665.000000	37.180500
1664.000000	37.269900
1663.000000	37.343800
1662.000000	37.425300
1661.000000	37.527900
1660.000000	37.614700
1659.000000	37.643300
1658.000000	37.671200
1657.000000	37.720400
1656.000000	37.796000
1655.000000	37.836600
1654.000000	37.880700
1653.000000	37.898300
1652.000000	37.912400
1651.000000	37.915400
1650.000000	37.920000
1649.000000	37.934400
1648.000000	37.948900
1647.000000	37.941300
1646.000000	37.940100
1645.000000	37.943900
1644.000000	37.945400
1643.000000	37.940800
1642.000000	37.931500
1641.000000	37.917000
1640.000000	37.922700
1639.000000	37.922200
1638.000000	37.905400
1637.000000	37.888700
1636.000000	37.885000
1635.000000	37.881000
1634.000000	37.865500
1633.000000	37.843500
1632.000000	37.831700
1631.000000	37.814400
1630.000000	37.810400
1629.000000	37.786700
1628.000000	37.748600
1627.000000	37.719900
1626.000000	37.707600
1625.000000	37.686300
1624.000000	37.651600
1623.000000	37.629600
1622.000000	37.608700
1621.000000	37.587100
1620.000000	37.553300
1619.000000	37.528700
1618.000000	37.514000
1617.000000	37.508800
1616.000000	37.499300
1615.000000	37.475800
1614.000000	37.461000
1613.000000	37.437100
1612.000000	37.399300
1611.000000	37.383300
1610.000000	37.357500
1609.000000	37.325200
1608.000000	37.273300
1607.000000	37.215000
1606.000000	37.167600
1605.000000	37.141300
1604.000000	37.097800
1603.000000	37.048000
1602.000000	37.005600
1601.000000	36.976100
1600.000000	36.942200
1599.000000	36.894500
1598.000000	36.848800
1597.000000	36.808100
1596.000000	36.772600
1595.000000	36.739700
1594.000000	36.704500
1593.000000	36.678100
1592.000000	36.645200
1591.000000	36.606600
1590.000000	36.576000
1589.000000	36.542600
1588.000000	36.503900
1587.000000	36.471900
1586.000000	36.451100
1585.000000	36.424800
1584.000000	36.401000
1583.000000	36.393800
1582.000000	36.375700
1581.000000	36.345000
1580.000000	36.314200
1579.000000	36.294300
1578.000000	36.267400
1577.000000	36.247500
1576.000000	36.255400
1575.000000	36.252000
1574.000000	36.233400
1573.000000	36.231400
1572.000000	36.233500
1571.000000	36.244800
1570.000000	36.257700
1569.000000	36.267500
1568.000000	36.290900
1567.000000	36.307900
1566.000000	36.322300
1565.000000	36.348600
1564.000000	36.352400
1563.000000	36.346000
1562.000000	36.335400
1561.000000	36.329000
1560.000000	36.316400
1559.000000	36.295500
1558.000000	36.289700
1557.000000	36.278400
1556.000000	36.251000
1555.000000	36.211600
1554.000000	36.162800
1553.000000	36.101600
1552.000000	36.047200
1551.000000	35.991700
1550.000000	35.929300
1549.000000	35.874700
1548.000000	35.828200
1547.000000	35.774100
1546.000000	35.713800
1545.000000	35.667400
1544.000000	35.633600
1543.000000	35.609800
1542.000000	35.576100
1541.000000	35.540300
1540.000000	35.519100
1539.000000	35.486200
1538.000000	35.457400
1537.000000	35.433400
1536.000000	35.406500
1535.000000	35.370800
1534.000000	35.329900
1533.000000	35.289200
1532.000000	35.258500
1531.000000	35.216700
1530.000000	35.177400
1529.000000	35.142600
1528.000000	35.113300
1527.000000	35.076300
1526.000000	35.036900
1525.000000	34.994800
1524.000000	34.963200
1523.000000	34.925300
1522.000000	34.873900
1521.000000	34.850600
1520.000000	34.811900
1519.000000	34.765000
1518.000000	34.715600
1517.000000	34.680200
1516.000000	34.623100
1515.000000	34.578600
1514.000000	34.542800
1513.000000	34.490300
1512.000000	34.462500
1511.000000	34.414000
1510.000000	34.344300
1509.000000	34.282500
1508.000000	34.245100
1507.000000	34.211000
1506.000000	34.171100
1505.000000	34.137500
1504.000000	34.103500
1503.000000	34.054800
1502.000000	34.005600
1501.000000	33.971000
1500.000000	33.976100
1499.000000	33.961800
1498.000000	33.943900
1497.000000	33.941100
1496.000000	33.939600
1495.000000	33.929500
1494.000000	33.926500
1493.000000	33.933600
1492.000000	33.950200
1491.000000	33.982400
1490.000000	34.002700
1489.000000	34.021300
1488.000000	34.068600
1487.000000	34.087600
1486.000000	34.114800
1485.000000	34.130000
1484.000000	34.165500
1483.000000	34.185400
1482.000000	34.207000
1481.000000	34.244600
1480.000000	34.281400
1479.000000	34.311700
1478.000000	34.351700
1477.000000	34.383100
1476.000000	34.446300
1475.000000	34.443800
1474.000000	34.505000
1473.000000	34.564900
1472.000000	34.604200
1471.000000	34.654300
1470.000000	34.721400
1469.000000	34.750000
1468.000000	34.788500
1467.000000	34.868300
1466.000000	34.937400
1465.000000	35.004400
1464.000000	35.035800
1463.000000	35.108700
1462.000000	35.159600
1461.000000	35.231100
1460.000000	35.326500
1459.000000	35.386700
1458.000000	35.451800
1457.000000	35.531400
1456.000000	35.587900
1455.000000	35.664600
1454.000000	35.732200
1453.000000	35.781700
1452.000000	35.885900
1451.000000	35.959500
1450.000000	36.034800
1449.000000	36.068900
1448.000000	36.127700
1447.000000	36.204000
1446.000000	36.320300
1445.000000	36.397900
1444.000000	36.413400
1443.000000	36.445600
1442.000000	36.516000
1441.000000	36.583200
1440.000000	36.679600
1439.000000	36.776100
1438.000000	36.886200
1437.000000	36.953500
1436.000000	37.018300
1435.000000	37.091100
1434.000000	37.206000
1433.000000	37.315900
1432.000000	37.394400
1431.000000	37.525100
1430.000000	37.598200
1429.000000	37.700000
1428.000000	37.880000
1427.000000	37.989000
1426.000000	38.105300
1425.000000	38.240600
1424.000000	38.406400
1423.000000	38.560400
1422.000000	38.709800
1421.000000	38.845900
1420.000000	39.033200
1419.000000	39.268400
1418.000000	39.461100
1417.000000	39.538900
1416.000000	39.687500
1415.000000	39.890300
1414.000000	40.224800
1413.000000	40.429300
1412.000000	40.516200
1411.000000	40.731500
1410.000000	40.973500
1409.000000	41.325900
1408.000000	41.530700
1407.000000	41.740500
1406.000000	41.953500
1405.000000	42.241000
1404.000000	42.503500
1403.000000	42.695700
1402.000000	42.747300
1401.000000	43.140000
1400.000000	43.528600
1399.000000	43.696300
1398.000000	43.618200
1397.000000	43.719900
1396.000000	44.096700
1395.000000	44.466000
1394.000000	44.511400
1393.000000	44.589700
1392.000000	44.833900
1391.000000	45.013100
1390.000000	45.051000
1389.000000	45.177000
1388.000000	45.471300
1387.000000	45.643600
1386.000000	45.733200
1385.000000	45.881700
1384.000000	46.022100
1383.000000	46.168700
1382.000000	46.317000
1381.000000	46.500300
1380.000000	46.455300
1379.000000	46.592200
1378.000000	46.555800
1377.000000	46.663500
1376.000000	46.675100
1375.000000	46.752300
1374.000000	46.780300
1373.000000	46.818400
1372.000000	46.886300
1371.000000	47.007200
1370.000000	47.059000
1369.000000	47.076200
1368.000000	47.198200
1367.000000	47.290100
1366.000000	47.245700
1365.000000	47.346400
1364.000000	47.439800
1363.000000	47.403900
1362.000000	47.468900
1361.000000	47.704500
1360.000000	47.714500
1359.000000	47.662200
1358.000000	47.690900
1357.000000	47.725000
1356.000000	47.770500
1355.000000	47.864200
1354.000000	47.980700
1353.000000	48.008700
1352.000000	48.036000
1351.000000	48.142700
1350.000000	48.259500
1349.000000	48.332000
1348.000000	48.451100
1347.000000	48.559400
1346.000000	48.631000
1345.000000	48.703900
1344.000000	48.800000
1343.000000	48.870900
1342.000000	48.947700
1341.000000	49.037200
1340.000000	49.127000
1339.000000	49.222500
1338.000000	49.290000
1337.000000	49.326400
1336.000000	49.363800
1335.000000	49.415700
1334.000000	49.478000
1333.000000	49.543200
1332.000000	49.594400
1331.000000	49.654700
1330.000000	49.694600
1329.000000	49.721100
1328.000000	49.765600
1327.000000	49.785300
1326.000000	49.812600
1325.000000	49.835300
1324.000000	49.871600
1323.000000	49.912700
1322.000000	49.950400
1321.000000	49.975800
1320.000000	50.008900
1319.000000	50.042900
1318.000000	50.066800
1317.000000	50.107000
1316.000000	50.121400
1315.000000	50.111100
1314.000000	50.136700
1313.000000	50.160600
1312.000000	50.174100
1311.000000	50.210600
1310.000000	50.218800
1309.000000	50.223200
1308.000000	50.257900
1307.000000	50.296500
1306.000000	50.297100
1305.000000	50.295200
1304.000000	50.332900
1303.000000	50.349600
1302.000000	50.358400
1301.000000	50.356200
1300.000000	50.353900
1299.000000	50.371500
1298.000000	50.387800
1297.000000	50.393600
1296.000000	50.398900
1295.000000	50.398900
1294.000000	50.382600
1293.000000	50.372800
1292.000000	50.375600
1291.000000	50.373400
1290.000000	50.363200
1289.000000	50.358300
1288.000000	50.347500
1287.000000	50.338200
1286.000000	50.318000
1285.000000	50.302100
1284.000000	50.295900
1283.000000	50.281700
1282.000000	50.251000
1281.000000	50.237000
1280.000000	50.232700
1279.000000	50.226700
1278.000000	50.226300
1277.000000	50.214600
1276.000000	50.182200
1275.000000	50.161600
1274.000000	50.165800
1273.000000	50.182400
1272.000000	50.206000
1271.000000	50.214200
1270.000000	50.187500
1269.000000	50.190600
1268.000000	50.200600
1267.000000	50.203800
1266.000000	50.211500
1265.000000	50.224700
1264.000000	50.223700
1263.000000	50.222800
1262.000000	50.227400
1261.000000	50.223100
1260.000000	50.231500
1259.000000	50.227400
1258.000000	50.224000
1257.000000	50.232300
1256.000000	50.231600
1255.000000	50.224500
1254.000000	50.221800
1253.000000	50.225500
1252.000000	50.220300
1251.000000	50.193800
1250.000000	50.161600
1249.000000	50.138300
1248.000000	50.152400
1247.000000	50.152200
1246.000000	50.146800
1245.000000	50.113900
1244.000000	50.098000
1243.000000	50.071000
1242.000000	50.039600
1241.000000	50.009400
1240.000000	49.978500
1239.000000	49.945200
1238.000000	49.926000
1237.000000	49.917700
1236.000000	49.910600
1235.000000	49.897800
1234.000000	49.893200
1233.000000	49.901800
1232.000000	49.878900
1231.000000	49.842500
1230.000000	49.837900
1229.000000	49.816100
1228.000000	49.809800
1227.000000	49.786000
1226.000000	49.794800
1225.000000	49.803500
1224.000000	49.783600
1223.000000	49.741100
1222.000000	49.721100
1221.000000	49.717100
1220.000000	49.710400
1219.000000	49.695200
1218.000000	49.683600
1217.000000	49.645700
1216.000000	49.641600
1215.000000	49.659500
1214.000000	49.629100
1213.000000	49.619600
1212.000000	49.609400
1211.000000	49.590600
1210.000000	49.601900
1209.000000	49.563700
1208.000000	49.534500
1207.000000	49.491400
1206.000000	49.462500
1205.000000	49.438500
1204.000000	49.397800
1203.000000	49.366200
1202.000000	49.341700
1201.000000	49.314600
1200.000000	49.246700
1199.000000	49.207400
1198.000000	49.171100
1197.000000	49.112300
1196.000000	49.114600
1195.000000	49.086900
1194.000000	49.061400
1193.000000	49.013800
1192.000000	48.954000
1191.000000	48.931500
1190.000000	48.886600
1189.000000	48.864700
1188.000000	48.858500
1187.000000	48.806000
1186.000000	48.836600
1185.000000	48.838800
1184.000000	48.812600
1183.000000	48.828800
1182.000000	48.821500
1181.000000	48.836900
1180.000000	48.871900
1179.000000	48.914800
1178.000000	48.952800
1177.000000	48.988300
1176.000000	48.980600
1175.000000	49.002900
1174.000000	49.051400
1173.000000	49.085500
1172.000000	49.133200
1171.000000	49.164400
1170.000000	49.194200
1169.000000	49.249500
1168.000000	49.280700
1167.000000	49.342500
1166.000000	49.430800
1165.000000	49.496700
1164.000000	49.534200
1163.000000	49.584500
1162.000000	49.623000
1161.000000	49.635000
1160.000000	49.707100
1159.000000	49.792000
1158.000000	49.850500
1157.000000	49.917800
1156.000000	49.963700
1155.000000	50.031900
1154.000000	50.068900
1153.000000	50.114900
1152.000000	50.151700
1151.000000	50.168100
1150.000000	50.188200
1149.000000	50.208300
1148.000000	50.256300
1147.000000	50.293700
1146.000000	50.317200
1145.000000	50.346200
1144.000000	50.388100
1143.000000	50.411800
1142.000000	50.428300
1141.000000	50.484900
1140.000000	50.512500
1139.000000	50.547500
1138.000000	50.589800
1137.000000	50.655500
1136.000000	50.689600
1135.000000	50.796000
1134.000000	50.875100
1133.000000	50.869200
1132.000000	50.851100
1131.000000	50.867400
1130.000000	50.927400
1129.000000	50.962400
1128.000000	50.991500
1127.000000	51.011700
1126.000000	51.045800
1125.000000	51.048600
1124.000000	51.069100
1123.000000	51.058000
1122.000000	51.086000
1121.000000	51.088700
1120.000000	51.084900
1119.000000	51.072900
1118.000000	51.057000
1117.000000	51.041500
1116.000000	51.026600
1115.000000	51.017800
1114.000000	51.016100
1113.000000	51.023200
1112.000000	51.020000
1111.000000	51.036600
1110.000000	51.023700
1109.000000	51.006800
1108.000000	50.992200
1107.000000	50.974400
1106.000000	50.973200
1105.000000	50.966100
1104.000000	50.939900
1103.000000	50.941500
1102.000000	50.949600
1101.000000	50.915400
1100.000000	50.888400
1099.000000	50.879300
1098.000000	50.847800
1097.000000	50.823600
1096.000000	50.812000
1095.000000	50.802600
1094.000000	50.803800
1093.000000	50.793200
1092.000000	50.775900
1091.000000	50.751700
1090.000000	50.724100
1089.000000	50.701600
1088.000000	50.681400
1087.000000	50.660300
1086.000000	50.648700
1085.000000	50.616200
1084.000000	50.578100
1083.000000	50.585600
1082.000000	50.571800
1081.000000	50.548900
1080.000000	50.499600
1079.000000	50.455300
1078.000000	50.435400
1077.000000	50.413900
1076.000000	50.399800
1075.000000	50.376200
1074.000000	50.352200
1073.000000	50.344300
1072.000000	50.325700
1071.000000	50.298800
1070.000000	50.286200
1069.000000	50.259800
1068.000000	50.224500
1067.000000	50.195500
1066.000000	50.157500
1065.000000	50.140500
1064.000000	50.128900
1063.000000	50.113900
1062.000000	50.098300
1061.000000	50.066600
1060.000000	50.025400
1059.000000	49.995600
1058.000000	49.965700
1057.000000	49.937800
1056.000000	49.902100
1055.000000	49.899300
1054.000000	49.887500
1053.000000	49.846800
1052.000000	49.802600
1051.000000	49.761500
1050.000000	49.744800
1049.000000	49.721300
1048.000000	49.703000
1047.000000	49.690300
1046.000000	49.668200
1045.000000	49.663300
1044.000000	49.647900
1043.000000	49.603200
1042.000000	49.557200
1041.000000	49.542600
1040.000000	49.526500
1039.000000	49.498700
1038.000000	49.483500
1037.000000	49.461100
1036.000000	49.416200
1035.000000	49.376100
1034.000000	49.366200
1033.000000	49.363900
1032.000000	49.338100
1031.000000	49.311400
1030.000000	49.304700
1029.000000	49.285400
1028.000000	49.243200
1027.000000	49.207800
1026.000000	49.180500
1025.000000	49.156200
1024.000000	49.133800
1023.000000	49.105700
1022.000000	49.104400
1021.000000	49.118900
1020.000000	49.099600
1019.000000	49.081100
1018.000000	49.042800
1017.000000	48.970100
1016.000000	48.935400
1015.000000	48.917000
1014.000000	48.891700
1013.000000	48.877500
1012.000000	48.862400
1011.000000	48.823900
1010.000000	48.783400
1009.000000	48.761200
1008.000000	48.740100
1007.000000	48.699900
1006.000000	48.668700
1005.000000	48.646600
1004.000000	48.630100
1003.000000	48.616000
1002.000000	48.567900
1001.000000	48.512900
1000.000000	48.475100
999.000000	48.447400
998.000000	48.423700
997.000000	48.377300
996.000000	48.343400
995.000000	48.312300
994.000000	48.265400
993.000000	48.229100
992.000000	48.195500
991.000000	48.162800
990.000000	48.114400
989.000000	48.076800
988.000000	48.043200
987.000000	48.020600
986.000000	48.000400
985.000000	47.923700
984.000000	47.851900
983.000000	47.839200
982.000000	47.839000
981.000000	47.807800
980.000000	47.762800
979.000000	47.751500
978.000000	47.734800
977.000000	47.673200
976.000000	47.612700
975.000000	47.605700
974.000000	47.587700
973.000000	47.585700
972.000000	47.542400
971.000000	47.526800
970.000000	47.519800
969.000000	47.526800
968.000000	47.493800
967.000000	47.444800
966.000000	47.448500
965.000000	47.435800
964.000000	47.387600
963.000000	47.368700
962.000000	47.315300
961.000000	47.301800
960.000000	47.309500
959.000000	47.304400
958.000000	47.253500
957.000000	47.194200
956.000000	47.178100
955.000000	47.153000
954.000000	47.157900
953.000000	47.120100
952.000000	47.069200
951.000000	47.054600
950.000000	46.968000
949.000000	46.907100
948.000000	46.898900
947.000000	46.849400
946.000000	46.800300
945.000000	46.779100
944.000000	46.701800
943.000000	46.601900
942.000000	46.558600
941.000000	46.562600
940.000000	46.507100
939.000000	46.392700
938.000000	46.292000
937.000000	46.211900
936.000000	46.146000
935.000000	46.085800
934.000000	46.089900
933.000000	46.014000
932.000000	45.935500
931.000000	45.894700
930.000000	45.800400
929.000000	45.691800
928.000000	45.604200
927.000000	45.585200
926.000000	45.487900
925.000000	45.403800
924.000000	45.319300
923.000000	45.295500
922.000000	45.205900
921.000000	45.166700
920.000000	45.090200
919.000000	45.002400
918.000000	44.937600
917.000000	44.842300
916.000000	44.763900
915.000000	44.775900
914.000000	44.711000
913.000000	44.566400
912.000000	44.511600
911.000000	44.445900
910.000000	44.451300
909.000000	44.360900
908.000000	44.265200
907.000000	44.202300
906.000000	44.147900
905.000000	44.072400
904.000000	44.020500
903.000000	43.951600
902.000000	43.882900
901.000000	43.789000
900.000000	43.700600
899.000000	43.639400
898.000000	43.572000
897.000000	43.429100
896.000000	43.332500
895.000000	43.239500
894.000000	43.151200
893.000000	43.040700
892.000000	42.952700
891.000000	42.824900
890.000000	42.710700
889.000000	42.541400
888.000000	42.436200
887.000000	42.348300
886.000000	42.251500
885.000000	42.144200
884.000000	42.023700
883.000000	41.859600
882.000000	41.704600
881.000000	41.638200
880.000000	41.521300
879.000000	41.348600
878.000000	41.233400
877.000000	41.065900
876.000000	40.962200
875.000000	40.864500
874.000000	40.744900
873.000000	40.578400
872.000000	40.464500
871.000000	40.316500
870.000000	40.212100
869.000000	40.112300
868.000000	39.978300
867.000000	39.830200
866.000000	39.737700
865.000000	39.603600
864.000000	39.505900
863.000000	39.365200
862.000000	39.272300
861.000000	39.127200
860.000000	38.996800
859.000000	38.832500
858.000000	40.107300
857.000000	39.186040
856.000000	39.293319
855.000000	39.113866
854.000000	39.118530
853.000000	39.039564
852.000000	39.076142
851.000000	39.338981
850.000000	39.578416
849.000000	39.302075
848.000000	39.229328
847.000000	39.290210
846.000000	39.228510
845.000000	39.096681
844.000000	39.038091
843.000000	38.992593
842.000000	39.023362
841.000000	39.115175
840.000000	38.903644
839.000000	39.081215
838.000000	38.842762
837.000000	38.921974
836.000000	38.923447
835.000000	38.891451
834.000000	38.889487
833.000000	38.715844
832.000000	38.838753
831.000000	38.745302
830.000000	38.647352
829.000000	38.656598
828.000000	38.555784
827.000000	38.458733
826.000000	38.430665
825.000000	38.389914
824.000000	38.294418
823.000000	38.292454
822.000000	38.236564
821.000000	38.141804
820.000000	38.091233
819.000000	38.011531
818.000000	37.953104
817.000000	37.887149
816.000000	37.809001
815.000000	37.784125
814.000000	37.707777
813.000000	37.727089
812.000000	37.680282
811.000000	37.585277
810.000000	37.552627
809.000000	37.443138
808.000000	37.406969
807.000000	37.399768
806.000000	37.271786
805.000000	37.179645
804.000000	37.115817
803.000000	37.040042
802.000000	36.992417
801.000000	36.968195
800.000000	36.949456
799.000000	36.781704
798.000000	36.659368
797.000000	36.641775
796.000000	36.599796
795.000000	36.542842
794.000000	36.492598
793.000000	36.387855
792.000000	36.231887
791.000000	36.145229
790.000000	36.089666
789.000000	36.050060
788.000000	36.017083
787.000000	35.958738
786.000000	35.869543
785.000000	35.696390
784.000000	35.575281
783.000000	35.556133
782.000000	35.491242
781.000000	35.400492
780.000000	35.292476
779.000000	35.207127
778.000000	35.092156
777.000000	35.006479
776.000000	34.981603
775.000000	34.870478
774.000000	34.757634
773.000000	34.717782
772.000000	34.595201
771.000000	34.550358
770.000000	34.495041
769.000000	34.404291
768.000000	34.291529
767.000000	34.172384
766.000000	34.099964
765.000000	33.983765
764.000000	33.931967
763.000000	33.900544
762.000000	33.755050
761.000000	33.620357
760.000000	33.567740
759.000000	33.514551
758.000000	33.383950
757.000000	33.325277
756.000000	33.286490
755.000000	33.186002
754.000000	33.102290
753.000000	33.030689
752.000000	32.916617
751.000000	32.836424
750.000000	32.778161
749.000000	32.724071
748.000000	32.634385
747.000000	32.525223
746.000000	32.462705
745.000000	32.435046
744.000000	32.368027
743.000000	32.263285
742.000000	32.210586
741.000000	32.102652
740.000000	31.989644
739.000000	31.941037
738.000000	31.861253
737.000000	31.782614
736.000000	31.718705
735.000000	31.660932
734.000000	31.573456
733.000000	31.478860
732.000000	31.399730
731.000000	31.335985
730.000000	31.284677
729.000000	31.233288
728.000000	31.157349
727.000000	31.096058
726.000000	31.035913
725.000000	30.962675
724.000000	30.908340
723.000000	30.849586
722.000000	30.763500
721.000000	30.704828
720.000000	30.680034
719.000000	30.625944
718.000000	30.563180
717.000000	30.500007
716.000000	30.428078
715.000000	30.374970
714.000000	30.332746
713.000000	30.281848
712.000000	30.186352
711.000000	30.094211
710.000000	30.044540
709.000000	29.940534
708.000000	29.850357
707.000000	29.769181
706.000000	29.705927
705.000000	29.646191
704.000000	29.572952
703.000000	29.478930
702.000000	29.382452
701.000000	29.301767
700.000000	29.232539
699.000000	29.147435
698.000000	29.073870
697.000000	29.006605
696.000000	28.936804
695.000000	28.883205
694.000000	28.799657
693.000000	28.740494
692.000000	28.680267
691.000000	28.625031
690.000000	28.559403
689.000000	28.489275
688.000000	28.426511
687.000000	28.426266
686.000000	28.407199
685.000000	28.366202
684.000000	28.263669
683.000000	28.204669
682.000000	28.187321
681.000000	28.133886
680.000000	28.105327
679.000000	28.063512
678.000000	28.012450
677.000000	27.987083
676.000000	27.967198
675.000000	27.948622
674.000000	27.881358
673.000000	27.840934
672.000000	27.809184
671.000000	27.785780
670.000000	27.760331
669.000000	27.714915
668.000000	27.691185
667.000000	27.653706
666.000000	27.622120
665.000000	27.597653
664.000000	27.541190
663.000000	27.466970
662.000000	27.382275
661.000000	27.324913
660.000000	27.286780
659.000000	27.230562
658.000000	27.182119
657.000000	27.108553
656.000000	27.053645
655.000000	26.979016
654.000000	26.920262
653.000000	26.810528
652.000000	26.759711
651.000000	26.689255
650.000000	26.609225
649.000000	26.516921
648.000000	26.401213
647.000000	26.310954
646.000000	26.208012
645.000000	26.136901
644.000000	26.080111
643.000000	25.988052
642.000000	25.905485
641.000000	25.790105
640.000000	25.703692
639.000000	25.607542
638.000000	25.523829
637.000000	25.422523
636.000000	25.358860
635.000000	25.278993
634.000000	25.214675
633.000000	25.159603
632.000000	25.139636
631.000000	25.121388
630.000000	25.107886
629.000000	25.100358
628.000000	25.072945
627.000000	25.093893
626.000000	25.110423
625.000000	25.171796
624.000000	25.217621
623.000000	25.292086
622.000000	25.360742
621.000000	25.435616
620.000000	25.539050
619.000000	25.633809
618.000000	25.758191
617.000000	25.886583
616.000000	26.028804
615.000000	26.132155
614.000000	26.243608
613.000000	26.392212
612.000000	26.519949
611.000000	26.642530
610.000000	26.736962
609.000000	26.831067
608.000000	26.918134
607.000000	27.032942
606.000000	27.106835
605.000000	27.235636
604.000000	27.300363
603.000000	27.432274
602.000000	27.582350
601.000000	27.738564
600.000000	27.868756
599.000000	28.035772
598.000000	28.191331
597.000000	28.345417
596.000000	28.520616
595.000000	28.671102
594.000000	28.813813
593.000000	28.991712
592.000000	29.173866
591.000000	29.348738
590.000000	29.498732
589.000000	29.605766
588.000000	29.746433
587.000000	29.885626
586.000000	30.012954
585.000000	30.156566
584.000000	30.244697
583.000000	30.326936
582.000000	30.421777
581.000000	30.495425
580.000000	30.560971
579.000000	30.658430
578.000000	30.758918
577.000000	30.838375
576.000000	30.935917
575.000000	31.044915
574.000000	31.153012
573.000000	31.227150
572.000000	31.338112
571.000000	31.431890
570.000000	31.503246
569.000000	31.582703
568.000000	31.655450
567.000000	31.722714
566.000000	31.743417
565.000000	31.767475
564.000000	31.756510
563.000000	31.766657
562.000000	31.760356
561.000000	31.720587
560.000000	31.617235
559.000000	31.478287
558.000000	31.383937
557.000000	31.330093
556.000000	31.285250
555.000000	31.214549
554.000000	31.131327
553.000000	31.064390
552.000000	30.994671
551.000000	30.903921
550.000000	30.824464
549.000000	30.726431
548.000000	30.620707
547.000000	30.482250
546.000000	30.350340
545.000000	30.181851
544.000000	30.016636
543.000000	29.810751
542.000000	29.619350
541.000000	29.414938
540.000000	29.172721
539.000000	28.898180
538.000000	28.629368
537.000000	28.342390
536.000000	28.021042
535.000000	27.722035
534.000000	27.379166
533.000000	27.067884
532.000000	26.712822
531.000000	26.319874
530.000000	25.943946
529.000000	25.550424
528.000000	25.144219
527.000000	24.733104
526.000000	24.301531
525.000000	23.847373
524.000000	23.416865
523.000000	22.972526
522.000000	22.494965
521.000000	22.022232
520.000000	21.556373
519.000000	21.093132
518.000000	20.649203
517.000000	20.198400
516.000000	19.735405
515.000000	19.296631
514.000000	18.867841
513.000000	18.438068
512.000000	18.010914
511.000000	17.620257
510.000000	17.248420
509.000000	16.882312
508.000000	16.535352
507.000000	16.209013
506.000000	15.891921
505.000000	15.575074
504.000000	15.275657
503.000000	14.981641
502.000000	14.702846
501.000000	14.430760
500.000000	14.155565
499.000000	13.891499
498.000000	13.641671
497.000000	13.412383
496.000000	13.193569
495.000000	12.965263
494.000000	12.751768
493.000000	12.541546
492.000000	12.345481
491.000000	12.154734
490.000000	11.958424
489.000000	11.788953
488.000000	11.611054
487.000000	11.428573
486.000000	11.264012
485.000000	11.084722
484.000000	10.919998
483.000000	10.752492
482.000000	10.542024
481.000000	10.322146
480.000000	10.093595
479.000000	9.891719
478.000000	9.721349
477.000000	9.565053
476.000000	9.411294
475.000000	9.270055
474.000000	9.138145
473.000000	8.995188
472.000000	8.871051
471.000000	8.754034
470.000000	8.640372
469.000000	8.546922
468.000000	8.456335
467.000000	8.371478
466.000000	8.294803
465.000000	8.214445
464.000000	8.140880
463.000000	8.079589
462.000000	8.018871
461.000000	7.964454
460.000000	7.919366
459.000000	7.873704
458.000000	7.828370
457.000000	7.789746
456.000000	7.750795
455.000000	7.717818
454.000000	7.685740
453.000000	7.643352
452.000000	7.603828
451.000000	7.576006
450.000000	7.543683
449.000000	7.506696
448.000000	7.469054
447.000000	7.435503
446.000000	7.414064
445.000000	7.391233
444.000000	7.364229
443.000000	7.325933
442.000000	7.274953
441.000000	7.232892
440.000000	7.198687
439.000000	7.159899
438.000000	7.119311
437.000000	7.087889
436.000000	7.045010
435.000000	7.005895
434.000000	6.981509
433.000000	6.950332
432.000000	6.913508
431.000000	6.876439
430.000000	6.832333
429.000000	6.790272
428.000000	6.746575
427.000000	6.708442
426.000000	6.675219
425.000000	6.638477
424.000000	6.602144
423.000000	6.556156
422.000000	6.501739
421.000000	6.456241
420.000000	6.410825
419.000000	6.365082
418.000000	6.321221
417.000000	6.273269
416.000000	6.220406
415.000000	6.162143
414.000000	6.105271
413.000000	6.038252
412.000000	5.982853
411.000000	5.917962
410.000000	5.832695
409.000000	5.746118
408.000000	5.673453
407.000000	5.600788
406.000000	5.534342
405.000000	5.456521
404.000000	5.364871
403.000000	5.289506
402.000000	5.203339
401.000000	5.107434
400.000000	5.026340
399.000000	4.942055
398.000000	4.856133
397.000000	4.773239
396.000000	4.680853
395.000000	4.593458
394.000000	4.508354
393.000000	4.423824
392.000000	4.339130
391.000000	4.264664
390.000000	4.187007
389.000000	4.100022
388.000000	4.022856
387.000000	3.951745
386.000000	3.878344
385.000000	3.814189
384.000000	3.741196
383.000000	3.669185
382.000000	3.610104
381.000000	3.562152
380.000000	3.503807
379.000000	3.449717
378.000000	3.399473
377.000000	3.352503
376.000000	3.349475
375.000000	3.025918
374.000000	2.910701
373.000000	2.985821
372.000000	2.959717
371.000000	2.830344
370.000000	2.860867
369.000000	2.800721
368.000000	2.841145
367.000000	2.826170
366.000000	2.853665
365.000000	2.887134
364.000000	2.785337
363.000000	2.765125
362.000000	2.724783
361.000000	2.708826
360.000000	2.741804
359.000000	2.739021
358.000000	2.761525
357.000000	2.694015
356.000000	2.730429
355.000000	2.669547
354.000000	2.615703
353.000000	2.633460
352.000000	2.657355
351.000000	2.612675
350.000000	2.623804
349.000000	2.637634
348.000000	2.706617
347.000000	2.630433
346.000000	2.595000
345.000000	2.604001
344.000000	2.592054
343.000000	2.678058
342.000000	2.607684
341.000000	2.572824
340.000000	2.622659
339.000000	2.597946
338.000000	2.522089
337.000000	2.544838
336.000000	2.572906
335.000000	2.667665
334.000000	2.633460
333.000000	2.678958
332.000000	2.678631
331.000000	2.736157
330.000000	2.719382
329.000000	2.655391
328.000000	2.684441
327.000000	2.785828
326.000000	2.528718
325.000000	2.400408
324.000000	2.616931
323.000000	2.713081
322.000000	2.710217
321.000000	2.827152
320.000000	2.824861
319.000000	2.846464
318.000000	2.944333
317.000000	2.735257
316.000000	2.664147
315.000000	2.680431
314.000000	2.671675
313.000000	2.649826
312.000000	2.684277
311.000000	2.690578
310.000000	2.651217
309.000000	2.622822
308.000000	2.670939
307.000000	2.676421
306.000000	2.691805
305.000000	2.691069
304.000000	2.672902
303.000000	2.643689
302.000000	2.676503
301.000000	2.705307
300.000000	2.636815
299.000000	2.724783
298.000000	2.727974
297.000000	2.680185
296.000000	2.674457
295.000000	2.736239
294.000000	2.652936
293.000000	2.643607
292.000000	2.706289
291.000000	2.708171
290.000000	2.684113
289.000000	2.660955
288.000000	2.651136
287.000000	2.679122
286.000000	2.675276
285.000000	2.660301
284.000000	2.717582
283.000000	2.658173
282.000000	2.713081
281.000000	2.691887
280.000000	2.713899
279.000000	2.698924
278.000000	2.704243
277.000000	2.748268
276.000000	2.749823
275.000000	2.733948
274.000000	2.730184
273.000000	2.763489
272.000000	2.750478
271.000000	2.777154
270.000000	2.788529
269.000000	2.777318
268.000000	2.777400
267.000000	2.790656
266.000000	2.787547
265.000000	2.786646
264.000000	2.840982
263.000000	2.799821
262.000000	2.843928
261.000000	2.823552
260.000000	2.880751
259.000000	2.881979
258.000000	2.918475
257.000000	2.900800
256.000000	2.890080
255.000000	2.872732
254.000000	2.925676
253.000000	2.890735
252.000000	2.928213
251.000000	2.962172
250.000000	2.971010
