PE UV       SUBTECH     SPECTRUM    ASCII       PEDS        4.00        
   -1
CICIMAUCR0071-1.Sample.ASC
24/04/18
15:05:09.00
24/04/18
15:05:09.00
Vinicio Soto Monge
C. resplendens
250,000000
1
Lambda 1050
1050L1511233
PerkinElmer UV WinLab 6.3.2.0749 / 2.02.05 Lambda 900 UV/VIS/NIR, Aug  7 2015 09:38:08

0
0
3350/servo 860,8/2
0
0
UV/VIS
1
1
1
DoubleDePol,CommonBeamDepol,RBeamAtt,SBeamAtt,60mm sphere, WB InGaAs Detector
0
0
0
0
Program
Program
3350/servo 860,8/2
3350/0,2 860,8/0,2
3350/0,2 860,8/0,2
0
15.00
 
 
 
0
 
860,8
319,2
860,8
Front
100
on
S:100 R:100
0
0
0
0
 
0
 
 
 
0
 
 
0
0
0
0
0
 
 
 
 
0
0


0
0
#HDR
-1
-1
#GR
nm
%R
1.0
0.0
2500,000000
-1,000000
2251
8
93,363700
5,885500
#DATA
2500.000000	15.271200
2499.000000	15.242000
2498.000000	15.216200
2497.000000	15.153800
2496.000000	15.142600
2495.000000	15.075500
2494.000000	15.024500
2493.000000	15.111800
2492.000000	15.052100
2491.000000	15.010700
2490.000000	14.993400
2489.000000	15.041600
2488.000000	14.944000
2487.000000	14.872400
2486.000000	14.925400
2485.000000	14.968900
2484.000000	14.998800
2483.000000	15.002900
2482.000000	14.958800
2481.000000	14.953400
2480.000000	14.985000
2479.000000	15.014000
2478.000000	15.016900
2477.000000	15.040300
2476.000000	15.071100
2475.000000	15.072000
2474.000000	15.120400
2473.000000	15.140500
2472.000000	15.138700
2471.000000	15.206000
2470.000000	15.240300
2469.000000	15.256900
2468.000000	15.305800
2467.000000	15.343600
2466.000000	15.377200
2465.000000	15.403400
2464.000000	15.473700
2463.000000	15.524100
2462.000000	15.566700
2461.000000	15.623300
2460.000000	15.670300
2459.000000	15.738400
2458.000000	15.809700
2457.000000	15.887200
2456.000000	15.953400
2455.000000	16.026300
2454.000000	16.119400
2453.000000	16.191100
2452.000000	16.285600
2451.000000	16.354400
2450.000000	16.446600
2449.000000	16.563400
2448.000000	16.667100
2447.000000	16.759900
2446.000000	16.850500
2445.000000	16.958700
2444.000000	17.052900
2443.000000	17.141700
2442.000000	17.263800
2441.000000	17.365100
2440.000000	17.480800
2439.000000	17.585000
2438.000000	17.674900
2437.000000	17.789200
2436.000000	17.898000
2435.000000	17.989200
2434.000000	18.067900
2433.000000	18.165300
2432.000000	18.277200
2431.000000	18.373400
2430.000000	18.463000
2429.000000	18.563300
2428.000000	18.625900
2427.000000	18.727500
2426.000000	18.817900
2425.000000	18.904000
2424.000000	18.984200
2423.000000	19.054000
2422.000000	19.085600
2421.000000	19.121400
2420.000000	19.139000
2419.000000	19.181700
2418.000000	19.242600
2417.000000	19.298700
2416.000000	19.354400
2415.000000	19.397700
2414.000000	19.426400
2413.000000	19.470900
2412.000000	19.517900
2411.000000	19.546800
2410.000000	19.562700
2409.000000	19.590600
2408.000000	19.619300
2407.000000	19.652200
2406.000000	19.670500
2405.000000	19.677300
2404.000000	19.688100
2403.000000	19.721000
2402.000000	19.757600
2401.000000	19.755400
2400.000000	19.767800
2399.000000	19.789100
2398.000000	19.794100
2397.000000	19.822800
2396.000000	19.811800
2395.000000	19.804800
2394.000000	19.841000
2393.000000	19.844400
2392.000000	19.825900
2391.000000	19.841800
2390.000000	19.843700
2389.000000	19.834200
2388.000000	19.848000
2387.000000	19.856600
2386.000000	19.845400
2385.000000	19.835000
2384.000000	19.847100
2383.000000	19.838100
2382.000000	19.814600
2381.000000	19.816600
2380.000000	19.798500
2379.000000	19.788300
2378.000000	19.780600
2377.000000	19.774000
2376.000000	19.761500
2375.000000	19.727900
2374.000000	19.711100
2373.000000	19.708800
2372.000000	19.674500
2371.000000	19.650800
2370.000000	19.650800
2369.000000	19.642300
2368.000000	19.633600
2367.000000	19.625500
2366.000000	19.616500
2365.000000	19.592900
2364.000000	19.582100
2363.000000	19.571400
2362.000000	19.558300
2361.000000	19.561000
2360.000000	19.546600
2359.000000	19.522400
2358.000000	19.492800
2357.000000	19.462600
2356.000000	19.452100
2355.000000	19.434400
2354.000000	19.413400
2353.000000	19.390800
2352.000000	19.362200
2351.000000	19.338300
2350.000000	19.289200
2349.000000	19.258100
2348.000000	19.241100
2347.000000	19.228300
2346.000000	19.193600
2345.000000	19.166100
2344.000000	19.165700
2343.000000	19.154600
2342.000000	19.130400
2341.000000	19.130600
2340.000000	19.115400
2339.000000	19.095900
2338.000000	19.083400
2337.000000	19.072200
2336.000000	19.066300
2335.000000	19.062400
2334.000000	19.073100
2333.000000	19.074000
2332.000000	19.069900
2331.000000	19.072500
2330.000000	19.091600
2329.000000	19.089900
2328.000000	19.091800
2327.000000	19.089800
2326.000000	19.107000
2325.000000	19.126400
2324.000000	19.140200
2323.000000	19.145200
2322.000000	19.130600
2321.000000	19.143400
2320.000000	19.127800
2319.000000	19.110200
2318.000000	19.085800
2317.000000	19.038600
2316.000000	19.003500
2315.000000	18.977900
2314.000000	18.929000
2313.000000	18.877400
2312.000000	18.837500
2311.000000	18.796500
2310.000000	18.734900
2309.000000	18.713400
2308.000000	18.680300
2307.000000	18.648500
2306.000000	18.620700
2305.000000	18.601800
2304.000000	18.584500
2303.000000	18.564500
2302.000000	18.559500
2301.000000	18.551200
2300.000000	18.543800
2299.000000	18.544600
2298.000000	18.540100
2297.000000	18.550700
2296.000000	18.557800
2295.000000	18.561700
2294.000000	18.574900
2293.000000	18.603600
2292.000000	18.618700
2291.000000	18.644700
2290.000000	18.673100
2289.000000	18.704100
2288.000000	18.731300
2287.000000	18.753500
2286.000000	18.798700
2285.000000	18.828200
2284.000000	18.857600
2283.000000	18.881300
2282.000000	18.923400
2281.000000	18.935700
2280.000000	19.001800
2279.000000	19.016500
2278.000000	19.035200
2277.000000	19.054700
2276.000000	19.076300
2275.000000	19.096800
2274.000000	19.106800
2273.000000	19.149900
2272.000000	19.164100
2271.000000	19.199400
2270.000000	19.209500
2269.000000	19.255600
2268.000000	19.287600
2267.000000	19.325700
2266.000000	19.386100
2265.000000	19.434100
2264.000000	19.511800
2263.000000	19.577500
2262.000000	19.657500
2261.000000	19.745200
2260.000000	19.849500
2259.000000	19.980500
2258.000000	20.089400
2257.000000	20.208800
2256.000000	20.363800
2255.000000	20.504300
2254.000000	20.667600
2253.000000	20.798400
2252.000000	20.936800
2251.000000	21.101000
2250.000000	21.274500
2249.000000	21.410900
2248.000000	21.516600
2247.000000	21.656900
2246.000000	21.784300
2245.000000	21.900200
2244.000000	22.014400
2243.000000	22.122600
2242.000000	22.196500
2241.000000	22.274400
2240.000000	22.343300
2239.000000	22.404300
2238.000000	22.452300
2237.000000	22.475500
2236.000000	22.521700
2235.000000	22.551100
2234.000000	22.558100
2233.000000	22.568200
2232.000000	22.568100
2231.000000	22.550600
2230.000000	22.523000
2229.000000	22.473700
2228.000000	22.455600
2227.000000	22.412800
2226.000000	22.378000
2225.000000	22.340400
2224.000000	22.289400
2223.000000	22.217000
2222.000000	22.130900
2221.000000	22.050100
2220.000000	21.973400
2219.000000	21.905700
2218.000000	21.825900
2217.000000	21.754900
2216.000000	21.657800
2215.000000	21.594700
2214.000000	21.485700
2213.000000	21.412500
2212.000000	21.365400
2211.000000	21.291500
2210.000000	21.218800
2209.000000	21.144900
2208.000000	21.085800
2207.000000	21.007900
2206.000000	20.953300
2205.000000	20.904300
2204.000000	20.845200
2203.000000	20.788400
2202.000000	20.751500
2201.000000	20.708700
2200.000000	20.650100
2199.000000	20.599900
2198.000000	20.565000
2197.000000	20.516600
2196.000000	20.478000
2195.000000	20.437500
2194.000000	20.405100
2193.000000	20.380400
2192.000000	20.347700
2191.000000	20.326000
2190.000000	20.285300
2189.000000	20.258600
2188.000000	20.252200
2187.000000	20.240900
2186.000000	20.202100
2185.000000	20.169300
2184.000000	20.155900
2183.000000	20.123700
2182.000000	20.099300
2181.000000	20.092300
2180.000000	20.059000
2179.000000	20.030100
2178.000000	20.024500
2177.000000	20.019300
2176.000000	20.014900
2175.000000	20.007200
2174.000000	20.007400
2173.000000	19.998600
2172.000000	20.018600
2171.000000	20.031800
2170.000000	20.052800
2169.000000	20.074000
2168.000000	20.091800
2167.000000	20.114000
2166.000000	20.175200
2165.000000	20.204800
2164.000000	20.248200
2163.000000	20.307300
2162.000000	20.353600
2161.000000	20.400500
2160.000000	20.477400
2159.000000	20.540900
2158.000000	20.614300
2157.000000	20.703600
2156.000000	20.778300
2155.000000	20.879500
2154.000000	20.971000
2153.000000	21.066900
2152.000000	21.168500
2151.000000	21.272800
2150.000000	21.373200
2149.000000	21.498900
2148.000000	21.627600
2147.000000	21.717200
2146.000000	21.825900
2145.000000	21.938100
2144.000000	22.048800
2143.000000	22.152600
2142.000000	22.262700
2141.000000	22.362100
2140.000000	22.462600
2139.000000	22.558900
2138.000000	22.659100
2137.000000	22.749700
2136.000000	22.833500
2135.000000	22.935600
2134.000000	23.031500
2133.000000	23.106700
2132.000000	23.165000
2131.000000	23.236900
2130.000000	23.324900
2129.000000	23.392900
2128.000000	23.440000
2127.000000	23.507000
2126.000000	23.550500
2125.000000	23.597700
2124.000000	23.657700
2123.000000	23.697800
2122.000000	23.738100
2121.000000	23.769100
2120.000000	23.798800
2119.000000	23.829700
2118.000000	23.865700
2117.000000	23.879700
2116.000000	23.900400
2115.000000	23.914400
2114.000000	23.923400
2113.000000	23.937200
2112.000000	23.941400
2111.000000	23.951700
2110.000000	23.963100
2109.000000	23.967600
2108.000000	23.965400
2107.000000	23.957800
2106.000000	23.964900
2105.000000	23.960800
2104.000000	23.956700
2103.000000	23.953700
2102.000000	23.948000
2101.000000	23.945500
2100.000000	23.948000
2099.000000	23.938800
2098.000000	23.936800
2097.000000	23.943100
2096.000000	23.951500
2095.000000	23.958100
2094.000000	23.969700
2093.000000	23.989400
2092.000000	24.003500
2091.000000	24.024100
2090.000000	24.035400
2089.000000	24.048700
2088.000000	24.069300
2087.000000	24.066900
2086.000000	24.074900
2085.000000	24.079400
2084.000000	24.063600
2083.000000	24.030900
2082.000000	24.007400
2081.000000	23.987900
2080.000000	23.962800
2079.000000	23.929100
2078.000000	23.877300
2077.000000	23.817300
2076.000000	23.744000
2075.000000	23.674800
2074.000000	23.597800
2073.000000	23.500800
2072.000000	23.404600
2071.000000	23.316200
2070.000000	23.208100
2069.000000	23.090000
2068.000000	22.987700
2067.000000	22.881400
2066.000000	22.751600
2065.000000	22.631400
2064.000000	22.519800
2063.000000	22.404800
2062.000000	22.291600
2061.000000	22.177300
2060.000000	22.059300
2059.000000	21.996000
2058.000000	21.913900
2057.000000	21.836100
2056.000000	21.774500
2055.000000	21.738000
2054.000000	21.702400
2053.000000	21.704000
2052.000000	21.720800
2051.000000	21.761300
2050.000000	21.796500
2049.000000	21.873800
2048.000000	21.965800
2047.000000	22.060300
2046.000000	22.170100
2045.000000	22.297200
2044.000000	22.421200
2043.000000	22.559800
2042.000000	22.699900
2041.000000	22.826400
2040.000000	22.967100
2039.000000	23.108400
2038.000000	23.226600
2037.000000	23.356100
2036.000000	23.473100
2035.000000	23.572900
2034.000000	23.695600
2033.000000	23.801400
2032.000000	23.896100
2031.000000	23.982000
2030.000000	24.068000
2029.000000	24.153300
2028.000000	24.216700
2027.000000	24.276700
2026.000000	24.352100
2025.000000	24.409100
2024.000000	24.468700
2023.000000	24.535400
2022.000000	24.574100
2021.000000	24.613600
2020.000000	24.660000
2019.000000	24.685200
2018.000000	24.706900
2017.000000	24.721600
2016.000000	24.727700
2015.000000	24.754600
2014.000000	24.755000
2013.000000	24.728500
2012.000000	24.724200
2011.000000	24.702400
2010.000000	24.700300
2009.000000	24.670700
2008.000000	24.624100
2007.000000	24.598800
2006.000000	24.573100
2005.000000	24.519400
2004.000000	24.470800
2003.000000	24.388700
2002.000000	24.318300
2001.000000	24.261800
2000.000000	24.164300
1999.000000	24.092900
1998.000000	24.027600
1997.000000	23.929000
1996.000000	23.842600
1995.000000	23.749900
1994.000000	23.661000
1993.000000	23.550400
1992.000000	23.427800
1991.000000	23.345200
1990.000000	23.235000
1989.000000	23.128000
1988.000000	23.011700
1987.000000	22.924200
1986.000000	22.801700
1985.000000	22.687300
1984.000000	22.581700
1983.000000	22.473500
1982.000000	22.320500
1981.000000	22.222400
1980.000000	22.124500
1979.000000	22.015800
1978.000000	21.892800
1977.000000	21.790700
1976.000000	21.684400
1975.000000	21.572900
1974.000000	21.457300
1973.000000	21.359600
1972.000000	21.281300
1971.000000	21.160700
1970.000000	21.080500
1969.000000	20.969200
1968.000000	20.848500
1967.000000	20.763700
1966.000000	20.682300
1965.000000	20.576600
1964.000000	20.486200
1963.000000	20.410600
1962.000000	20.309300
1961.000000	20.233200
1960.000000	20.126700
1959.000000	20.031300
1958.000000	19.946600
1957.000000	19.850600
1956.000000	19.763800
1955.000000	19.672200
1954.000000	19.588700
1953.000000	19.498400
1952.000000	19.421000
1951.000000	19.324600
1950.000000	19.250500
1949.000000	19.151600
1948.000000	19.130600
1947.000000	19.047400
1946.000000	18.986700
1945.000000	18.943500
1944.000000	18.885500
1943.000000	18.850200
1942.000000	18.815500
1941.000000	18.779200
1940.000000	18.775100
1939.000000	18.761100
1938.000000	18.751500
1937.000000	18.742000
1936.000000	18.743200
1935.000000	18.770000
1934.000000	18.787000
1933.000000	18.829800
1932.000000	18.860400
1931.000000	18.953600
1930.000000	19.024800
1929.000000	19.111100
1928.000000	19.227000
1927.000000	19.314200
1926.000000	19.428600
1925.000000	19.532200
1924.000000	19.654000
1923.000000	19.790200
1922.000000	19.993000
1921.000000	20.180200
1920.000000	20.399700
1919.000000	20.590200
1918.000000	20.780500
1917.000000	20.956200
1916.000000	21.187700
1915.000000	21.438500
1914.000000	21.738400
1913.000000	22.079100
1912.000000	22.395700
1911.000000	22.705100
1910.000000	23.022300
1909.000000	23.315300
1908.000000	23.681500
1907.000000	24.091200
1906.000000	24.563100
1905.000000	25.126900
1904.000000	25.651200
1903.000000	26.100000
1902.000000	26.613000
1901.000000	27.129900
1900.000000	27.729500
1899.000000	28.353800
1898.000000	28.933600
1897.000000	29.546900
1896.000000	30.105300
1895.000000	30.640700
1894.000000	31.231000
1893.000000	31.846000
1892.000000	32.514400
1891.000000	33.190300
1890.000000	33.798500
1889.000000	34.366400
1888.000000	34.953200
1887.000000	35.495200
1886.000000	36.023100
1885.000000	36.542200
1884.000000	37.077900
1883.000000	37.574100
1882.000000	37.999200
1881.000000	38.430100
1880.000000	38.835100
1879.000000	39.219600
1878.000000	39.584400
1877.000000	39.944100
1876.000000	40.301200
1875.000000	40.631400
1874.000000	40.931600
1873.000000	41.221600
1872.000000	41.492200
1871.000000	41.721700
1870.000000	41.906200
1869.000000	42.051900
1868.000000	42.203500
1867.000000	42.324100
1866.000000	42.400700
1865.000000	42.479100
1864.000000	42.580200
1863.000000	42.704200
1862.000000	42.829900
1861.000000	42.943700
1860.000000	43.060100
1859.000000	43.150300
1858.000000	43.211900
1857.000000	43.260100
1856.000000	43.313300
1855.000000	43.360200
1854.000000	43.395900
1853.000000	43.389100
1852.000000	43.399100
1851.000000	43.451300
1850.000000	43.536300
1849.000000	43.603600
1848.000000	43.589400
1847.000000	43.520500
1846.000000	43.428300
1845.000000	43.375700
1844.000000	43.395500
1843.000000	43.437600
1842.000000	43.472100
1841.000000	43.446700
1840.000000	43.388400
1839.000000	43.337900
1838.000000	43.299900
1837.000000	43.246700
1836.000000	43.172400
1835.000000	43.101100
1834.000000	43.022500
1833.000000	42.969900
1832.000000	42.948800
1831.000000	42.939600
1830.000000	42.899400
1829.000000	42.857800
1828.000000	42.807400
1827.000000	42.750800
1826.000000	42.717400
1825.000000	42.672900
1824.000000	42.654500
1823.000000	42.694500
1822.000000	42.755200
1821.000000	42.764100
1820.000000	42.727200
1819.000000	42.676600
1818.000000	42.636500
1817.000000	42.633500
1816.000000	42.635900
1815.000000	42.612300
1814.000000	42.582400
1813.000000	42.576400
1812.000000	42.567500
1811.000000	42.531000
1810.000000	42.483100
1809.000000	42.454100
1808.000000	42.430800
1807.000000	42.409800
1806.000000	42.384900
1805.000000	42.333000
1804.000000	42.297400
1803.000000	42.302800
1802.000000	42.313900
1801.000000	42.281200
1800.000000	42.218900
1799.000000	42.171400
1798.000000	42.154400
1797.000000	42.143400
1796.000000	42.122600
1795.000000	42.108800
1794.000000	42.077600
1793.000000	42.053100
1792.000000	42.033800
1791.000000	42.027200
1790.000000	42.025700
1789.000000	42.028000
1788.000000	42.016400
1787.000000	42.029200
1786.000000	42.042600
1785.000000	42.041500
1784.000000	42.031800
1783.000000	42.025900
1782.000000	42.023000
1781.000000	42.009100
1780.000000	41.988100
1779.000000	41.964100
1778.000000	41.936700
1777.000000	41.900800
1776.000000	41.858700
1775.000000	41.809800
1774.000000	41.765700
1773.000000	41.722300
1772.000000	41.658000
1771.000000	41.619000
1770.000000	41.559700
1769.000000	41.519300
1768.000000	41.465600
1767.000000	41.425700
1766.000000	41.363500
1765.000000	41.309300
1764.000000	41.290300
1763.000000	41.281900
1762.000000	41.262400
1761.000000	41.272700
1760.000000	41.279000
1759.000000	41.287900
1758.000000	41.287400
1757.000000	41.300000
1756.000000	41.323800
1755.000000	41.338900
1754.000000	41.345700
1753.000000	41.346500
1752.000000	41.357900
1751.000000	41.352700
1750.000000	41.338500
1749.000000	41.315900
1748.000000	41.290200
1747.000000	41.253600
1746.000000	41.192200
1745.000000	41.115300
1744.000000	41.030100
1743.000000	40.964600
1742.000000	40.861400
1741.000000	40.762000
1740.000000	40.657200
1739.000000	40.550400
1738.000000	40.447200
1737.000000	40.333500
1736.000000	40.250900
1735.000000	40.162300
1734.000000	40.044800
1733.000000	39.967000
1732.000000	39.868800
1731.000000	39.778400
1730.000000	39.703500
1729.000000	39.629100
1728.000000	39.565500
1727.000000	39.513600
1726.000000	39.470600
1725.000000	39.445300
1724.000000	39.430900
1723.000000	39.456300
1722.000000	39.535400
1721.000000	39.655700
1720.000000	39.821300
1719.000000	40.023600
1718.000000	40.250600
1717.000000	40.503500
1716.000000	40.743300
1715.000000	40.970900
1714.000000	41.208800
1713.000000	41.421600
1712.000000	41.611800
1711.000000	41.768900
1710.000000	41.912500
1709.000000	42.065800
1708.000000	42.188600
1707.000000	42.297100
1706.000000	42.388200
1705.000000	42.471000
1704.000000	42.531500
1703.000000	42.586500
1702.000000	42.643400
1701.000000	42.677700
1700.000000	42.697200
1699.000000	42.726500
1698.000000	42.750500
1697.000000	42.733800
1696.000000	42.712200
1695.000000	42.644400
1694.000000	42.579900
1693.000000	42.508500
1692.000000	42.417000
1691.000000	42.308600
1690.000000	42.233700
1689.000000	42.173400
1688.000000	42.165500
1687.000000	42.204700
1686.000000	42.317000
1685.000000	42.448400
1684.000000	42.637300
1683.000000	42.850600
1682.000000	43.079800
1681.000000	43.319700
1680.000000	43.568200
1679.000000	43.790800
1678.000000	43.981600
1677.000000	44.185500
1676.000000	44.372800
1675.000000	44.550900
1674.000000	44.717300
1673.000000	44.891300
1672.000000	45.079000
1671.000000	45.255600
1670.000000	45.430400
1669.000000	45.612600
1668.000000	45.837200
1667.000000	46.000500
1666.000000	46.160800
1665.000000	46.340400
1664.000000	46.494100
1663.000000	46.661500
1662.000000	46.812800
1661.000000	46.941000
1660.000000	47.087900
1659.000000	47.216100
1658.000000	47.334800
1657.000000	47.424600
1656.000000	47.517600
1655.000000	47.603900
1654.000000	47.654200
1653.000000	47.702100
1652.000000	47.741900
1651.000000	47.784600
1650.000000	47.813800
1649.000000	47.825800
1648.000000	47.835000
1647.000000	47.833000
1646.000000	47.827500
1645.000000	47.832100
1644.000000	47.828000
1643.000000	47.819900
1642.000000	47.825700
1641.000000	47.831800
1640.000000	47.827700
1639.000000	47.821200
1638.000000	47.816200
1637.000000	47.788900
1636.000000	47.779300
1635.000000	47.768600
1634.000000	47.743300
1633.000000	47.716700
1632.000000	47.685100
1631.000000	47.638100
1630.000000	47.615000
1629.000000	47.576000
1628.000000	47.547900
1627.000000	47.498600
1626.000000	47.450500
1625.000000	47.414100
1624.000000	47.373500
1623.000000	47.334400
1622.000000	47.283500
1621.000000	47.242200
1620.000000	47.213600
1619.000000	47.176800
1618.000000	47.147500
1617.000000	47.085200
1616.000000	47.041700
1615.000000	46.996300
1614.000000	46.956700
1613.000000	46.910200
1612.000000	46.868400
1611.000000	46.829700
1610.000000	46.768900
1609.000000	46.695600
1608.000000	46.624600
1607.000000	46.555100
1606.000000	46.485100
1605.000000	46.404100
1604.000000	46.321300
1603.000000	46.233100
1602.000000	46.140100
1601.000000	46.067500
1600.000000	45.992600
1599.000000	45.914200
1598.000000	45.819400
1597.000000	45.736300
1596.000000	45.669800
1595.000000	45.611400
1594.000000	45.534100
1593.000000	45.468400
1592.000000	45.407800
1591.000000	45.335900
1590.000000	45.274700
1589.000000	45.223500
1588.000000	45.166200
1587.000000	45.107600
1586.000000	45.057400
1585.000000	44.992900
1584.000000	44.937700
1583.000000	44.890700
1582.000000	44.837400
1581.000000	44.776300
1580.000000	44.727600
1579.000000	44.687100
1578.000000	44.650500
1577.000000	44.625500
1576.000000	44.600300
1575.000000	44.581500
1574.000000	44.562700
1573.000000	44.556400
1572.000000	44.547800
1571.000000	44.545600
1570.000000	44.547100
1569.000000	44.542400
1568.000000	44.544700
1567.000000	44.557900
1566.000000	44.572400
1565.000000	44.586300
1564.000000	44.591100
1563.000000	44.592900
1562.000000	44.594500
1561.000000	44.581800
1560.000000	44.560000
1559.000000	44.536300
1558.000000	44.502000
1557.000000	44.464900
1556.000000	44.422200
1555.000000	44.364200
1554.000000	44.298200
1553.000000	44.221800
1552.000000	44.143400
1551.000000	44.049800
1550.000000	43.966500
1549.000000	43.882000
1548.000000	43.792700
1547.000000	43.710700
1546.000000	43.634500
1545.000000	43.566200
1544.000000	43.505500
1543.000000	43.452200
1542.000000	43.392200
1541.000000	43.348800
1540.000000	43.312000
1539.000000	43.270700
1538.000000	43.232500
1537.000000	43.192800
1536.000000	43.130800
1535.000000	43.077600
1534.000000	43.033800
1533.000000	42.977200
1532.000000	42.931600
1531.000000	42.868600
1530.000000	42.808600
1529.000000	42.749100
1528.000000	42.679300
1527.000000	42.626700
1526.000000	42.566900
1525.000000	42.506500
1524.000000	42.434200
1523.000000	42.364700
1522.000000	42.288700
1521.000000	42.231800
1520.000000	42.178900
1519.000000	42.109500
1518.000000	42.031400
1517.000000	41.962000
1516.000000	41.883400
1515.000000	41.798800
1514.000000	41.724500
1513.000000	41.639200
1512.000000	41.566800
1511.000000	41.483500
1510.000000	41.392000
1509.000000	41.317100
1508.000000	41.255800
1507.000000	41.170600
1506.000000	41.091200
1505.000000	41.012900
1504.000000	40.943700
1503.000000	40.863000
1502.000000	40.791800
1501.000000	40.735000
1500.000000	40.686400
1499.000000	40.630400
1498.000000	40.584500
1497.000000	40.552200
1496.000000	40.528200
1495.000000	40.509700
1494.000000	40.487400
1493.000000	40.482600
1492.000000	40.468000
1491.000000	40.469700
1490.000000	40.463700
1489.000000	40.484400
1488.000000	40.481600
1487.000000	40.498500
1486.000000	40.498100
1485.000000	40.506000
1484.000000	40.497200
1483.000000	40.524900
1482.000000	40.548300
1481.000000	40.560900
1480.000000	40.585500
1479.000000	40.587100
1478.000000	40.614800
1477.000000	40.643900
1476.000000	40.672400
1475.000000	40.713800
1474.000000	40.774600
1473.000000	40.844900
1472.000000	40.915200
1471.000000	40.970400
1470.000000	41.040300
1469.000000	41.064000
1468.000000	41.141900
1467.000000	41.243200
1466.000000	41.335200
1465.000000	41.410500
1464.000000	41.480400
1463.000000	41.559000
1462.000000	41.661100
1461.000000	41.742100
1460.000000	41.836200
1459.000000	41.928000
1458.000000	42.022400
1457.000000	42.130700
1456.000000	42.221100
1455.000000	42.323200
1454.000000	42.431500
1453.000000	42.532500
1452.000000	42.677600
1451.000000	42.792500
1450.000000	42.871300
1449.000000	42.949600
1448.000000	43.033200
1447.000000	43.189800
1446.000000	43.301800
1445.000000	43.411900
1444.000000	43.506000
1443.000000	43.605100
1442.000000	43.749000
1441.000000	43.877200
1440.000000	43.996100
1439.000000	44.126300
1438.000000	44.280900
1437.000000	44.407600
1436.000000	44.553100
1435.000000	44.696700
1434.000000	44.891300
1433.000000	45.072800
1432.000000	45.246400
1431.000000	45.409200
1430.000000	45.597100
1429.000000	45.812300
1428.000000	46.040000
1427.000000	46.259100
1426.000000	46.476900
1425.000000	46.781800
1424.000000	47.068500
1423.000000	47.345000
1422.000000	47.598400
1421.000000	47.903500
1420.000000	48.283300
1419.000000	48.632600
1418.000000	48.938500
1417.000000	49.187900
1416.000000	49.608900
1415.000000	50.040800
1414.000000	50.489100
1413.000000	50.853200
1412.000000	51.255500
1411.000000	51.681500
1410.000000	52.211000
1409.000000	52.743200
1408.000000	53.214900
1407.000000	53.700200
1406.000000	54.173700
1405.000000	54.678600
1404.000000	55.107600
1403.000000	55.613100
1402.000000	56.094400
1401.000000	56.687900
1400.000000	57.219200
1399.000000	57.549400
1398.000000	57.846800
1397.000000	58.334500
1396.000000	58.862500
1395.000000	59.292400
1394.000000	59.595000
1393.000000	59.928200
1392.000000	60.312600
1391.000000	60.660000
1390.000000	60.995200
1389.000000	61.404800
1388.000000	61.837200
1387.000000	62.178300
1386.000000	62.512200
1385.000000	62.847000
1384.000000	63.247800
1383.000000	63.524400
1382.000000	63.795000
1381.000000	63.935000
1380.000000	64.033500
1379.000000	64.242300
1378.000000	64.406200
1377.000000	64.555700
1376.000000	64.711500
1375.000000	64.857200
1374.000000	64.970400
1373.000000	65.157700
1372.000000	65.360000
1371.000000	65.516200
1370.000000	65.641700
1369.000000	65.804800
1368.000000	66.000500
1367.000000	66.098300
1366.000000	66.240200
1365.000000	66.418600
1364.000000	66.512900
1363.000000	66.620800
1362.000000	66.785900
1361.000000	66.867100
1360.000000	66.890900
1359.000000	66.956200
1358.000000	67.050400
1357.000000	67.164300
1356.000000	67.305800
1355.000000	67.480600
1354.000000	67.638400
1353.000000	67.762200
1352.000000	67.948400
1351.000000	68.178700
1350.000000	68.401300
1349.000000	68.637100
1348.000000	68.911300
1347.000000	69.150500
1346.000000	69.350600
1345.000000	69.564200
1344.000000	69.798200
1343.000000	70.008700
1342.000000	70.196400
1341.000000	70.390800
1340.000000	70.578300
1339.000000	70.757300
1338.000000	70.920700
1337.000000	71.081100
1336.000000	71.246900
1335.000000	71.405600
1334.000000	71.552500
1333.000000	71.684300
1332.000000	71.828700
1331.000000	71.942100
1330.000000	72.053800
1329.000000	72.170700
1328.000000	72.263900
1327.000000	72.359600
1326.000000	72.446800
1325.000000	72.529300
1324.000000	72.609300
1323.000000	72.699900
1322.000000	72.775800
1321.000000	72.840900
1320.000000	72.910500
1319.000000	72.968100
1318.000000	73.020300
1317.000000	73.082600
1316.000000	73.156600
1315.000000	73.222700
1314.000000	73.281600
1313.000000	73.329800
1312.000000	73.362800
1311.000000	73.402000
1310.000000	73.454800
1309.000000	73.489800
1308.000000	73.514500
1307.000000	73.559800
1306.000000	73.591500
1305.000000	73.603300
1304.000000	73.619800
1303.000000	73.648200
1302.000000	73.677700
1301.000000	73.678700
1300.000000	73.679400
1299.000000	73.692900
1298.000000	73.686100
1297.000000	73.673700
1296.000000	73.674500
1295.000000	73.675300
1294.000000	73.670500
1293.000000	73.652500
1292.000000	73.623400
1291.000000	73.606900
1290.000000	73.590200
1289.000000	73.560600
1288.000000	73.538300
1287.000000	73.507800
1286.000000	73.469800
1285.000000	73.443600
1284.000000	73.413300
1283.000000	73.375200
1282.000000	73.338800
1281.000000	73.301900
1280.000000	73.267700
1279.000000	73.245400
1278.000000	73.231200
1277.000000	73.218900
1276.000000	73.212200
1275.000000	73.200600
1274.000000	73.193800
1273.000000	73.202900
1272.000000	73.210600
1271.000000	73.213800
1270.000000	73.230100
1269.000000	73.243300
1268.000000	73.240600
1267.000000	73.247600
1266.000000	73.255400
1265.000000	73.262200
1264.000000	73.266700
1263.000000	73.272000
1262.000000	73.271000
1261.000000	73.262100
1260.000000	73.263700
1259.000000	73.261900
1258.000000	73.262500
1257.000000	73.260800
1256.000000	73.259600
1255.000000	73.224400
1254.000000	73.210200
1253.000000	73.215300
1252.000000	73.185500
1251.000000	73.129500
1250.000000	73.089600
1249.000000	73.036900
1248.000000	72.977600
1247.000000	72.900000
1246.000000	72.837600
1245.000000	72.773700
1244.000000	72.694200
1243.000000	72.626200
1242.000000	72.556400
1241.000000	72.480400
1240.000000	72.421700
1239.000000	72.338600
1238.000000	72.282400
1237.000000	72.224600
1236.000000	72.155200
1235.000000	72.091900
1234.000000	72.033700
1233.000000	71.954800
1232.000000	71.891400
1231.000000	71.833200
1230.000000	71.754600
1229.000000	71.692100
1228.000000	71.625900
1227.000000	71.547300
1226.000000	71.471500
1225.000000	71.387900
1224.000000	71.306900
1223.000000	71.234100
1222.000000	71.156900
1221.000000	71.068000
1220.000000	70.981800
1219.000000	70.903600
1218.000000	70.807300
1217.000000	70.741800
1216.000000	70.677600
1215.000000	70.620600
1214.000000	70.544100
1213.000000	70.482700
1212.000000	70.428900
1211.000000	70.364500
1210.000000	70.301400
1209.000000	70.232700
1208.000000	70.155700
1207.000000	70.075200
1206.000000	70.043500
1205.000000	69.986200
1204.000000	69.946600
1203.000000	69.855900
1202.000000	69.808700
1201.000000	69.735600
1200.000000	69.683100
1199.000000	69.632100
1198.000000	69.562800
1197.000000	69.496100
1196.000000	69.407800
1195.000000	69.322700
1194.000000	69.240600
1193.000000	69.161800
1192.000000	69.072400
1191.000000	69.001100
1190.000000	68.945500
1189.000000	68.892100
1188.000000	68.852000
1187.000000	68.849800
1186.000000	68.835200
1185.000000	68.851600
1184.000000	68.885000
1183.000000	68.935200
1182.000000	68.989300
1181.000000	69.039500
1180.000000	69.113100
1179.000000	69.199600
1178.000000	69.244900
1177.000000	69.325900
1176.000000	69.376100
1175.000000	69.455200
1174.000000	69.532100
1173.000000	69.588600
1172.000000	69.659900
1171.000000	69.762500
1170.000000	69.849800
1169.000000	69.973800
1168.000000	70.074700
1167.000000	70.203500
1166.000000	70.352500
1165.000000	70.534900
1164.000000	70.670900
1163.000000	70.845800
1162.000000	70.998300
1161.000000	71.167700
1160.000000	71.315000
1159.000000	71.493800
1158.000000	71.638100
1157.000000	71.782100
1156.000000	71.907000
1155.000000	72.045100
1154.000000	72.165200
1153.000000	72.280400
1152.000000	72.367200
1151.000000	72.458600
1150.000000	72.528700
1149.000000	72.605600
1148.000000	72.692300
1147.000000	72.790600
1146.000000	72.872600
1145.000000	72.952000
1144.000000	72.997700
1143.000000	73.087300
1142.000000	73.165900
1141.000000	73.278900
1140.000000	73.373200
1139.000000	73.449200
1138.000000	73.575600
1137.000000	73.723800
1136.000000	73.889100
1135.000000	73.998300
1134.000000	74.126600
1133.000000	74.159000
1132.000000	74.247000
1131.000000	74.365200
1130.000000	74.477900
1129.000000	74.547900
1128.000000	74.606400
1127.000000	74.660200
1126.000000	74.719400
1125.000000	74.754800
1124.000000	74.778600
1123.000000	74.826400
1122.000000	74.835200
1121.000000	74.810600
1120.000000	74.815600
1119.000000	74.801900
1118.000000	74.781100
1117.000000	74.766900
1116.000000	74.742600
1115.000000	74.721100
1114.000000	74.688100
1113.000000	74.673300
1112.000000	74.656100
1111.000000	74.618800
1110.000000	74.589700
1109.000000	74.561100
1108.000000	74.516900
1107.000000	74.490200
1106.000000	74.461500
1105.000000	74.424500
1104.000000	74.380800
1103.000000	74.361000
1102.000000	74.321900
1101.000000	74.277200
1100.000000	74.246100
1099.000000	74.198000
1098.000000	74.171300
1097.000000	74.115600
1096.000000	74.081200
1095.000000	74.049200
1094.000000	73.998100
1093.000000	73.961600
1092.000000	73.917600
1091.000000	73.877800
1090.000000	73.801700
1089.000000	73.760600
1088.000000	73.710800
1087.000000	73.666400
1086.000000	73.606800
1085.000000	73.543500
1084.000000	73.500200
1083.000000	73.450300
1082.000000	73.383300
1081.000000	73.325800
1080.000000	73.275600
1079.000000	73.220000
1078.000000	73.157100
1077.000000	73.104200
1076.000000	73.044900
1075.000000	72.997600
1074.000000	72.937700
1073.000000	72.869800
1072.000000	72.793900
1071.000000	72.726600
1070.000000	72.653400
1069.000000	72.593400
1068.000000	72.538200
1067.000000	72.481700
1066.000000	72.416000
1065.000000	72.346300
1064.000000	72.286000
1063.000000	72.213400
1062.000000	72.135800
1061.000000	72.069200
1060.000000	72.006700
1059.000000	71.937700
1058.000000	71.880300
1057.000000	71.812000
1056.000000	71.751200
1055.000000	71.690800
1054.000000	71.626700
1053.000000	71.561100
1052.000000	71.499900
1051.000000	71.451500
1050.000000	71.394800
1049.000000	71.331800
1048.000000	71.275200
1047.000000	71.235600
1046.000000	71.185600
1045.000000	71.130600
1044.000000	71.073000
1043.000000	71.030900
1042.000000	70.980400
1041.000000	70.936200
1040.000000	70.898300
1039.000000	70.847600
1038.000000	70.789000
1037.000000	70.737600
1036.000000	70.693600
1035.000000	70.647300
1034.000000	70.601400
1033.000000	70.533900
1032.000000	70.477200
1031.000000	70.428400
1030.000000	70.360400
1029.000000	70.309300
1028.000000	70.265300
1027.000000	70.210900
1026.000000	70.158400
1025.000000	70.090900
1024.000000	70.021400
1023.000000	69.970300
1022.000000	69.918600
1021.000000	69.847000
1020.000000	69.784500
1019.000000	69.744400
1018.000000	69.684800
1017.000000	69.627400
1016.000000	69.592700
1015.000000	69.542200
1014.000000	69.501200
1013.000000	69.454600
1012.000000	69.401600
1011.000000	69.362800
1010.000000	69.330400
1009.000000	69.297200
1008.000000	69.254600
1007.000000	69.207700
1006.000000	69.173900
1005.000000	69.151700
1004.000000	69.125100
1003.000000	69.116400
1002.000000	69.100700
1001.000000	69.070400
1000.000000	69.040900
999.000000	69.033400
998.000000	69.034600
997.000000	69.015700
996.000000	69.004300
995.000000	68.999400
994.000000	68.993600
993.000000	68.974800
992.000000	68.970200
991.000000	68.983000
990.000000	68.998800
989.000000	68.994500
988.000000	69.001100
987.000000	69.013900
986.000000	69.043800
985.000000	69.059000
984.000000	69.056400
983.000000	69.075400
982.000000	69.088200
981.000000	69.120700
980.000000	69.146100
979.000000	69.178600
978.000000	69.190100
977.000000	69.207800
976.000000	69.233500
975.000000	69.278800
974.000000	69.298700
973.000000	69.320400
972.000000	69.361000
971.000000	69.395700
970.000000	69.417900
969.000000	69.447200
968.000000	69.497200
967.000000	69.518700
966.000000	69.550000
965.000000	69.576200
964.000000	69.618100
963.000000	69.652500
962.000000	69.701900
961.000000	69.749500
960.000000	69.768800
959.000000	69.817100
958.000000	69.879700
957.000000	69.917400
956.000000	69.972300
955.000000	70.043800
954.000000	70.066500
953.000000	70.128300
952.000000	70.200700
951.000000	70.249200
950.000000	70.304400
949.000000	70.350100
948.000000	70.407800
947.000000	70.485800
946.000000	70.536600
945.000000	70.616600
944.000000	70.685000
943.000000	70.725400
942.000000	70.793900
941.000000	70.871300
940.000000	70.950800
939.000000	70.998200
938.000000	71.066200
937.000000	71.146000
936.000000	71.231300
935.000000	71.310700
934.000000	71.389100
933.000000	71.485100
932.000000	71.579300
931.000000	71.636200
930.000000	71.696300
929.000000	71.776100
928.000000	71.850200
927.000000	71.911900
926.000000	72.007100
925.000000	72.060000
924.000000	72.115400
923.000000	72.201300
922.000000	72.260000
921.000000	72.342100
920.000000	72.439200
919.000000	72.474600
918.000000	72.525900
917.000000	72.591900
916.000000	72.697000
915.000000	72.707900
914.000000	72.780300
913.000000	72.837600
912.000000	72.884400
911.000000	72.947800
910.000000	72.988700
909.000000	73.029100
908.000000	73.088200
907.000000	73.111000
906.000000	73.161800
905.000000	73.201100
904.000000	73.235900
903.000000	73.272200
902.000000	73.313400
901.000000	73.342900
900.000000	73.370000
899.000000	73.405400
898.000000	73.434300
897.000000	73.461200
896.000000	73.485000
895.000000	73.520900
894.000000	73.555900
893.000000	73.561200
892.000000	73.580200
891.000000	73.593300
890.000000	73.639000
889.000000	73.678300
888.000000	73.714000
887.000000	73.741600
886.000000	73.759300
885.000000	73.787000
884.000000	73.812200
883.000000	73.853100
882.000000	73.898900
881.000000	73.924600
880.000000	73.964500
879.000000	74.000600
878.000000	74.038700
877.000000	74.077600
876.000000	74.119400
875.000000	74.139800
874.000000	74.215700
873.000000	74.239800
872.000000	74.256100
871.000000	74.286300
870.000000	74.307500
869.000000	74.331600
868.000000	74.352400
867.000000	74.332400
866.000000	74.338400
865.000000	74.313900
864.000000	74.317300
863.000000	74.270900
862.000000	74.187300
861.000000	74.129900
860.000000	73.997400
859.000000	73.845300
858.000000	74.187800
857.000000	74.005060
856.000000	73.802569
855.000000	73.822346
854.000000	74.245946
853.000000	74.571919
852.000000	74.686139
851.000000	74.673598
850.000000	74.808174
849.000000	74.510660
848.000000	74.247297
847.000000	74.450366
846.000000	74.550502
845.000000	74.642728
844.000000	74.515001
843.000000	74.799492
842.000000	74.787819
841.000000	74.711125
840.000000	74.860364
839.000000	74.747880
838.000000	75.005649
837.000000	75.047034
836.000000	75.110222
835.000000	75.085622
834.000000	75.389986
833.000000	75.535752
832.000000	75.722615
831.000000	75.796414
830.000000	75.812814
829.000000	76.144189
828.000000	76.437555
827.000000	76.563738
826.000000	76.626058
825.000000	76.897718
824.000000	77.294403
823.000000	77.692632
822.000000	77.717039
821.000000	77.983393
820.000000	78.377474
819.000000	78.498351
818.000000	78.849213
817.000000	79.023341
816.000000	79.335422
815.000000	79.628885
814.000000	79.927653
813.000000	80.224684
812.000000	80.372959
811.000000	80.539177
810.000000	80.707807
809.000000	81.117902
808.000000	81.186588
807.000000	81.279296
806.000000	81.469149
805.000000	81.524813
804.000000	81.679165
803.000000	81.801007
802.000000	82.080288
801.000000	82.126304
800.000000	82.114535
799.000000	82.378863
798.000000	82.518745
797.000000	82.681779
796.000000	82.837772
795.000000	82.896908
794.000000	83.024731
793.000000	83.359482
792.000000	83.493383
791.000000	83.603552
790.000000	83.855435
789.000000	84.097672
788.000000	84.376085
787.000000	84.658260
786.000000	84.936287
785.000000	85.222707
784.000000	85.468706
783.000000	85.595468
782.000000	85.845615
781.000000	86.133289
780.000000	86.441704
779.000000	86.605221
778.000000	86.711628
777.000000	86.862603
776.000000	87.042231
775.000000	87.168896
774.000000	87.338394
773.000000	87.459271
772.000000	87.576676
771.000000	87.706331
770.000000	87.844670
769.000000	87.872646
768.000000	87.796049
767.000000	87.840907
766.000000	87.920881
765.000000	88.015422
764.000000	88.089800
763.000000	88.118163
762.000000	88.070120
761.000000	88.137457
760.000000	88.207976
759.000000	88.253993
758.000000	88.253510
757.000000	88.316216
756.000000	88.408248
755.000000	88.469893
754.000000	88.669393
753.000000	88.804451
752.000000	88.873138
751.000000	89.013695
750.000000	89.213967
749.000000	89.388771
748.000000	89.414239
747.000000	89.568881
746.000000	89.727574
745.000000	89.759409
744.000000	89.888101
743.000000	89.935467
742.000000	89.968460
741.000000	90.068114
740.000000	90.055283
739.000000	89.930548
738.000000	89.879322
737.000000	89.903150
736.000000	89.817677
735.000000	89.695546
734.000000	89.598690
733.000000	89.500869
732.000000	89.314393
731.000000	89.133607
730.000000	88.952533
729.000000	88.748306
728.000000	88.579290
727.000000	88.382877
726.000000	88.114304
725.000000	87.893869
724.000000	87.701315
723.000000	87.504419
722.000000	87.296623
721.000000	87.055351
720.000000	86.920196
719.000000	86.712882
718.000000	86.499779
717.000000	86.415561
716.000000	86.247992
715.000000	86.088527
714.000000	85.986075
713.000000	85.833846
712.000000	85.661453
711.000000	85.474012
710.000000	85.364325
709.000000	85.214797
708.000000	85.067101
707.000000	84.882071
706.000000	84.682474
705.000000	84.455480
704.000000	84.277492
703.000000	84.091498
702.000000	83.848200
701.000000	83.670695
700.000000	83.449103
699.000000	83.177250
698.000000	82.974856
697.000000	82.821082
696.000000	82.583862
695.000000	82.390343
694.000000	82.161516
693.000000	81.975135
692.000000	81.773320
691.000000	81.576328
690.000000	81.444935
689.000000	81.303703
688.000000	81.042269
687.000000	80.939239
686.000000	80.741475
685.000000	80.513613
684.000000	80.386368
683.000000	80.201724
682.000000	79.923408
681.000000	79.696414
680.000000	79.461991
679.000000	79.192068
678.000000	78.886740
677.000000	78.620868
676.000000	78.342069
675.000000	78.069348
674.000000	77.708260
673.000000	77.401485
672.000000	77.044352
671.000000	76.599239
670.000000	76.233328
669.000000	75.750205
668.000000	75.269591
667.000000	74.815892
666.000000	74.261188
665.000000	73.663266
664.000000	73.061003
663.000000	72.408189
662.000000	71.719103
661.000000	70.966732
660.000000	70.232787
659.000000	69.419158
658.000000	68.668331
657.000000	67.874767
656.000000	67.020234
655.000000	66.179497
654.000000	65.354291
653.000000	64.481429
652.000000	63.665677
651.000000	62.849154
650.000000	62.031569
649.000000	61.278523
648.000000	60.547955
647.000000	59.918390
646.000000	59.357609
645.000000	58.832812
644.000000	58.415675
643.000000	58.100024
642.000000	57.856244
641.000000	57.738647
640.000000	57.695332
639.000000	57.752056
638.000000	57.919818
637.000000	58.146619
636.000000	58.486001
635.000000	58.871014
634.000000	59.371694
633.000000	59.910673
632.000000	60.539851
631.000000	61.148674
630.000000	61.799366
629.000000	62.491346
628.000000	63.200112
627.000000	63.866335
626.000000	64.581565
625.000000	65.321298
624.000000	66.034020
623.000000	66.805781
622.000000	67.486282
621.000000	68.198714
620.000000	68.946551
619.000000	69.637663
618.000000	70.332923
617.000000	71.072753
616.000000	71.748044
615.000000	72.422178
614.000000	73.055697
613.000000	73.702819
612.000000	74.348783
611.000000	74.859303
610.000000	75.426741
609.000000	75.980094
608.000000	76.482221
607.000000	76.961002
606.000000	77.437468
605.000000	77.881521
604.000000	78.338017
603.000000	78.769721
602.000000	79.235093
601.000000	79.671042
600.000000	80.180694
599.000000	80.557989
598.000000	80.941361
597.000000	81.374223
596.000000	81.751518
595.000000	82.103248
594.000000	82.421792
593.000000	82.771014
592.000000	83.049234
591.000000	83.332374
590.000000	83.517211
589.000000	83.674457
588.000000	83.897400
587.000000	83.931454
586.000000	84.015865
585.000000	84.091594
584.000000	84.095067
583.000000	84.120921
582.000000	84.115519
581.000000	84.121693
580.000000	84.134524
579.000000	84.077992
578.000000	84.039501
577.000000	83.994352
576.000000	83.977663
575.000000	83.923061
574.000000	83.941583
573.000000	83.851770
572.000000	83.836431
571.000000	83.754914
570.000000	83.709187
569.000000	83.583004
568.000000	83.444569
567.000000	83.335751
566.000000	83.184485
565.000000	82.971865
564.000000	82.756254
563.000000	82.577399
562.000000	82.326287
561.000000	82.018933
560.000000	81.746405
559.000000	81.573144
558.000000	81.329075
557.000000	81.014196
556.000000	80.658028
555.000000	80.369390
554.000000	80.059431
553.000000	79.689854
552.000000	79.341500
551.000000	79.002793
550.000000	78.659938
549.000000	78.275698
548.000000	77.891746
547.000000	77.459849
546.000000	77.022357
545.000000	76.573578
544.000000	76.098945
543.000000	75.534498
542.000000	74.970244
541.000000	74.407148
540.000000	73.791379
539.000000	73.139337
538.000000	72.474754
537.000000	71.795411
536.000000	71.109508
535.000000	70.345657
534.000000	69.620491
533.000000	68.866191
532.000000	68.086615
531.000000	67.283501
530.000000	66.470933
529.000000	65.631739
528.000000	64.753764
527.000000	63.846945
526.000000	62.868834
525.000000	61.850881
524.000000	60.776975
523.000000	59.650300
522.000000	58.521792
521.000000	57.365114
520.000000	56.162517
519.000000	54.944099
518.000000	53.770057
517.000000	52.634218
516.000000	51.534844
515.000000	50.450712
514.000000	49.401792
513.000000	48.350749
512.000000	47.349003
511.000000	46.367805
510.000000	45.422880
509.000000	44.505931
508.000000	43.654100
507.000000	42.848574
506.000000	42.028867
505.000000	41.270708
504.000000	40.557504
503.000000	39.854429
502.000000	39.191776
501.000000	38.551117
500.000000	37.951169
499.000000	37.379970
498.000000	36.840798
497.000000	36.313010
496.000000	35.808181
495.000000	35.324287
494.000000	34.839042
493.000000	34.367399
492.000000	33.914472
491.000000	33.464342
490.000000	33.003311
489.000000	32.552313
488.000000	32.092633
487.000000	31.636425
486.000000	31.203853
485.000000	30.754399
484.000000	30.310250
483.000000	29.889737
482.000000	29.480414
481.000000	29.108907
480.000000	28.778497
479.000000	28.472686
478.000000	28.187810
477.000000	27.936891
476.000000	27.742407
475.000000	27.548985
474.000000	27.376014
473.000000	27.240569
472.000000	27.120175
471.000000	27.016083
470.000000	26.914500
469.000000	26.850830
468.000000	26.813593
467.000000	26.775776
466.000000	26.751755
465.000000	26.745099
464.000000	26.749922
463.000000	26.753395
462.000000	26.752334
461.000000	26.758990
460.000000	26.764875
459.000000	26.759376
458.000000	26.765261
457.000000	26.758122
456.000000	26.748379
455.000000	26.723296
454.000000	26.686734
453.000000	26.648918
452.000000	26.592290
451.000000	26.517719
450.000000	26.441989
449.000000	26.359507
448.000000	26.280595
447.000000	26.179687
446.000000	26.051961
445.000000	25.936486
444.000000	25.817731
443.000000	25.675534
442.000000	25.484523
441.000000	25.294477
440.000000	25.109254
439.000000	24.904255
438.000000	24.695011
437.000000	24.462904
436.000000	24.221343
435.000000	23.985377
434.000000	23.734844
433.000000	23.468586
432.000000	23.186314
431.000000	22.905200
430.000000	22.623700
429.000000	22.319241
428.000000	21.990277
427.000000	21.659288
426.000000	21.331097
425.000000	20.973192
424.000000	20.604387
423.000000	20.229214
422.000000	19.840440
421.000000	19.442790
420.000000	19.029126
419.000000	18.589608
418.000000	18.183179
417.000000	17.774242
416.000000	17.333084
415.000000	16.889417
414.000000	16.442857
413.000000	15.986360
412.000000	15.556682
411.000000	15.103755
410.000000	14.655361
409.000000	14.226648
408.000000	13.815492
407.000000	13.413308
406.000000	13.012089
405.000000	12.607879
404.000000	12.234925
403.000000	11.878178
402.000000	11.519406
401.000000	11.192951
400.000000	10.882317
399.000000	10.573033
398.000000	10.276774
397.000000	10.025758
396.000000	9.779180
395.000000	9.525367
394.000000	9.286700
393.000000	9.070125
392.000000	8.868116
391.000000	8.676334
390.000000	8.498732
389.000000	8.329330
388.000000	8.183082
387.000000	8.039245
386.000000	7.885568
385.000000	7.771540
384.000000	7.642463
383.000000	7.540880
382.000000	7.435245
381.000000	7.336749
380.000000	7.242787
379.000000	7.171110
378.000000	7.091908
377.000000	7.022256
376.000000	6.964374
375.000000	6.786097
374.000000	6.673999
373.000000	6.813881
372.000000	6.776064
371.000000	6.643707
370.000000	6.589202
369.000000	6.515112
368.000000	6.523891
367.000000	6.482313
366.000000	6.512990
365.000000	6.437068
364.000000	6.438129
363.000000	6.391052
362.000000	6.321786
361.000000	6.275481
360.000000	6.245864
359.000000	6.234770
358.000000	6.213257
357.000000	6.128749
356.000000	6.058616
355.000000	6.037392
354.000000	6.076077
353.000000	6.089776
352.000000	5.957901
351.000000	6.004978
350.000000	5.853038
349.000000	5.930214
348.000000	5.922110
347.000000	5.866061
346.000000	5.892687
345.000000	5.848021
344.000000	5.797278
343.000000	5.788403
342.000000	5.880339
341.000000	5.910341
340.000000	5.808083
339.000000	5.820624
338.000000	5.844934
337.000000	5.871078
336.000000	5.878409
335.000000	5.803934
334.000000	5.807021
333.000000	5.835577
332.000000	5.776537
331.000000	5.737852
330.000000	5.994945
329.000000	5.879181
328.000000	5.717594
327.000000	5.884101
326.000000	5.947096
325.000000	5.945360
324.000000	5.775669
323.000000	5.858440
322.000000	6.019256
321.000000	6.139844
320.000000	5.766504
319.000000	5.840883
318.000000	6.075884
317.000000	5.945553
316.000000	5.785702
315.000000	5.677751
314.000000	5.726372
313.000000	5.752612
312.000000	5.769398
311.000000	5.803549
310.000000	5.815704
309.000000	5.759269
308.000000	5.801330
307.000000	5.785316
306.000000	5.768723
305.000000	5.774993
304.000000	5.817247
303.000000	5.846092
302.000000	5.849179
301.000000	5.804996
300.000000	5.827859
299.000000	5.794480
298.000000	5.866447
297.000000	5.804706
296.000000	5.873875
295.000000	5.869534
294.000000	5.836831
293.000000	5.872718
292.000000	5.836541
291.000000	5.864518
290.000000	5.820817
289.000000	5.831235
288.000000	5.794191
287.000000	5.844741
286.000000	5.828341
285.000000	5.894327
284.000000	5.863746
283.000000	5.854774
282.000000	5.875612
281.000000	5.931275
280.000000	5.923365
279.000000	5.922496
278.000000	5.912753
277.000000	5.936581
276.000000	5.934169
275.000000	5.982887
274.000000	5.960698
273.000000	6.020317
272.000000	5.985684
271.000000	6.046075
270.000000	6.072797
269.000000	6.092670
268.000000	6.104439
267.000000	6.123637
266.000000	6.117462
265.000000	6.151324
264.000000	6.187307
263.000000	6.241909
262.000000	6.214222
261.000000	6.296029
260.000000	6.319278
259.000000	6.432920
258.000000	6.389991
257.000000	6.440927
256.000000	6.422019
255.000000	6.412565
254.000000	6.437454
253.000000	6.508553
252.000000	6.530065
251.000000	6.464659
250.000000	6.541642
