PE UV       SUBTECH     SPECTRUM    ASCII       PEDS        4.00        
   -1
CICIMAUCR0006-2.Sample.ASC
24/04/12
10:39:35.00
24/04/12
10:39:35.00
Vinicio Soto Monge
C. kalinini
250,000000
1
Lambda 1050
1050L1511233
PerkinElmer UV WinLab 6.3.2.0749 / 2.02.05 Lambda 900 UV/VIS/NIR, Aug  7 2015 09:38:08

0
0
3350/servo 860,8/2
0
0
UV/VIS
1
1
1
DoubleDePol,CommonBeamDepol,RBeamAtt,SBeamAtt,60mm sphere, WB InGaAs Detector
0
0
0
0
Program
Program
3350/servo 860,8/2
3350/0,2 860,8/0,2
3350/0,2 860,8/0,2
0
15.00
 
 
 
0
 
860,8
319,2
860,8
Front
100
on
S:100 R:100
0
0
0
0
 
0
 
 
 
0
 
 
0
0
0
0
0
 
 
 
 
0
0


0
0
#HDR
-1
-1
#GR
nm
%R
1.0
0.0
2500,000000
-1,000000
2251
8
92,561500
5,026000
#DATA
2500.000000	8.814500
2499.000000	8.807200
2498.000000	8.738400
2497.000000	8.723300
2496.000000	8.767400
2495.000000	8.682300
2494.000000	8.618800
2493.000000	8.572000
2492.000000	8.648900
2491.000000	8.540600
2490.000000	8.581300
2489.000000	8.510300
2488.000000	8.582600
2487.000000	8.571300
2486.000000	8.566500
2485.000000	8.566900
2484.000000	8.499000
2483.000000	8.511200
2482.000000	8.438300
2481.000000	8.527500
2480.000000	8.515100
2479.000000	8.466100
2478.000000	8.485000
2477.000000	8.536300
2476.000000	8.430300
2475.000000	8.503900
2474.000000	8.519500
2473.000000	8.508400
2472.000000	8.499500
2471.000000	8.498000
2470.000000	8.496500
2469.000000	8.551000
2468.000000	8.577000
2467.000000	8.570600
2466.000000	8.631100
2465.000000	8.631700
2464.000000	8.655700
2463.000000	8.687500
2462.000000	8.736000
2461.000000	8.766900
2460.000000	8.816700
2459.000000	8.854000
2458.000000	8.903000
2457.000000	8.978900
2456.000000	9.028100
2455.000000	9.099000
2454.000000	9.149000
2453.000000	9.220600
2452.000000	9.292300
2451.000000	9.354600
2450.000000	9.436700
2449.000000	9.508000
2448.000000	9.576900
2447.000000	9.640500
2446.000000	9.690200
2445.000000	9.766200
2444.000000	9.871800
2443.000000	9.929700
2442.000000	9.983800
2441.000000	10.032600
2440.000000	10.108600
2439.000000	10.175600
2438.000000	10.231200
2437.000000	10.282300
2436.000000	10.354200
2435.000000	10.391100
2434.000000	10.450700
2433.000000	10.502600
2432.000000	10.571100
2431.000000	10.620600
2430.000000	10.655700
2429.000000	10.692100
2428.000000	10.684500
2427.000000	10.656200
2426.000000	10.621600
2425.000000	10.629000
2424.000000	10.629700
2423.000000	10.657900
2422.000000	10.679800
2421.000000	10.676000
2420.000000	10.711500
2419.000000	10.723700
2418.000000	10.732300
2417.000000	10.732000
2416.000000	10.756200
2415.000000	10.791500
2414.000000	10.786600
2413.000000	10.792800
2412.000000	10.817900
2411.000000	10.816800
2410.000000	10.824200
2409.000000	10.853100
2408.000000	10.873700
2407.000000	10.872300
2406.000000	10.861900
2405.000000	10.883800
2404.000000	10.906300
2403.000000	10.944600
2402.000000	10.960700
2401.000000	10.958000
2400.000000	10.972300
2399.000000	10.997300
2398.000000	11.010100
2397.000000	11.021400
2396.000000	11.034200
2395.000000	11.046000
2394.000000	11.052700
2393.000000	11.068700
2392.000000	11.073500
2391.000000	11.089700
2390.000000	11.093500
2389.000000	11.109000
2388.000000	11.115400
2387.000000	11.110300
2386.000000	11.110900
2385.000000	11.106300
2384.000000	11.088300
2383.000000	11.072000
2382.000000	11.059700
2381.000000	11.046800
2380.000000	11.021900
2379.000000	10.997000
2378.000000	10.984200
2377.000000	10.973500
2376.000000	10.939800
2375.000000	10.917000
2374.000000	10.906500
2373.000000	10.883000
2372.000000	10.853900
2371.000000	10.808300
2370.000000	10.768000
2369.000000	10.732400
2368.000000	10.688200
2367.000000	10.637400
2366.000000	10.586900
2365.000000	10.523500
2364.000000	10.456100
2363.000000	10.400700
2362.000000	10.347700
2361.000000	10.280700
2360.000000	10.208400
2359.000000	10.159200
2358.000000	10.105500
2357.000000	10.040100
2356.000000	10.005200
2355.000000	9.977100
2354.000000	9.963100
2353.000000	9.968500
2352.000000	9.966200
2351.000000	9.970200
2350.000000	9.995000
2349.000000	10.037100
2348.000000	10.076900
2347.000000	10.116700
2346.000000	10.148100
2345.000000	10.195700
2344.000000	10.245300
2343.000000	10.275600
2342.000000	10.300600
2341.000000	10.330800
2340.000000	10.349300
2339.000000	10.357200
2338.000000	10.359700
2337.000000	10.374600
2336.000000	10.361200
2335.000000	10.348400
2334.000000	10.314300
2333.000000	10.289800
2332.000000	10.256900
2331.000000	10.207800
2330.000000	10.160500
2329.000000	10.117800
2328.000000	10.057400
2327.000000	10.006900
2326.000000	9.932200
2325.000000	9.846000
2324.000000	9.773000
2323.000000	9.698600
2322.000000	9.612600
2321.000000	9.502300
2320.000000	9.396800
2319.000000	9.312900
2318.000000	9.200400
2317.000000	9.114800
2316.000000	9.017600
2315.000000	8.901400
2314.000000	8.797700
2313.000000	8.709900
2312.000000	8.620400
2311.000000	8.559500
2310.000000	8.510000
2309.000000	8.481900
2308.000000	8.441600
2307.000000	8.440400
2306.000000	8.451200
2305.000000	8.487300
2304.000000	8.539300
2303.000000	8.596200
2302.000000	8.665800
2301.000000	8.741400
2300.000000	8.819600
2299.000000	8.922700
2298.000000	9.011400
2297.000000	9.107800
2296.000000	9.186600
2295.000000	9.259000
2294.000000	9.334000
2293.000000	9.376800
2292.000000	9.426700
2291.000000	9.457000
2290.000000	9.468600
2289.000000	9.474900
2288.000000	9.479900
2287.000000	9.468200
2286.000000	9.451300
2285.000000	9.400900
2284.000000	9.386000
2283.000000	9.353800
2282.000000	9.307600
2281.000000	9.262400
2280.000000	9.231900
2279.000000	9.183400
2278.000000	9.168400
2277.000000	9.120200
2276.000000	9.076900
2275.000000	9.055500
2274.000000	9.056200
2273.000000	9.051900
2272.000000	9.065000
2271.000000	9.078600
2270.000000	9.130100
2269.000000	9.174800
2268.000000	9.230400
2267.000000	9.309300
2266.000000	9.430100
2265.000000	9.556000
2264.000000	9.715400
2263.000000	9.862200
2262.000000	10.059100
2261.000000	10.248400
2260.000000	10.441900
2259.000000	10.675600
2258.000000	10.889200
2257.000000	11.162500
2256.000000	11.372700
2255.000000	11.604400
2254.000000	11.824800
2253.000000	12.101300
2252.000000	12.270900
2251.000000	12.484100
2250.000000	12.679100
2249.000000	12.859800
2248.000000	13.050600
2247.000000	13.200100
2246.000000	13.366000
2245.000000	13.512600
2244.000000	13.610800
2243.000000	13.730600
2242.000000	13.885100
2241.000000	13.974300
2240.000000	14.071900
2239.000000	14.172600
2238.000000	14.261600
2237.000000	14.345100
2236.000000	14.426600
2235.000000	14.483100
2234.000000	14.571100
2233.000000	14.576300
2232.000000	14.637200
2231.000000	14.686300
2230.000000	14.700600
2229.000000	14.701200
2228.000000	14.740000
2227.000000	14.764300
2226.000000	14.770200
2225.000000	14.769900
2224.000000	14.760700
2223.000000	14.750900
2222.000000	14.742300
2221.000000	14.711200
2220.000000	14.695400
2219.000000	14.653900
2218.000000	14.627300
2217.000000	14.594300
2216.000000	14.607500
2215.000000	14.541900
2214.000000	14.536600
2213.000000	14.509100
2212.000000	14.483000
2211.000000	14.456800
2210.000000	14.436000
2209.000000	14.406300
2208.000000	14.402400
2207.000000	14.375600
2206.000000	14.359500
2205.000000	14.357900
2204.000000	14.335400
2203.000000	14.321300
2202.000000	14.290000
2201.000000	14.286600
2200.000000	14.296200
2199.000000	14.289400
2198.000000	14.261200
2197.000000	14.255700
2196.000000	14.245800
2195.000000	14.232000
2194.000000	14.205800
2193.000000	14.216500
2192.000000	14.198100
2191.000000	14.194200
2190.000000	14.180700
2189.000000	14.191600
2188.000000	14.161300
2187.000000	14.151700
2186.000000	14.108700
2185.000000	14.104300
2184.000000	14.087900
2183.000000	14.067000
2182.000000	14.061800
2181.000000	14.042300
2180.000000	14.020100
2179.000000	14.010400
2178.000000	14.021800
2177.000000	13.996600
2176.000000	13.988100
2175.000000	14.001800
2174.000000	13.976500
2173.000000	13.964800
2172.000000	13.972600
2171.000000	13.983700
2170.000000	13.996200
2169.000000	13.993300
2168.000000	13.997700
2167.000000	14.012800
2166.000000	14.032200
2165.000000	14.042500
2164.000000	14.053900
2163.000000	14.053700
2162.000000	14.090800
2161.000000	14.124700
2160.000000	14.150200
2159.000000	14.200200
2158.000000	14.226000
2157.000000	14.255400
2156.000000	14.299200
2155.000000	14.322200
2154.000000	14.357900
2153.000000	14.408200
2152.000000	14.451400
2151.000000	14.492100
2150.000000	14.537400
2149.000000	14.581100
2148.000000	14.621400
2147.000000	14.670700
2146.000000	14.710400
2145.000000	14.759500
2144.000000	14.798600
2143.000000	14.831300
2142.000000	14.867600
2141.000000	14.900700
2140.000000	14.929600
2139.000000	14.962300
2138.000000	14.997100
2137.000000	15.031000
2136.000000	15.069200
2135.000000	15.107800
2134.000000	15.145200
2133.000000	15.162000
2132.000000	15.179700
2131.000000	15.202100
2130.000000	15.214700
2129.000000	15.224700
2128.000000	15.240200
2127.000000	15.258100
2126.000000	15.264800
2125.000000	15.268900
2124.000000	15.276600
2123.000000	15.277600
2122.000000	15.283800
2121.000000	15.289400
2120.000000	15.279400
2119.000000	15.258800
2118.000000	15.256700
2117.000000	15.259200
2116.000000	15.236500
2115.000000	15.221800
2114.000000	15.226300
2113.000000	15.229000
2112.000000	15.202100
2111.000000	15.176900
2110.000000	15.161700
2109.000000	15.150900
2108.000000	15.139600
2107.000000	15.113300
2106.000000	15.094300
2105.000000	15.085000
2104.000000	15.073100
2103.000000	15.062900
2102.000000	15.050800
2101.000000	15.039600
2100.000000	15.024800
2099.000000	15.002400
2098.000000	14.988200
2097.000000	14.972000
2096.000000	14.973300
2095.000000	14.974400
2094.000000	14.952200
2093.000000	14.930900
2092.000000	14.917300
2091.000000	14.925700
2090.000000	14.923400
2089.000000	14.917800
2088.000000	14.931300
2087.000000	14.924200
2086.000000	14.898000
2085.000000	14.893300
2084.000000	14.898800
2083.000000	14.884300
2082.000000	14.862500
2081.000000	14.834400
2080.000000	14.817900
2079.000000	14.809300
2078.000000	14.796500
2077.000000	14.772500
2076.000000	14.758300
2075.000000	14.727400
2074.000000	14.699600
2073.000000	14.674000
2072.000000	14.656900
2071.000000	14.644100
2070.000000	14.611800
2069.000000	14.577600
2068.000000	14.556500
2067.000000	14.528700
2066.000000	14.510300
2065.000000	14.493800
2064.000000	14.468500
2063.000000	14.454100
2062.000000	14.438200
2061.000000	14.426600
2060.000000	14.414600
2059.000000	14.422200
2058.000000	14.444100
2057.000000	14.458000
2056.000000	14.469600
2055.000000	14.500700
2054.000000	14.528300
2053.000000	14.587200
2052.000000	14.660200
2051.000000	14.761000
2050.000000	14.859600
2049.000000	14.936700
2048.000000	15.026800
2047.000000	15.133100
2046.000000	15.256400
2045.000000	15.397600
2044.000000	15.533400
2043.000000	15.658500
2042.000000	15.781000
2041.000000	15.915000
2040.000000	16.026200
2039.000000	16.178600
2038.000000	16.303900
2037.000000	16.405500
2036.000000	16.516200
2035.000000	16.616500
2034.000000	16.717900
2033.000000	16.842900
2032.000000	16.928400
2031.000000	17.015100
2030.000000	17.109700
2029.000000	17.191900
2028.000000	17.271400
2027.000000	17.349900
2026.000000	17.401700
2025.000000	17.471000
2024.000000	17.529500
2023.000000	17.628300
2022.000000	17.667700
2021.000000	17.729800
2020.000000	17.775300
2019.000000	17.830800
2018.000000	17.886600
2017.000000	17.924200
2016.000000	17.949600
2015.000000	17.993200
2014.000000	18.037800
2013.000000	18.078800
2012.000000	18.101400
2011.000000	18.109100
2010.000000	18.141900
2009.000000	18.115700
2008.000000	18.136200
2007.000000	18.149600
2006.000000	18.154500
2005.000000	18.134000
2004.000000	18.106200
2003.000000	18.114900
2002.000000	18.094900
2001.000000	18.069000
2000.000000	18.044200
1999.000000	18.011700
1998.000000	17.991300
1997.000000	17.947100
1996.000000	17.893400
1995.000000	17.860700
1994.000000	17.821100
1993.000000	17.772000
1992.000000	17.702000
1991.000000	17.646300
1990.000000	17.573300
1989.000000	17.532700
1988.000000	17.477900
1987.000000	17.418200
1986.000000	17.334200
1985.000000	17.258000
1984.000000	17.196500
1983.000000	17.124000
1982.000000	17.041400
1981.000000	16.960900
1980.000000	16.907800
1979.000000	16.821300
1978.000000	16.749100
1977.000000	16.672700
1976.000000	16.602700
1975.000000	16.545600
1974.000000	16.478000
1973.000000	16.387000
1972.000000	16.316400
1971.000000	16.239500
1970.000000	16.166300
1969.000000	16.120700
1968.000000	16.050200
1967.000000	15.992800
1966.000000	15.932600
1965.000000	15.858100
1964.000000	15.789700
1963.000000	15.766600
1962.000000	15.665600
1961.000000	15.620400
1960.000000	15.528200
1959.000000	15.458000
1958.000000	15.391200
1957.000000	15.336900
1956.000000	15.261800
1955.000000	15.216200
1954.000000	15.144500
1953.000000	15.117700
1952.000000	15.041700
1951.000000	14.987400
1950.000000	14.923000
1949.000000	14.876300
1948.000000	14.826600
1947.000000	14.792900
1946.000000	14.757000
1945.000000	14.720200
1944.000000	14.701000
1943.000000	14.667600
1942.000000	14.641700
1941.000000	14.630600
1940.000000	14.614800
1939.000000	14.646000
1938.000000	14.649700
1937.000000	14.672700
1936.000000	14.694600
1935.000000	14.735500
1934.000000	14.756200
1933.000000	14.780700
1932.000000	14.833600
1931.000000	14.897400
1930.000000	14.975500
1929.000000	15.072200
1928.000000	15.176100
1927.000000	15.292000
1926.000000	15.418900
1925.000000	15.529600
1924.000000	15.632900
1923.000000	15.717800
1922.000000	15.885400
1921.000000	16.081600
1920.000000	16.286600
1919.000000	16.463100
1918.000000	16.636200
1917.000000	16.764900
1916.000000	16.879900
1915.000000	17.072800
1914.000000	17.338500
1913.000000	17.614100
1912.000000	17.879600
1911.000000	18.125900
1910.000000	18.279700
1909.000000	18.414100
1908.000000	18.592800
1907.000000	18.846400
1906.000000	19.168800
1905.000000	19.542800
1904.000000	19.838700
1903.000000	20.079200
1902.000000	20.309300
1901.000000	20.555000
1900.000000	20.892600
1899.000000	21.238000
1898.000000	21.560200
1897.000000	21.871700
1896.000000	22.075300
1895.000000	22.275700
1894.000000	22.535800
1893.000000	22.840100
1892.000000	23.173800
1891.000000	23.526200
1890.000000	23.830100
1889.000000	24.112200
1888.000000	24.431900
1887.000000	24.712200
1886.000000	25.047700
1885.000000	25.449800
1884.000000	25.917000
1883.000000	26.385200
1882.000000	26.837400
1881.000000	27.288100
1880.000000	27.692900
1879.000000	28.113200
1878.000000	28.486500
1877.000000	28.871600
1876.000000	29.218600
1875.000000	29.574000
1874.000000	29.861700
1873.000000	30.147900
1872.000000	30.439500
1871.000000	30.716600
1870.000000	30.978500
1869.000000	31.193600
1868.000000	31.344400
1867.000000	31.459500
1866.000000	31.501900
1865.000000	31.556000
1864.000000	31.604300
1863.000000	31.632000
1862.000000	31.666200
1861.000000	31.710600
1860.000000	31.766000
1859.000000	31.803400
1858.000000	31.810100
1857.000000	31.791900
1856.000000	31.740000
1855.000000	31.726300
1854.000000	31.728100
1853.000000	31.674000
1852.000000	31.606400
1851.000000	31.528500
1850.000000	31.440900
1849.000000	31.413300
1848.000000	31.430800
1847.000000	31.430800
1846.000000	31.344500
1845.000000	31.211500
1844.000000	31.089600
1843.000000	31.049300
1842.000000	31.077800
1841.000000	31.087900
1840.000000	31.034200
1839.000000	30.950100
1838.000000	30.894800
1837.000000	30.873500
1836.000000	30.853700
1835.000000	30.785900
1834.000000	30.678300
1833.000000	30.569600
1832.000000	30.474600
1831.000000	30.406100
1830.000000	30.347300
1829.000000	30.277000
1828.000000	30.186200
1827.000000	30.120700
1826.000000	30.064200
1825.000000	29.994000
1824.000000	29.920500
1823.000000	29.854900
1822.000000	29.860200
1821.000000	29.902400
1820.000000	29.909900
1819.000000	29.854200
1818.000000	29.794000
1817.000000	29.775600
1816.000000	29.776900
1815.000000	29.775800
1814.000000	29.759700
1813.000000	29.737200
1812.000000	29.726500
1811.000000	29.711800
1810.000000	29.676400
1809.000000	29.622400
1808.000000	29.577800
1807.000000	29.531600
1806.000000	29.498800
1805.000000	29.455300
1804.000000	29.389600
1803.000000	29.355700
1802.000000	29.311700
1801.000000	29.274500
1800.000000	29.222500
1799.000000	29.165600
1798.000000	29.119300
1797.000000	29.060600
1796.000000	29.019700
1795.000000	28.989900
1794.000000	28.938100
1793.000000	28.892500
1792.000000	28.836200
1791.000000	28.782100
1790.000000	28.735000
1789.000000	28.683200
1788.000000	28.615900
1787.000000	28.547700
1786.000000	28.466200
1785.000000	28.401800
1784.000000	28.331500
1783.000000	28.267200
1782.000000	28.172600
1781.000000	28.105700
1780.000000	28.030000
1779.000000	27.924800
1778.000000	27.826100
1777.000000	27.733400
1776.000000	27.625500
1775.000000	27.506900
1774.000000	27.366500
1773.000000	27.227100
1772.000000	27.109200
1771.000000	26.968300
1770.000000	26.825300
1769.000000	26.691400
1768.000000	26.567500
1767.000000	26.444600
1766.000000	26.367700
1765.000000	26.292100
1764.000000	26.247700
1763.000000	26.245400
1762.000000	26.256900
1761.000000	26.298400
1760.000000	26.349700
1759.000000	26.408800
1758.000000	26.501600
1757.000000	26.575500
1756.000000	26.622300
1755.000000	26.647200
1754.000000	26.660200
1753.000000	26.659900
1752.000000	26.645200
1751.000000	26.619900
1750.000000	26.557100
1749.000000	26.485400
1748.000000	26.409200
1747.000000	26.300900
1746.000000	26.179600
1745.000000	26.029800
1744.000000	25.859800
1743.000000	25.686300
1742.000000	25.452600
1741.000000	25.216300
1740.000000	24.948000
1739.000000	24.699800
1738.000000	24.469000
1737.000000	24.266700
1736.000000	24.141700
1735.000000	24.031000
1734.000000	23.968100
1733.000000	23.956200
1732.000000	23.999500
1731.000000	24.075000
1730.000000	24.163200
1729.000000	24.273200
1728.000000	24.380900
1727.000000	24.483800
1726.000000	24.577800
1725.000000	24.672000
1724.000000	24.717400
1723.000000	24.737200
1722.000000	24.758700
1721.000000	24.772000
1720.000000	24.812000
1719.000000	24.831400
1718.000000	24.906000
1717.000000	24.963800
1716.000000	25.025800
1715.000000	25.076700
1714.000000	25.166100
1713.000000	25.236900
1712.000000	25.286900
1711.000000	25.309700
1710.000000	25.355500
1709.000000	25.354200
1708.000000	25.319000
1707.000000	25.314700
1706.000000	25.300300
1705.000000	25.268400
1704.000000	25.191400
1703.000000	25.098300
1702.000000	25.011800
1701.000000	24.851400
1700.000000	24.717100
1699.000000	24.557300
1698.000000	24.409200
1697.000000	24.285500
1696.000000	24.220700
1695.000000	24.195100
1694.000000	24.273400
1693.000000	24.382600
1692.000000	24.533100
1691.000000	24.719400
1690.000000	24.897100
1689.000000	25.021100
1688.000000	25.087100
1687.000000	25.099500
1686.000000	25.123200
1685.000000	25.163500
1684.000000	25.286200
1683.000000	25.510900
1682.000000	25.876600
1681.000000	26.347200
1680.000000	26.891900
1679.000000	27.516300
1678.000000	28.083500
1677.000000	28.618600
1676.000000	29.111100
1675.000000	29.516800
1674.000000	29.886000
1673.000000	30.198900
1672.000000	30.487600
1671.000000	30.705300
1670.000000	30.915500
1669.000000	31.112400
1668.000000	31.264300
1667.000000	31.429100
1666.000000	31.559400
1665.000000	31.685900
1664.000000	31.774100
1663.000000	31.881900
1662.000000	31.944600
1661.000000	32.010300
1660.000000	32.070500
1659.000000	32.103900
1658.000000	32.145900
1657.000000	32.184600
1656.000000	32.206100
1655.000000	32.215600
1654.000000	32.227600
1653.000000	32.212300
1652.000000	32.206500
1651.000000	32.182300
1650.000000	32.170600
1649.000000	32.140300
1648.000000	32.096300
1647.000000	32.064900
1646.000000	32.026800
1645.000000	31.981200
1644.000000	31.924500
1643.000000	31.890500
1642.000000	31.843900
1641.000000	31.793500
1640.000000	31.725500
1639.000000	31.674200
1638.000000	31.617800
1637.000000	31.559300
1636.000000	31.473300
1635.000000	31.409700
1634.000000	31.350900
1633.000000	31.279300
1632.000000	31.215400
1631.000000	31.137900
1630.000000	31.058400
1629.000000	30.977300
1628.000000	30.899700
1627.000000	30.798000
1626.000000	30.718000
1625.000000	30.636000
1624.000000	30.564700
1623.000000	30.494700
1622.000000	30.421000
1621.000000	30.333500
1620.000000	30.255700
1619.000000	30.191200
1618.000000	30.105200
1617.000000	30.033500
1616.000000	29.949500
1615.000000	29.875300
1614.000000	29.808600
1613.000000	29.738600
1612.000000	29.672400
1611.000000	29.601700
1610.000000	29.521100
1609.000000	29.451400
1608.000000	29.387300
1607.000000	29.323500
1606.000000	29.295700
1605.000000	29.237300
1604.000000	29.162500
1603.000000	29.099400
1602.000000	29.042100
1601.000000	28.968100
1600.000000	28.891000
1599.000000	28.826000
1598.000000	28.777400
1597.000000	28.721400
1596.000000	28.647300
1595.000000	28.582900
1594.000000	28.527900
1593.000000	28.481900
1592.000000	28.446000
1591.000000	28.401600
1590.000000	28.359900
1589.000000	28.312100
1588.000000	28.262800
1587.000000	28.224600
1586.000000	28.183300
1585.000000	28.151500
1584.000000	28.137500
1583.000000	28.123600
1582.000000	28.098000
1581.000000	28.077900
1580.000000	28.064400
1579.000000	28.053300
1578.000000	28.046600
1577.000000	28.044200
1576.000000	28.047700
1575.000000	28.061700
1574.000000	28.068900
1573.000000	28.090400
1572.000000	28.120400
1571.000000	28.145700
1570.000000	28.165400
1569.000000	28.191000
1568.000000	28.225900
1567.000000	28.264000
1566.000000	28.306700
1565.000000	28.335600
1564.000000	28.353300
1563.000000	28.390000
1562.000000	28.439300
1561.000000	28.468100
1560.000000	28.486100
1559.000000	28.511000
1558.000000	28.530200
1557.000000	28.532000
1556.000000	28.540900
1555.000000	28.556600
1554.000000	28.561900
1553.000000	28.555800
1552.000000	28.552300
1551.000000	28.563800
1550.000000	28.565000
1549.000000	28.547000
1548.000000	28.526000
1547.000000	28.522000
1546.000000	28.527900
1545.000000	28.526200
1544.000000	28.517500
1543.000000	28.533600
1542.000000	28.550500
1541.000000	28.546600
1540.000000	28.536900
1539.000000	28.525500
1538.000000	28.549900
1537.000000	28.563600
1536.000000	28.558200
1535.000000	28.552000
1534.000000	28.547900
1533.000000	28.541200
1532.000000	28.524600
1531.000000	28.527700
1530.000000	28.534000
1529.000000	28.511000
1528.000000	28.492900
1527.000000	28.479900
1526.000000	28.461900
1525.000000	28.442000
1524.000000	28.406500
1523.000000	28.381600
1522.000000	28.375000
1521.000000	28.350000
1520.000000	28.329600
1519.000000	28.296600
1518.000000	28.272800
1517.000000	28.249500
1516.000000	28.216800
1515.000000	28.184600
1514.000000	28.151500
1513.000000	28.132600
1512.000000	28.097400
1511.000000	28.060400
1510.000000	28.029100
1509.000000	27.995900
1508.000000	27.969800
1507.000000	27.941000
1506.000000	27.898000
1505.000000	27.866700
1504.000000	27.842300
1503.000000	27.798700
1502.000000	27.778200
1501.000000	27.768900
1500.000000	27.767800
1499.000000	27.728900
1498.000000	27.713500
1497.000000	27.702700
1496.000000	27.690200
1495.000000	27.692500
1494.000000	27.689200
1493.000000	27.709300
1492.000000	27.708900
1491.000000	27.715000
1490.000000	27.739600
1489.000000	27.742900
1488.000000	27.761600
1487.000000	27.763500
1486.000000	27.769900
1485.000000	27.784200
1484.000000	27.800800
1483.000000	27.821800
1482.000000	27.856300
1481.000000	27.901300
1480.000000	27.909700
1479.000000	27.939600
1478.000000	27.987600
1477.000000	28.022100
1476.000000	28.046100
1475.000000	28.076300
1474.000000	28.144400
1473.000000	28.194800
1472.000000	28.250800
1471.000000	28.282300
1470.000000	28.322900
1469.000000	28.368400
1468.000000	28.427500
1467.000000	28.458700
1466.000000	28.511800
1465.000000	28.580100
1464.000000	28.623700
1463.000000	28.687700
1462.000000	28.767000
1461.000000	28.844000
1460.000000	28.921200
1459.000000	28.991200
1458.000000	29.108500
1457.000000	29.197200
1456.000000	29.282200
1455.000000	29.406500
1454.000000	29.489800
1453.000000	29.593300
1452.000000	29.727100
1451.000000	29.843100
1450.000000	29.968800
1449.000000	30.045600
1448.000000	30.176300
1447.000000	30.287700
1446.000000	30.464600
1445.000000	30.592300
1444.000000	30.671100
1443.000000	30.818100
1442.000000	30.948100
1441.000000	31.077900
1440.000000	31.219300
1439.000000	31.333500
1438.000000	31.481600
1437.000000	31.607900
1436.000000	31.722800
1435.000000	31.846900
1434.000000	32.009300
1433.000000	32.137000
1432.000000	32.282700
1431.000000	32.422400
1430.000000	32.563500
1429.000000	32.737200
1428.000000	32.913800
1427.000000	33.125200
1426.000000	33.315500
1425.000000	33.540500
1424.000000	33.777100
1423.000000	34.014600
1422.000000	34.185800
1421.000000	34.400200
1420.000000	34.667200
1419.000000	34.938400
1418.000000	35.132200
1417.000000	35.294000
1416.000000	35.541700
1415.000000	35.805600
1414.000000	36.070900
1413.000000	36.266000
1412.000000	36.449700
1411.000000	36.726000
1410.000000	37.029500
1409.000000	37.404100
1408.000000	37.727100
1407.000000	38.102100
1406.000000	38.460200
1405.000000	38.859400
1404.000000	39.218400
1403.000000	39.555200
1402.000000	39.921400
1401.000000	40.446000
1400.000000	40.758100
1399.000000	40.967700
1398.000000	41.100200
1397.000000	41.345900
1396.000000	41.677600
1395.000000	41.874700
1394.000000	41.926000
1393.000000	42.022900
1392.000000	42.264300
1391.000000	42.416800
1390.000000	42.560700
1389.000000	42.783100
1388.000000	43.111900
1387.000000	43.360400
1386.000000	43.666900
1385.000000	44.055600
1384.000000	44.426200
1383.000000	44.864200
1382.000000	45.200300
1381.000000	45.442700
1380.000000	45.570100
1379.000000	45.667800
1378.000000	45.718600
1377.000000	45.830400
1376.000000	45.947500
1375.000000	46.131300
1374.000000	46.409900
1373.000000	46.721800
1372.000000	47.075200
1371.000000	47.434700
1370.000000	47.737000
1369.000000	48.031700
1368.000000	48.364500
1367.000000	48.575300
1366.000000	48.748900
1365.000000	48.977600
1364.000000	49.134800
1363.000000	49.283900
1362.000000	49.499800
1361.000000	49.635800
1360.000000	49.631900
1359.000000	49.661500
1358.000000	49.767000
1357.000000	49.919700
1356.000000	50.195300
1355.000000	50.626900
1354.000000	51.134600
1353.000000	51.609800
1352.000000	52.153400
1351.000000	52.703900
1350.000000	53.206000
1349.000000	53.643300
1348.000000	54.071500
1347.000000	54.477700
1346.000000	54.792200
1345.000000	55.124600
1344.000000	55.478400
1343.000000	55.762100
1342.000000	56.049700
1341.000000	56.350400
1340.000000	56.613400
1339.000000	56.873100
1338.000000	57.134900
1337.000000	57.383200
1336.000000	57.591100
1335.000000	57.821300
1334.000000	58.035100
1333.000000	58.248800
1332.000000	58.454300
1331.000000	58.625600
1330.000000	58.783000
1329.000000	58.960200
1328.000000	59.112300
1327.000000	59.250200
1326.000000	59.392100
1325.000000	59.529200
1324.000000	59.665400
1323.000000	59.775100
1322.000000	59.889100
1321.000000	60.004000
1320.000000	60.099700
1319.000000	60.181400
1318.000000	60.277600
1317.000000	60.374500
1316.000000	60.472300
1315.000000	60.557200
1314.000000	60.622500
1313.000000	60.688800
1312.000000	60.753000
1311.000000	60.813900
1310.000000	60.868400
1309.000000	60.917800
1308.000000	60.959400
1307.000000	60.994700
1306.000000	61.030900
1305.000000	61.052800
1304.000000	61.073200
1303.000000	61.084000
1302.000000	61.083300
1301.000000	61.078100
1300.000000	61.071000
1299.000000	61.067800
1298.000000	61.064200
1297.000000	61.055700
1296.000000	61.030100
1295.000000	61.025200
1294.000000	61.024100
1293.000000	60.986600
1292.000000	60.947200
1291.000000	60.932500
1290.000000	60.887500
1289.000000	60.822600
1288.000000	60.780700
1287.000000	60.715900
1286.000000	60.646500
1285.000000	60.589300
1284.000000	60.519100
1283.000000	60.441300
1282.000000	60.355000
1281.000000	60.273300
1280.000000	60.197600
1279.000000	60.126300
1278.000000	60.063600
1277.000000	59.988500
1276.000000	59.925500
1275.000000	59.867200
1274.000000	59.810100
1273.000000	59.746500
1272.000000	59.699400
1271.000000	59.645200
1270.000000	59.593500
1269.000000	59.546700
1268.000000	59.494200
1267.000000	59.434500
1266.000000	59.374300
1265.000000	59.317100
1264.000000	59.263600
1263.000000	59.224700
1262.000000	59.173600
1261.000000	59.106400
1260.000000	59.040900
1259.000000	59.002100
1258.000000	58.948400
1257.000000	58.879200
1256.000000	58.806400
1255.000000	58.753000
1254.000000	58.660100
1253.000000	58.579600
1252.000000	58.516200
1251.000000	58.406700
1250.000000	58.316500
1249.000000	58.232900
1248.000000	58.123900
1247.000000	58.014100
1246.000000	57.901800
1245.000000	57.756500
1244.000000	57.648500
1243.000000	57.503300
1242.000000	57.344300
1241.000000	57.209100
1240.000000	57.034600
1239.000000	56.869400
1238.000000	56.710400
1237.000000	56.558700
1236.000000	56.384600
1235.000000	56.214400
1234.000000	56.035900
1233.000000	55.843900
1232.000000	55.658900
1231.000000	55.487800
1230.000000	55.295300
1229.000000	55.104900
1228.000000	54.926100
1227.000000	54.742800
1226.000000	54.547100
1225.000000	54.343600
1224.000000	54.144800
1223.000000	53.970900
1222.000000	53.785000
1221.000000	53.624500
1220.000000	53.450600
1219.000000	53.286200
1218.000000	53.133600
1217.000000	52.996300
1216.000000	52.876900
1215.000000	52.747300
1214.000000	52.622000
1213.000000	52.502500
1212.000000	52.404100
1211.000000	52.316100
1210.000000	52.218900
1209.000000	52.142700
1208.000000	52.066400
1207.000000	52.019900
1206.000000	51.953700
1205.000000	51.927300
1204.000000	51.926800
1203.000000	51.899600
1202.000000	51.886200
1201.000000	51.871800
1200.000000	51.829700
1199.000000	51.755700
1198.000000	51.670900
1197.000000	51.556600
1196.000000	51.357600
1195.000000	51.137200
1194.000000	50.845100
1193.000000	50.475800
1192.000000	50.073800
1191.000000	49.637100
1190.000000	49.225800
1189.000000	48.892800
1188.000000	48.637100
1187.000000	48.491700
1186.000000	48.483200
1185.000000	48.571000
1184.000000	48.808200
1183.000000	49.132400
1182.000000	49.574400
1181.000000	50.052500
1180.000000	50.525900
1179.000000	50.976200
1178.000000	51.387100
1177.000000	51.726500
1176.000000	52.021000
1175.000000	52.313300
1174.000000	52.581100
1173.000000	52.858700
1172.000000	53.165700
1171.000000	53.485200
1170.000000	53.823300
1169.000000	54.153200
1168.000000	54.464600
1167.000000	54.789600
1166.000000	55.127900
1165.000000	55.502800
1164.000000	55.840600
1163.000000	56.214500
1162.000000	56.557700
1161.000000	56.898700
1160.000000	57.232400
1159.000000	57.565000
1158.000000	57.874800
1157.000000	58.158500
1156.000000	58.399900
1155.000000	58.579000
1154.000000	58.704600
1153.000000	58.770800
1152.000000	58.803500
1151.000000	58.814200
1150.000000	58.790500
1149.000000	58.789000
1148.000000	58.806500
1147.000000	58.843100
1146.000000	58.946400
1145.000000	59.128900
1144.000000	59.375300
1143.000000	59.653900
1142.000000	59.963200
1141.000000	60.290200
1140.000000	60.621000
1139.000000	60.949000
1138.000000	61.292700
1137.000000	61.674800
1136.000000	62.034300
1135.000000	62.421500
1134.000000	62.777100
1133.000000	63.041300
1132.000000	63.318600
1131.000000	63.576700
1130.000000	63.829800
1129.000000	64.035400
1128.000000	64.192200
1127.000000	64.322800
1126.000000	64.412300
1125.000000	64.474100
1124.000000	64.550400
1123.000000	64.599600
1122.000000	64.654600
1121.000000	64.668900
1120.000000	64.711900
1119.000000	64.726900
1118.000000	64.715400
1117.000000	64.709100
1116.000000	64.688700
1115.000000	64.665600
1114.000000	64.633900
1113.000000	64.619200
1112.000000	64.582500
1111.000000	64.554800
1110.000000	64.538900
1109.000000	64.511100
1108.000000	64.478900
1107.000000	64.439100
1106.000000	64.414600
1105.000000	64.374700
1104.000000	64.348800
1103.000000	64.294200
1102.000000	64.248000
1101.000000	64.224600
1100.000000	64.191400
1099.000000	64.140000
1098.000000	64.087400
1097.000000	64.038200
1096.000000	63.996500
1095.000000	63.935200
1094.000000	63.898600
1093.000000	63.843000
1092.000000	63.777000
1091.000000	63.728600
1090.000000	63.672900
1089.000000	63.606300
1088.000000	63.532100
1087.000000	63.463100
1086.000000	63.414100
1085.000000	63.338200
1084.000000	63.268500
1083.000000	63.205500
1082.000000	63.153700
1081.000000	63.077000
1080.000000	63.029300
1079.000000	62.964800
1078.000000	62.898800
1077.000000	62.844100
1076.000000	62.791100
1075.000000	62.721100
1074.000000	62.658300
1073.000000	62.595300
1072.000000	62.548600
1071.000000	62.489300
1070.000000	62.430600
1069.000000	62.387800
1068.000000	62.309700
1067.000000	62.227800
1066.000000	62.169600
1065.000000	62.115000
1064.000000	62.056500
1063.000000	61.982100
1062.000000	61.913100
1061.000000	61.858300
1060.000000	61.795800
1059.000000	61.731300
1058.000000	61.662500
1057.000000	61.592300
1056.000000	61.546500
1055.000000	61.484100
1054.000000	61.406200
1053.000000	61.357700
1052.000000	61.311600
1051.000000	61.244500
1050.000000	61.193300
1049.000000	61.143700
1048.000000	61.103600
1047.000000	61.064000
1046.000000	61.008800
1045.000000	60.972400
1044.000000	60.952200
1043.000000	60.919200
1042.000000	60.891600
1041.000000	60.866800
1040.000000	60.827900
1039.000000	60.788400
1038.000000	60.770000
1037.000000	60.749700
1036.000000	60.712100
1035.000000	60.665000
1034.000000	60.626400
1033.000000	60.591800
1032.000000	60.539700
1031.000000	60.492000
1030.000000	60.458400
1029.000000	60.411400
1028.000000	60.376700
1027.000000	60.342400
1026.000000	60.280000
1025.000000	60.228000
1024.000000	60.192100
1023.000000	60.148200
1022.000000	60.095000
1021.000000	60.059300
1020.000000	60.019300
1019.000000	59.952600
1018.000000	59.906000
1017.000000	59.887800
1016.000000	59.858000
1015.000000	59.826000
1014.000000	59.813500
1013.000000	59.822600
1012.000000	59.842700
1011.000000	59.855300
1010.000000	59.849900
1009.000000	59.876600
1008.000000	59.913400
1007.000000	59.925700
1006.000000	59.940500
1005.000000	59.946400
1004.000000	59.969800
1003.000000	60.003900
1002.000000	60.023700
1001.000000	60.048300
1000.000000	60.064800
999.000000	60.080900
998.000000	60.107800
997.000000	60.115100
996.000000	60.135300
995.000000	60.159600
994.000000	60.196200
993.000000	60.232200
992.000000	60.250000
991.000000	60.271100
990.000000	60.311100
989.000000	60.340800
988.000000	60.379800
987.000000	60.419900
986.000000	60.468800
985.000000	60.506700
984.000000	60.546100
983.000000	60.570000
982.000000	60.602800
981.000000	60.644900
980.000000	60.679300
979.000000	60.703100
978.000000	60.746300
977.000000	60.806900
976.000000	60.829400
975.000000	60.868900
974.000000	60.932100
973.000000	60.986900
972.000000	61.011900
971.000000	61.055200
970.000000	61.104300
969.000000	61.145800
968.000000	61.159700
967.000000	61.162300
966.000000	61.187300
965.000000	61.236500
964.000000	61.288100
963.000000	61.310700
962.000000	61.334900
961.000000	61.392100
960.000000	61.460600
959.000000	61.506000
958.000000	61.533900
957.000000	61.567600
956.000000	61.606200
955.000000	61.623300
954.000000	61.642100
953.000000	61.679300
952.000000	61.701000
951.000000	61.701400
950.000000	61.741200
949.000000	61.737700
948.000000	61.726300
947.000000	61.770000
946.000000	61.777500
945.000000	61.804200
944.000000	61.873500
943.000000	61.891400
942.000000	61.867700
941.000000	61.897600
940.000000	61.927400
939.000000	61.919000
938.000000	61.950200
937.000000	62.022000
936.000000	62.060300
935.000000	62.112100
934.000000	62.156800
933.000000	62.187100
932.000000	62.262600
931.000000	62.318100
930.000000	62.318500
929.000000	62.340600
928.000000	62.348800
927.000000	62.417500
926.000000	62.410400
925.000000	62.416800
924.000000	62.414600
923.000000	62.383400
922.000000	62.502900
921.000000	62.499000
920.000000	62.501200
919.000000	62.500900
918.000000	62.521900
917.000000	62.526600
916.000000	62.514100
915.000000	62.487200
914.000000	62.434700
913.000000	62.529800
912.000000	62.528100
911.000000	62.534700
910.000000	62.477800
909.000000	62.497100
908.000000	62.499100
907.000000	62.483600
906.000000	62.478400
905.000000	62.503500
904.000000	62.501300
903.000000	62.540900
902.000000	62.556100
901.000000	62.587000
900.000000	62.583700
899.000000	62.623500
898.000000	62.637400
897.000000	62.644600
896.000000	62.707700
895.000000	62.743600
894.000000	62.744100
893.000000	62.743600
892.000000	62.779100
891.000000	62.778500
890.000000	62.747600
889.000000	62.762900
888.000000	62.794300
887.000000	62.832400
886.000000	62.869800
885.000000	62.856200
884.000000	62.879000
883.000000	62.907600
882.000000	62.873800
881.000000	62.809700
880.000000	62.829700
879.000000	62.862400
878.000000	62.905700
877.000000	62.879100
876.000000	62.817800
875.000000	62.848000
874.000000	62.855500
873.000000	62.855100
872.000000	62.786000
871.000000	62.824600
870.000000	62.784100
869.000000	62.734600
868.000000	62.795300
867.000000	62.849500
866.000000	62.852400
865.000000	62.872400
864.000000	62.861100
863.000000	62.931500
862.000000	62.999400
861.000000	63.125000
860.000000	63.271400
859.000000	63.384800
858.000000	64.922000
857.000000	63.624200
856.000000	64.086690
855.000000	63.644971
854.000000	64.325291
853.000000	64.242122
852.000000	64.492494
851.000000	65.019026
850.000000	65.526605
849.000000	65.883684
848.000000	66.209522
847.000000	66.366772
846.000000	66.911651
845.000000	67.012561
844.000000	67.379853
843.000000	67.770425
842.000000	68.188691
841.000000	68.401329
840.000000	68.678788
839.000000	69.061658
838.000000	69.427651
837.000000	69.635702
836.000000	69.819694
835.000000	70.148907
834.000000	70.614426
833.000000	70.807159
832.000000	71.125813
831.000000	71.563465
830.000000	71.733610
829.000000	72.065159
828.000000	72.333964
827.000000	72.474943
826.000000	72.834533
825.000000	73.169111
824.000000	73.468033
823.000000	73.726799
822.000000	73.882058
821.000000	74.266486
820.000000	74.548099
819.000000	74.752948
818.000000	74.979174
817.000000	75.356850
816.000000	75.603241
815.000000	75.839592
814.000000	76.070577
813.000000	76.349421
812.000000	76.596590
811.000000	76.861241
810.000000	77.162672
809.000000	77.328231
808.000000	77.570899
807.000000	77.747968
806.000000	77.929277
805.000000	78.138626
804.000000	78.413230
803.000000	78.494927
802.000000	78.574461
801.000000	78.748933
800.000000	78.857718
799.000000	78.878749
798.000000	79.020507
797.000000	79.054432
796.000000	79.191258
795.000000	79.382433
794.000000	79.356557
793.000000	79.457380
792.000000	79.523326
791.000000	79.484728
790.000000	79.558377
789.000000	79.651498
788.000000	79.798536
787.000000	79.869415
786.000000	79.949122
785.000000	79.986768
784.000000	80.089582
783.000000	80.098669
782.000000	80.106199
781.000000	80.089236
780.000000	80.044060
779.000000	80.028136
778.000000	80.002519
777.000000	80.039127
776.000000	79.980364
775.000000	79.912773
774.000000	79.898840
773.000000	79.973008
772.000000	80.039214
771.000000	79.969027
770.000000	79.933111
769.000000	79.857905
768.000000	79.915976
767.000000	79.940640
766.000000	79.869761
765.000000	79.871838
764.000000	79.901090
763.000000	79.956045
762.000000	79.997327
761.000000	79.978374
760.000000	79.922293
759.000000	79.807969
758.000000	79.689317
757.000000	79.601649
756.000000	79.522288
755.000000	79.454265
754.000000	79.349374
753.000000	79.250627
752.000000	79.094848
751.000000	78.965812
750.000000	78.883509
749.000000	78.703497
748.000000	78.493283
747.000000	78.313358
746.000000	78.169696
745.000000	78.017465
744.000000	77.777220
743.000000	77.572198
742.000000	77.393052
741.000000	77.170288
740.000000	76.918792
739.000000	76.680191
738.000000	76.453793
737.000000	76.194334
736.000000	75.982475
735.000000	75.697054
734.000000	75.338330
733.000000	75.011454
732.000000	74.681723
731.000000	74.374925
730.000000	74.007720
729.000000	73.627360
728.000000	73.266646
727.000000	72.881612
726.000000	72.490867
725.000000	72.102719
724.000000	71.747889
723.000000	71.387521
722.000000	71.016595
721.000000	70.669987
720.000000	70.318360
719.000000	70.028698
718.000000	69.757556
717.000000	69.505194
716.000000	69.183944
715.000000	68.873425
714.000000	68.630843
713.000000	68.393626
712.000000	68.098339
711.000000	67.797513
710.000000	67.641734
709.000000	67.360986
708.000000	67.071151
707.000000	66.782095
706.000000	66.542975
705.000000	66.365387
704.000000	66.082735
703.000000	65.777841
702.000000	65.507219
701.000000	65.185276
700.000000	64.876661
699.000000	64.588990
698.000000	64.283404
697.000000	63.929526
696.000000	63.559292
695.000000	63.226358
694.000000	62.795370
693.000000	62.375893
692.000000	61.960310
691.000000	61.591460
690.000000	61.195869
689.000000	60.773535
688.000000	60.363145
687.000000	59.962274
686.000000	59.596281
685.000000	59.227950
684.000000	58.845167
683.000000	58.491463
682.000000	58.178521
681.000000	57.873108
680.000000	57.560944
679.000000	57.300794
678.000000	57.041509
677.000000	56.796244
676.000000	56.629820
675.000000	56.433279
674.000000	56.239421
673.000000	56.042794
672.000000	55.829204
671.000000	55.619162
670.000000	55.444517
669.000000	55.257409
668.000000	55.099034
667.000000	54.881723
666.000000	54.687172
665.000000	54.476265
664.000000	54.255492
663.000000	54.017151
662.000000	53.779588
661.000000	53.549295
660.000000	53.259374
659.000000	53.004156
658.000000	52.720639
657.000000	52.442227
656.000000	52.176884
655.000000	51.862038
654.000000	51.566837
653.000000	51.269560
652.000000	51.021006
651.000000	50.792011
650.000000	50.566997
649.000000	50.379976
648.000000	50.215630
647.000000	50.031032
646.000000	49.851627
645.000000	49.696108
644.000000	49.549502
643.000000	49.412763
642.000000	49.305709
641.000000	49.175201
640.000000	49.050405
639.000000	48.963601
638.000000	48.806524
637.000000	48.676709
636.000000	48.548364
635.000000	48.406519
634.000000	48.274280
633.000000	48.114693
632.000000	47.943596
631.000000	47.759778
630.000000	47.566612
629.000000	47.387293
628.000000	47.164183
627.000000	46.955353
626.000000	46.738475
625.000000	46.485767
624.000000	46.274341
623.000000	45.994112
622.000000	45.750578
621.000000	45.481340
620.000000	45.278914
619.000000	45.059785
618.000000	44.866360
617.000000	44.701408
616.000000	44.531522
615.000000	44.401707
614.000000	44.291710
613.000000	44.194521
612.000000	44.156009
611.000000	44.164404
610.000000	44.158865
609.000000	44.239178
608.000000	44.336366
607.000000	44.438747
606.000000	44.599892
605.000000	44.751690
604.000000	44.940701
603.000000	45.137156
602.000000	45.326167
601.000000	45.535949
600.000000	45.773685
599.000000	45.948503
598.000000	46.202855
597.000000	46.426052
596.000000	46.636007
595.000000	46.844577
594.000000	47.104641
593.000000	47.356484
592.000000	47.644242
591.000000	47.923345
590.000000	48.239490
589.000000	48.589473
588.000000	48.885798
587.000000	49.284679
586.000000	49.627305
585.000000	49.977548
584.000000	50.329954
583.000000	50.680024
582.000000	51.028795
581.000000	51.376528
580.000000	51.721924
579.000000	52.022750
578.000000	52.307825
577.000000	52.629595
576.000000	52.870273
575.000000	53.052361
574.000000	53.250113
573.000000	53.442673
572.000000	53.564787
571.000000	53.698237
570.000000	53.845621
569.000000	53.939694
568.000000	54.071760
567.000000	54.146101
566.000000	54.247703
565.000000	54.320746
564.000000	54.391366
563.000000	54.462418
562.000000	54.458524
561.000000	54.490459
560.000000	54.532865
559.000000	54.674970
558.000000	54.674191
557.000000	54.725511
556.000000	54.725684
555.000000	54.674191
554.000000	54.668825
553.000000	54.636804
552.000000	54.584878
551.000000	54.507594
550.000000	54.448571
549.000000	54.316419
548.000000	54.106983
547.000000	54.068125
546.000000	53.917625
545.000000	53.733547
544.000000	53.645445
543.000000	53.544103
542.000000	53.326445
541.000000	53.203899
540.000000	53.070968
539.000000	52.822760
538.000000	52.667674
537.000000	52.509472
536.000000	52.255639
535.000000	52.013057
534.000000	51.735771
533.000000	51.444032
532.000000	51.120964
531.000000	50.791319
530.000000	50.453365
529.000000	50.069198
528.000000	49.671010
527.000000	49.283640
526.000000	48.893587
525.000000	48.494707
524.000000	48.053161
523.000000	47.590065
522.000000	47.131903
521.000000	46.680750
520.000000	46.213673
519.000000	45.723836
518.000000	45.248278
517.000000	44.762940
516.000000	44.265487
515.000000	43.767428
514.000000	43.232933
513.000000	42.707180
512.000000	42.166801
511.000000	41.648836
510.000000	41.103697
509.000000	40.602263
508.000000	40.128695
507.000000	39.639896
506.000000	39.174464
505.000000	38.711195
504.000000	38.230098
503.000000	37.735155
502.000000	37.260722
501.000000	36.779365
500.000000	36.294893
499.000000	35.802979
498.000000	35.328892
497.000000	34.835160
496.000000	34.306205
495.000000	33.798712
494.000000	33.257208
493.000000	32.732406
492.000000	32.187613
491.000000	31.627935
490.000000	31.056573
489.000000	30.462364
488.000000	29.870577
487.000000	29.265810
486.000000	28.652734
485.000000	28.039052
484.000000	27.409273
483.000000	26.789533
482.000000	26.184679
481.000000	25.599124
480.000000	25.013828
479.000000	24.438745
478.000000	23.897760
477.000000	23.407663
476.000000	22.945000
475.000000	22.523618
474.000000	22.135902
473.000000	21.771726
472.000000	21.453678
471.000000	21.199845
470.000000	20.989024
469.000000	20.798022
468.000000	20.650985
467.000000	20.545574
466.000000	20.472877
465.000000	20.411085
464.000000	20.388584
463.000000	20.389449
462.000000	20.396546
461.000000	20.422336
460.000000	20.451588
459.000000	20.473224
458.000000	20.528006
457.000000	20.579153
456.000000	20.619050
455.000000	20.653494
454.000000	20.695468
453.000000	20.721777
452.000000	20.724720
451.000000	20.739778
450.000000	20.749039
449.000000	20.749385
448.000000	20.713815
447.000000	20.680842
446.000000	20.655658
445.000000	20.628224
444.000000	20.603039
443.000000	20.540901
442.000000	20.439645
441.000000	20.355438
440.000000	20.293818
439.000000	20.195159
438.000000	20.079017
437.000000	19.979838
436.000000	19.867417
435.000000	19.741669
434.000000	19.613325
433.000000	19.467758
432.000000	19.328336
431.000000	19.197915
430.000000	19.037117
429.000000	18.863250
428.000000	18.692240
427.000000	18.517854
426.000000	18.332131
425.000000	18.128407
424.000000	17.922087
423.000000	17.718536
422.000000	17.486339
421.000000	17.241161
420.000000	16.984299
419.000000	16.727870
418.000000	16.462353
417.000000	16.183336
416.000000	15.897136
415.000000	15.594666
414.000000	15.285704
413.000000	14.970858
412.000000	14.655666
411.000000	14.334329
410.000000	14.005030
409.000000	13.675298
408.000000	13.344009
407.000000	13.009171
406.000000	12.659880
405.000000	12.334908
404.000000	12.029582
403.000000	11.687475
402.000000	11.366570
401.000000	11.057090
400.000000	10.727964
399.000000	10.421166
398.000000	10.147602
397.000000	9.866248
396.000000	9.595539
395.000000	9.321022
394.000000	9.058189
393.000000	8.809116
392.000000	8.557447
391.000000	8.320057
390.000000	8.102659
389.000000	7.895993
388.000000	7.701875
387.000000	7.511046
386.000000	7.342632
385.000000	7.159246
384.000000	6.991870
383.000000	6.834620
382.000000	6.698400
381.000000	6.554391
380.000000	6.426220
379.000000	6.299347
378.000000	6.189436
377.000000	6.093892
376.000000	5.961480
375.000000	5.799989
374.000000	5.641528
373.000000	5.636681
372.000000	5.562167
371.000000	5.541137
370.000000	5.509549
369.000000	5.449314
368.000000	5.374540
367.000000	5.299680
366.000000	5.213915
365.000000	5.171422
364.000000	5.159652
363.000000	5.128929
362.000000	5.107466
361.000000	5.073887
360.000000	4.982064
359.000000	4.974275
358.000000	4.991498
357.000000	5.000671
356.000000	4.905040
355.000000	4.907983
354.000000	4.893963
353.000000	4.819622
352.000000	4.731780
351.000000	4.760512
350.000000	4.735934
349.000000	4.713606
348.000000	4.747444
347.000000	4.756185
346.000000	4.682363
345.000000	4.632255
344.000000	4.683835
343.000000	4.649563
342.000000	4.650515
341.000000	4.595993
340.000000	4.618581
339.000000	4.605686
338.000000	4.589069
337.000000	4.477255
336.000000	4.586300
335.000000	4.618494
334.000000	4.556788
333.000000	4.613734
332.000000	4.469898
331.000000	4.473620
330.000000	4.506160
329.000000	4.492659
328.000000	4.441426
327.000000	4.480543
326.000000	4.502266
325.000000	4.498718
324.000000	4.408279
323.000000	4.538701
322.000000	4.559558
321.000000	4.399625
320.000000	4.419097
319.000000	4.520094
318.000000	4.556615
317.000000	4.769686
316.000000	4.440214
315.000000	4.357478
314.000000	4.349689
313.000000	4.359815
312.000000	4.376864
311.000000	4.442810
310.000000	4.379114
309.000000	4.376518
308.000000	4.391749
307.000000	4.431127
306.000000	4.381624
305.000000	4.364402
304.000000	4.413732
303.000000	4.432338
302.000000	4.411135
301.000000	4.421780
300.000000	4.390105
299.000000	4.431127
298.000000	4.434675
297.000000	4.413818
296.000000	4.354882
295.000000	4.425675
294.000000	4.438656
293.000000	4.449647
292.000000	4.461244
291.000000	4.468687
290.000000	4.490842
289.000000	4.424030
288.000000	4.456571
287.000000	4.455013
286.000000	4.471370
285.000000	4.462196
284.000000	4.483572
283.000000	4.454147
282.000000	4.467129
281.000000	4.477082
280.000000	4.485476
279.000000	4.475870
278.000000	4.488678
277.000000	4.497852
276.000000	4.516632
275.000000	4.533681
274.000000	4.539826
273.000000	4.488332
272.000000	4.539999
271.000000	4.539826
270.000000	4.559644
269.000000	4.566481
268.000000	4.582232
267.000000	4.606551
266.000000	4.596079
265.000000	4.596945
264.000000	4.600493
263.000000	4.629572
262.000000	4.622821
261.000000	4.665487
260.000000	4.732299
259.000000	4.723472
258.000000	4.727539
257.000000	4.724770
256.000000	4.721048
255.000000	4.716981
254.000000	4.773321
253.000000	4.765099
252.000000	4.850258
251.000000	4.761551
250.000000	4.770638
