PE UV       SUBTECH     SPECTRUM    ASCII       PEDS        4.00        
   -1
CICIMAUCR0070-3.Sample.ASC
24/04/18
13:44:03.00
24/04/18
13:44:03.00
Vinicio Soto Monge
C. resplendens
250,000000
1
Lambda 1050
1050L1511233
PerkinElmer UV WinLab 6.3.2.0749 / 2.02.05 Lambda 900 UV/VIS/NIR, Aug  7 2015 09:38:08

0
0
3350/servo 860,8/2
0
0
UV/VIS
1
1
1
DoubleDePol,CommonBeamDepol,RBeamAtt,SBeamAtt,60mm sphere, WB InGaAs Detector
0
0
0
0
Program
Program
3350/servo 860,8/2
3350/0,2 860,8/0,2
3350/0,2 860,8/0,2
0
15.00
 
 
 
0
 
860,8
319,2
860,8
Front
100
on
S:100 R:100
0
0
0
0
 
0
 
 
 
0
 
 
0
0
0
0
0
 
 
 
 
0
0


0
0
#HDR
-1
-1
#GR
nm
%R
1.0
0.0
2500,000000
-1,000000
2251
8
85,171500
5,254500
#DATA
2500.000000	19.968100
2499.000000	19.973700
2498.000000	19.876400
2497.000000	19.942700
2496.000000	19.836600
2495.000000	19.869300
2494.000000	19.759800
2493.000000	19.885600
2492.000000	19.794200
2491.000000	19.751700
2490.000000	19.743100
2489.000000	19.815500
2488.000000	19.810400
2487.000000	19.785800
2486.000000	19.877500
2485.000000	19.883900
2484.000000	19.852600
2483.000000	19.834200
2482.000000	19.934700
2481.000000	19.934200
2480.000000	19.942600
2479.000000	19.949600
2478.000000	19.956400
2477.000000	20.009700
2476.000000	20.091400
2475.000000	20.098300
2474.000000	20.120200
2473.000000	20.208800
2472.000000	20.232200
2471.000000	20.280200
2470.000000	20.337300
2469.000000	20.370000
2468.000000	20.461200
2467.000000	20.521800
2466.000000	20.582300
2465.000000	20.642600
2464.000000	20.680900
2463.000000	20.748000
2462.000000	20.865300
2461.000000	20.900000
2460.000000	20.979200
2459.000000	21.053700
2458.000000	21.128600
2457.000000	21.219700
2456.000000	21.308300
2455.000000	21.415300
2454.000000	21.514900
2453.000000	21.620200
2452.000000	21.730700
2451.000000	21.871300
2450.000000	21.963500
2449.000000	22.072500
2448.000000	22.194400
2447.000000	22.325500
2446.000000	22.468700
2445.000000	22.596500
2444.000000	22.689600
2443.000000	22.826700
2442.000000	22.939300
2441.000000	23.081500
2440.000000	23.199500
2439.000000	23.332300
2438.000000	23.451700
2437.000000	23.584300
2436.000000	23.711700
2435.000000	23.809200
2434.000000	23.918300
2433.000000	24.056100
2432.000000	24.160700
2431.000000	24.274900
2430.000000	24.395600
2429.000000	24.490600
2428.000000	24.606300
2427.000000	24.695400
2426.000000	24.798100
2425.000000	24.885600
2424.000000	25.005000
2423.000000	25.137600
2422.000000	25.331800
2421.000000	25.525800
2420.000000	25.696500
2419.000000	25.835400
2418.000000	25.905000
2417.000000	25.991000
2416.000000	26.098800
2415.000000	26.216400
2414.000000	26.296100
2413.000000	26.415900
2412.000000	26.499400
2411.000000	26.585900
2410.000000	26.641100
2409.000000	26.716700
2408.000000	26.839000
2407.000000	26.932100
2406.000000	26.971800
2405.000000	26.997100
2404.000000	27.053400
2403.000000	27.154400
2402.000000	27.231100
2401.000000	27.267700
2400.000000	27.306400
2399.000000	27.357600
2398.000000	27.434900
2397.000000	27.504600
2396.000000	27.529700
2395.000000	27.545200
2394.000000	27.580600
2393.000000	27.617000
2392.000000	27.673100
2391.000000	27.732400
2390.000000	27.782800
2389.000000	27.789600
2388.000000	27.798900
2387.000000	27.838600
2386.000000	27.876100
2385.000000	27.878100
2384.000000	27.908300
2383.000000	27.944200
2382.000000	27.935600
2381.000000	27.916500
2380.000000	27.940900
2379.000000	27.963800
2378.000000	27.951400
2377.000000	27.940300
2376.000000	27.955600
2375.000000	27.981700
2374.000000	27.963800
2373.000000	27.977800
2372.000000	27.988900
2371.000000	27.977500
2370.000000	27.971000
2369.000000	27.987900
2368.000000	28.018800
2367.000000	28.025100
2366.000000	28.016900
2365.000000	28.041400
2364.000000	28.062400
2363.000000	28.044400
2362.000000	28.075200
2361.000000	28.102200
2360.000000	28.098300
2359.000000	28.106600
2358.000000	28.128000
2357.000000	28.136600
2356.000000	28.118700
2355.000000	28.106400
2354.000000	28.120300
2353.000000	28.123300
2352.000000	28.105000
2351.000000	28.089000
2350.000000	28.110200
2349.000000	28.111600
2348.000000	28.081400
2347.000000	28.104300
2346.000000	28.117600
2345.000000	28.096200
2344.000000	28.075700
2343.000000	28.087900
2342.000000	28.121400
2341.000000	28.131700
2340.000000	28.122200
2339.000000	28.101900
2338.000000	28.124600
2337.000000	28.157800
2336.000000	28.137900
2335.000000	28.179800
2334.000000	28.229100
2333.000000	28.237000
2332.000000	28.245100
2331.000000	28.251300
2330.000000	28.309400
2329.000000	28.363700
2328.000000	28.400900
2327.000000	28.429200
2326.000000	28.445100
2325.000000	28.479900
2324.000000	28.512700
2323.000000	28.554400
2322.000000	28.574900
2321.000000	28.602300
2320.000000	28.627600
2319.000000	28.617100
2318.000000	28.606900
2317.000000	28.621600
2316.000000	28.613100
2315.000000	28.580000
2314.000000	28.574100
2313.000000	28.541300
2312.000000	28.509600
2311.000000	28.484700
2310.000000	28.449700
2309.000000	28.410600
2308.000000	28.369600
2307.000000	28.362700
2306.000000	28.345000
2305.000000	28.305200
2304.000000	28.312500
2303.000000	28.288600
2302.000000	28.263100
2301.000000	28.277200
2300.000000	28.272400
2299.000000	28.260400
2298.000000	28.256800
2297.000000	28.284300
2296.000000	28.297300
2295.000000	28.306600
2294.000000	28.343200
2293.000000	28.354700
2292.000000	28.374300
2291.000000	28.408500
2290.000000	28.460800
2289.000000	28.504700
2288.000000	28.522400
2287.000000	28.553400
2286.000000	28.612200
2285.000000	28.652500
2284.000000	28.703100
2283.000000	28.780100
2282.000000	28.808700
2281.000000	28.852300
2280.000000	28.916300
2279.000000	28.957100
2278.000000	29.013000
2277.000000	29.053600
2276.000000	29.080100
2275.000000	29.133800
2274.000000	29.182400
2273.000000	29.221400
2272.000000	29.249400
2271.000000	29.289900
2270.000000	29.360500
2269.000000	29.416100
2268.000000	29.465000
2267.000000	29.521100
2266.000000	29.611100
2265.000000	29.685700
2264.000000	29.775800
2263.000000	29.873900
2262.000000	30.012400
2261.000000	30.138500
2260.000000	30.246700
2259.000000	30.397000
2258.000000	30.545600
2257.000000	30.731200
2256.000000	30.894100
2255.000000	31.063100
2254.000000	31.244300
2253.000000	31.398700
2252.000000	31.640600
2251.000000	31.791500
2250.000000	31.969300
2249.000000	32.122700
2248.000000	32.266300
2247.000000	32.457000
2246.000000	32.568600
2245.000000	32.712900
2244.000000	32.833900
2243.000000	32.977400
2242.000000	33.054400
2241.000000	33.137000
2240.000000	33.217900
2239.000000	33.263100
2238.000000	33.360100
2237.000000	33.384800
2236.000000	33.419600
2235.000000	33.447600
2234.000000	33.440700
2233.000000	33.439300
2232.000000	33.448300
2231.000000	33.433600
2230.000000	33.385900
2229.000000	33.364100
2228.000000	33.315700
2227.000000	33.270800
2226.000000	33.222600
2225.000000	33.161100
2224.000000	33.090000
2223.000000	33.006300
2222.000000	32.925900
2221.000000	32.833400
2220.000000	32.732800
2219.000000	32.645700
2218.000000	32.551100
2217.000000	32.468400
2216.000000	32.365500
2215.000000	32.278300
2214.000000	32.194200
2213.000000	32.108600
2212.000000	32.022400
2211.000000	31.944400
2210.000000	31.892100
2209.000000	31.816500
2208.000000	31.751000
2207.000000	31.673900
2206.000000	31.614100
2205.000000	31.565300
2204.000000	31.492700
2203.000000	31.469100
2202.000000	31.410500
2201.000000	31.350700
2200.000000	31.323100
2199.000000	31.290700
2198.000000	31.256800
2197.000000	31.221400
2196.000000	31.189500
2195.000000	31.146700
2194.000000	31.125400
2193.000000	31.102000
2192.000000	31.071600
2191.000000	31.050200
2190.000000	31.033100
2189.000000	31.011100
2188.000000	30.961000
2187.000000	30.941800
2186.000000	30.942800
2185.000000	30.909400
2184.000000	30.893200
2183.000000	30.875700
2182.000000	30.848400
2181.000000	30.829700
2180.000000	30.794500
2179.000000	30.796900
2178.000000	30.780000
2177.000000	30.755300
2176.000000	30.737900
2175.000000	30.740400
2174.000000	30.733900
2173.000000	30.720700
2172.000000	30.748400
2171.000000	30.766300
2170.000000	30.780500
2169.000000	30.809900
2168.000000	30.845700
2167.000000	30.869600
2166.000000	30.902500
2165.000000	30.942600
2164.000000	31.022400
2163.000000	31.072700
2162.000000	31.129800
2161.000000	31.188700
2160.000000	31.281100
2159.000000	31.349800
2158.000000	31.448500
2157.000000	31.550100
2156.000000	31.624700
2155.000000	31.735200
2154.000000	31.866400
2153.000000	31.975200
2152.000000	32.099700
2151.000000	32.224900
2150.000000	32.334300
2149.000000	32.465200
2148.000000	32.572000
2147.000000	32.698200
2146.000000	32.836300
2145.000000	32.947100
2144.000000	33.058300
2143.000000	33.184600
2142.000000	33.290500
2141.000000	33.404000
2140.000000	33.518400
2139.000000	33.629000
2138.000000	33.736400
2137.000000	33.847400
2136.000000	33.949500
2135.000000	34.048700
2134.000000	34.142500
2133.000000	34.243500
2132.000000	34.334800
2131.000000	34.400200
2130.000000	34.491800
2129.000000	34.576600
2128.000000	34.629300
2127.000000	34.692400
2126.000000	34.770300
2125.000000	34.832100
2124.000000	34.889900
2123.000000	34.952000
2122.000000	34.975400
2121.000000	35.016100
2120.000000	35.070600
2119.000000	35.119000
2118.000000	35.144500
2117.000000	35.156300
2116.000000	35.185700
2115.000000	35.218600
2114.000000	35.249700
2113.000000	35.262500
2112.000000	35.259400
2111.000000	35.264200
2110.000000	35.276500
2109.000000	35.280600
2108.000000	35.284400
2107.000000	35.281900
2106.000000	35.275700
2105.000000	35.285300
2104.000000	35.294500
2103.000000	35.296800
2102.000000	35.299000
2101.000000	35.286200
2100.000000	35.283600
2099.000000	35.300400
2098.000000	35.308200
2097.000000	35.314300
2096.000000	35.316700
2095.000000	35.321300
2094.000000	35.331800
2093.000000	35.353700
2092.000000	35.377600
2091.000000	35.394300
2090.000000	35.409200
2089.000000	35.424800
2088.000000	35.452200
2087.000000	35.454600
2086.000000	35.427500
2085.000000	35.438600
2084.000000	35.448800
2083.000000	35.425600
2082.000000	35.404800
2081.000000	35.372400
2080.000000	35.319200
2079.000000	35.280100
2078.000000	35.228200
2077.000000	35.159500
2076.000000	35.094700
2075.000000	35.008600
2074.000000	34.916300
2073.000000	34.828600
2072.000000	34.731800
2071.000000	34.623900
2070.000000	34.511700
2069.000000	34.395400
2068.000000	34.268600
2067.000000	34.144600
2066.000000	34.018700
2065.000000	33.897100
2064.000000	33.770700
2063.000000	33.639300
2062.000000	33.519400
2061.000000	33.413100
2060.000000	33.307800
2059.000000	33.208800
2058.000000	33.122800
2057.000000	33.078800
2056.000000	33.014100
2055.000000	32.977800
2054.000000	32.986800
2053.000000	32.983400
2052.000000	33.008100
2051.000000	33.081500
2050.000000	33.155500
2049.000000	33.253200
2048.000000	33.346900
2047.000000	33.466900
2046.000000	33.612500
2045.000000	33.792900
2044.000000	33.963500
2043.000000	34.111200
2042.000000	34.246400
2041.000000	34.417300
2040.000000	34.597100
2039.000000	34.751500
2038.000000	34.909600
2037.000000	35.062300
2036.000000	35.191200
2035.000000	35.336900
2034.000000	35.477500
2033.000000	35.591900
2032.000000	35.706600
2031.000000	35.818000
2030.000000	35.918000
2029.000000	36.028500
2028.000000	36.124800
2027.000000	36.191800
2026.000000	36.264000
2025.000000	36.339200
2024.000000	36.427100
2023.000000	36.498400
2022.000000	36.540900
2021.000000	36.578800
2020.000000	36.648300
2019.000000	36.712100
2018.000000	36.752600
2017.000000	36.771500
2016.000000	36.772100
2015.000000	36.799600
2014.000000	36.837800
2013.000000	36.842900
2012.000000	36.834500
2011.000000	36.829900
2010.000000	36.831300
2009.000000	36.816600
2008.000000	36.771500
2007.000000	36.750000
2006.000000	36.715400
2005.000000	36.689100
2004.000000	36.623500
2003.000000	36.586900
2002.000000	36.520000
2001.000000	36.453700
2000.000000	36.378600
1999.000000	36.311300
1998.000000	36.243600
1997.000000	36.146500
1996.000000	36.077600
1995.000000	35.983700
1994.000000	35.901300
1993.000000	35.783900
1992.000000	35.694000
1991.000000	35.606100
1990.000000	35.490800
1989.000000	35.371600
1988.000000	35.277900
1987.000000	35.170800
1986.000000	35.065500
1985.000000	34.945400
1984.000000	34.821700
1983.000000	34.704300
1982.000000	34.607100
1981.000000	34.494600
1980.000000	34.371800
1979.000000	34.242900
1978.000000	34.132800
1977.000000	34.030500
1976.000000	33.938700
1975.000000	33.807100
1974.000000	33.697600
1973.000000	33.604200
1972.000000	33.506500
1971.000000	33.404600
1970.000000	33.292800
1969.000000	33.190700
1968.000000	33.066500
1967.000000	32.957400
1966.000000	32.866600
1965.000000	32.766800
1964.000000	32.655900
1963.000000	32.558300
1962.000000	32.452100
1961.000000	32.345200
1960.000000	32.245200
1959.000000	32.138100
1958.000000	32.036900
1957.000000	31.910200
1956.000000	31.823500
1955.000000	31.711400
1954.000000	31.590400
1953.000000	31.508000
1952.000000	31.387300
1951.000000	31.284200
1950.000000	31.189100
1949.000000	31.079000
1948.000000	31.005400
1947.000000	30.937600
1946.000000	30.849400
1945.000000	30.783900
1944.000000	30.703600
1943.000000	30.659500
1942.000000	30.601100
1941.000000	30.562100
1940.000000	30.514700
1939.000000	30.506500
1938.000000	30.488500
1937.000000	30.465100
1936.000000	30.470300
1935.000000	30.487500
1934.000000	30.513500
1933.000000	30.543500
1932.000000	30.600900
1931.000000	30.658200
1930.000000	30.741400
1929.000000	30.819800
1928.000000	30.948400
1927.000000	31.065100
1926.000000	31.181500
1925.000000	31.308400
1924.000000	31.493100
1923.000000	31.635400
1922.000000	31.834300
1921.000000	32.081200
1920.000000	32.313800
1919.000000	32.527200
1918.000000	32.764100
1917.000000	33.024100
1916.000000	33.263200
1915.000000	33.562500
1914.000000	33.926900
1913.000000	34.323400
1912.000000	34.686300
1911.000000	35.037600
1910.000000	35.423400
1909.000000	35.741900
1908.000000	36.112200
1907.000000	36.585700
1906.000000	37.125900
1905.000000	37.707200
1904.000000	38.272600
1903.000000	38.763800
1902.000000	39.299600
1901.000000	39.804100
1900.000000	40.420600
1899.000000	41.059400
1898.000000	41.686400
1897.000000	42.310500
1896.000000	42.862700
1895.000000	43.353200
1894.000000	43.917000
1893.000000	44.505100
1892.000000	45.150000
1891.000000	45.791200
1890.000000	46.369600
1889.000000	46.871900
1888.000000	47.410300
1887.000000	47.877000
1886.000000	48.345200
1885.000000	48.812600
1884.000000	49.307500
1883.000000	49.732400
1882.000000	50.089600
1881.000000	50.459100
1880.000000	50.799000
1879.000000	51.106100
1878.000000	51.422000
1877.000000	51.721600
1876.000000	52.001800
1875.000000	52.286700
1874.000000	52.546100
1873.000000	52.816900
1872.000000	53.061000
1871.000000	53.268100
1870.000000	53.443900
1869.000000	53.588400
1868.000000	53.727500
1867.000000	53.815500
1866.000000	53.847600
1865.000000	53.897000
1864.000000	53.962800
1863.000000	54.034400
1862.000000	54.123900
1861.000000	54.223900
1860.000000	54.335900
1859.000000	54.423300
1858.000000	54.483400
1857.000000	54.538300
1856.000000	54.573700
1855.000000	54.597000
1854.000000	54.642100
1853.000000	54.652700
1852.000000	54.654700
1851.000000	54.676600
1850.000000	54.705600
1849.000000	54.767400
1848.000000	54.822100
1847.000000	54.846900
1846.000000	54.797900
1845.000000	54.704900
1844.000000	54.635500
1843.000000	54.640200
1842.000000	54.709500
1841.000000	54.761500
1840.000000	54.735400
1839.000000	54.682500
1838.000000	54.647900
1837.000000	54.629700
1836.000000	54.598500
1835.000000	54.541400
1834.000000	54.459800
1833.000000	54.379000
1832.000000	54.330900
1831.000000	54.333300
1830.000000	54.329900
1829.000000	54.290100
1828.000000	54.227000
1827.000000	54.199800
1826.000000	54.196800
1825.000000	54.157800
1824.000000	54.120300
1823.000000	54.113700
1822.000000	54.157700
1821.000000	54.223700
1820.000000	54.232400
1819.000000	54.156500
1818.000000	54.114600
1817.000000	54.109700
1816.000000	54.109300
1815.000000	54.104100
1814.000000	54.083000
1813.000000	54.081200
1812.000000	54.067900
1811.000000	54.045900
1810.000000	53.991100
1809.000000	53.954800
1808.000000	53.942400
1807.000000	53.934200
1806.000000	53.928400
1805.000000	53.893900
1804.000000	53.857100
1803.000000	53.855800
1802.000000	53.866300
1801.000000	53.854700
1800.000000	53.806300
1799.000000	53.770300
1798.000000	53.756900
1797.000000	53.739300
1796.000000	53.726000
1795.000000	53.713900
1794.000000	53.692200
1793.000000	53.676300
1792.000000	53.670500
1791.000000	53.656700
1790.000000	53.638100
1789.000000	53.644300
1788.000000	53.649100
1787.000000	53.658700
1786.000000	53.675800
1785.000000	53.694900
1784.000000	53.685700
1783.000000	53.663900
1782.000000	53.663000
1781.000000	53.656200
1780.000000	53.653600
1779.000000	53.637900
1778.000000	53.616700
1777.000000	53.594600
1776.000000	53.571300
1775.000000	53.542100
1774.000000	53.520600
1773.000000	53.489100
1772.000000	53.462500
1771.000000	53.432100
1770.000000	53.398400
1769.000000	53.375500
1768.000000	53.349700
1767.000000	53.327900
1766.000000	53.300300
1765.000000	53.276100
1764.000000	53.252900
1763.000000	53.258100
1762.000000	53.239500
1761.000000	53.241800
1760.000000	53.240300
1759.000000	53.253500
1758.000000	53.254300
1757.000000	53.262900
1756.000000	53.268200
1755.000000	53.277800
1754.000000	53.287600
1753.000000	53.275600
1752.000000	53.300500
1751.000000	53.280100
1750.000000	53.261500
1749.000000	53.243300
1748.000000	53.219300
1747.000000	53.177500
1746.000000	53.155700
1745.000000	53.103300
1744.000000	53.047800
1743.000000	52.986300
1742.000000	52.923000
1741.000000	52.888900
1740.000000	52.830300
1739.000000	52.761900
1738.000000	52.721000
1737.000000	52.662400
1736.000000	52.628800
1735.000000	52.600800
1734.000000	52.565100
1733.000000	52.524200
1732.000000	52.490700
1731.000000	52.451300
1730.000000	52.429800
1729.000000	52.414100
1728.000000	52.393300
1727.000000	52.369700
1726.000000	52.365900
1725.000000	52.380600
1724.000000	52.386500
1723.000000	52.437400
1722.000000	52.497700
1721.000000	52.614700
1720.000000	52.787600
1719.000000	52.957800
1718.000000	53.161300
1717.000000	53.366000
1716.000000	53.568700
1715.000000	53.766500
1714.000000	53.931000
1713.000000	54.127400
1712.000000	54.279800
1711.000000	54.422200
1710.000000	54.555800
1709.000000	54.651000
1708.000000	54.731700
1707.000000	54.845100
1706.000000	54.912300
1705.000000	54.972300
1704.000000	55.002500
1703.000000	55.014700
1702.000000	55.052400
1701.000000	55.064000
1700.000000	55.088700
1699.000000	55.086700
1698.000000	55.086100
1697.000000	55.096100
1696.000000	55.073900
1695.000000	55.068300
1694.000000	55.004400
1693.000000	54.973500
1692.000000	54.906000
1691.000000	54.852700
1690.000000	54.817500
1689.000000	54.797200
1688.000000	54.831100
1687.000000	54.886100
1686.000000	55.006800
1685.000000	55.131200
1684.000000	55.292700
1683.000000	55.491000
1682.000000	55.673800
1681.000000	55.861500
1680.000000	56.066000
1679.000000	56.261200
1678.000000	56.419700
1677.000000	56.607200
1676.000000	56.762100
1675.000000	56.900700
1674.000000	57.077400
1673.000000	57.216500
1672.000000	57.365600
1671.000000	57.515000
1670.000000	57.668100
1669.000000	57.803100
1668.000000	57.967500
1667.000000	58.109500
1666.000000	58.240000
1665.000000	58.357100
1664.000000	58.480300
1663.000000	58.600300
1662.000000	58.711500
1661.000000	58.812900
1660.000000	58.917000
1659.000000	58.997600
1658.000000	59.058700
1657.000000	59.122000
1656.000000	59.175700
1655.000000	59.225400
1654.000000	59.260900
1653.000000	59.298200
1652.000000	59.316700
1651.000000	59.329300
1650.000000	59.336800
1649.000000	59.345500
1648.000000	59.348200
1647.000000	59.340700
1646.000000	59.323600
1645.000000	59.324900
1644.000000	59.310700
1643.000000	59.308200
1642.000000	59.293800
1641.000000	59.293600
1640.000000	59.282100
1639.000000	59.272900
1638.000000	59.273000
1637.000000	59.246900
1636.000000	59.224000
1635.000000	59.220300
1634.000000	59.178200
1633.000000	59.163900
1632.000000	59.128500
1631.000000	59.093000
1630.000000	59.062500
1629.000000	59.026000
1628.000000	58.992000
1627.000000	58.949100
1626.000000	58.907800
1625.000000	58.881800
1624.000000	58.848400
1623.000000	58.807200
1622.000000	58.768100
1621.000000	58.743200
1620.000000	58.712000
1619.000000	58.674900
1618.000000	58.650900
1617.000000	58.627500
1616.000000	58.607400
1615.000000	58.571600
1614.000000	58.547900
1613.000000	58.517900
1612.000000	58.488200
1611.000000	58.439000
1610.000000	58.402700
1609.000000	58.363200
1608.000000	58.309600
1607.000000	58.276400
1606.000000	58.218800
1605.000000	58.157400
1604.000000	58.097500
1603.000000	58.046500
1602.000000	57.993200
1601.000000	57.936500
1600.000000	57.869300
1599.000000	57.804300
1598.000000	57.760500
1597.000000	57.714900
1596.000000	57.674700
1595.000000	57.613900
1594.000000	57.564200
1593.000000	57.528800
1592.000000	57.481200
1591.000000	57.458000
1590.000000	57.419400
1589.000000	57.371900
1588.000000	57.337000
1587.000000	57.302700
1586.000000	57.253900
1585.000000	57.223300
1584.000000	57.217000
1583.000000	57.181800
1582.000000	57.142400
1581.000000	57.120800
1580.000000	57.097700
1579.000000	57.078600
1578.000000	57.062100
1577.000000	57.037800
1576.000000	57.028000
1575.000000	57.028000
1574.000000	57.035800
1573.000000	57.046100
1572.000000	57.053500
1571.000000	57.073000
1570.000000	57.096500
1569.000000	57.113900
1568.000000	57.128900
1567.000000	57.157600
1566.000000	57.177800
1565.000000	57.190000
1564.000000	57.214500
1563.000000	57.242300
1562.000000	57.255200
1561.000000	57.251100
1560.000000	57.252500
1559.000000	57.242700
1558.000000	57.226300
1557.000000	57.212300
1556.000000	57.182800
1555.000000	57.137500
1554.000000	57.107200
1553.000000	57.065800
1552.000000	57.000400
1551.000000	56.943800
1550.000000	56.895200
1549.000000	56.825700
1548.000000	56.762200
1547.000000	56.704900
1546.000000	56.657900
1545.000000	56.616600
1544.000000	56.564000
1543.000000	56.524200
1542.000000	56.484700
1541.000000	56.448000
1540.000000	56.421700
1539.000000	56.410300
1538.000000	56.390500
1537.000000	56.355700
1536.000000	56.323800
1535.000000	56.283600
1534.000000	56.247100
1533.000000	56.223800
1532.000000	56.181700
1531.000000	56.142800
1530.000000	56.104300
1529.000000	56.067000
1528.000000	56.032100
1527.000000	55.996900
1526.000000	55.942300
1525.000000	55.895000
1524.000000	55.851900
1523.000000	55.797400
1522.000000	55.745600
1521.000000	55.698600
1520.000000	55.655800
1519.000000	55.600900
1518.000000	55.558500
1517.000000	55.496900
1516.000000	55.438500
1515.000000	55.394000
1514.000000	55.331900
1513.000000	55.268700
1512.000000	55.219400
1511.000000	55.174800
1510.000000	55.134000
1509.000000	55.074500
1508.000000	55.024500
1507.000000	54.963900
1506.000000	54.904700
1505.000000	54.862300
1504.000000	54.820900
1503.000000	54.778800
1502.000000	54.734900
1501.000000	54.691800
1500.000000	54.664200
1499.000000	54.646500
1498.000000	54.612600
1497.000000	54.604800
1496.000000	54.597800
1495.000000	54.596500
1494.000000	54.608400
1493.000000	54.627300
1492.000000	54.653800
1491.000000	54.689900
1490.000000	54.702200
1489.000000	54.722300
1488.000000	54.752700
1487.000000	54.789100
1486.000000	54.805000
1485.000000	54.844400
1484.000000	54.869400
1483.000000	54.909200
1482.000000	54.959400
1481.000000	54.986400
1480.000000	55.016200
1479.000000	55.039100
1478.000000	55.078700
1477.000000	55.128500
1476.000000	55.146400
1475.000000	55.209400
1474.000000	55.275100
1473.000000	55.336900
1472.000000	55.422100
1471.000000	55.489700
1470.000000	55.533500
1469.000000	55.547300
1468.000000	55.633000
1467.000000	55.733800
1466.000000	55.791400
1465.000000	55.843900
1464.000000	55.907500
1463.000000	55.989600
1462.000000	56.073600
1461.000000	56.162000
1460.000000	56.228100
1459.000000	56.324700
1458.000000	56.395400
1457.000000	56.465500
1456.000000	56.569300
1455.000000	56.659900
1454.000000	56.728200
1453.000000	56.808200
1452.000000	56.923600
1451.000000	57.021500
1450.000000	57.086700
1449.000000	57.116900
1448.000000	57.182200
1447.000000	57.293300
1446.000000	57.416300
1445.000000	57.488800
1444.000000	57.549200
1443.000000	57.626200
1442.000000	57.722600
1441.000000	57.837500
1440.000000	57.895000
1439.000000	58.022200
1438.000000	58.138600
1437.000000	58.220700
1436.000000	58.322700
1435.000000	58.450300
1434.000000	58.605600
1433.000000	58.739600
1432.000000	58.891300
1431.000000	59.001300
1430.000000	59.112100
1429.000000	59.276900
1428.000000	59.473800
1427.000000	59.632400
1426.000000	59.796800
1425.000000	60.020000
1424.000000	60.242900
1423.000000	60.439500
1422.000000	60.612600
1421.000000	60.867300
1420.000000	61.176300
1419.000000	61.445900
1418.000000	61.640200
1417.000000	61.859800
1416.000000	62.120000
1415.000000	62.442700
1414.000000	62.813300
1413.000000	63.051600
1412.000000	63.306600
1411.000000	63.635900
1410.000000	64.000800
1409.000000	64.427600
1408.000000	64.719400
1407.000000	65.046900
1406.000000	65.361200
1405.000000	65.700500
1404.000000	65.941300
1403.000000	66.288100
1402.000000	66.567600
1401.000000	67.014600
1400.000000	67.388700
1399.000000	67.561400
1398.000000	67.669600
1397.000000	68.016100
1396.000000	68.421000
1395.000000	68.727500
1394.000000	68.861700
1393.000000	69.029100
1392.000000	69.304700
1391.000000	69.510100
1390.000000	69.676500
1389.000000	69.936600
1388.000000	70.283000
1387.000000	70.418400
1386.000000	70.613800
1385.000000	70.832000
1384.000000	71.122900
1383.000000	71.289100
1382.000000	71.446400
1381.000000	71.532400
1380.000000	71.520300
1379.000000	71.654500
1378.000000	71.720600
1377.000000	71.798000
1376.000000	71.881300
1375.000000	71.964300
1374.000000	72.028800
1373.000000	72.160900
1372.000000	72.310800
1371.000000	72.420900
1370.000000	72.474000
1369.000000	72.576200
1368.000000	72.708200
1367.000000	72.749800
1366.000000	72.821700
1365.000000	72.924800
1364.000000	73.021600
1363.000000	73.088700
1362.000000	73.188400
1361.000000	73.268100
1360.000000	73.267400
1359.000000	73.275500
1358.000000	73.306600
1357.000000	73.344200
1356.000000	73.430600
1355.000000	73.545600
1354.000000	73.611900
1353.000000	73.643200
1352.000000	73.724900
1351.000000	73.827800
1350.000000	73.958000
1349.000000	74.062300
1348.000000	74.196100
1347.000000	74.270400
1346.000000	74.341000
1345.000000	74.462800
1344.000000	74.597200
1343.000000	74.680400
1342.000000	74.760500
1341.000000	74.851500
1340.000000	74.946100
1339.000000	75.023100
1338.000000	75.108400
1337.000000	75.187400
1336.000000	75.255200
1335.000000	75.322400
1334.000000	75.394200
1333.000000	75.459700
1332.000000	75.511600
1331.000000	75.556800
1330.000000	75.610400
1329.000000	75.678000
1328.000000	75.709700
1327.000000	75.742600
1326.000000	75.781400
1325.000000	75.819900
1324.000000	75.859700
1323.000000	75.890600
1322.000000	75.911100
1321.000000	75.940900
1320.000000	75.964700
1319.000000	75.991400
1318.000000	76.028700
1317.000000	76.053800
1316.000000	76.070800
1315.000000	76.090500
1314.000000	76.120000
1313.000000	76.143700
1312.000000	76.161600
1311.000000	76.173400
1310.000000	76.180900
1309.000000	76.193600
1308.000000	76.210600
1307.000000	76.223900
1306.000000	76.230100
1305.000000	76.241900
1304.000000	76.261700
1303.000000	76.264200
1302.000000	76.253800
1301.000000	76.249000
1300.000000	76.249500
1299.000000	76.259900
1298.000000	76.260200
1297.000000	76.255300
1296.000000	76.245300
1295.000000	76.230300
1294.000000	76.228700
1293.000000	76.223900
1292.000000	76.212900
1291.000000	76.206600
1290.000000	76.192800
1289.000000	76.179500
1288.000000	76.167400
1287.000000	76.146500
1286.000000	76.130800
1285.000000	76.113200
1284.000000	76.095200
1283.000000	76.082600
1282.000000	76.061600
1281.000000	76.045200
1280.000000	76.034600
1279.000000	76.030600
1278.000000	76.018300
1277.000000	75.994600
1276.000000	75.992200
1275.000000	75.992200
1274.000000	76.003900
1273.000000	76.005300
1272.000000	75.994300
1271.000000	75.995100
1270.000000	76.011900
1269.000000	76.012800
1268.000000	76.021400
1267.000000	76.048000
1266.000000	76.064000
1265.000000	76.060000
1264.000000	76.068700
1263.000000	76.072200
1262.000000	76.083600
1261.000000	76.096900
1260.000000	76.107000
1259.000000	76.121800
1258.000000	76.130500
1257.000000	76.118600
1256.000000	76.112900
1255.000000	76.142500
1254.000000	76.149900
1253.000000	76.144100
1252.000000	76.141700
1251.000000	76.117700
1250.000000	76.103000
1249.000000	76.101200
1248.000000	76.093500
1247.000000	76.064200
1246.000000	76.052700
1245.000000	76.048900
1244.000000	76.027300
1243.000000	75.999300
1242.000000	75.987600
1241.000000	75.970700
1240.000000	75.953400
1239.000000	75.942100
1238.000000	75.913800
1237.000000	75.899300
1236.000000	75.902200
1235.000000	75.885600
1234.000000	75.867800
1233.000000	75.856600
1232.000000	75.856600
1231.000000	75.832000
1230.000000	75.833500
1229.000000	75.814400
1228.000000	75.829000
1227.000000	75.791100
1226.000000	75.780500
1225.000000	75.766700
1224.000000	75.750700
1223.000000	75.742600
1222.000000	75.737400
1221.000000	75.723500
1220.000000	75.708900
1219.000000	75.688500
1218.000000	75.676300
1217.000000	75.666200
1216.000000	75.657900
1215.000000	75.645500
1214.000000	75.609700
1213.000000	75.596400
1212.000000	75.563500
1211.000000	75.543100
1210.000000	75.512100
1209.000000	75.469300
1208.000000	75.454500
1207.000000	75.418600
1206.000000	75.372700
1205.000000	75.355600
1204.000000	75.326200
1203.000000	75.286400
1202.000000	75.247900
1201.000000	75.206000
1200.000000	75.165300
1199.000000	75.125200
1198.000000	75.075700
1197.000000	75.033400
1196.000000	74.982000
1195.000000	74.933400
1194.000000	74.877900
1193.000000	74.823600
1192.000000	74.770000
1191.000000	74.720300
1190.000000	74.698400
1189.000000	74.657000
1188.000000	74.630800
1187.000000	74.626900
1186.000000	74.624500
1185.000000	74.611000
1184.000000	74.627900
1183.000000	74.658000
1182.000000	74.660300
1181.000000	74.678800
1180.000000	74.715200
1179.000000	74.738400
1178.000000	74.792100
1177.000000	74.826300
1176.000000	74.850800
1175.000000	74.894800
1174.000000	74.940600
1173.000000	74.965800
1172.000000	75.007100
1171.000000	75.069200
1170.000000	75.106400
1169.000000	75.177600
1168.000000	75.239100
1167.000000	75.318000
1166.000000	75.386800
1165.000000	75.467600
1164.000000	75.555800
1163.000000	75.631700
1162.000000	75.717000
1161.000000	75.795800
1160.000000	75.880700
1159.000000	75.953900
1158.000000	76.027300
1157.000000	76.098100
1156.000000	76.160400
1155.000000	76.218600
1154.000000	76.289700
1153.000000	76.333900
1152.000000	76.385500
1151.000000	76.423300
1150.000000	76.455500
1149.000000	76.506300
1148.000000	76.537100
1147.000000	76.581100
1146.000000	76.637800
1145.000000	76.682700
1144.000000	76.699500
1143.000000	76.716100
1142.000000	76.776800
1141.000000	76.839400
1140.000000	76.892600
1139.000000	76.930000
1138.000000	76.992600
1137.000000	77.095300
1136.000000	77.206500
1135.000000	77.251600
1134.000000	77.340000
1133.000000	77.359800
1132.000000	77.360400
1131.000000	77.442500
1130.000000	77.502200
1129.000000	77.574900
1128.000000	77.595000
1127.000000	77.628900
1126.000000	77.676400
1125.000000	77.730300
1124.000000	77.753500
1123.000000	77.756500
1122.000000	77.800400
1121.000000	77.786100
1120.000000	77.790800
1119.000000	77.803700
1118.000000	77.805100
1117.000000	77.819500
1116.000000	77.812400
1115.000000	77.820700
1114.000000	77.798500
1113.000000	77.802300
1112.000000	77.811900
1111.000000	77.808100
1110.000000	77.806400
1109.000000	77.808000
1108.000000	77.816800
1107.000000	77.816100
1106.000000	77.804900
1105.000000	77.803600
1104.000000	77.796300
1103.000000	77.796100
1102.000000	77.793300
1101.000000	77.793400
1100.000000	77.776500
1099.000000	77.783600
1098.000000	77.765700
1097.000000	77.739000
1096.000000	77.714800
1095.000000	77.703400
1094.000000	77.699800
1093.000000	77.683500
1092.000000	77.675200
1091.000000	77.658200
1090.000000	77.637000
1089.000000	77.619900
1088.000000	77.600400
1087.000000	77.573900
1086.000000	77.551100
1085.000000	77.532200
1084.000000	77.507800
1083.000000	77.488100
1082.000000	77.469600
1081.000000	77.442900
1080.000000	77.398100
1079.000000	77.371300
1078.000000	77.345600
1077.000000	77.319600
1076.000000	77.293500
1075.000000	77.267400
1074.000000	77.243100
1073.000000	77.211500
1072.000000	77.168500
1071.000000	77.138000
1070.000000	77.113100
1069.000000	77.091800
1068.000000	77.049400
1067.000000	77.020600
1066.000000	76.996700
1065.000000	76.964600
1064.000000	76.935100
1063.000000	76.910100
1062.000000	76.894600
1061.000000	76.854700
1060.000000	76.837100
1059.000000	76.826100
1058.000000	76.811600
1057.000000	76.787600
1056.000000	76.760100
1055.000000	76.745900
1054.000000	76.733400
1053.000000	76.718200
1052.000000	76.715400
1051.000000	76.698700
1050.000000	76.677700
1049.000000	76.681600
1048.000000	76.675300
1047.000000	76.670900
1046.000000	76.666700
1045.000000	76.665300
1044.000000	76.659500
1043.000000	76.668800
1042.000000	76.678700
1041.000000	76.680500
1040.000000	76.681400
1039.000000	76.687900
1038.000000	76.693000
1037.000000	76.694200
1036.000000	76.699900
1035.000000	76.716500
1034.000000	76.731800
1033.000000	76.731200
1032.000000	76.734000
1031.000000	76.736400
1030.000000	76.744600
1029.000000	76.765600
1028.000000	76.773000
1027.000000	76.780000
1026.000000	76.766300
1025.000000	76.770800
1024.000000	76.798600
1023.000000	76.813700
1022.000000	76.823600
1021.000000	76.836900
1020.000000	76.842100
1019.000000	76.847900
1018.000000	76.856500
1017.000000	76.855000
1016.000000	76.872700
1015.000000	76.885900
1014.000000	76.889200
1013.000000	76.894400
1012.000000	76.916400
1011.000000	76.936700
1010.000000	76.936800
1009.000000	76.938800
1008.000000	76.957800
1007.000000	76.968400
1006.000000	76.966300
1005.000000	76.963200
1004.000000	76.964700
1003.000000	76.965500
1002.000000	76.959800
1001.000000	76.952900
1000.000000	76.949300
999.000000	76.961400
998.000000	76.954700
997.000000	76.958200
996.000000	76.967400
995.000000	76.963400
994.000000	76.974200
993.000000	76.964600
992.000000	76.970400
991.000000	76.979800
990.000000	76.973700
989.000000	76.989200
988.000000	77.013400
987.000000	77.017400
986.000000	77.026000
985.000000	77.066300
984.000000	77.084000
983.000000	77.084300
982.000000	77.112200
981.000000	77.160300
980.000000	77.159100
979.000000	77.194700
978.000000	77.224400
977.000000	77.257600
976.000000	77.299700
975.000000	77.335300
974.000000	77.365600
973.000000	77.424200
972.000000	77.457000
971.000000	77.509900
970.000000	77.540200
969.000000	77.597500
968.000000	77.652300
967.000000	77.715500
966.000000	77.740900
965.000000	77.787700
964.000000	77.849700
963.000000	77.926100
962.000000	78.002700
961.000000	78.046800
960.000000	78.092600
959.000000	78.178600
958.000000	78.229100
957.000000	78.270500
956.000000	78.357200
955.000000	78.405800
954.000000	78.463200
953.000000	78.543100
952.000000	78.581500
951.000000	78.641500
950.000000	78.716600
949.000000	78.775200
948.000000	78.801500
947.000000	78.845300
946.000000	78.884200
945.000000	78.930400
944.000000	79.000300
943.000000	79.024400
942.000000	79.095900
941.000000	79.129500
940.000000	79.164300
939.000000	79.200100
938.000000	79.277700
937.000000	79.317100
936.000000	79.365300
935.000000	79.429300
934.000000	79.460200
933.000000	79.569700
932.000000	79.602400
931.000000	79.650300
930.000000	79.751200
929.000000	79.769300
928.000000	79.814100
927.000000	79.900200
926.000000	79.917500
925.000000	79.947100
924.000000	79.999400
923.000000	80.041900
922.000000	80.095600
921.000000	80.198900
920.000000	80.231400
919.000000	80.279200
918.000000	80.320200
917.000000	80.408900
916.000000	80.474400
915.000000	80.526500
914.000000	80.553500
913.000000	80.605300
912.000000	80.739500
911.000000	80.764900
910.000000	80.759500
909.000000	80.806100
908.000000	80.825700
907.000000	80.940200
906.000000	80.972400
905.000000	80.993100
904.000000	80.940300
903.000000	80.955600
902.000000	80.976900
901.000000	81.086000
900.000000	81.071800
899.000000	81.046400
898.000000	80.970700
897.000000	80.941900
896.000000	80.929200
895.000000	80.916800
894.000000	80.890400
893.000000	80.840200
892.000000	80.822700
891.000000	80.712500
890.000000	80.675500
889.000000	80.549300
888.000000	80.502500
887.000000	80.458500
886.000000	80.413500
885.000000	80.322900
884.000000	80.233600
883.000000	80.051000
882.000000	79.961300
881.000000	79.818000
880.000000	79.600600
879.000000	79.512100
878.000000	79.400300
877.000000	79.269200
876.000000	79.072700
875.000000	78.833500
874.000000	78.634300
873.000000	78.373500
872.000000	78.161200
871.000000	77.847500
870.000000	77.659100
869.000000	77.438600
868.000000	77.078100
867.000000	76.815900
866.000000	76.450300
865.000000	76.171400
864.000000	75.807500
863.000000	75.494800
862.000000	75.026000
861.000000	74.589800
860.000000	74.212600
859.000000	73.649000
858.000000	74.976800
857.000000	74.252720
856.000000	74.063521
855.000000	73.659653
854.000000	73.967134
853.000000	74.293892
852.000000	74.222016
851.000000	73.631652
850.000000	74.145254
849.000000	74.013801
848.000000	74.034736
847.000000	73.884005
846.000000	73.839431
845.000000	73.604612
844.000000	73.578269
843.000000	73.306726
842.000000	73.586294
841.000000	73.494442
840.000000	73.293642
839.000000	73.254302
838.000000	73.021052
837.000000	72.891692
836.000000	72.885761
835.000000	72.912540
834.000000	72.820950
833.000000	72.736862
832.000000	72.508759
831.000000	72.551414
830.000000	72.283971
829.000000	72.164817
828.000000	71.963842
827.000000	72.053862
826.000000	71.978584
825.000000	71.810581
824.000000	71.751877
823.000000	71.533369
822.000000	71.421280
821.000000	71.248568
820.000000	71.131507
819.000000	71.023169
818.000000	70.863541
817.000000	70.871478
816.000000	70.762443
815.000000	70.528321
814.000000	70.457928
813.000000	70.201301
812.000000	70.193625
811.000000	70.088166
810.000000	69.998233
809.000000	69.771003
808.000000	69.669556
807.000000	69.509404
806.000000	69.263594
805.000000	69.132315
804.000000	69.064713
803.000000	68.896536
802.000000	68.761070
801.000000	68.607373
800.000000	68.396019
799.000000	68.222957
798.000000	68.038032
797.000000	67.987963
796.000000	67.752184
795.000000	67.604506
794.000000	67.509514
793.000000	67.359656
792.000000	67.251492
791.000000	67.086979
790.000000	66.877020
789.000000	66.779150
788.000000	66.620655
787.000000	66.437562
786.000000	66.310383
785.000000	66.211466
784.000000	66.110542
783.000000	65.924833
782.000000	65.787709
781.000000	65.663147
780.000000	65.476216
779.000000	65.349473
778.000000	65.182256
777.000000	64.978228
776.000000	64.844768
775.000000	64.781353
774.000000	64.639520
773.000000	64.514172
772.000000	64.386382
771.000000	64.207651
770.000000	64.055437
769.000000	63.939859
768.000000	63.848705
767.000000	63.713937
766.000000	63.542533
765.000000	63.407852
764.000000	63.283726
763.000000	63.114066
762.000000	62.977292
761.000000	62.821327
760.000000	62.672602
759.000000	62.509223
758.000000	62.364773
757.000000	62.186914
756.000000	61.994575
755.000000	61.846984
754.000000	61.722421
753.000000	61.586781
752.000000	61.439452
751.000000	61.325706
750.000000	61.126737
749.000000	60.957514
748.000000	60.806347
747.000000	60.672625
746.000000	60.514044
745.000000	60.284109
744.000000	60.079994
743.000000	59.896989
742.000000	59.737099
741.000000	59.544760
740.000000	59.324333
739.000000	59.126063
738.000000	58.926309
737.000000	58.703876
736.000000	58.482926
735.000000	58.292419
734.000000	58.078622
733.000000	57.818942
732.000000	57.539026
731.000000	57.291907
730.000000	57.071568
729.000000	56.799066
728.000000	56.540782
727.000000	56.355945
726.000000	56.085623
725.000000	55.839028
724.000000	55.599586
723.000000	55.348716
722.000000	55.126807
721.000000	54.918679
720.000000	54.705667
719.000000	54.517689
718.000000	54.303718
717.000000	54.076400
716.000000	53.891912
715.000000	53.699136
714.000000	53.474784
713.000000	53.270757
712.000000	53.058791
711.000000	52.819174
710.000000	52.622387
709.000000	52.406583
708.000000	52.146991
707.000000	51.913742
706.000000	51.678922
705.000000	51.444103
704.000000	51.212773
703.000000	50.950651
702.000000	50.663669
701.000000	50.431815
700.000000	50.195862
699.000000	49.944208
698.000000	49.645711
697.000000	49.405658
696.000000	49.185930
695.000000	48.946662
694.000000	48.745861
693.000000	48.590682
692.000000	48.404274
691.000000	48.213505
690.000000	48.098887
689.000000	47.994387
688.000000	47.938648
687.000000	47.848977
686.000000	47.821762
685.000000	47.746571
684.000000	47.664925
683.000000	47.640065
682.000000	47.614245
681.000000	47.576301
680.000000	47.498405
679.000000	47.442579
678.000000	47.365818
677.000000	47.250851
676.000000	47.154114
675.000000	46.944504
674.000000	46.781997
673.000000	46.568549
672.000000	46.354141
671.000000	46.123160
670.000000	45.859468
669.000000	45.600399
668.000000	45.333566
667.000000	45.063158
666.000000	44.788301
665.000000	44.555226
664.000000	44.247483
663.000000	43.949162
662.000000	43.738417
661.000000	43.503424
660.000000	43.299919
659.000000	43.125637
658.000000	42.977697
657.000000	42.811265
656.000000	42.706329
655.000000	42.591885
654.000000	42.479534
653.000000	42.411322
652.000000	42.320691
651.000000	42.266348
650.000000	42.235731
649.000000	42.219157
648.000000	42.183568
647.000000	42.155393
646.000000	42.146757
645.000000	42.170396
644.000000	42.201101
643.000000	42.249862
642.000000	42.297837
641.000000	42.348779
640.000000	42.447958
639.000000	42.538850
638.000000	42.645356
637.000000	42.823390
636.000000	42.959902
635.000000	43.156167
634.000000	43.336032
633.000000	43.551574
632.000000	43.786829
631.000000	44.009437
630.000000	44.291185
629.000000	44.554790
628.000000	44.866370
627.000000	45.169228
626.000000	45.488833
625.000000	45.802769
624.000000	46.130051
623.000000	46.481146
622.000000	46.886235
621.000000	47.278066
620.000000	47.657685
619.000000	48.078127
618.000000	48.452599
617.000000	48.885165
616.000000	49.297233
615.000000	49.716715
614.000000	50.170304
613.000000	50.565362
612.000000	50.958850
611.000000	51.331665
610.000000	51.663047
609.000000	52.067962
608.000000	52.349100
607.000000	52.699061
606.000000	52.973046
605.000000	53.284103
604.000000	53.578674
603.000000	53.802415
602.000000	54.097335
601.000000	54.371233
600.000000	54.648358
599.000000	54.920424
598.000000	55.191356
597.000000	55.446936
596.000000	55.718827
595.000000	56.003628
594.000000	56.248566
593.000000	56.475012
592.000000	56.709482
591.000000	56.917086
590.000000	57.090148
589.000000	57.240617
588.000000	57.354101
587.000000	57.447785
586.000000	57.521057
585.000000	57.563712
584.000000	57.621980
583.000000	57.609681
582.000000	57.578279
581.000000	57.583949
580.000000	57.545481
579.000000	57.485206
578.000000	57.474738
577.000000	57.405828
576.000000	57.365615
575.000000	57.357939
574.000000	57.315895
573.000000	57.312755
572.000000	57.269838
571.000000	57.297752
570.000000	57.284842
569.000000	57.287720
568.000000	57.250474
567.000000	57.227445
566.000000	57.123469
565.000000	57.050807
564.000000	56.942121
563.000000	56.811191
562.000000	56.677644
561.000000	56.486962
560.000000	56.295670
559.000000	56.062682
558.000000	55.830916
557.000000	55.571672
556.000000	55.278410
555.000000	55.006867
554.000000	54.665629
553.000000	54.349077
552.000000	54.000773
551.000000	53.612780
550.000000	53.202108
549.000000	52.767012
548.000000	52.294320
547.000000	51.760132
546.000000	51.180324
545.000000	50.566322
544.000000	49.926326
543.000000	49.218553
542.000000	48.483652
541.000000	47.733312
540.000000	46.926797
539.000000	46.114175
538.000000	45.281665
537.000000	44.440346
536.000000	43.572072
535.000000	42.714877
534.000000	41.814853
533.000000	40.928000
532.000000	40.063739
531.000000	39.200001
530.000000	38.349348
529.000000	37.500527
528.000000	36.696628
527.000000	35.922649
526.000000	35.167075
525.000000	34.460785
524.000000	33.756676
523.000000	33.078212
522.000000	32.422079
521.000000	31.790282
520.000000	31.182910
519.000000	30.628223
518.000000	30.109475
517.000000	29.616808
516.000000	29.152228
515.000000	28.695848
514.000000	28.247319
513.000000	27.841532
512.000000	27.439059
511.000000	27.044001
510.000000	26.684793
509.000000	26.359082
508.000000	26.027264
507.000000	25.705740
506.000000	25.408203
505.000000	25.087900
504.000000	24.765765
503.000000	24.475555
502.000000	24.183601
501.000000	23.902899
500.000000	23.614173
499.000000	23.348213
498.000000	23.087138
497.000000	22.845253
496.000000	22.591418
495.000000	22.327377
494.000000	22.072669
493.000000	21.813339
492.000000	21.553659
491.000000	21.305930
490.000000	21.064132
489.000000	20.817537
488.000000	20.586818
487.000000	20.370840
486.000000	20.132618
485.000000	19.908354
484.000000	19.675890
483.000000	19.438017
482.000000	19.199883
481.000000	18.954684
480.000000	18.708001
479.000000	18.464197
478.000000	18.229901
477.000000	18.006683
476.000000	17.784774
475.000000	17.551176
474.000000	17.307023
473.000000	17.090871
472.000000	16.872101
471.000000	16.642777
470.000000	16.418513
469.000000	16.201226
468.000000	15.980102
467.000000	15.753133
466.000000	15.524420
465.000000	15.286722
464.000000	15.056962
463.000000	14.827027
462.000000	14.598924
461.000000	14.355906
460.000000	14.087242
459.000000	13.820758
458.000000	13.556630
457.000000	13.292415
456.000000	13.034044
455.000000	12.768084
454.000000	12.490871
453.000000	12.204064
452.000000	11.917343
451.000000	11.639171
450.000000	11.364925
449.000000	11.079513
448.000000	10.787123
447.000000	10.499007
446.000000	10.231389
445.000000	9.962813
444.000000	9.677313
443.000000	9.406818
442.000000	9.151063
441.000000	8.890512
440.000000	8.633274
439.000000	8.397583
438.000000	8.159362
437.000000	7.938935
436.000000	7.734995
435.000000	7.525646
434.000000	7.326852
433.000000	7.149255
432.000000	6.977938
431.000000	6.806708
430.000000	6.659117
429.000000	6.515277
428.000000	6.374316
427.000000	6.251324
426.000000	6.132605
425.000000	6.023308
424.000000	5.931107
423.000000	5.844926
422.000000	5.769473
421.000000	5.690095
420.000000	5.606879
419.000000	5.541196
418.000000	5.488161
417.000000	5.426839
416.000000	5.374415
415.000000	5.326439
414.000000	5.280469
413.000000	5.241478
412.000000	5.217578
411.000000	5.195683
410.000000	5.167421
409.000000	5.141165
408.000000	5.120231
407.000000	5.096243
406.000000	5.083682
405.000000	5.061177
404.000000	5.042423
403.000000	5.039457
402.000000	5.019045
401.000000	4.998983
400.000000	4.998372
399.000000	4.990522
398.000000	4.977786
397.000000	4.979182
396.000000	4.975082
395.000000	4.964702
394.000000	4.967755
393.000000	4.958073
392.000000	4.952490
391.000000	4.953711
390.000000	4.945948
389.000000	4.939406
388.000000	4.931468
387.000000	4.919779
386.000000	4.916290
385.000000	4.911318
384.000000	4.915767
383.000000	4.904427
382.000000	4.897100
381.000000	4.897885
380.000000	4.883318
379.000000	4.882445
378.000000	4.886720
377.000000	4.886632
376.000000	4.777771
375.000000	4.735204
374.000000	4.701533
373.000000	4.611426
372.000000	4.756313
371.000000	4.773410
370.000000	4.701708
369.000000	4.675278
368.000000	4.767565
367.000000	4.743665
366.000000	4.742269
365.000000	4.753871
364.000000	4.728836
363.000000	4.742356
362.000000	4.699440
361.000000	4.770008
360.000000	4.759977
359.000000	4.814145
358.000000	4.757621
357.000000	4.718979
356.000000	4.732499
355.000000	4.753434
354.000000	4.737384
353.000000	4.744712
352.000000	4.762768
351.000000	4.722032
350.000000	4.742095
349.000000	4.761110
348.000000	4.621283
347.000000	4.727615
346.000000	4.711652
345.000000	4.730232
344.000000	4.793908
343.000000	4.652773
342.000000	4.767478
341.000000	4.696212
340.000000	4.583426
339.000000	4.701446
338.000000	4.689583
337.000000	4.756575
336.000000	4.766344
335.000000	4.765297
334.000000	4.869536
333.000000	4.756749
332.000000	4.970459
331.000000	4.754045
330.000000	4.658181
329.000000	4.911056
328.000000	4.846158
327.000000	4.832725
326.000000	4.805335
325.000000	4.967929
324.000000	5.036229
323.000000	4.741571
322.000000	4.901723
321.000000	4.841012
320.000000	4.888290
319.000000	5.047395
318.000000	4.736861
317.000000	5.084903
316.000000	4.834557
315.000000	4.876252
314.000000	4.852090
313.000000	4.828276
312.000000	4.862819
311.000000	4.850694
310.000000	4.805335
309.000000	4.826270
308.000000	4.842582
307.000000	4.864127
306.000000	4.786320
305.000000	4.855579
304.000000	4.884103
303.000000	4.849647
302.000000	4.877910
301.000000	4.863168
300.000000	4.849822
299.000000	4.890732
298.000000	4.889075
297.000000	4.900763
296.000000	4.882707
295.000000	4.871018
294.000000	4.918296
293.000000	4.888639
292.000000	4.916028
291.000000	4.906869
290.000000	4.912975
289.000000	4.972291
288.000000	4.955630
287.000000	4.946471
286.000000	4.996192
285.000000	4.989998
284.000000	4.997500
283.000000	5.020441
282.000000	4.963306
281.000000	5.017563
280.000000	4.946558
279.000000	5.030908
278.000000	5.078623
277.000000	5.005089
276.000000	5.078623
275.000000	5.087433
274.000000	5.091183
273.000000	5.089875
272.000000	5.077227
271.000000	5.143695
270.000000	5.141602
269.000000	5.107146
268.000000	5.239821
267.000000	5.174312
266.000000	5.267560
265.000000	5.262675
264.000000	5.226388
263.000000	5.262413
262.000000	5.313965
261.000000	5.316059
260.000000	5.367872
259.000000	5.383748
258.000000	5.339785
257.000000	5.391599
256.000000	5.445070
255.000000	5.449257
254.000000	5.457282
253.000000	5.470541
252.000000	5.482142
251.000000	5.486416
250.000000	5.446465
