PE UV       SUBTECH     SPECTRUM    ASCII       PEDS        4.00        
   -1
CICIMAUCR0097-1.Sample.ASC
24/04/17
14:59:50.00
24/04/17
14:59:50.00
Vinicio Soto Monge
C. kalinini
250,000000
1
Lambda 1050
1050L1511233
PerkinElmer UV WinLab 6.3.2.0749 / 2.02.05 Lambda 900 UV/VIS/NIR, Aug  7 2015 09:38:08

0
0
3350/servo 860,8/2
0
0
UV/VIS
1
1
1
DoubleDePol,CommonBeamDepol,RBeamAtt,SBeamAtt,60mm sphere, WB InGaAs Detector
0
0
0
0
Program
Program
3350/servo 860,8/2
3350/0,2 860,8/0,2
3350/0,2 860,8/0,2
0
15.00
 
 
 
0
 
860,8
319,2
860,8
Front
100
on
S:100 R:100
0
0
0
0
 
0
 
 
 
0
 
 
0
0
0
0
0
 
 
 
 
0
0


0
0
#HDR
-1
-1
#GR
nm
%R
1.0
0.0
2500,000000
-1,000000
2251
8
80,515100
4,474700
#DATA
2500.000000	5.681420
2499.000000	5.510685
2498.000000	5.563578
2497.000000	5.412289
2496.000000	5.505726
2495.000000	5.342089
2494.000000	5.512338
2493.000000	5.412678
2492.000000	5.367563
2491.000000	5.408788
2490.000000	5.430471
2489.000000	5.341894
2488.000000	5.362702
2487.000000	5.331199
2486.000000	5.400621
2485.000000	5.340144
2484.000000	5.347242
2483.000000	5.329644
2482.000000	5.308059
2481.000000	5.317198
2480.000000	5.332755
2479.000000	5.286279
2478.000000	5.289682
2477.000000	5.302128
2476.000000	5.293182
2475.000000	5.309517
2474.000000	5.304947
2473.000000	5.295127
2472.000000	5.322546
2471.000000	5.303586
2470.000000	5.302808
2469.000000	5.331102
2468.000000	5.250207
2467.000000	5.323421
2466.000000	5.302030
2465.000000	5.303683
2464.000000	5.309031
2463.000000	5.325074
2462.000000	5.325754
2461.000000	5.327213
2460.000000	5.345978
2459.000000	5.339172
2458.000000	5.361340
2457.000000	5.386134
2456.000000	5.423373
2455.000000	5.441458
2454.000000	5.424831
2453.000000	5.470043
2452.000000	5.495517
2451.000000	5.496684
2450.000000	5.559592
2449.000000	5.593039
2448.000000	5.597997
2447.000000	5.635042
2446.000000	5.660030
2445.000000	5.682490
2444.000000	5.714770
2443.000000	5.743550
2442.000000	5.758524
2441.000000	5.781761
2440.000000	5.800332
2439.000000	5.805972
2438.000000	5.847489
2437.000000	5.878797
2436.000000	5.889686
2435.000000	5.907674
2434.000000	5.924495
2433.000000	5.938398
2432.000000	5.958428
2431.000000	5.978943
2430.000000	5.993625
2429.000000	5.993333
2428.000000	6.004223
2427.000000	6.023183
2426.000000	6.035239
2425.000000	6.045351
2424.000000	6.041851
2423.000000	6.054393
2422.000000	6.057796
2421.000000	6.046032
2420.000000	6.055657
2419.000000	6.050601
2418.000000	6.051282
2417.000000	6.040684
2416.000000	6.055852
2415.000000	6.069172
2414.000000	6.068200
2413.000000	6.067519
2412.000000	6.069075
2411.000000	6.074034
2410.000000	6.083368
2409.000000	6.089202
2408.000000	6.085507
2407.000000	6.108161
2406.000000	6.106508
2405.000000	6.098925
2404.000000	6.105342
2403.000000	6.110300
2402.000000	6.131691
2401.000000	6.136941
2400.000000	6.133538
2399.000000	6.143553
2398.000000	6.161443
2397.000000	6.168055
2396.000000	6.176903
2395.000000	6.184584
2394.000000	6.199168
2393.000000	6.205683
2392.000000	6.209961
2391.000000	6.220753
2390.000000	6.229796
2389.000000	6.240685
2388.000000	6.245741
2387.000000	6.239810
2386.000000	6.241658
2385.000000	6.255075
2384.000000	6.250797
2383.000000	6.227657
2382.000000	6.224837
2381.000000	6.242824
2380.000000	6.240880
2379.000000	6.214822
2378.000000	6.195765
2377.000000	6.195279
2376.000000	6.191390
2375.000000	6.184876
2374.000000	6.169513
2373.000000	6.142581
2372.000000	6.130233
2371.000000	6.134122
2370.000000	6.132760
2369.000000	6.115648
2368.000000	6.073937
2367.000000	6.041267
2366.000000	6.016863
2365.000000	5.993430
2364.000000	5.957844
2363.000000	5.919244
2362.000000	5.896006
2361.000000	5.863921
2360.000000	5.829210
2359.000000	5.806652
2358.000000	5.774080
2357.000000	5.758815
2356.000000	5.741119
2355.000000	5.723229
2354.000000	5.713603
2353.000000	5.706506
2352.000000	5.714770
2351.000000	5.715256
2350.000000	5.723618
2349.000000	5.746175
2348.000000	5.759982
2347.000000	5.772816
2346.000000	5.804805
2345.000000	5.825126
2344.000000	5.854100
2343.000000	5.881130
2342.000000	5.893478
2341.000000	5.903590
2340.000000	5.930912
2339.000000	5.947441
2338.000000	5.947635
2337.000000	5.945107
2336.000000	5.941996
2335.000000	5.932565
2334.000000	5.918077
2333.000000	5.901257
2332.000000	5.893576
2331.000000	5.873352
2330.000000	5.837085
2329.000000	5.802763
2328.000000	5.784289
2327.000000	5.759204
2326.000000	5.734022
2325.000000	5.696588
2324.000000	5.637764
2323.000000	5.613749
2322.000000	5.573009
2321.000000	5.519825
2320.000000	5.489003
2319.000000	5.437666
2318.000000	5.391287
2317.000000	5.348992
2316.000000	5.316323
2315.000000	5.257402
2314.000000	5.222496
2313.000000	5.187883
2312.000000	5.149185
2311.000000	5.122350
2310.000000	5.094834
2309.000000	5.065082
2308.000000	5.058470
2307.000000	5.063818
2306.000000	5.055650
2305.000000	5.057595
2304.000000	5.067415
2303.000000	5.077235
2302.000000	5.105238
2301.000000	5.129253
2300.000000	5.181563
2299.000000	5.211607
2298.000000	5.243790
2297.000000	5.287154
2296.000000	5.321476
2295.000000	5.333241
2294.000000	5.362313
2293.000000	5.391482
2292.000000	5.400718
2291.000000	5.433096
2290.000000	5.432318
2289.000000	5.434263
2288.000000	5.437957
2287.000000	5.422109
2286.000000	5.388662
2285.000000	5.393426
2284.000000	5.403052
2283.000000	5.374661
2282.000000	5.345978
2281.000000	5.343936
2280.000000	5.320893
2279.000000	5.288321
2278.000000	5.267708
2277.000000	5.264986
2276.000000	5.245443
2275.000000	5.224344
2274.000000	5.220649
2273.000000	5.215982
2272.000000	5.204315
2271.000000	5.222399
2270.000000	5.239414
2269.000000	5.258471
2268.000000	5.281126
2267.000000	5.312434
2266.000000	5.331588
2265.000000	5.382342
2264.000000	5.424734
2263.000000	5.496101
2262.000000	5.557939
2261.000000	5.631931
2260.000000	5.723910
2259.000000	5.830376
2258.000000	5.918564
2257.000000	6.027947
2256.000000	6.140733
2255.000000	6.243700
2254.000000	6.344624
2253.000000	6.463439
2252.000000	6.567572
2251.000000	6.659745
2250.000000	6.778560
2249.000000	6.850802
2248.000000	6.939669
2247.000000	7.029121
2246.000000	7.117016
2245.000000	7.220760
2244.000000	7.266944
2243.000000	7.337922
2242.000000	7.398399
2241.000000	7.470543
2240.000000	7.527228
2239.000000	7.599664
2238.000000	7.652071
2237.000000	7.709339
2236.000000	7.752412
2235.000000	7.780511
2234.000000	7.864032
2233.000000	7.895437
2232.000000	7.928106
2231.000000	7.967387
2230.000000	7.991597
2229.000000	8.029711
2228.000000	8.063158
2227.000000	8.081243
2226.000000	8.095341
2225.000000	8.119551
2224.000000	8.150081
2223.000000	8.158735
2222.000000	8.157374
2221.000000	8.165541
2220.000000	8.170208
2219.000000	8.171083
2218.000000	8.187126
2217.000000	8.199474
2216.000000	8.197335
2215.000000	8.180709
2214.000000	8.192960
2213.000000	8.181681
2212.000000	8.189946
2211.000000	8.198502
2210.000000	8.192474
2209.000000	8.196363
2208.000000	8.198599
2207.000000	8.181973
2206.000000	8.193446
2205.000000	8.190237
2204.000000	8.206669
2203.000000	8.205016
2202.000000	8.197432
2201.000000	8.178764
2200.000000	8.187709
2199.000000	8.182167
2198.000000	8.183334
2197.000000	8.196363
2196.000000	8.189557
2195.000000	8.188876
2194.000000	8.189751
2193.000000	8.182362
2192.000000	8.188682
2191.000000	8.188584
2190.000000	8.206864
2189.000000	8.190821
2188.000000	8.179736
2187.000000	8.167097
2186.000000	8.164763
2185.000000	8.151832
2184.000000	8.154651
2183.000000	8.150179
2182.000000	8.141039
2181.000000	8.134525
2180.000000	8.157860
2179.000000	8.134816
2178.000000	8.145609
2177.000000	8.148428
2176.000000	8.139483
2175.000000	8.142692
2174.000000	8.157665
2173.000000	8.156207
2172.000000	8.163499
2171.000000	8.186543
2170.000000	8.188973
2169.000000	8.199960
2168.000000	8.190334
2167.000000	8.202002
2166.000000	8.225143
2165.000000	8.237199
2164.000000	8.248186
2163.000000	8.240408
2162.000000	8.272591
2161.000000	8.279786
2160.000000	8.281244
2159.000000	8.303121
2158.000000	8.317705
2157.000000	8.334040
2156.000000	8.325289
2155.000000	8.339388
2154.000000	8.348624
2153.000000	8.355528
2152.000000	8.364473
2151.000000	8.376918
2150.000000	8.380224
2149.000000	8.376335
2148.000000	8.391503
2147.000000	8.399573
2146.000000	8.407059
2145.000000	8.405698
2144.000000	8.411629
2143.000000	8.424852
2142.000000	8.429714
2141.000000	8.424950
2140.000000	8.425825
2139.000000	8.423005
2138.000000	8.410949
2137.000000	8.404629
2136.000000	8.401809
2135.000000	8.397531
2134.000000	8.390919
2133.000000	8.380710
2132.000000	8.378377
2131.000000	8.379738
2130.000000	8.378571
2129.000000	8.345707
2128.000000	8.332970
2127.000000	8.315955
2126.000000	8.289217
2125.000000	8.284258
2124.000000	8.279980
2123.000000	8.261604
2122.000000	8.241380
2121.000000	8.210364
2120.000000	8.185667
2119.000000	8.162430
2118.000000	8.142886
2117.000000	8.130927
2116.000000	8.111870
2115.000000	8.082410
2114.000000	8.060436
2113.000000	8.040504
2112.000000	8.014252
2111.000000	7.998403
2110.000000	7.980707
2109.000000	7.960678
2108.000000	7.945413
2107.000000	7.923245
2106.000000	7.910896
2105.000000	7.883380
2104.000000	7.855378
2103.000000	7.844683
2102.000000	7.825723
2101.000000	7.814250
2100.000000	7.789165
2099.000000	7.774483
2098.000000	7.750467
2097.000000	7.728299
2096.000000	7.724702
2095.000000	7.712937
2094.000000	7.701172
2093.000000	7.680365
2092.000000	7.649543
2091.000000	7.639334
2090.000000	7.640598
2089.000000	7.628639
2088.000000	7.621249
2087.000000	7.616193
2086.000000	7.610943
2085.000000	7.602970
2084.000000	7.599373
2083.000000	7.585566
2082.000000	7.573898
2081.000000	7.557564
2080.000000	7.544632
2079.000000	7.543174
2078.000000	7.535298
2077.000000	7.519547
2076.000000	7.510407
2075.000000	7.506907
2074.000000	7.504671
2073.000000	7.510213
2072.000000	7.517894
2071.000000	7.508268
2070.000000	7.502337
2069.000000	7.497476
2068.000000	7.496990
2067.000000	7.499615
2066.000000	7.505060
2065.000000	7.496990
2064.000000	7.492712
2063.000000	7.506227
2062.000000	7.506518
2061.000000	7.501754
2060.000000	7.521783
2059.000000	7.539382
2058.000000	7.564467
2057.000000	7.575260
2056.000000	7.596456
2055.000000	7.609096
2054.000000	7.631653
2053.000000	7.681532
2052.000000	7.700880
2051.000000	7.737536
2050.000000	7.803749
2049.000000	7.849058
2048.000000	7.908174
2047.000000	7.960970
2046.000000	8.038559
2045.000000	8.092424
2044.000000	8.161360
2043.000000	8.231560
2042.000000	8.300398
2041.000000	8.367876
2040.000000	8.452466
2039.000000	8.512165
2038.000000	8.584601
2037.000000	8.642550
2036.000000	8.714597
2035.000000	8.785477
2034.000000	8.831078
2033.000000	8.911098
2032.000000	8.958157
2031.000000	9.018828
2030.000000	9.082514
2029.000000	9.123059
2028.000000	9.183244
2027.000000	9.237498
2026.000000	9.283099
2025.000000	9.345909
2024.000000	9.379842
2023.000000	9.437888
2022.000000	9.493406
2021.000000	9.518783
2020.000000	9.566231
2019.000000	9.585288
2018.000000	9.652960
2017.000000	9.703131
2016.000000	9.723841
2015.000000	9.753982
2014.000000	9.788984
2013.000000	9.832446
2012.000000	9.876102
2011.000000	9.883394
2010.000000	9.907605
2009.000000	9.932884
2008.000000	9.923356
2007.000000	9.956900
2006.000000	9.981694
2005.000000	9.980721
2004.000000	9.983055
2003.000000	9.973040
2002.000000	9.983833
2001.000000	9.979068
2000.000000	9.986847
1999.000000	9.975374
1998.000000	9.969443
1997.000000	9.962053
1996.000000	9.944649
1995.000000	9.922092
1994.000000	9.921314
1993.000000	9.874547
1992.000000	9.878727
1991.000000	9.847419
1990.000000	9.828849
1989.000000	9.811736
1988.000000	9.782373
1987.000000	9.737550
1986.000000	9.701867
1985.000000	9.682421
1984.000000	9.652182
1983.000000	9.602790
1982.000000	9.570509
1981.000000	9.536771
1980.000000	9.509255
1979.000000	9.452667
1978.000000	9.432541
1977.000000	9.381592
1976.000000	9.358452
1975.000000	9.324810
1974.000000	9.297197
1973.000000	9.256458
1972.000000	9.217469
1971.000000	9.167201
1970.000000	9.131712
1969.000000	9.116641
1968.000000	9.069777
1967.000000	9.062484
1966.000000	9.003952
1965.000000	8.965741
1964.000000	8.943573
1963.000000	8.901764
1962.000000	8.878137
1961.000000	8.846343
1960.000000	8.809882
1959.000000	8.769045
1958.000000	8.751252
1957.000000	8.706916
1956.000000	8.689220
1955.000000	8.655967
1954.000000	8.618145
1953.000000	8.597143
1952.000000	8.559127
1951.000000	8.536666
1950.000000	8.504386
1949.000000	8.492427
1948.000000	8.486690
1947.000000	8.451979
1946.000000	8.429422
1945.000000	8.415129
1944.000000	8.404823
1943.000000	8.381391
1942.000000	8.384891
1941.000000	8.387808
1940.000000	8.381682
1939.000000	8.384113
1938.000000	8.376724
1937.000000	8.372154
1936.000000	8.389266
1935.000000	8.402781
1934.000000	8.453730
1933.000000	8.469092
1932.000000	8.515179
1931.000000	8.556307
1930.000000	8.606186
1929.000000	8.651009
1928.000000	8.690484
1927.000000	8.744155
1926.000000	8.795006
1925.000000	8.868511
1924.000000	8.941628
1923.000000	9.017273
1922.000000	9.109349
1921.000000	9.175660
1920.000000	9.284849
1919.000000	9.335214
1918.000000	9.441194
1917.000000	9.562828
1916.000000	9.657530
1915.000000	9.759329
1914.000000	9.904979
1913.000000	10.018155
1912.000000	10.098272
1911.000000	10.222143
1910.000000	10.353597
1909.000000	10.475718
1908.000000	10.624771
1907.000000	10.760698
1906.000000	10.892444
1905.000000	11.020204
1904.000000	11.160312
1903.000000	11.310629
1902.000000	11.455501
1901.000000	11.605526
1900.000000	11.758468
1899.000000	11.908105
1898.000000	12.053949
1897.000000	12.217003
1896.000000	12.361001
1895.000000	12.516179
1894.000000	12.676316
1893.000000	12.846565
1892.000000	13.015259
1891.000000	13.170437
1890.000000	13.335631
1889.000000	13.491004
1888.000000	13.661739
1887.000000	13.863004
1886.000000	14.088285
1885.000000	14.322512
1884.000000	14.600491
1883.000000	14.923391
1882.000000	15.263403
1881.000000	15.614208
1880.000000	15.976582
1879.000000	16.309302
1878.000000	16.646884
1877.000000	16.964241
1876.000000	17.246888
1875.000000	17.494337
1874.000000	17.739551
1873.000000	17.960262
1872.000000	18.157346
1871.000000	18.341402
1870.000000	18.480149
1869.000000	18.583990
1868.000000	18.688318
1867.000000	18.767462
1866.000000	18.829203
1865.000000	18.894542
1864.000000	18.959102
1863.000000	18.993230
1862.000000	19.028427
1861.000000	19.067027
1860.000000	19.044664
1859.000000	19.012384
1858.000000	18.986521
1857.000000	18.960852
1856.000000	18.906890
1855.000000	18.858372
1854.000000	18.810535
1853.000000	18.741113
1852.000000	18.670525
1851.000000	18.615006
1850.000000	18.578740
1849.000000	18.535375
1848.000000	18.438340
1847.000000	18.316511
1846.000000	18.214420
1845.000000	18.146262
1844.000000	18.122344
1843.000000	18.115149
1842.000000	18.111648
1841.000000	18.068770
1840.000000	18.008293
1839.000000	17.962109
1838.000000	17.924384
1837.000000	17.869255
1836.000000	17.796333
1835.000000	17.727980
1834.000000	17.664392
1833.000000	17.598665
1832.000000	17.546841
1831.000000	17.502310
1830.000000	17.417720
1829.000000	17.322144
1828.000000	17.239304
1827.000000	17.156950
1826.000000	17.090154
1825.000000	17.029385
1824.000000	16.984951
1823.000000	16.979020
1822.000000	16.986604
1821.000000	16.953643
1820.000000	16.905126
1819.000000	16.862734
1818.000000	16.847080
1817.000000	16.849413
1816.000000	16.856900
1815.000000	16.868665
1814.000000	16.868276
1813.000000	16.859428
1812.000000	16.845427
1811.000000	16.824425
1810.000000	16.782811
1809.000000	16.762879
1808.000000	16.730307
1807.000000	16.697832
1806.000000	16.687817
1805.000000	16.636480
1804.000000	16.579892
1803.000000	16.544209
1802.000000	16.512221
1801.000000	16.464189
1800.000000	16.415477
1799.000000	16.361223
1798.000000	16.328359
1797.000000	16.308816
1796.000000	16.270508
1795.000000	16.236477
1794.000000	16.172986
1793.000000	16.137789
1792.000000	16.090827
1791.000000	16.034629
1790.000000	15.971332
1789.000000	15.920967
1788.000000	15.852420
1787.000000	15.795930
1786.000000	15.744398
1785.000000	15.659128
1784.000000	15.556648
1783.000000	15.490726
1782.000000	15.421109
1781.000000	15.324949
1780.000000	15.246291
1779.000000	15.173271
1778.000000	15.093543
1777.000000	14.993493
1776.000000	14.885860
1775.000000	14.776380
1774.000000	14.659412
1773.000000	14.540889
1772.000000	14.399517
1771.000000	14.262715
1770.000000	14.149443
1769.000000	14.027614
1768.000000	13.905202
1767.000000	13.786776
1766.000000	13.706853
1765.000000	13.630723
1764.000000	13.598345
1763.000000	13.582302
1762.000000	13.590275
1761.000000	13.635292
1760.000000	13.685755
1759.000000	13.749537
1758.000000	13.820515
1757.000000	13.888089
1756.000000	13.937482
1755.000000	13.984736
1754.000000	13.995042
1753.000000	13.999029
1752.000000	13.981430
1751.000000	13.950511
1750.000000	13.907827
1749.000000	13.850073
1748.000000	13.779776
1747.000000	13.693922
1746.000000	13.604568
1745.000000	13.487601
1744.000000	13.334464
1743.000000	13.152450
1742.000000	12.961296
1741.000000	12.741363
1740.000000	12.525319
1739.000000	12.297996
1738.000000	12.103439
1737.000000	11.943010
1736.000000	11.811361
1735.000000	11.713062
1734.000000	11.681171
1733.000000	11.678643
1732.000000	11.706645
1731.000000	11.810583
1730.000000	11.908980
1729.000000	12.020113
1728.000000	12.124246
1727.000000	12.219045
1726.000000	12.332609
1725.000000	12.395420
1724.000000	12.456869
1723.000000	12.484288
1722.000000	12.485260
1721.000000	12.498580
1720.000000	12.494983
1719.000000	12.494886
1718.000000	12.484579
1717.000000	12.495955
1716.000000	12.542723
1715.000000	12.566641
1714.000000	12.627896
1713.000000	12.692067
1712.000000	12.688567
1711.000000	12.726195
1710.000000	12.719583
1709.000000	12.730376
1708.000000	12.731446
1707.000000	12.706846
1706.000000	12.678455
1705.000000	12.639466
1704.000000	12.608450
1703.000000	12.545348
1702.000000	12.486524
1701.000000	12.382099
1700.000000	12.242478
1699.000000	12.111509
1698.000000	12.008251
1697.000000	11.925606
1696.000000	11.899937
1695.000000	11.901590
1694.000000	11.953414
1693.000000	12.073590
1692.000000	12.214378
1691.000000	12.395809
1690.000000	12.552446
1689.000000	12.672135
1688.000000	12.752447
1687.000000	12.770629
1686.000000	12.750405
1685.000000	12.750211
1684.000000	12.797367
1683.000000	12.910056
1682.000000	13.182786
1681.000000	13.575593
1680.000000	14.037240
1679.000000	14.580754
1678.000000	15.106960
1677.000000	15.618972
1676.000000	16.090730
1675.000000	16.487427
1674.000000	16.845816
1673.000000	17.130893
1672.000000	17.382718
1671.000000	17.603040
1670.000000	17.791666
1669.000000	17.937899
1668.000000	18.087341
1667.000000	18.238144
1666.000000	18.324192
1665.000000	18.413449
1664.000000	18.470426
1663.000000	18.549279
1662.000000	18.573684
1661.000000	18.619576
1660.000000	18.671983
1659.000000	18.701930
1658.000000	18.706694
1657.000000	18.724681
1656.000000	18.731585
1655.000000	18.727793
1654.000000	18.731488
1653.000000	18.735182
1652.000000	18.700957
1651.000000	18.662357
1650.000000	18.635619
1649.000000	18.618798
1648.000000	18.583407
1647.000000	18.529833
1646.000000	18.480246
1645.000000	18.430659
1644.000000	18.394392
1643.000000	18.333915
1642.000000	18.277717
1641.000000	18.206058
1640.000000	18.132456
1639.000000	18.078493
1638.000000	18.019183
1637.000000	17.950636
1636.000000	17.886367
1635.000000	17.827738
1634.000000	17.747815
1633.000000	17.681796
1632.000000	17.618597
1631.000000	17.571538
1630.000000	17.538091
1629.000000	17.474891
1628.000000	17.432694
1627.000000	17.346646
1626.000000	17.272265
1625.000000	17.189620
1624.000000	17.115239
1623.000000	17.045525
1622.000000	16.979604
1621.000000	16.919516
1620.000000	16.840760
1619.000000	16.764532
1618.000000	16.704346
1617.000000	16.628702
1616.000000	16.568906
1615.000000	16.492483
1614.000000	16.425686
1613.000000	16.375516
1612.000000	16.306580
1611.000000	16.254562
1610.000000	16.198266
1609.000000	16.133317
1608.000000	16.075659
1607.000000	16.012655
1606.000000	15.967054
1605.000000	15.924565
1604.000000	15.876533
1603.000000	15.821987
1602.000000	15.766177
1601.000000	15.714451
1600.000000	15.650377
1599.000000	15.606526
1598.000000	15.567343
1597.000000	15.529326
1596.000000	15.505602
1595.000000	15.461168
1594.000000	15.409734
1593.000000	15.378328
1592.000000	15.353438
1591.000000	15.324366
1590.000000	15.293544
1589.000000	15.267876
1588.000000	15.245804
1587.000000	15.239096
1586.000000	15.223247
1585.000000	15.194273
1584.000000	15.189119
1583.000000	15.183286
1582.000000	15.175702
1581.000000	15.173174
1580.000000	15.171229
1579.000000	15.164326
1578.000000	15.173271
1577.000000	15.180466
1576.000000	15.188536
1575.000000	15.203509
1574.000000	15.210996
1573.000000	15.237734
1572.000000	15.271473
1571.000000	15.289849
1570.000000	15.302587
1569.000000	15.330102
1568.000000	15.361022
1567.000000	15.393399
1566.000000	15.427235
1565.000000	15.454556
1564.000000	15.491893
1563.000000	15.523590
1562.000000	15.550814
1561.000000	15.582025
1560.000000	15.601762
1559.000000	15.630737
1558.000000	15.656794
1557.000000	15.670504
1556.000000	15.687324
1555.000000	15.720674
1554.000000	15.746245
1553.000000	15.757621
1552.000000	15.766372
1551.000000	15.770164
1550.000000	15.782901
1549.000000	15.804778
1548.000000	15.808570
1547.000000	15.806139
1546.000000	15.808375
1545.000000	15.830155
1544.000000	15.842211
1543.000000	15.849795
1542.000000	15.867199
1541.000000	15.870602
1540.000000	15.876922
1539.000000	15.882659
1538.000000	15.885089
1537.000000	15.895007
1536.000000	15.903952
1535.000000	15.900354
1534.000000	15.900160
1533.000000	15.896757
1532.000000	15.906966
1531.000000	15.909397
1530.000000	15.899382
1529.000000	15.884895
1528.000000	15.876047
1527.000000	15.872644
1526.000000	15.865546
1525.000000	15.859324
1524.000000	15.838905
1523.000000	15.818195
1522.000000	15.819070
1521.000000	15.799041
1520.000000	15.779304
1519.000000	15.772400
1518.000000	15.755191
1517.000000	15.739537
1516.000000	15.727383
1515.000000	15.710270
1514.000000	15.697144
1513.000000	15.691116
1512.000000	15.675365
1511.000000	15.663309
1510.000000	15.655627
1509.000000	15.627431
1508.000000	15.602248
1507.000000	15.584747
1506.000000	15.580080
1505.000000	15.568023
1504.000000	15.549258
1503.000000	15.538466
1502.000000	15.539049
1501.000000	15.531368
1500.000000	15.513380
1499.000000	15.506477
1498.000000	15.518825
1497.000000	15.509394
1496.000000	15.509977
1495.000000	15.513089
1494.000000	15.535063
1493.000000	15.530687
1492.000000	15.544397
1491.000000	15.561412
1490.000000	15.561412
1489.000000	15.583094
1488.000000	15.579788
1487.000000	15.607596
1486.000000	15.625486
1485.000000	15.642696
1484.000000	15.654169
1483.000000	15.684407
1482.000000	15.711146
1481.000000	15.732342
1480.000000	15.762191
1479.000000	15.795541
1478.000000	15.843086
1477.000000	15.862143
1476.000000	15.880617
1475.000000	15.918828
1474.000000	15.970263
1473.000000	15.998945
1472.000000	16.031031
1471.000000	16.063409
1470.000000	16.091411
1469.000000	16.117371
1468.000000	16.141484
1467.000000	16.181737
1466.000000	16.235894
1465.000000	16.272647
1464.000000	16.298218
1463.000000	16.356167
1462.000000	16.407990
1461.000000	16.473037
1460.000000	16.522041
1459.000000	16.583976
1458.000000	16.671386
1457.000000	16.746252
1456.000000	16.814313
1455.000000	16.896472
1454.000000	16.972798
1453.000000	17.068958
1452.000000	17.166187
1451.000000	17.281307
1450.000000	17.330311
1449.000000	17.415387
1448.000000	17.533813
1447.000000	17.633765
1446.000000	17.738773
1445.000000	17.874116
1444.000000	17.981166
1443.000000	18.069548
1442.000000	18.179709
1441.000000	18.302802
1440.000000	18.378641
1439.000000	18.501734
1438.000000	18.605381
1437.000000	18.705138
1436.000000	18.799548
1435.000000	18.892208
1434.000000	18.997313
1433.000000	19.108447
1432.000000	19.223761
1431.000000	19.315741
1430.000000	19.445153
1429.000000	19.575246
1428.000000	19.711076
1427.000000	19.870533
1426.000000	20.036212
1425.000000	20.201308
1424.000000	20.391198
1423.000000	20.531986
1422.000000	20.717306
1421.000000	20.895333
1420.000000	21.105350
1419.000000	21.302434
1418.000000	21.458488
1417.000000	21.614541
1416.000000	21.769914
1415.000000	21.968360
1414.000000	22.137734
1413.000000	22.267341
1412.000000	22.429326
1411.000000	22.599964
1410.000000	22.827092
1409.000000	23.064819
1408.000000	23.315088
1407.000000	23.592192
1406.000000	23.886020
1405.000000	24.198128
1404.000000	24.451897
1403.000000	24.731918
1402.000000	25.030316
1401.000000	25.367023
1400.000000	25.615639
1399.000000	25.803973
1398.000000	25.920843
1397.000000	26.111704
1396.000000	26.292843
1395.000000	26.386767
1394.000000	26.464454
1393.000000	26.546904
1392.000000	26.652593
1391.000000	26.743114
1390.000000	26.842094
1389.000000	27.020705
1388.000000	27.222942
1387.000000	27.430625
1386.000000	27.657559
1385.000000	27.931941
1384.000000	28.250174
1383.000000	28.561795
1382.000000	28.812355
1381.000000	28.999425
1380.000000	29.056694
1379.000000	29.110267
1378.000000	29.143422
1377.000000	29.170841
1376.000000	29.261654
1375.000000	29.397289
1374.000000	29.588443
1373.000000	29.828503
1372.000000	30.108329
1371.000000	30.387670
1370.000000	30.641537
1369.000000	30.895306
1368.000000	31.122824
1367.000000	31.309894
1366.000000	31.487046
1365.000000	31.649614
1364.000000	31.776596
1363.000000	31.888993
1362.000000	32.017045
1361.000000	32.091620
1360.000000	32.111163
1359.000000	32.132165
1358.000000	32.166681
1357.000000	32.266244
1356.000000	32.454092
1355.000000	32.749962
1354.000000	33.120796
1353.000000	33.495713
1352.000000	33.873451
1351.000000	34.262564
1350.000000	34.623286
1349.000000	34.944338
1348.000000	35.249542
1347.000000	35.497186
1346.000000	35.689603
1345.000000	35.924413
1344.000000	36.152514
1343.000000	36.336667
1342.000000	36.526362
1341.000000	36.705750
1340.000000	36.873374
1339.000000	37.025539
1338.000000	37.172161
1337.000000	37.320242
1336.000000	37.453447
1335.000000	37.564677
1334.000000	37.676783
1333.000000	37.796473
1332.000000	37.901675
1331.000000	37.997155
1330.000000	38.083106
1329.000000	38.169640
1328.000000	38.244021
1327.000000	38.318790
1326.000000	38.384907
1325.000000	38.452384
1324.000000	38.506735
1323.000000	38.565073
1322.000000	38.619619
1321.000000	38.683693
1320.000000	38.736392
1319.000000	38.770131
1318.000000	38.802314
1317.000000	38.840233
1316.000000	38.887001
1315.000000	38.921323
1314.000000	38.941935
1313.000000	38.975091
1312.000000	39.000856
1311.000000	39.018358
1310.000000	39.044513
1309.000000	39.058708
1308.000000	39.068139
1307.000000	39.087974
1306.000000	39.102850
1305.000000	39.097211
1304.000000	39.085932
1303.000000	39.095169
1302.000000	39.089335
1301.000000	39.063764
1300.000000	39.034692
1299.000000	39.020886
1298.000000	39.010385
1297.000000	38.995120
1296.000000	38.968576
1295.000000	38.948450
1294.000000	38.931629
1293.000000	38.907613
1292.000000	38.876986
1291.000000	38.843053
1290.000000	38.804647
1289.000000	38.759144
1288.000000	38.720835
1287.000000	38.675526
1286.000000	38.628856
1285.000000	38.578296
1284.000000	38.524334
1283.000000	38.470760
1282.000000	38.416992
1281.000000	38.362252
1280.000000	38.300706
1279.000000	38.246549
1278.000000	38.202795
1277.000000	38.133276
1276.000000	38.075911
1275.000000	38.032546
1274.000000	37.980820
1273.000000	37.937164
1272.000000	37.881160
1271.000000	37.837601
1270.000000	37.808432
1269.000000	37.771096
1268.000000	37.716356
1267.000000	37.671144
1266.000000	37.620973
1265.000000	37.572358
1264.000000	37.525980
1263.000000	37.475615
1262.000000	37.432639
1261.000000	37.391511
1260.000000	37.353300
1259.000000	37.307602
1258.000000	37.263460
1257.000000	37.208136
1256.000000	37.158063
1255.000000	37.125491
1254.000000	37.087766
1253.000000	37.017566
1252.000000	36.968562
1251.000000	36.930643
1250.000000	36.856262
1249.000000	36.788201
1248.000000	36.725391
1247.000000	36.670456
1246.000000	36.580324
1245.000000	36.487275
1244.000000	36.400158
1243.000000	36.315762
1242.000000	36.215324
1241.000000	36.127331
1240.000000	36.029324
1239.000000	35.910315
1238.000000	35.787611
1237.000000	35.688534
1236.000000	35.594902
1235.000000	35.472684
1234.000000	35.342882
1233.000000	35.225526
1232.000000	35.087266
1231.000000	34.967479
1230.000000	34.839136
1229.000000	34.712640
1228.000000	34.583227
1227.000000	34.438841
1226.000000	34.311276
1225.000000	34.165723
1224.000000	34.044964
1223.000000	33.911273
1222.000000	33.801403
1221.000000	33.672671
1220.000000	33.548606
1219.000000	33.436014
1218.000000	33.339271
1217.000000	33.216470
1216.000000	33.117587
1215.000000	33.025803
1214.000000	32.931295
1213.000000	32.832607
1212.000000	32.739947
1211.000000	32.662164
1210.000000	32.583699
1209.000000	32.527306
1208.000000	32.458662
1207.000000	32.409561
1206.000000	32.352584
1205.000000	32.321665
1204.000000	32.303192
1203.000000	32.280051
1202.000000	32.276454
1201.000000	32.234548
1200.000000	32.193128
1199.000000	32.165028
1198.000000	32.129540
1197.000000	32.035907
1196.000000	31.917968
1195.000000	31.745580
1194.000000	31.540814
1193.000000	31.290059
1192.000000	30.984563
1191.000000	30.660011
1190.000000	30.345667
1189.000000	30.034921
1188.000000	29.802737
1187.000000	29.688492
1186.000000	29.613236
1185.000000	29.638516
1184.000000	29.762678
1183.000000	29.969291
1182.000000	30.224033
1181.000000	30.549558
1180.000000	30.886069
1179.000000	31.166091
1178.000000	31.405373
1177.000000	31.627835
1176.000000	31.808390
1175.000000	31.980486
1174.000000	32.114858
1173.000000	32.283065
1172.000000	32.427257
1171.000000	32.593422
1170.000000	32.760463
1169.000000	32.914961
1168.000000	33.079765
1167.000000	33.252834
1166.000000	33.408304
1165.000000	33.539564
1164.000000	33.707771
1163.000000	33.873840
1162.000000	34.018615
1161.000000	34.164751
1160.000000	34.305539
1159.000000	34.431743
1158.000000	34.528973
1157.000000	34.633592
1156.000000	34.729849
1155.000000	34.782548
1154.000000	34.825329
1153.000000	34.814634
1152.000000	34.776811
1151.000000	34.738697
1150.000000	34.685221
1149.000000	34.635439
1148.000000	34.596936
1147.000000	34.581963
1146.000000	34.574282
1145.000000	34.609479
1144.000000	34.691444
1143.000000	34.762032
1142.000000	34.867040
1141.000000	34.967673
1140.000000	35.080848
1139.000000	35.198788
1138.000000	35.308852
1137.000000	35.420180
1136.000000	35.536272
1135.000000	35.662087
1134.000000	35.756011
1133.000000	35.810557
1132.000000	35.893980
1131.000000	35.969041
1130.000000	36.030004
1129.000000	36.073661
1128.000000	36.102052
1127.000000	36.108371
1126.000000	36.115858
1125.000000	36.120817
1124.000000	36.105260
1123.000000	36.092134
1122.000000	36.094176
1121.000000	36.053145
1120.000000	36.043519
1119.000000	36.004725
1118.000000	35.963597
1117.000000	35.910995
1116.000000	35.875993
1115.000000	35.843810
1114.000000	35.800445
1113.000000	35.741427
1112.000000	35.691353
1111.000000	35.648184
1110.000000	35.602972
1109.000000	35.562621
1108.000000	35.505256
1107.000000	35.449641
1106.000000	35.386636
1105.000000	35.326840
1104.000000	35.281530
1103.000000	35.227276
1102.000000	35.163299
1101.000000	35.109240
1100.000000	35.067334
1099.000000	35.014246
1098.000000	34.955422
1097.000000	34.897376
1096.000000	34.833982
1095.000000	34.768352
1094.000000	34.716140
1093.000000	34.658969
1092.000000	34.611910
1091.000000	34.553086
1090.000000	34.487164
1089.000000	34.438355
1088.000000	34.391976
1087.000000	34.327805
1086.000000	34.260911
1085.000000	34.212782
1084.000000	34.153764
1083.000000	34.108552
1082.000000	34.060229
1081.000000	33.993724
1080.000000	33.952596
1079.000000	33.913023
1078.000000	33.869270
1077.000000	33.801306
1076.000000	33.772040
1075.000000	33.745205
1074.000000	33.707869
1073.000000	33.661490
1072.000000	33.621723
1071.000000	33.583220
1070.000000	33.534897
1069.000000	33.501936
1068.000000	33.454294
1067.000000	33.419194
1066.000000	33.391289
1065.000000	33.370482
1064.000000	33.338979
1063.000000	33.315839
1062.000000	33.301837
1061.000000	33.293087
1060.000000	33.261973
1059.000000	33.232804
1058.000000	33.223470
1057.000000	33.203830
1056.000000	33.187495
1055.000000	33.180009
1054.000000	33.173397
1053.000000	33.172133
1052.000000	33.164258
1051.000000	33.154632
1050.000000	33.147145
1049.000000	33.160368
1048.000000	33.180203
1047.000000	33.193718
1046.000000	33.204413
1045.000000	33.209761
1044.000000	33.224345
1043.000000	33.248264
1042.000000	33.263723
1041.000000	33.281614
1040.000000	33.301643
1039.000000	33.334507
1038.000000	33.357064
1037.000000	33.389441
1036.000000	33.434848
1035.000000	33.476073
1034.000000	33.501742
1033.000000	33.534022
1032.000000	33.582831
1031.000000	33.623473
1030.000000	33.674616
1029.000000	33.732662
1028.000000	33.790125
1027.000000	33.850699
1026.000000	33.910787
1025.000000	33.991487
1024.000000	34.068493
1023.000000	34.139082
1022.000000	34.219588
1021.000000	34.302525
1020.000000	34.391199
1019.000000	34.493970
1018.000000	34.608312
1017.000000	34.718474
1016.000000	34.821051
1015.000000	34.941032
1014.000000	35.052457
1013.000000	35.166313
1012.000000	35.294365
1011.000000	35.420861
1010.000000	35.557177
1009.000000	35.687367
1008.000000	35.829614
1007.000000	35.974778
1006.000000	36.122664
1005.000000	36.258397
1004.000000	36.389171
1003.000000	36.557475
1002.000000	36.735114
1001.000000	36.879889
1000.000000	37.036526
999.000000	37.200261
998.000000	37.374107
997.000000	37.536383
996.000000	37.692048
995.000000	37.880479
994.000000	38.075327
993.000000	38.258994
992.000000	38.431577
991.000000	38.603771
990.000000	38.781798
989.000000	38.958853
988.000000	39.163619
987.000000	39.365468
986.000000	39.557399
985.000000	39.728718
984.000000	39.900717
983.000000	40.101302
982.000000	40.294497
981.000000	40.471261
980.000000	40.670776
979.000000	40.871847
978.000000	41.046471
977.000000	41.239180
976.000000	41.436654
975.000000	41.621487
974.000000	41.810210
973.000000	42.001850
972.000000	42.194753
971.000000	42.371809
970.000000	42.550517
969.000000	42.735934
968.000000	42.919309
967.000000	43.100253
966.000000	43.314839
965.000000	43.492964
964.000000	43.667005
963.000000	43.825975
962.000000	44.013240
961.000000	44.194865
960.000000	44.361905
959.000000	44.559379
958.000000	44.726516
957.000000	44.904252
956.000000	45.083835
955.000000	45.268475
954.000000	45.469254
953.000000	45.630752
952.000000	45.827740
951.000000	46.015684
950.000000	46.217533
949.000000	46.414520
948.000000	46.628231
947.000000	46.811315
946.000000	47.022206
945.000000	47.227360
944.000000	47.432029
943.000000	47.649629
942.000000	47.871021
941.000000	48.072967
940.000000	48.312541
939.000000	48.534710
938.000000	48.736851
937.000000	48.958145
936.000000	49.164175
935.000000	49.364468
934.000000	49.546482
933.000000	49.747067
932.000000	49.945415
931.000000	50.129763
930.000000	50.305749
929.000000	50.500694
928.000000	50.692917
927.000000	50.895252
926.000000	51.096906
925.000000	51.297005
924.000000	51.463073
923.000000	51.685923
922.000000	51.899343
921.000000	52.100316
920.000000	52.295164
919.000000	52.512764
918.000000	52.711113
917.000000	52.910628
916.000000	53.157105
915.000000	53.378983
914.000000	53.587249
913.000000	53.804947
912.000000	53.988516
911.000000	54.216228
910.000000	54.450843
909.000000	54.682153
908.000000	54.942145
907.000000	55.140785
906.000000	55.385901
905.000000	55.634420
904.000000	55.933693
903.000000	56.184253
902.000000	56.466803
901.000000	56.688389
900.000000	56.949548
899.000000	57.242404
898.000000	57.566665
897.000000	57.837547
896.000000	58.119999
895.000000	58.416646
894.000000	58.732059
893.000000	59.033666
892.000000	59.344898
891.000000	59.648838
890.000000	59.966293
889.000000	60.305721
888.000000	60.639025
887.000000	60.946659
886.000000	61.255072
885.000000	61.591097
884.000000	61.916039
883.000000	62.254398
882.000000	62.591785
881.000000	62.881724
880.000000	63.203846
879.000000	63.566707
878.000000	63.873369
877.000000	64.217173
876.000000	64.541045
875.000000	64.879404
874.000000	65.226417
873.000000	65.559331
872.000000	65.896135
871.000000	66.240425
870.000000	66.591813
869.000000	66.921616
868.000000	67.261628
867.000000	67.622350
866.000000	68.003393
865.000000	68.342627
864.000000	68.703641
863.000000	69.093046
862.000000	69.460671
861.000000	69.797475
860.000000	70.125528
859.000000	70.398937
858.000000	70.310167
857.000000	70.095800
856.000000	70.375400
855.000000	70.459300
854.000000	70.836800
853.000000	71.585800
852.000000	71.527900
851.000000	72.041300
850.000000	72.614000
849.000000	72.763000
848.000000	73.554200
847.000000	73.851900
846.000000	74.192300
845.000000	74.322500
844.000000	74.484400
843.000000	75.124000
842.000000	75.609600
841.000000	75.751700
840.000000	75.952100
839.000000	76.321700
838.000000	76.611000
837.000000	76.825000
836.000000	77.147500
835.000000	77.366000
834.000000	77.668600
833.000000	78.013400
832.000000	78.081500
831.000000	78.214800
830.000000	78.498900
829.000000	78.775400
828.000000	78.831600
827.000000	79.042600
826.000000	79.253600
825.000000	79.382600
824.000000	79.499800
823.000000	79.638300
822.000000	79.595500
821.000000	79.807600
820.000000	79.984900
819.000000	80.089600
818.000000	80.145000
817.000000	80.352200
816.000000	80.227000
815.000000	80.322600
814.000000	80.361700
813.000000	80.397600
812.000000	80.381600
811.000000	80.435800
810.000000	80.405100
809.000000	80.463200
808.000000	80.515100
807.000000	80.418500
806.000000	80.445600
805.000000	80.418500
804.000000	80.396800
803.000000	80.494100
802.000000	80.436800
801.000000	80.323700
800.000000	80.366600
799.000000	80.419000
798.000000	80.275300
797.000000	80.332300
796.000000	80.438200
795.000000	80.347900
794.000000	80.438600
793.000000	80.489200
792.000000	80.297900
791.000000	80.447300
790.000000	80.469100
789.000000	80.413800
788.000000	80.444800
787.000000	80.415100
786.000000	80.425800
785.000000	80.368000
784.000000	80.310000
783.000000	80.260600
782.000000	80.231100
781.000000	80.251300
780.000000	80.241600
779.000000	80.180000
778.000000	80.112600
777.000000	80.116600
776.000000	80.067800
775.000000	80.059000
774.000000	80.022700
773.000000	79.944600
772.000000	79.941000
771.000000	79.900300
770.000000	79.761000
769.000000	79.758700
768.000000	79.835100
767.000000	79.797900
766.000000	79.711100
765.000000	79.712600
764.000000	79.662400
763.000000	79.522000
762.000000	79.405300
761.000000	79.272300
760.000000	79.147600
759.000000	79.056500
758.000000	78.906300
757.000000	78.654400
756.000000	78.518400
755.000000	78.395300
754.000000	78.168100
753.000000	77.941400
752.000000	77.654900
751.000000	77.385200
750.000000	77.132100
749.000000	76.862400
748.000000	76.548200
747.000000	76.228200
746.000000	75.956700
745.000000	75.668100
744.000000	75.327200
743.000000	75.005800
742.000000	74.676200
741.000000	74.290900
740.000000	73.963100
739.000000	73.630700
738.000000	73.242400
737.000000	72.823400
736.000000	72.412400
735.000000	72.058900
734.000000	71.660800
733.000000	71.232900
732.000000	70.829000
731.000000	70.395900
730.000000	69.899500
729.000000	69.524400
728.000000	69.131900
727.000000	68.673600
726.000000	68.325400
725.000000	67.978400
724.000000	67.510300
723.000000	67.034600
722.000000	66.623500
721.000000	66.218000
720.000000	65.795600
719.000000	65.426900
718.000000	65.006400
717.000000	64.668000
716.000000	64.376100
715.000000	64.021200
714.000000	63.619200
713.000000	63.276900
712.000000	62.932900
711.000000	62.553700
710.000000	62.248400
709.000000	61.914200
708.000000	61.532600
707.000000	61.180100
706.000000	60.864900
705.000000	60.543800
704.000000	60.203600
703.000000	59.868900
702.000000	59.497400
701.000000	59.111700
700.000000	58.815400
699.000000	58.542400
698.000000	58.259000
697.000000	57.924400
696.000000	57.673900
695.000000	57.466700
694.000000	57.202400
693.000000	56.986900
692.000000	56.757600
691.000000	56.528300
690.000000	56.370400
689.000000	56.205200
688.000000	56.094400
687.000000	56.011400
686.000000	55.879700
685.000000	55.783100
684.000000	55.674400
683.000000	55.542000
682.000000	55.403400
681.000000	55.309800
680.000000	55.184400
679.000000	55.036100
678.000000	54.911600
677.000000	54.703400
676.000000	54.497700
675.000000	54.306200
674.000000	54.064100
673.000000	53.857300
672.000000	53.625000
671.000000	53.360700
670.000000	53.086500
669.000000	52.840000
668.000000	52.646000
667.000000	52.429000
666.000000	52.185100
665.000000	51.982500
664.000000	51.800400
663.000000	51.615900
662.000000	51.462200
661.000000	51.279000
660.000000	51.141700
659.000000	51.003200
658.000000	50.873300
657.000000	50.789500
656.000000	50.673300
655.000000	50.582600
654.000000	50.475400
653.000000	50.376500
652.000000	50.317500
651.000000	50.192200
650.000000	50.173800
649.000000	50.107100
648.000000	50.041000
647.000000	50.043800
646.000000	50.055000
645.000000	50.076900
644.000000	50.180400
643.000000	50.327500
642.000000	50.517500
641.000000	50.770700
640.000000	50.998600
639.000000	51.298700
638.000000	51.631300
637.000000	52.002200
636.000000	52.393800
635.000000	52.829200
634.000000	53.251800
633.000000	53.744100
632.000000	54.163400
631.000000	54.639800
630.000000	55.057600
629.000000	55.495500
628.000000	55.910300
627.000000	56.350600
626.000000	56.713000
625.000000	57.077200
624.000000	57.379500
623.000000	57.696000
622.000000	58.003200
621.000000	58.295500
620.000000	58.527200
619.000000	58.838200
618.000000	59.109400
617.000000	59.326300
616.000000	59.610700
615.000000	59.806000
614.000000	60.063800
613.000000	60.284000
612.000000	60.527700
611.000000	60.761500
610.000000	60.941500
609.000000	61.192500
608.000000	61.386200
607.000000	61.570000
606.000000	61.707700
605.000000	61.876900
604.000000	61.985400
603.000000	62.097400
602.000000	62.151600
601.000000	62.243000
600.000000	62.247900
599.000000	62.251600
598.000000	62.263900
597.000000	62.234000
596.000000	62.160700
595.000000	62.088800
594.000000	62.017700
593.000000	61.880600
592.000000	61.801000
591.000000	61.681000
590.000000	61.570500
589.000000	61.376200
588.000000	61.199500
587.000000	61.075300
586.000000	60.877800
585.000000	60.687500
584.000000	60.543500
583.000000	60.397100
582.000000	60.205400
581.000000	59.995700
580.000000	59.797600
579.000000	59.619500
578.000000	59.416000
577.000000	59.172500
576.000000	58.945800
575.000000	58.734700
574.000000	58.501200
573.000000	58.256900
572.000000	57.989400
571.000000	57.692700
570.000000	57.395600
569.000000	57.107600
568.000000	56.759400
567.000000	56.404500
566.000000	56.047600
565.000000	55.691100
564.000000	55.288800
563.000000	54.912800
562.000000	54.463900
561.000000	54.024300
560.000000	53.566400
559.000000	53.059500
558.000000	52.572900
557.000000	52.095400
556.000000	51.564500
555.000000	51.025600
554.000000	50.478200
553.000000	49.949800
552.000000	49.362700
551.000000	48.803500
550.000000	48.226600
549.000000	47.627700
548.000000	47.001600
547.000000	46.385600
546.000000	45.789400
545.000000	45.184400
544.000000	44.557900
543.000000	43.939000
542.000000	43.310800
541.000000	42.713400
540.000000	42.124100
539.000000	41.528900
538.000000	40.946700
537.000000	40.400500
536.000000	39.850900
535.000000	39.300000
534.000000	38.757600
533.000000	38.208300
532.000000	37.678600
531.000000	37.168500
530.000000	36.656500
529.000000	36.167600
528.000000	35.680100
527.000000	35.190500
526.000000	34.697800
525.000000	34.230300
524.000000	33.748400
523.000000	33.265900
522.000000	32.783100
521.000000	32.297700
520.000000	31.820800
519.000000	31.347200
518.000000	30.895000
517.000000	30.397800
516.000000	29.913200
515.000000	29.432600
514.000000	28.944600
513.000000	28.451800
512.000000	27.949900
511.000000	27.449400
510.000000	26.958500
509.000000	26.498000
508.000000	26.044400
507.000000	25.600900
506.000000	25.158100
505.000000	24.753200
504.000000	24.375800
503.000000	24.012600
502.000000	23.688900
501.000000	23.390500
500.000000	23.138200
499.000000	22.893500
498.000000	22.699000
497.000000	22.554400
496.000000	22.450400
495.000000	22.365900
494.000000	22.325600
493.000000	22.292200
492.000000	22.299500
491.000000	22.316500
490.000000	22.351100
489.000000	22.403300
488.000000	22.483000
487.000000	22.567900
486.000000	22.641100
485.000000	22.715500
484.000000	22.809200
483.000000	22.913400
482.000000	23.029600
481.000000	23.163200
480.000000	23.282600
479.000000	23.368100
478.000000	23.444000
477.000000	23.502800
476.000000	23.543600
475.000000	23.579800
474.000000	23.616800
473.000000	23.639200
472.000000	23.635500
471.000000	23.616600
470.000000	23.576500
469.000000	23.528300
468.000000	23.493300
467.000000	23.440100
466.000000	23.355800
465.000000	23.259600
464.000000	23.152400
463.000000	23.035100
462.000000	22.909500
461.000000	22.783300
460.000000	22.661000
459.000000	22.512000
458.000000	22.340700
457.000000	22.171900
456.000000	22.013600
455.000000	21.825900
454.000000	21.628200
453.000000	21.422900
452.000000	21.195100
451.000000	20.984000
450.000000	20.765200
449.000000	20.510400
448.000000	20.261600
447.000000	20.007300
446.000000	19.720500
445.000000	19.427400
444.000000	19.114800
443.000000	18.814300
442.000000	18.525600
441.000000	18.199000
440.000000	17.861600
439.000000	17.533200
438.000000	17.198300
437.000000	16.848400
436.000000	16.493300
435.000000	16.129400
434.000000	15.754600
433.000000	15.369700
432.000000	14.994200
431.000000	14.613200
430.000000	14.224900
429.000000	13.846800
428.000000	13.462400
427.000000	13.086000
426.000000	12.713100
425.000000	12.346800
424.000000	11.981700
423.000000	11.618400
422.000000	11.258800
421.000000	10.902700
420.000000	10.556800
419.000000	10.226800
418.000000	9.914400
417.000000	9.610700
416.000000	9.326300
415.000000	9.042300
414.000000	8.756500
413.000000	8.506700
412.000000	8.273500
411.000000	8.039600
410.000000	7.827900
409.000000	7.627600
408.000000	7.437000
407.000000	7.270700
406.000000	7.095100
405.000000	6.935600
404.000000	6.805500
403.000000	6.667200
402.000000	6.533500
401.000000	6.416800
400.000000	6.313000
399.000000	6.217200
398.000000	6.122800
397.000000	6.042600
396.000000	5.966900
395.000000	5.888800
394.000000	5.812600
393.000000	5.746600
392.000000	5.686200
391.000000	5.619400
390.000000	5.576800
389.000000	5.537100
388.000000	5.484200
387.000000	5.442300
386.000000	5.402900
385.000000	5.376000
384.000000	5.338900
383.000000	5.289300
382.000000	5.248300
381.000000	5.210200
380.000000	5.193200
379.000000	5.157600
378.000000	5.118200
377.000000	5.089100
376.000000	5.206500
375.000000	5.037500
374.000000	4.995300
373.000000	4.992900
372.000000	5.015800
371.000000	4.919100
370.000000	4.923900
369.000000	5.028600
368.000000	4.932300
367.000000	4.857200
366.000000	4.844900
365.000000	4.961300
364.000000	4.934900
363.000000	4.987500
362.000000	4.896900
361.000000	4.828400
360.000000	4.937100
359.000000	4.879200
358.000000	4.811300
357.000000	4.861400
356.000000	4.854200
355.000000	4.899400
354.000000	4.878000
353.000000	4.766600
352.000000	4.776800
351.000000	4.755300
350.000000	4.760700
349.000000	4.674300
348.000000	4.598700
347.000000	4.723900
346.000000	4.678500
345.000000	4.706800
344.000000	4.832800
343.000000	4.790100
342.000000	4.640000
341.000000	4.755700
340.000000	4.617900
339.000000	4.689600
338.000000	4.735200
337.000000	4.700500
336.000000	4.673000
335.000000	4.662300
334.000000	4.666700
333.000000	4.879600
332.000000	4.667300
331.000000	4.751100
330.000000	4.712900
329.000000	4.669600
328.000000	4.686200
327.000000	4.829500
326.000000	4.685000
325.000000	4.474700
324.000000	4.760200
323.000000	4.816600
322.000000	4.621400
321.000000	5.037000
320.000000	4.783000
319.000000	4.816500
318.000000	4.816500
317.000000	5.019500
316.000000	4.622000
315.000000	4.486400
314.000000	4.537100
313.000000	4.606800
312.000000	4.565000
311.000000	4.533400
310.000000	4.519500
309.000000	4.526600
308.000000	4.542100
307.000000	4.540200
306.000000	4.564100
305.000000	4.543800
304.000000	4.589600
303.000000	4.548600
302.000000	4.501600
301.000000	4.523900
300.000000	4.605200
299.000000	4.565500
298.000000	4.587700
297.000000	4.588900
296.000000	4.630400
295.000000	4.593900
294.000000	4.591500
293.000000	4.597400
292.000000	4.557500
291.000000	4.557600
290.000000	4.542600
289.000000	4.616800
288.000000	4.596300
287.000000	4.619300
286.000000	4.616000
285.000000	4.620300
284.000000	4.640000
283.000000	4.701600
282.000000	4.663700
281.000000	4.678600
280.000000	4.655200
279.000000	4.654800
278.000000	4.666400
277.000000	4.695400
276.000000	4.773200
275.000000	4.725500
274.000000	4.743100
273.000000	4.790800
272.000000	4.779900
271.000000	4.820500
270.000000	4.760400
269.000000	4.821700
268.000000	4.816700
267.000000	4.854100
266.000000	4.935500
265.000000	4.938700
264.000000	4.918500
263.000000	4.930700
262.000000	4.918100
261.000000	4.983300
260.000000	5.010700
259.000000	5.032300
258.000000	5.081800
257.000000	5.090100
256.000000	5.081300
255.000000	5.060700
254.000000	5.078200
253.000000	5.117700
252.000000	5.075500
251.000000	5.099900
250.000000	5.121100
