PE UV       SUBTECH     SPECTRUM    ASCII       PEDS        4.00        
   -1
CICIMAUCR0009-2.Sample.ASC
24/04/17
11:40:36.00
24/04/17
11:40:36.00
Vinicio Soto Monge
C. kalinini
250,000000
1
Lambda 1050
1050L1511233
PerkinElmer UV WinLab 6.3.2.0749 / 2.02.05 Lambda 900 UV/VIS/NIR, Aug  7 2015 09:38:08

0
0
3350/servo 860,8/2
0
0
UV/VIS
1
1
1
DoubleDePol,CommonBeamDepol,RBeamAtt,SBeamAtt,60mm sphere, WB InGaAs Detector
0
0
0
0
Program
Program
3350/servo 860,8/2
3350/0,2 860,8/0,2
3350/0,2 860,8/0,2
0
15.00
 
 
 
0
 
860,8
319,2
860,8
Front
100
on
S:100 R:100
0
0
0
0
 
0
 
 
 
0
 
 
0
0
0
0
0
 
 
 
 
0
0


0
0
#HDR
-1
-1
#GR
nm
%R
1.0
0.0
2500,000000
-1,000000
2251
8
97,179300
5,310100
#DATA
2500.000000	9.968500
2499.000000	10.074000
2498.000000	9.985900
2497.000000	9.870000
2496.000000	9.915600
2495.000000	9.964500
2494.000000	9.734400
2493.000000	9.823300
2492.000000	9.838700
2491.000000	9.785500
2490.000000	9.725200
2489.000000	9.661800
2488.000000	9.704900
2487.000000	9.657300
2486.000000	9.668100
2485.000000	9.618700
2484.000000	9.565700
2483.000000	9.630300
2482.000000	9.558400
2481.000000	9.594100
2480.000000	9.631100
2479.000000	9.575600
2478.000000	9.607400
2477.000000	9.625600
2476.000000	9.599300
2475.000000	9.648500
2474.000000	9.663200
2473.000000	9.653300
2472.000000	9.615700
2471.000000	9.666600
2470.000000	9.695200
2469.000000	9.689600
2468.000000	9.674100
2467.000000	9.710900
2466.000000	9.710200
2465.000000	9.771800
2464.000000	9.810000
2463.000000	9.828700
2462.000000	9.863500
2461.000000	9.903600
2460.000000	9.960800
2459.000000	10.054000
2458.000000	10.113400
2457.000000	10.158300
2456.000000	10.242400
2455.000000	10.337600
2454.000000	10.408300
2453.000000	10.508100
2452.000000	10.596600
2451.000000	10.707000
2450.000000	10.800200
2449.000000	10.899300
2448.000000	10.994900
2447.000000	11.082400
2446.000000	11.194300
2445.000000	11.277200
2444.000000	11.370400
2443.000000	11.480500
2442.000000	11.582600
2441.000000	11.673600
2440.000000	11.783400
2439.000000	11.874400
2438.000000	11.957000
2437.000000	12.031100
2436.000000	12.117700
2435.000000	12.224900
2434.000000	12.309400
2433.000000	12.383500
2432.000000	12.450300
2431.000000	12.525200
2430.000000	12.594000
2429.000000	12.647400
2428.000000	12.719500
2427.000000	12.788800
2426.000000	12.848800
2425.000000	12.897800
2424.000000	12.955900
2423.000000	13.012500
2422.000000	13.056000
2421.000000	13.099400
2420.000000	13.133600
2419.000000	13.177500
2418.000000	13.214000
2417.000000	13.232600
2416.000000	13.254300
2415.000000	13.279700
2414.000000	13.315000
2413.000000	13.353700
2412.000000	13.374900
2411.000000	13.397200
2410.000000	13.425000
2409.000000	13.436400
2408.000000	13.462700
2407.000000	13.498600
2406.000000	13.518400
2405.000000	13.530800
2404.000000	13.559300
2403.000000	13.589900
2402.000000	13.596300
2401.000000	13.619900
2400.000000	13.647500
2399.000000	13.671400
2398.000000	13.701300
2397.000000	13.729000
2396.000000	13.740600
2395.000000	13.746300
2394.000000	13.781800
2393.000000	13.815000
2392.000000	13.825100
2391.000000	13.841600
2390.000000	13.849500
2389.000000	13.847200
2388.000000	13.852400
2387.000000	13.862600
2386.000000	13.858200
2385.000000	13.854700
2384.000000	13.858900
2383.000000	13.839400
2382.000000	13.815700
2381.000000	13.786900
2380.000000	13.773400
2379.000000	13.750800
2378.000000	13.721600
2377.000000	13.694000
2376.000000	13.668800
2375.000000	13.628500
2374.000000	13.578400
2373.000000	13.537400
2372.000000	13.489400
2371.000000	13.443900
2370.000000	13.400200
2369.000000	13.335700
2368.000000	13.263700
2367.000000	13.201500
2366.000000	13.132700
2365.000000	13.053300
2364.000000	12.977600
2363.000000	12.881600
2362.000000	12.790500
2361.000000	12.701900
2360.000000	12.616000
2359.000000	12.536300
2358.000000	12.454400
2357.000000	12.370400
2356.000000	12.292900
2355.000000	12.232800
2354.000000	12.195600
2353.000000	12.171000
2352.000000	12.143300
2351.000000	12.146200
2350.000000	12.166800
2349.000000	12.168600
2348.000000	12.201800
2347.000000	12.259800
2346.000000	12.289600
2345.000000	12.340700
2344.000000	12.395800
2343.000000	12.426400
2342.000000	12.472100
2341.000000	12.504000
2340.000000	12.524200
2339.000000	12.549200
2338.000000	12.555600
2337.000000	12.555900
2336.000000	12.549700
2335.000000	12.513800
2334.000000	12.497800
2333.000000	12.467100
2332.000000	12.409600
2331.000000	12.340300
2330.000000	12.261300
2329.000000	12.207800
2328.000000	12.123500
2327.000000	12.026500
2326.000000	11.936700
2325.000000	11.818700
2324.000000	11.707100
2323.000000	11.595900
2322.000000	11.467700
2321.000000	11.345600
2320.000000	11.221700
2319.000000	11.072200
2318.000000	10.919600
2317.000000	10.762300
2316.000000	10.603300
2315.000000	10.465800
2314.000000	10.326500
2313.000000	10.203800
2312.000000	10.059800
2311.000000	9.953300
2310.000000	9.868200
2309.000000	9.781000
2308.000000	9.736400
2307.000000	9.703900
2306.000000	9.687300
2305.000000	9.676300
2304.000000	9.715600
2303.000000	9.761000
2302.000000	9.827000
2301.000000	9.910100
2300.000000	10.010900
2299.000000	10.103100
2298.000000	10.224900
2297.000000	10.324400
2296.000000	10.427100
2295.000000	10.526200
2294.000000	10.602800
2293.000000	10.669600
2292.000000	10.727000
2291.000000	10.756000
2290.000000	10.820400
2289.000000	10.841700
2288.000000	10.828100
2287.000000	10.835200
2286.000000	10.829600
2285.000000	10.804600
2284.000000	10.768400
2283.000000	10.705100
2282.000000	10.661800
2281.000000	10.620200
2280.000000	10.566200
2279.000000	10.520100
2278.000000	10.464900
2277.000000	10.424800
2276.000000	10.359700
2275.000000	10.338800
2274.000000	10.317800
2273.000000	10.318800
2272.000000	10.331200
2271.000000	10.329300
2270.000000	10.373400
2269.000000	10.410300
2268.000000	10.497800
2267.000000	10.567800
2266.000000	10.677400
2265.000000	10.832200
2264.000000	10.988200
2263.000000	11.176600
2262.000000	11.379900
2261.000000	11.617400
2260.000000	11.880700
2259.000000	12.143200
2258.000000	12.419300
2257.000000	12.695400
2256.000000	12.991300
2255.000000	13.274600
2254.000000	13.556000
2253.000000	13.862100
2252.000000	14.122600
2251.000000	14.386000
2250.000000	14.630900
2249.000000	14.841400
2248.000000	15.077700
2247.000000	15.290100
2246.000000	15.467700
2245.000000	15.640600
2244.000000	15.806800
2243.000000	15.976600
2242.000000	16.114500
2241.000000	16.220500
2240.000000	16.351900
2239.000000	16.472800
2238.000000	16.562100
2237.000000	16.647600
2236.000000	16.751800
2235.000000	16.824800
2234.000000	16.871800
2233.000000	16.913100
2232.000000	16.969000
2231.000000	17.002900
2230.000000	17.036100
2229.000000	17.072500
2228.000000	17.078700
2227.000000	17.065200
2226.000000	17.051300
2225.000000	17.053100
2224.000000	17.029500
2223.000000	17.025900
2222.000000	16.973500
2221.000000	16.937900
2220.000000	16.923000
2219.000000	16.868500
2218.000000	16.820300
2217.000000	16.785100
2216.000000	16.728300
2215.000000	16.691500
2214.000000	16.655800
2213.000000	16.599500
2212.000000	16.565700
2211.000000	16.524000
2210.000000	16.496400
2209.000000	16.467200
2208.000000	16.443000
2207.000000	16.403700
2206.000000	16.389900
2205.000000	16.360200
2204.000000	16.321000
2203.000000	16.305300
2202.000000	16.285000
2201.000000	16.257800
2200.000000	16.254000
2199.000000	16.223600
2198.000000	16.211300
2197.000000	16.197500
2196.000000	16.193800
2195.000000	16.182300
2194.000000	16.176600
2193.000000	16.161400
2192.000000	16.131500
2191.000000	16.108400
2190.000000	16.099000
2189.000000	16.077000
2188.000000	16.067500
2187.000000	16.064800
2186.000000	16.061700
2185.000000	16.052100
2184.000000	16.037800
2183.000000	16.025700
2182.000000	16.001500
2181.000000	15.993400
2180.000000	15.997100
2179.000000	16.005700
2178.000000	15.989500
2177.000000	15.979900
2176.000000	15.964500
2175.000000	15.981900
2174.000000	16.005300
2173.000000	16.033400
2172.000000	16.042400
2171.000000	16.048900
2170.000000	16.066400
2169.000000	16.111700
2168.000000	16.146600
2167.000000	16.162700
2166.000000	16.189800
2165.000000	16.228300
2164.000000	16.291600
2163.000000	16.327200
2162.000000	16.358700
2161.000000	16.403600
2160.000000	16.467000
2159.000000	16.512400
2158.000000	16.574200
2157.000000	16.640000
2156.000000	16.677500
2155.000000	16.749000
2154.000000	16.826800
2153.000000	16.888600
2152.000000	16.946800
2151.000000	17.016200
2150.000000	17.087400
2149.000000	17.151400
2148.000000	17.233000
2147.000000	17.305100
2146.000000	17.363400
2145.000000	17.434900
2144.000000	17.493800
2143.000000	17.554500
2142.000000	17.618800
2141.000000	17.688600
2140.000000	17.740900
2139.000000	17.797900
2138.000000	17.848300
2137.000000	17.897800
2136.000000	17.938200
2135.000000	17.993900
2134.000000	18.028200
2133.000000	18.055500
2132.000000	18.087600
2131.000000	18.122900
2130.000000	18.140300
2129.000000	18.149200
2128.000000	18.170800
2127.000000	18.194500
2126.000000	18.196600
2125.000000	18.202200
2124.000000	18.210300
2123.000000	18.208500
2122.000000	18.198800
2121.000000	18.182900
2120.000000	18.161900
2119.000000	18.134300
2118.000000	18.122500
2117.000000	18.111300
2116.000000	18.086200
2115.000000	18.052800
2114.000000	18.025900
2113.000000	18.004200
2112.000000	17.976000
2111.000000	17.932800
2110.000000	17.892100
2109.000000	17.877000
2108.000000	17.843800
2107.000000	17.794100
2106.000000	17.757300
2105.000000	17.721100
2104.000000	17.700800
2103.000000	17.659200
2102.000000	17.616900
2101.000000	17.601400
2100.000000	17.565400
2099.000000	17.530100
2098.000000	17.499100
2097.000000	17.463600
2096.000000	17.446700
2095.000000	17.421400
2094.000000	17.392000
2093.000000	17.379000
2092.000000	17.358300
2091.000000	17.345800
2090.000000	17.333900
2089.000000	17.299100
2088.000000	17.277300
2087.000000	17.285300
2086.000000	17.262300
2085.000000	17.225800
2084.000000	17.213000
2083.000000	17.197500
2082.000000	17.152100
2081.000000	17.109500
2080.000000	17.086700
2079.000000	17.046400
2078.000000	17.008200
2077.000000	16.973100
2076.000000	16.908900
2075.000000	16.858100
2074.000000	16.799400
2073.000000	16.747300
2072.000000	16.703600
2071.000000	16.655800
2070.000000	16.597600
2069.000000	16.543500
2068.000000	16.482200
2067.000000	16.417300
2066.000000	16.368200
2065.000000	16.310900
2064.000000	16.247900
2063.000000	16.185100
2062.000000	16.155800
2061.000000	16.117300
2060.000000	16.073100
2059.000000	16.039000
2058.000000	16.017100
2057.000000	16.008300
2056.000000	15.999400
2055.000000	16.028500
2054.000000	16.049300
2053.000000	16.085900
2052.000000	16.149200
2051.000000	16.229000
2050.000000	16.322400
2049.000000	16.434200
2048.000000	16.542600
2047.000000	16.695500
2046.000000	16.841000
2045.000000	17.009600
2044.000000	17.190100
2043.000000	17.368100
2042.000000	17.547700
2041.000000	17.735800
2040.000000	17.927600
2039.000000	18.096700
2038.000000	18.282100
2037.000000	18.448400
2036.000000	18.613000
2035.000000	18.780400
2034.000000	18.947800
2033.000000	19.090100
2032.000000	19.220400
2031.000000	19.360400
2030.000000	19.498400
2029.000000	19.635900
2028.000000	19.750500
2027.000000	19.866800
2026.000000	19.964900
2025.000000	20.079200
2024.000000	20.199100
2023.000000	20.316700
2022.000000	20.404400
2021.000000	20.497700
2020.000000	20.593000
2019.000000	20.693300
2018.000000	20.767700
2017.000000	20.859300
2016.000000	20.922800
2015.000000	20.982500
2014.000000	21.052100
2013.000000	21.119100
2012.000000	21.176600
2011.000000	21.216000
2010.000000	21.262900
2009.000000	21.304800
2008.000000	21.336800
2007.000000	21.352300
2006.000000	21.376900
2005.000000	21.417200
2004.000000	21.416200
2003.000000	21.410700
2002.000000	21.414900
2001.000000	21.406000
2000.000000	21.393700
1999.000000	21.379800
1998.000000	21.347400
1997.000000	21.320900
1996.000000	21.301500
1995.000000	21.262100
1994.000000	21.234700
1993.000000	21.173200
1992.000000	21.120500
1991.000000	21.066800
1990.000000	21.024900
1989.000000	20.944500
1988.000000	20.881700
1987.000000	20.816000
1986.000000	20.725700
1985.000000	20.664800
1984.000000	20.585700
1983.000000	20.497000
1982.000000	20.441200
1981.000000	20.360500
1980.000000	20.263400
1979.000000	20.194500
1978.000000	20.105100
1977.000000	20.033300
1976.000000	19.961500
1975.000000	19.856700
1974.000000	19.763900
1973.000000	19.710700
1972.000000	19.640300
1971.000000	19.537500
1970.000000	19.477700
1969.000000	19.396600
1968.000000	19.351200
1967.000000	19.254800
1966.000000	19.181900
1965.000000	19.119800
1964.000000	19.056700
1963.000000	18.978000
1962.000000	18.899500
1961.000000	18.839000
1960.000000	18.776400
1959.000000	18.710300
1958.000000	18.617400
1957.000000	18.542600
1956.000000	18.481800
1955.000000	18.397400
1954.000000	18.343700
1953.000000	18.258700
1952.000000	18.177600
1951.000000	18.115700
1950.000000	18.060500
1949.000000	17.988100
1948.000000	17.958300
1947.000000	17.897200
1946.000000	17.824600
1945.000000	17.804900
1944.000000	17.779500
1943.000000	17.741800
1942.000000	17.720500
1941.000000	17.720800
1940.000000	17.705700
1939.000000	17.722400
1938.000000	17.742300
1937.000000	17.754200
1936.000000	17.782000
1935.000000	17.813300
1934.000000	17.868200
1933.000000	17.911100
1932.000000	18.005700
1931.000000	18.076900
1930.000000	18.172800
1929.000000	18.289200
1928.000000	18.400900
1927.000000	18.520900
1926.000000	18.660100
1925.000000	18.794600
1924.000000	18.933900
1923.000000	19.086300
1922.000000	19.270500
1921.000000	19.476500
1920.000000	19.702400
1919.000000	19.893700
1918.000000	20.096000
1917.000000	20.301300
1916.000000	20.488100
1915.000000	20.690800
1914.000000	20.974100
1913.000000	21.281000
1912.000000	21.575800
1911.000000	21.819800
1910.000000	22.105500
1909.000000	22.321900
1908.000000	22.577700
1907.000000	22.883400
1906.000000	23.254300
1905.000000	23.618100
1904.000000	23.965800
1903.000000	24.290500
1902.000000	24.592800
1901.000000	24.915700
1900.000000	25.268100
1899.000000	25.627600
1898.000000	25.981300
1897.000000	26.346500
1896.000000	26.630200
1895.000000	26.920100
1894.000000	27.230300
1893.000000	27.563300
1892.000000	27.929900
1891.000000	28.312000
1890.000000	28.652100
1889.000000	28.965300
1888.000000	29.319700
1887.000000	29.657000
1886.000000	30.019000
1885.000000	30.448200
1884.000000	30.908800
1883.000000	31.393600
1882.000000	31.871400
1881.000000	32.358000
1880.000000	32.826500
1879.000000	33.266600
1878.000000	33.703800
1877.000000	34.126800
1876.000000	34.516000
1875.000000	34.881100
1874.000000	35.225100
1873.000000	35.539000
1872.000000	35.817100
1871.000000	36.065000
1870.000000	36.257800
1869.000000	36.420400
1868.000000	36.564900
1867.000000	36.659700
1866.000000	36.702000
1865.000000	36.748200
1864.000000	36.783100
1863.000000	36.818300
1862.000000	36.873800
1861.000000	36.918800
1860.000000	36.955700
1859.000000	36.960000
1858.000000	36.936900
1857.000000	36.921700
1856.000000	36.881800
1855.000000	36.837900
1854.000000	36.785600
1853.000000	36.704600
1852.000000	36.609600
1851.000000	36.550100
1850.000000	36.486100
1849.000000	36.435600
1848.000000	36.387200
1847.000000	36.303900
1846.000000	36.194500
1845.000000	36.074700
1844.000000	35.980500
1843.000000	35.952700
1842.000000	35.955000
1841.000000	35.921400
1840.000000	35.871900
1839.000000	35.802700
1838.000000	35.729000
1837.000000	35.666800
1836.000000	35.586000
1835.000000	35.501300
1834.000000	35.399700
1833.000000	35.287600
1832.000000	35.205600
1831.000000	35.138200
1830.000000	35.049900
1829.000000	34.955000
1828.000000	34.857300
1827.000000	34.765600
1826.000000	34.683400
1825.000000	34.610000
1824.000000	34.549900
1823.000000	34.533100
1822.000000	34.571500
1821.000000	34.575600
1820.000000	34.539300
1819.000000	34.486400
1818.000000	34.446700
1817.000000	34.444800
1816.000000	34.448900
1815.000000	34.436500
1814.000000	34.420200
1813.000000	34.418700
1812.000000	34.400500
1811.000000	34.374900
1810.000000	34.323400
1809.000000	34.268800
1808.000000	34.237500
1807.000000	34.197100
1806.000000	34.159700
1805.000000	34.106100
1804.000000	34.031000
1803.000000	33.982700
1802.000000	33.957700
1801.000000	33.915500
1800.000000	33.846800
1799.000000	33.761600
1798.000000	33.715200
1797.000000	33.677500
1796.000000	33.624100
1795.000000	33.560300
1794.000000	33.502900
1793.000000	33.452200
1792.000000	33.393000
1791.000000	33.323400
1790.000000	33.267000
1789.000000	33.201500
1788.000000	33.124000
1787.000000	33.063600
1786.000000	32.990700
1785.000000	32.887600
1784.000000	32.796200
1783.000000	32.716500
1782.000000	32.625200
1781.000000	32.530900
1780.000000	32.421900
1779.000000	32.311600
1778.000000	32.212800
1777.000000	32.090500
1776.000000	31.964000
1775.000000	31.809800
1774.000000	31.644000
1773.000000	31.482400
1772.000000	31.318800
1771.000000	31.140600
1770.000000	30.991100
1769.000000	30.823300
1768.000000	30.659800
1767.000000	30.523800
1766.000000	30.388000
1765.000000	30.285100
1764.000000	30.220700
1763.000000	30.195900
1762.000000	30.200400
1761.000000	30.221300
1760.000000	30.271300
1759.000000	30.355600
1758.000000	30.427900
1757.000000	30.492700
1756.000000	30.539900
1755.000000	30.588200
1754.000000	30.596200
1753.000000	30.593800
1752.000000	30.564800
1751.000000	30.520600
1750.000000	30.460600
1749.000000	30.381900
1748.000000	30.282600
1747.000000	30.147900
1746.000000	29.983600
1745.000000	29.804800
1744.000000	29.593200
1743.000000	29.365700
1742.000000	29.110400
1741.000000	28.805200
1740.000000	28.498900
1739.000000	28.223300
1738.000000	27.920600
1737.000000	27.661400
1736.000000	27.447300
1735.000000	27.311000
1734.000000	27.220100
1733.000000	27.178100
1732.000000	27.194200
1731.000000	27.262200
1730.000000	27.337700
1729.000000	27.455200
1728.000000	27.555100
1727.000000	27.667600
1726.000000	27.763100
1725.000000	27.817000
1724.000000	27.871400
1723.000000	27.926400
1722.000000	27.953900
1721.000000	27.994400
1720.000000	28.029300
1719.000000	28.099300
1718.000000	28.180500
1717.000000	28.287000
1716.000000	28.414100
1715.000000	28.528000
1714.000000	28.612700
1713.000000	28.744000
1712.000000	28.835600
1711.000000	28.893800
1710.000000	28.954300
1709.000000	28.976700
1708.000000	28.981800
1707.000000	28.987100
1706.000000	28.957800
1705.000000	28.947900
1704.000000	28.892200
1703.000000	28.816500
1702.000000	28.743100
1701.000000	28.597700
1700.000000	28.423600
1699.000000	28.255800
1698.000000	28.110200
1697.000000	27.980600
1696.000000	27.907400
1695.000000	27.868000
1694.000000	27.902700
1693.000000	28.013900
1692.000000	28.153400
1691.000000	28.330100
1690.000000	28.481800
1689.000000	28.593500
1688.000000	28.658800
1687.000000	28.693500
1686.000000	28.713200
1685.000000	28.760300
1684.000000	28.874600
1683.000000	29.133600
1682.000000	29.479000
1681.000000	30.029100
1680.000000	30.620200
1679.000000	31.260600
1678.000000	31.936100
1677.000000	32.490300
1676.000000	33.022300
1675.000000	33.487000
1674.000000	33.904000
1673.000000	34.252600
1672.000000	34.577100
1671.000000	34.869400
1670.000000	35.148200
1669.000000	35.351200
1668.000000	35.563000
1667.000000	35.745200
1666.000000	35.876400
1665.000000	36.044300
1664.000000	36.167200
1663.000000	36.269400
1662.000000	36.395500
1661.000000	36.479600
1660.000000	36.575300
1659.000000	36.636800
1658.000000	36.706100
1657.000000	36.739900
1656.000000	36.777100
1655.000000	36.802800
1654.000000	36.808400
1653.000000	36.808000
1652.000000	36.795900
1651.000000	36.795700
1650.000000	36.766100
1649.000000	36.735700
1648.000000	36.702100
1647.000000	36.664200
1646.000000	36.618600
1645.000000	36.560400
1644.000000	36.480100
1643.000000	36.423600
1642.000000	36.364800
1641.000000	36.289300
1640.000000	36.233000
1639.000000	36.171500
1638.000000	36.089600
1637.000000	36.024700
1636.000000	35.958800
1635.000000	35.877200
1634.000000	35.799000
1633.000000	35.704500
1632.000000	35.613600
1631.000000	35.503200
1630.000000	35.419400
1629.000000	35.329600
1628.000000	35.224400
1627.000000	35.122800
1626.000000	35.025600
1625.000000	34.926400
1624.000000	34.825300
1623.000000	34.725100
1622.000000	34.620800
1621.000000	34.533900
1620.000000	34.431600
1619.000000	34.332300
1618.000000	34.251100
1617.000000	34.159400
1616.000000	34.064400
1615.000000	33.958100
1614.000000	33.877600
1613.000000	33.789400
1612.000000	33.696700
1611.000000	33.608100
1610.000000	33.517400
1609.000000	33.428800
1608.000000	33.349300
1607.000000	33.248500
1606.000000	33.162700
1605.000000	33.075300
1604.000000	32.986600
1603.000000	32.896100
1602.000000	32.811000
1601.000000	32.720800
1600.000000	32.640200
1599.000000	32.557800
1598.000000	32.475100
1597.000000	32.387700
1596.000000	32.327100
1595.000000	32.263700
1594.000000	32.197300
1593.000000	32.137100
1592.000000	32.080600
1591.000000	32.018900
1590.000000	31.969600
1589.000000	31.916000
1588.000000	31.877200
1587.000000	31.852600
1586.000000	31.812800
1585.000000	31.761700
1584.000000	31.733200
1583.000000	31.699700
1582.000000	31.667900
1581.000000	31.651100
1580.000000	31.634800
1579.000000	31.608700
1578.000000	31.609900
1577.000000	31.622300
1576.000000	31.626800
1575.000000	31.641500
1574.000000	31.649800
1573.000000	31.678500
1572.000000	31.693600
1571.000000	31.712000
1570.000000	31.761200
1569.000000	31.794700
1568.000000	31.832300
1567.000000	31.885700
1566.000000	31.938300
1565.000000	31.985500
1564.000000	32.026200
1563.000000	32.068200
1562.000000	32.094300
1561.000000	32.119100
1560.000000	32.158000
1559.000000	32.181700
1558.000000	32.207200
1557.000000	32.226900
1556.000000	32.233400
1555.000000	32.238500
1554.000000	32.242500
1553.000000	32.250600
1552.000000	32.233100
1551.000000	32.202500
1550.000000	32.178800
1549.000000	32.163000
1548.000000	32.141200
1547.000000	32.123500
1546.000000	32.106400
1545.000000	32.091900
1544.000000	32.073600
1543.000000	32.074400
1542.000000	32.068000
1541.000000	32.057200
1540.000000	32.052800
1539.000000	32.036700
1538.000000	32.037700
1537.000000	32.045800
1536.000000	32.048300
1535.000000	32.029200
1534.000000	32.016400
1533.000000	32.007400
1532.000000	31.996400
1531.000000	31.975900
1530.000000	31.961200
1529.000000	31.945800
1528.000000	31.920400
1527.000000	31.884900
1526.000000	31.848300
1525.000000	31.834600
1524.000000	31.806200
1523.000000	31.775400
1522.000000	31.734000
1521.000000	31.699600
1520.000000	31.674100
1519.000000	31.629300
1518.000000	31.590900
1517.000000	31.557500
1516.000000	31.519100
1515.000000	31.476500
1514.000000	31.439200
1513.000000	31.392500
1512.000000	31.346800
1511.000000	31.290800
1510.000000	31.250400
1509.000000	31.221000
1508.000000	31.165200
1507.000000	31.123700
1506.000000	31.067700
1505.000000	31.018800
1504.000000	30.985600
1503.000000	30.950400
1502.000000	30.940200
1501.000000	30.906100
1500.000000	30.862400
1499.000000	30.832900
1498.000000	30.829100
1497.000000	30.811400
1496.000000	30.776900
1495.000000	30.793000
1494.000000	30.791600
1493.000000	30.798400
1492.000000	30.802100
1491.000000	30.823900
1490.000000	30.858000
1489.000000	30.857000
1488.000000	30.881200
1487.000000	30.914900
1486.000000	30.921800
1485.000000	30.940700
1484.000000	30.959900
1483.000000	30.969200
1482.000000	31.010800
1481.000000	31.071600
1480.000000	31.118700
1479.000000	31.148900
1478.000000	31.215200
1477.000000	31.279000
1476.000000	31.350000
1475.000000	31.400800
1474.000000	31.465100
1473.000000	31.549400
1472.000000	31.638400
1471.000000	31.705000
1470.000000	31.749200
1469.000000	31.831500
1468.000000	31.892200
1467.000000	31.966300
1466.000000	32.048100
1465.000000	32.143000
1464.000000	32.208300
1463.000000	32.309200
1462.000000	32.404300
1461.000000	32.509500
1460.000000	32.618700
1459.000000	32.725000
1458.000000	32.839300
1457.000000	32.951900
1456.000000	33.059400
1455.000000	33.197900
1454.000000	33.335000
1453.000000	33.454200
1452.000000	33.610200
1451.000000	33.755700
1450.000000	33.891000
1449.000000	34.028600
1448.000000	34.126700
1447.000000	34.276800
1446.000000	34.480700
1445.000000	34.599900
1444.000000	34.745800
1443.000000	34.877800
1442.000000	35.051000
1441.000000	35.212400
1440.000000	35.343600
1439.000000	35.506400
1438.000000	35.646100
1437.000000	35.785800
1436.000000	35.922100
1435.000000	36.062400
1434.000000	36.237300
1433.000000	36.373800
1432.000000	36.548200
1431.000000	36.694700
1430.000000	36.853900
1429.000000	37.038900
1428.000000	37.269700
1427.000000	37.469700
1426.000000	37.694000
1425.000000	37.932600
1424.000000	38.206700
1423.000000	38.440800
1422.000000	38.675600
1421.000000	38.926400
1420.000000	39.224300
1419.000000	39.509000
1418.000000	39.723400
1417.000000	39.903700
1416.000000	40.159900
1415.000000	40.463200
1414.000000	40.750900
1413.000000	40.978500
1412.000000	41.180800
1411.000000	41.450100
1410.000000	41.772800
1409.000000	42.196500
1408.000000	42.558200
1407.000000	42.948400
1406.000000	43.350200
1405.000000	43.811900
1404.000000	44.206700
1403.000000	44.669800
1402.000000	45.061100
1401.000000	45.610300
1400.000000	45.976500
1399.000000	46.257000
1398.000000	46.441500
1397.000000	46.734300
1396.000000	47.038500
1395.000000	47.253700
1394.000000	47.332900
1393.000000	47.453000
1392.000000	47.621100
1391.000000	47.799600
1390.000000	47.984700
1389.000000	48.199800
1388.000000	48.527900
1387.000000	48.795000
1386.000000	49.107500
1385.000000	49.483800
1384.000000	49.956900
1383.000000	50.332000
1382.000000	50.706600
1381.000000	50.939600
1380.000000	51.036700
1379.000000	51.168400
1378.000000	51.251400
1377.000000	51.324100
1376.000000	51.450500
1375.000000	51.632200
1374.000000	51.903800
1373.000000	52.298700
1372.000000	52.727500
1371.000000	53.155900
1370.000000	53.527700
1369.000000	53.883100
1368.000000	54.270000
1367.000000	54.565200
1366.000000	54.826200
1365.000000	55.086200
1364.000000	55.292600
1363.000000	55.458800
1362.000000	55.668200
1361.000000	55.804200
1360.000000	55.849300
1359.000000	55.886800
1358.000000	55.993300
1357.000000	56.188800
1356.000000	56.508000
1355.000000	56.995400
1354.000000	57.609600
1353.000000	58.261500
1352.000000	58.959700
1351.000000	59.682700
1350.000000	60.363300
1349.000000	60.971700
1348.000000	61.544700
1347.000000	62.062000
1346.000000	62.491300
1345.000000	62.945500
1344.000000	63.409200
1343.000000	63.798200
1342.000000	64.192700
1341.000000	64.585700
1340.000000	64.936800
1339.000000	65.276700
1338.000000	65.602000
1337.000000	65.911100
1336.000000	66.188300
1335.000000	66.461400
1334.000000	66.722500
1333.000000	66.967200
1332.000000	67.202800
1331.000000	67.429300
1330.000000	67.657500
1329.000000	67.851500
1328.000000	68.030100
1327.000000	68.206300
1326.000000	68.372400
1325.000000	68.520500
1324.000000	68.663400
1323.000000	68.795200
1322.000000	68.918600
1321.000000	69.049300
1320.000000	69.173000
1319.000000	69.281200
1318.000000	69.394100
1317.000000	69.486300
1316.000000	69.575300
1315.000000	69.676600
1314.000000	69.775100
1313.000000	69.848300
1312.000000	69.911000
1311.000000	69.976800
1310.000000	70.036300
1309.000000	70.098900
1308.000000	70.154900
1307.000000	70.185700
1306.000000	70.213100
1305.000000	70.234400
1304.000000	70.238600
1303.000000	70.248100
1302.000000	70.246100
1301.000000	70.237000
1300.000000	70.218700
1299.000000	70.201800
1298.000000	70.178100
1297.000000	70.156500
1296.000000	70.135700
1295.000000	70.101100
1294.000000	70.065200
1293.000000	70.029300
1292.000000	69.999400
1291.000000	69.952500
1290.000000	69.893400
1289.000000	69.828400
1288.000000	69.742200
1287.000000	69.652500
1286.000000	69.565600
1285.000000	69.469600
1284.000000	69.360500
1283.000000	69.249800
1282.000000	69.139000
1281.000000	69.019900
1280.000000	68.910100
1279.000000	68.807300
1278.000000	68.711000
1277.000000	68.613000
1276.000000	68.512400
1275.000000	68.432700
1274.000000	68.340200
1273.000000	68.267900
1272.000000	68.205900
1271.000000	68.144500
1270.000000	68.081000
1269.000000	68.009700
1268.000000	67.941100
1267.000000	67.854000
1266.000000	67.766900
1265.000000	67.695100
1264.000000	67.621600
1263.000000	67.560700
1262.000000	67.494100
1261.000000	67.414500
1260.000000	67.344200
1259.000000	67.260500
1258.000000	67.196700
1257.000000	67.120800
1256.000000	67.027600
1255.000000	66.947100
1254.000000	66.860600
1253.000000	66.763700
1252.000000	66.639300
1251.000000	66.544700
1250.000000	66.433800
1249.000000	66.300200
1248.000000	66.164700
1247.000000	66.017000
1246.000000	65.852400
1245.000000	65.681100
1244.000000	65.517600
1243.000000	65.336300
1242.000000	65.105500
1241.000000	64.905700
1240.000000	64.713300
1239.000000	64.488600
1238.000000	64.270400
1237.000000	64.056400
1236.000000	63.829100
1235.000000	63.600100
1234.000000	63.367300
1233.000000	63.144200
1232.000000	62.915700
1231.000000	62.674100
1230.000000	62.444000
1229.000000	62.196200
1228.000000	61.969100
1227.000000	61.728600
1226.000000	61.489100
1225.000000	61.279000
1224.000000	61.060700
1223.000000	60.843100
1222.000000	60.624400
1221.000000	60.407200
1220.000000	60.212100
1219.000000	60.033400
1218.000000	59.871700
1217.000000	59.698000
1216.000000	59.534400
1215.000000	59.396600
1214.000000	59.243200
1213.000000	59.117600
1212.000000	58.983800
1211.000000	58.859200
1210.000000	58.746500
1209.000000	58.642000
1208.000000	58.525800
1207.000000	58.461000
1206.000000	58.389400
1205.000000	58.360900
1204.000000	58.326800
1203.000000	58.305500
1202.000000	58.279400
1201.000000	58.240500
1200.000000	58.153700
1199.000000	58.079900
1198.000000	57.957500
1197.000000	57.803500
1196.000000	57.558000
1195.000000	57.253400
1194.000000	56.895000
1193.000000	56.449100
1192.000000	55.929000
1191.000000	55.361300
1190.000000	54.855000
1189.000000	54.385300
1188.000000	54.024300
1187.000000	53.769700
1186.000000	53.711900
1185.000000	53.814800
1184.000000	54.030700
1183.000000	54.406400
1182.000000	54.898500
1181.000000	55.484000
1180.000000	56.069600
1179.000000	56.645900
1178.000000	57.153800
1177.000000	57.615600
1176.000000	58.006400
1175.000000	58.349000
1174.000000	58.693300
1173.000000	59.075500
1172.000000	59.470500
1171.000000	59.878000
1170.000000	60.299000
1169.000000	60.723300
1168.000000	61.148800
1167.000000	61.570400
1166.000000	62.030200
1165.000000	62.478400
1164.000000	62.949500
1163.000000	63.413400
1162.000000	63.879400
1161.000000	64.330700
1160.000000	64.766400
1159.000000	65.204200
1158.000000	65.586200
1157.000000	65.977200
1156.000000	66.294100
1155.000000	66.529600
1154.000000	66.728900
1153.000000	66.804900
1152.000000	66.830000
1151.000000	66.816600
1150.000000	66.777800
1149.000000	66.736200
1148.000000	66.716500
1147.000000	66.719400
1146.000000	66.826200
1145.000000	67.011300
1144.000000	67.298000
1143.000000	67.617600
1142.000000	68.022700
1141.000000	68.411500
1140.000000	68.813000
1139.000000	69.258300
1138.000000	69.700700
1137.000000	70.167600
1136.000000	70.687500
1135.000000	71.168500
1134.000000	71.592500
1133.000000	71.969400
1132.000000	72.293500
1131.000000	72.642000
1130.000000	72.961200
1129.000000	73.217100
1128.000000	73.403700
1127.000000	73.557000
1126.000000	73.707000
1125.000000	73.801100
1124.000000	73.906700
1123.000000	73.970700
1122.000000	74.024700
1121.000000	74.067400
1120.000000	74.104400
1119.000000	74.107500
1118.000000	74.118200
1117.000000	74.107900
1116.000000	74.086000
1115.000000	74.053500
1114.000000	74.013300
1113.000000	73.991900
1112.000000	73.946300
1111.000000	73.918500
1110.000000	73.870300
1109.000000	73.846900
1108.000000	73.788100
1107.000000	73.760700
1106.000000	73.728500
1105.000000	73.678600
1104.000000	73.628800
1103.000000	73.571700
1102.000000	73.507700
1101.000000	73.463400
1100.000000	73.402900
1099.000000	73.344400
1098.000000	73.276300
1097.000000	73.213000
1096.000000	73.133700
1095.000000	73.056400
1094.000000	72.970700
1093.000000	72.882400
1092.000000	72.813000
1091.000000	72.718200
1090.000000	72.617800
1089.000000	72.527700
1088.000000	72.429400
1087.000000	72.342000
1086.000000	72.235100
1085.000000	72.135300
1084.000000	72.021700
1083.000000	71.940400
1082.000000	71.845200
1081.000000	71.751200
1080.000000	71.647700
1079.000000	71.537300
1078.000000	71.462300
1077.000000	71.368200
1076.000000	71.280600
1075.000000	71.189600
1074.000000	71.086200
1073.000000	71.003900
1072.000000	70.909400
1071.000000	70.808500
1070.000000	70.726800
1069.000000	70.631300
1068.000000	70.538600
1067.000000	70.463700
1066.000000	70.373100
1065.000000	70.280000
1064.000000	70.188400
1063.000000	70.101300
1062.000000	69.998000
1061.000000	69.893400
1060.000000	69.802100
1059.000000	69.710300
1058.000000	69.617000
1057.000000	69.512100
1056.000000	69.412400
1055.000000	69.329900
1054.000000	69.229300
1053.000000	69.123600
1052.000000	69.022900
1051.000000	68.938000
1050.000000	68.866700
1049.000000	68.792300
1048.000000	68.709400
1047.000000	68.630900
1046.000000	68.567200
1045.000000	68.491800
1044.000000	68.413800
1043.000000	68.360100
1042.000000	68.297500
1041.000000	68.213200
1040.000000	68.134000
1039.000000	68.075300
1038.000000	68.017400
1037.000000	67.940500
1036.000000	67.856300
1035.000000	67.785800
1034.000000	67.706500
1033.000000	67.602500
1032.000000	67.531100
1031.000000	67.458400
1030.000000	67.371300
1029.000000	67.273900
1028.000000	67.181800
1027.000000	67.085100
1026.000000	66.986200
1025.000000	66.914300
1024.000000	66.812100
1023.000000	66.706900
1022.000000	66.620300
1021.000000	66.529900
1020.000000	66.427600
1019.000000	66.344800
1018.000000	66.286400
1017.000000	66.199100
1016.000000	66.137600
1015.000000	66.089200
1014.000000	66.034600
1013.000000	65.995900
1012.000000	65.978600
1011.000000	65.961200
1010.000000	65.967000
1009.000000	65.979700
1008.000000	65.977400
1007.000000	65.990300
1006.000000	66.000100
1005.000000	66.019200
1004.000000	66.041000
1003.000000	66.045600
1002.000000	66.042400
1001.000000	66.058900
1000.000000	66.092600
999.000000	66.112900
998.000000	66.123700
997.000000	66.145500
996.000000	66.183600
995.000000	66.224600
994.000000	66.261800
993.000000	66.288200
992.000000	66.302500
991.000000	66.346800
990.000000	66.395100
989.000000	66.432300
988.000000	66.471100
987.000000	66.536000
986.000000	66.587300
985.000000	66.653200
984.000000	66.716600
983.000000	66.787400
982.000000	66.833400
981.000000	66.903100
980.000000	66.967000
979.000000	67.033700
978.000000	67.092200
977.000000	67.163300
976.000000	67.225700
975.000000	67.305600
974.000000	67.375400
973.000000	67.465500
972.000000	67.537600
971.000000	67.608600
970.000000	67.718600
969.000000	67.796000
968.000000	67.874300
967.000000	67.937600
966.000000	68.042700
965.000000	68.119700
964.000000	68.224400
963.000000	68.328800
962.000000	68.423500
961.000000	68.537000
960.000000	68.649300
959.000000	68.779500
958.000000	68.878800
957.000000	69.000500
956.000000	69.108100
955.000000	69.236400
954.000000	69.338200
953.000000	69.431500
952.000000	69.519500
951.000000	69.601800
950.000000	69.702200
949.000000	69.803000
948.000000	69.897600
947.000000	69.989500
946.000000	70.082600
945.000000	70.164100
944.000000	70.281200
943.000000	70.363200
942.000000	70.454900
941.000000	70.566800
940.000000	70.664600
939.000000	70.753300
938.000000	70.885500
937.000000	70.990900
936.000000	71.106600
935.000000	71.214100
934.000000	71.331000
933.000000	71.447100
932.000000	71.572900
931.000000	71.671700
930.000000	71.756000
929.000000	71.856100
928.000000	71.961100
927.000000	72.053600
926.000000	72.191100
925.000000	72.270200
924.000000	72.363100
923.000000	72.483100
922.000000	72.601600
921.000000	72.730800
920.000000	72.819200
919.000000	72.895900
918.000000	73.018500
917.000000	73.126000
916.000000	73.242200
915.000000	73.347100
914.000000	73.420500
913.000000	73.511200
912.000000	73.616900
911.000000	73.744800
910.000000	73.844100
909.000000	73.956400
908.000000	74.066500
907.000000	74.205500
906.000000	74.346200
905.000000	74.506500
904.000000	74.626000
903.000000	74.772800
902.000000	74.953000
901.000000	75.132100
900.000000	75.310200
899.000000	75.464200
898.000000	75.647400
897.000000	75.804200
896.000000	75.985100
895.000000	76.174300
894.000000	76.331800
893.000000	76.520500
892.000000	76.692900
891.000000	76.879400
890.000000	77.047200
889.000000	77.242000
888.000000	77.408600
887.000000	77.583700
886.000000	77.756800
885.000000	77.944700
884.000000	78.144700
883.000000	78.357000
882.000000	78.526500
881.000000	78.720600
880.000000	78.940100
879.000000	79.139600
878.000000	79.357800
877.000000	79.569300
876.000000	79.796100
875.000000	80.003200
874.000000	80.249800
873.000000	80.466100
872.000000	80.702000
871.000000	80.929200
870.000000	81.166600
869.000000	81.369100
868.000000	81.600000
867.000000	81.813300
866.000000	82.018700
865.000000	82.217300
864.000000	82.417100
863.000000	82.589900
862.000000	82.749200
861.000000	82.856600
860.000000	82.928100
859.000000	82.969300
858.000000	83.219200
857.000000	82.994560
856.000000	83.400728
855.000000	83.795362
854.000000	84.051189
853.000000	83.959210
852.000000	84.166730
851.000000	84.703030
850.000000	84.958265
849.000000	85.030232
848.000000	85.683748
847.000000	86.299705
846.000000	86.418302
845.000000	86.959925
844.000000	86.796768
843.000000	87.329420
842.000000	87.419526
841.000000	88.004428
840.000000	87.873705
839.000000	88.398175
838.000000	88.629060
837.000000	88.874338
836.000000	89.223820
835.000000	89.521249
834.000000	89.757162
833.000000	90.027875
832.000000	90.360894
831.000000	90.680998
830.000000	90.879251
829.000000	91.452323
828.000000	91.726782
827.000000	91.649393
826.000000	92.163512
825.000000	92.416085
824.000000	92.653674
823.000000	93.077292
822.000000	93.201705
821.000000	93.573862
820.000000	93.869517
819.000000	94.015816
818.000000	94.119330
817.000000	94.316302
816.000000	94.588297
815.000000	94.815830
814.000000	95.020885
813.000000	95.046616
812.000000	95.293077
811.000000	95.454657
810.000000	95.508090
809.000000	95.577592
808.000000	95.549496
807.000000	95.529089
806.000000	95.602435
805.000000	95.725272
804.000000	95.791816
803.000000	95.758100
802.000000	95.772691
801.000000	95.803745
800.000000	95.745580
799.000000	95.629842
798.000000	95.565171
797.000000	95.545947
796.000000	95.490542
795.000000	95.423307
794.000000	95.312597
793.000000	95.143820
792.000000	95.150918
791.000000	95.024237
790.000000	94.897260
789.000000	94.743863
788.000000	94.718231
787.000000	94.591846
786.000000	94.546497
785.000000	94.412323
784.000000	94.178086
783.000000	94.113119
782.000000	93.994128
781.000000	93.998268
780.000000	93.979931
779.000000	93.855616
778.000000	93.729921
777.000000	93.578101
776.000000	93.526640
775.000000	93.444322
774.000000	93.342188
773.000000	93.247941
772.000000	93.193917
771.000000	93.206043
770.000000	93.135752
769.000000	93.023464
768.000000	92.908515
767.000000	92.855476
766.000000	92.799973
765.000000	92.644210
764.000000	92.469222
763.000000	92.362160
762.000000	92.259040
761.000000	92.102291
760.000000	91.918036
759.000000	91.847943
758.000000	91.708347
757.000000	91.484954
756.000000	91.344767
755.000000	91.184666
754.000000	90.935050
753.000000	90.715502
752.000000	90.584582
751.000000	90.358725
750.000000	90.171316
749.000000	90.060901
748.000000	89.769978
747.000000	89.427791
746.000000	89.297857
745.000000	89.105420
744.000000	88.783542
743.000000	88.445101
742.000000	88.152798
741.000000	87.899534
740.000000	87.497802
739.000000	87.067382
738.000000	86.717999
737.000000	86.276340
736.000000	85.855384
735.000000	85.347871
734.000000	84.832767
733.000000	84.277835
732.000000	83.714523
731.000000	83.125382
730.000000	82.527762
729.000000	81.896427
728.000000	81.253656
727.000000	80.623405
726.000000	80.007745
725.000000	79.409238
724.000000	78.732554
723.000000	78.080023
722.000000	77.476587
721.000000	76.865955
720.000000	76.275335
719.000000	75.770681
718.000000	75.241775
717.000000	74.759598
716.000000	74.326122
715.000000	73.860507
714.000000	73.449114
713.000000	73.133151
712.000000	72.843214
711.000000	72.577725
710.000000	72.335405
709.000000	72.100478
708.000000	71.861016
707.000000	71.678142
706.000000	71.540715
705.000000	71.382388
704.000000	71.287057
703.000000	71.183247
702.000000	71.116013
701.000000	71.038230
700.000000	70.864228
699.000000	70.773727
698.000000	70.660059
697.000000	70.575277
696.000000	70.401669
695.000000	70.223133
694.000000	70.043413
693.000000	69.843780
692.000000	69.638231
691.000000	69.393445
690.000000	69.129338
689.000000	68.849358
688.000000	68.549858
687.000000	68.173363
686.000000	67.770941
685.000000	67.431219
684.000000	67.050289
683.000000	66.642543
682.000000	66.204335
681.000000	65.783872
680.000000	65.309286
679.000000	64.892964
678.000000	64.506907
677.000000	64.072346
676.000000	63.661544
675.000000	63.330793
674.000000	63.060968
673.000000	62.739188
672.000000	62.486318
671.000000	62.264503
670.000000	62.008676
669.000000	61.873320
668.000000	61.793269
667.000000	61.677432
666.000000	61.625971
665.000000	61.577961
664.000000	61.563469
663.000000	61.564257
662.000000	61.606550
661.000000	61.616704
660.000000	61.651702
659.000000	61.695868
658.000000	61.746343
657.000000	61.754328
656.000000	61.795832
655.000000	61.800170
654.000000	61.773257
653.000000	61.712627
652.000000	61.641745
651.000000	61.497516
650.000000	61.475433
649.000000	61.352596
648.000000	61.188552
647.000000	61.025592
646.000000	60.867265
645.000000	60.768976
644.000000	60.648604
643.000000	60.472434
642.000000	60.373652
641.000000	60.226564
640.000000	60.117332
639.000000	60.001397
638.000000	59.945105
637.000000	59.903305
636.000000	59.942148
635.000000	59.963639
634.000000	60.006523
633.000000	60.123247
632.000000	60.353147
631.000000	60.609466
630.000000	60.932725
629.000000	61.313655
628.000000	61.685615
627.000000	62.176171
626.000000	62.652828
625.000000	63.252123
624.000000	63.826378
623.000000	64.475853
622.000000	65.117342
621.000000	65.733397
620.000000	66.474259
619.000000	67.201320
618.000000	67.884807
617.000000	68.560012
616.000000	69.219838
615.000000	69.900663
614.000000	70.543040
613.000000	71.187979
612.000000	71.731969
611.000000	72.271128
610.000000	72.836411
609.000000	73.294435
608.000000	73.735403
607.000000	74.195004
606.000000	74.550106
605.000000	74.967414
604.000000	75.279138
603.000000	75.642028
602.000000	75.953654
601.000000	76.282827
600.000000	76.586665
599.000000	76.868518
598.000000	77.053265
597.000000	77.277151
596.000000	77.509120
595.000000	77.694163
594.000000	77.885812
593.000000	78.075094
592.000000	78.272854
591.000000	78.429900
590.000000	78.648461
589.000000	78.799000
588.000000	78.953482
587.000000	79.054728
586.000000	79.196296
585.000000	79.225575
584.000000	79.258010
583.000000	79.248447
582.000000	79.254165
581.000000	79.205070
580.000000	79.161298
579.000000	79.109738
578.000000	79.052264
577.000000	78.975861
576.000000	78.876980
575.000000	78.743201
574.000000	78.596902
573.000000	78.423985
572.000000	78.175157
571.000000	77.965468
570.000000	77.720683
569.000000	77.502712
568.000000	77.267785
567.000000	77.025169
566.000000	76.805621
565.000000	76.531556
564.000000	76.259759
563.000000	75.949612
562.000000	75.625367
561.000000	75.282687
560.000000	74.902151
559.000000	74.438508
558.000000	74.041410
557.000000	73.662254
556.000000	73.282506
555.000000	72.842819
554.000000	72.344277
553.000000	71.826511
552.000000	71.259552
551.000000	70.667453
550.000000	70.086495
549.000000	69.438301
548.000000	68.795136
547.000000	68.149802
546.000000	67.477357
545.000000	66.801461
544.000000	66.074400
543.000000	65.329299
542.000000	64.589225
541.000000	63.845996
540.000000	63.059489
539.000000	62.269235
538.000000	61.508951
537.000000	60.682813
536.000000	59.851351
535.000000	58.986272
534.000000	58.127700
533.000000	57.227722
532.000000	56.313252
531.000000	55.394641
530.000000	54.473862
529.000000	53.579897
528.000000	52.675779
527.000000	51.812770
526.000000	50.954197
525.000000	50.123623
524.000000	49.293837
523.000000	48.505851
522.000000	47.739750
521.000000	46.980058
520.000000	46.286417
519.000000	45.597213
518.000000	44.935711
517.000000	44.296193
516.000000	43.698771
515.000000	43.118700
514.000000	42.560908
513.000000	41.989808
512.000000	41.450551
511.000000	40.941066
510.000000	40.460664
509.000000	40.002936
508.000000	39.554968
507.000000	39.104042
506.000000	38.651539
505.000000	38.236301
504.000000	37.829246
503.000000	37.427908
502.000000	37.019867
501.000000	36.665061
500.000000	36.322973
499.000000	35.973589
498.000000	35.634754
497.000000	35.328255
496.000000	35.067499
495.000000	34.798166
494.000000	34.548156
493.000000	34.324369
492.000000	34.079386
491.000000	33.866740
490.000000	33.644727
489.000000	33.458403
488.000000	33.274148
487.000000	33.094724
486.000000	32.909583
485.000000	32.728187
484.000000	32.528948
483.000000	32.324188
482.000000	32.115977
481.000000	31.885585
480.000000	31.660024
479.000000	31.420463
478.000000	31.176763
477.000000	30.921429
476.000000	30.648645
475.000000	30.386115
474.000000	30.110275
473.000000	29.842717
472.000000	29.594087
471.000000	29.321698
470.000000	29.056111
469.000000	28.819015
468.000000	28.577680
467.000000	28.367498
466.000000	28.167470
465.000000	27.986863
464.000000	27.815523
463.000000	27.666661
462.000000	27.537318
461.000000	27.413890
460.000000	27.312545
459.000000	27.220566
458.000000	27.146923
457.000000	27.101081
456.000000	27.068056
455.000000	27.026650
454.000000	26.990568
453.000000	26.965429
452.000000	26.948177
451.000000	26.919094
450.000000	26.894744
449.000000	26.882914
448.000000	26.854423
447.000000	26.795174
446.000000	26.747064
445.000000	26.702800
444.000000	26.644339
443.000000	26.579569
442.000000	26.491928
441.000000	26.396498
440.000000	26.278394
439.000000	26.144812
438.000000	26.035284
437.000000	25.886816
436.000000	25.717546
435.000000	25.546108
434.000000	25.339573
433.000000	25.112632
432.000000	24.890126
431.000000	24.666044
430.000000	24.423822
429.000000	24.154291
428.000000	23.871650
427.000000	23.580530
426.000000	23.289705
425.000000	22.968813
424.000000	22.616669
423.000000	22.272017
422.000000	21.904396
421.000000	21.510452
420.000000	21.111086
419.000000	20.689933
418.000000	20.259119
417.000000	19.826924
416.000000	19.376393
415.000000	18.912553
414.000000	18.443290
413.000000	17.965155
412.000000	17.483373
411.000000	16.996168
410.000000	16.502851
409.000000	16.036349
408.000000	15.546286
407.000000	15.059475
406.000000	14.583016
405.000000	14.110008
404.000000	13.665096
403.000000	13.206776
402.000000	12.749344
401.000000	12.316953
400.000000	11.917587
399.000000	11.536459
398.000000	11.165190
397.000000	10.802892
396.000000	10.464944
395.000000	10.134587
394.000000	9.818624
393.000000	9.522969
392.000000	9.252847
391.000000	8.990810
390.000000	8.747602
389.000000	8.522730
388.000000	8.304464
387.000000	8.112914
386.000000	7.932899
385.000000	7.758897
384.000000	7.605401
383.000000	7.465116
382.000000	7.316943
381.000000	7.195487
380.000000	7.079946
379.000000	6.980770
378.000000	6.888889
377.000000	6.802135
376.000000	6.710747
375.000000	6.495734
374.000000	6.371320
373.000000	6.413514
372.000000	6.396361
371.000000	6.399220
370.000000	6.338393
369.000000	6.239217
368.000000	6.197417
367.000000	6.256469
366.000000	6.215064
365.000000	6.076947
364.000000	6.052892
363.000000	6.049047
362.000000	5.962983
361.000000	5.987334
360.000000	5.930056
359.000000	5.878792
358.000000	5.864004
357.000000	5.822303
356.000000	5.770546
355.000000	5.767786
354.000000	5.762364
353.000000	5.682806
352.000000	5.594671
351.000000	5.529113
350.000000	5.496383
349.000000	5.546266
348.000000	5.514029
347.000000	5.481299
346.000000	5.453400
345.000000	5.466709
344.000000	5.436838
343.000000	5.405981
342.000000	5.429641
341.000000	5.358167
340.000000	5.418107
339.000000	5.418205
338.000000	5.510875
337.000000	5.399967
336.000000	5.508706
335.000000	5.461188
334.000000	5.522113
333.000000	5.505058
332.000000	5.588263
331.000000	5.343971
330.000000	5.395531
329.000000	5.631443
328.000000	5.337267
327.000000	5.239669
326.000000	5.407459
325.000000	5.427965
324.000000	5.272694
323.000000	5.234937
322.000000	5.499143
321.000000	5.540647
320.000000	5.412783
319.000000	5.488693
318.000000	5.370096
317.000000	5.590137
316.000000	5.341211
315.000000	5.316762
314.000000	5.264019
313.000000	5.286989
312.000000	5.312030
311.000000	5.282356
310.000000	5.328296
309.000000	5.319522
308.000000	5.304439
307.000000	5.318043
306.000000	5.292806
305.000000	5.330366
304.000000	5.256822
303.000000	5.302171
302.000000	5.328690
301.000000	5.345548
300.000000	5.307593
299.000000	5.293594
298.000000	5.333817
297.000000	5.292904
296.000000	5.289947
295.000000	5.355111
294.000000	5.365167
293.000000	5.317846
292.000000	5.360040
291.000000	5.366054
290.000000	5.336084
289.000000	5.399770
288.000000	5.370885
287.000000	5.356393
286.000000	5.398094
285.000000	5.373251
284.000000	5.406079
283.000000	5.366843
282.000000	5.446499
281.000000	5.465230
280.000000	5.428852
279.000000	5.449161
278.000000	5.487411
277.000000	5.463653
276.000000	5.477454
275.000000	5.477849
274.000000	5.490369
273.000000	5.520043
272.000000	5.516592
271.000000	5.539661
270.000000	5.583729
269.000000	5.537591
268.000000	5.587672
267.000000	5.566378
266.000000	5.618726
265.000000	5.652935
264.000000	5.634204
263.000000	5.680243
262.000000	5.730127
261.000000	5.719578
260.000000	5.748266
259.000000	5.741858
258.000000	5.806431
257.000000	5.759110
256.000000	5.831964
255.000000	5.811557
254.000000	5.822007
253.000000	5.826542
252.000000	5.849414
251.000000	5.810572
250.000000	5.834330
