PE UV       SUBTECH     SPECTRUM    ASCII       PEDS        4.00        
   -1
CICIMAUCR0021-3.Sample.ASC
24/04/17
14:19:58.00
24/04/17
14:19:58.00
Vinicio Soto Monge
C. resplendens. 
250,000000
1
Lambda 1050
1050L1511233
PerkinElmer UV WinLab 6.3.2.0749 / 2.02.05 Lambda 900 UV/VIS/NIR, Aug  7 2015 09:38:08

0
0
3350/servo 860,8/2
0
0
UV/VIS
1
1
1
DoubleDePol,CommonBeamDepol,RBeamAtt,SBeamAtt,60mm sphere, WB InGaAs Detector
0
0
0
0
Program
Program
3350/servo 860,8/2
3350/0,2 860,8/0,2
3350/0,2 860,8/0,2
0
15.00
 
 
 
0
 
860,8
319,2
860,8
Front
100
on
S:100 R:100
0
0
0
0
 
0
 
 
 
0
 
 
0
0
0
0
0
 
 
 
 
0
0


0
0
#HDR
-1
-1
#GR
nm
%R
1.0
0.0
2500,000000
-1,000000
2251
8
79,251800
5,023200
#DATA
2500.000000	10.446026
2499.000000	10.280421
2498.000000	10.267505
2497.000000	10.186202
2496.000000	10.026478
2495.000000	10.201886
2494.000000	10.022327
2493.000000	10.051850
2492.000000	10.039164
2491.000000	10.138342
2490.000000	9.987038
2489.000000	10.064996
2488.000000	9.915767
2487.000000	9.958437
2486.000000	9.965933
2485.000000	9.979542
2484.000000	9.976774
2483.000000	9.929491
2482.000000	9.910693
2481.000000	9.913346
2480.000000	9.938832
2479.000000	9.931106
2478.000000	9.935257
2477.000000	9.921188
2476.000000	9.961666
2475.000000	9.918766
2474.000000	9.915191
2473.000000	9.922226
2472.000000	9.927531
2471.000000	9.937564
2470.000000	9.967663
2469.000000	10.017368
2468.000000	9.957515
2467.000000	9.981848
2466.000000	9.975390
2465.000000	10.029477
2464.000000	10.061998
2463.000000	10.105014
2462.000000	10.133960
2461.000000	10.155064
2460.000000	10.228180
2459.000000	10.276962
2458.000000	10.337391
2457.000000	10.393439
2456.000000	10.468976
2455.000000	10.532519
2454.000000	10.617051
2453.000000	10.704928
2452.000000	10.755440
2451.000000	10.878836
2450.000000	10.964406
2449.000000	11.072349
2448.000000	11.125629
2447.000000	11.203473
2446.000000	11.294694
2445.000000	11.407480
2444.000000	11.461798
2443.000000	11.535720
2442.000000	11.620714
2441.000000	11.687025
2440.000000	11.791970
2439.000000	11.888842
2438.000000	11.949387
2437.000000	11.993902
2436.000000	12.100230
2435.000000	12.172307
2434.000000	12.230315
2433.000000	12.286939
2432.000000	12.357517
2431.000000	12.397765
2430.000000	12.438129
2429.000000	12.499596
2428.000000	12.564408
2427.000000	12.602234
2426.000000	12.629682
2425.000000	12.690572
2424.000000	12.732550
2423.000000	12.759767
2422.000000	12.793095
2421.000000	12.836572
2420.000000	12.870939
2419.000000	12.895387
2418.000000	12.929062
2417.000000	12.962621
2416.000000	12.988569
2415.000000	13.028817
2414.000000	13.063875
2413.000000	13.103893
2412.000000	13.153136
2411.000000	13.190040
2410.000000	13.215757
2409.000000	13.253006
2408.000000	13.302365
2407.000000	13.317472
2406.000000	13.342959
2405.000000	13.385859
2404.000000	13.415959
2403.000000	13.457245
2402.000000	13.504758
2401.000000	13.542469
2400.000000	13.583986
2399.000000	13.615584
2398.000000	13.656178
2397.000000	13.706459
2396.000000	13.753512
2395.000000	13.773809
2394.000000	13.779575
2393.000000	13.826742
2392.000000	13.874256
2391.000000	13.895014
2390.000000	13.930649
2389.000000	13.948063
2388.000000	13.965361
2387.000000	13.976548
2386.000000	13.983582
2385.000000	13.995000
2384.000000	13.997537
2383.000000	14.003188
2382.000000	14.010568
2381.000000	14.005840
2380.000000	14.001342
2379.000000	13.985658
2378.000000	13.976548
2377.000000	13.969167
2376.000000	13.958442
2375.000000	13.953944
2374.000000	13.923268
2373.000000	13.882789
2372.000000	13.856265
2371.000000	13.839889
2370.000000	13.802985
2369.000000	13.767235
2368.000000	13.719376
2367.000000	13.659984
2366.000000	13.606243
2365.000000	13.544314
2364.000000	13.480886
2363.000000	13.403158
2362.000000	13.320586
2361.000000	13.265577
2360.000000	13.209299
2359.000000	13.132608
2358.000000	13.056725
2357.000000	13.021321
2356.000000	12.995143
2355.000000	12.952473
2354.000000	12.932291
2353.000000	12.928716
2352.000000	12.939210
2351.000000	12.946707
2350.000000	12.991913
2349.000000	13.055457
2348.000000	13.090861
2347.000000	13.144025
2346.000000	13.212874
2345.000000	13.264769
2344.000000	13.351378
2343.000000	13.415498
2342.000000	13.468201
2341.000000	13.507526
2340.000000	13.550080
2339.000000	13.584101
2338.000000	13.598978
2337.000000	13.613047
2336.000000	13.607627
2335.000000	13.591828
2334.000000	13.585715
2333.000000	13.579603
2332.000000	13.550657
2331.000000	13.508333
2330.000000	13.430374
2329.000000	13.355875
2328.000000	13.317472
2327.000000	13.260733
2326.000000	13.178623
2325.000000	13.080251
2324.000000	12.988454
2323.000000	12.870478
2322.000000	12.770031
2321.000000	12.672467
2320.000000	12.560833
2319.000000	12.429595
2318.000000	12.291437
2317.000000	12.141401
2316.000000	11.997823
2315.000000	11.869237
2314.000000	11.748147
2313.000000	11.658079
2312.000000	11.554403
2311.000000	11.429392
2310.000000	11.355700
2309.000000	11.297692
2308.000000	11.256867
2307.000000	11.220541
2306.000000	11.248449
2305.000000	11.289389
2304.000000	11.309109
2303.000000	11.377611
2302.000000	11.462144
2301.000000	11.562706
2300.000000	11.680452
2299.000000	11.789894
2298.000000	11.893685
2297.000000	11.999553
2296.000000	12.118913
2295.000000	12.239541
2294.000000	12.310119
2293.000000	12.396843
2292.000000	12.458541
2291.000000	12.493599
2290.000000	12.505132
2289.000000	12.537307
2288.000000	12.543765
2287.000000	12.541113
2286.000000	12.521854
2285.000000	12.486911
2284.000000	12.437091
2283.000000	12.404108
2282.000000	12.360977
2281.000000	12.274254
2280.000000	12.242309
2279.000000	12.189029
2278.000000	12.122718
2277.000000	12.076473
2276.000000	12.036456
2275.000000	12.010162
2274.000000	11.992402
2273.000000	11.977410
2272.000000	11.967262
2271.000000	11.983868
2270.000000	12.018696
2269.000000	12.103690
2268.000000	12.151665
2267.000000	12.254303
2266.000000	12.391538
2265.000000	12.547225
2264.000000	12.738547
2263.000000	12.927332
2262.000000	13.165706
2261.000000	13.410423
2260.000000	13.688354
2259.000000	13.941489
2258.000000	14.243176
2257.000000	14.587879
2256.000000	14.861773
2255.000000	15.153081
2254.000000	15.474373
2253.000000	15.760376
2252.000000	16.054913
2251.000000	16.313930
2250.000000	16.549190
2249.000000	16.837846
2248.000000	17.027668
2247.000000	17.290030
2246.000000	17.476970
2245.000000	17.647072
2244.000000	17.833666
2243.000000	17.997657
2242.000000	18.139505
2241.000000	18.296460
2240.000000	18.397484
2239.000000	18.541754
2238.000000	18.672992
2237.000000	18.778168
2236.000000	18.860855
2235.000000	18.953460
2234.000000	19.018041
2233.000000	19.130713
2232.000000	19.164041
2231.000000	19.244306
2230.000000	19.262758
2229.000000	19.309118
2228.000000	19.305774
2227.000000	19.313385
2226.000000	19.355940
2225.000000	19.340602
2224.000000	19.332760
2223.000000	19.325840
2222.000000	19.310156
2221.000000	19.285708
2220.000000	19.248919
2219.000000	19.222626
2218.000000	19.178572
2217.000000	19.146512
2216.000000	19.131289
2215.000000	19.103957
2214.000000	19.042029
2213.000000	18.995438
2212.000000	19.003626
2211.000000	18.957381
2210.000000	18.924975
2209.000000	18.899027
2208.000000	18.888417
2207.000000	18.839635
2206.000000	18.799849
2205.000000	18.774823
2204.000000	18.755680
2203.000000	18.743225
2202.000000	18.720737
2201.000000	18.689368
2200.000000	18.690291
2199.000000	18.647967
2198.000000	18.638626
2197.000000	18.611525
2196.000000	18.618906
2195.000000	18.583847
2194.000000	18.544752
2193.000000	18.513269
2192.000000	18.518920
2191.000000	18.476942
2190.000000	18.441422
2189.000000	18.442460
2188.000000	18.416858
2187.000000	18.380070
2186.000000	18.358620
2185.000000	18.330942
2184.000000	18.308339
2183.000000	18.297383
2182.000000	18.261748
2181.000000	18.233263
2180.000000	18.203509
2179.000000	18.191285
2178.000000	18.197397
2177.000000	18.167990
2176.000000	18.143195
2175.000000	18.127857
2174.000000	18.113442
2173.000000	18.108252
2172.000000	18.124628
2171.000000	18.111366
2170.000000	18.125666
2169.000000	18.133047
2168.000000	18.138236
2167.000000	18.158418
2166.000000	18.185288
2165.000000	18.200280
2164.000000	18.204086
2163.000000	18.233263
2162.000000	18.267168
2161.000000	18.298998
2160.000000	18.318257
2159.000000	18.344550
2158.000000	18.405211
2157.000000	18.460681
2156.000000	18.506580
2155.000000	18.523648
2154.000000	18.580388
2153.000000	18.638165
2152.000000	18.690983
2151.000000	18.723043
2150.000000	18.769749
2149.000000	18.816225
2148.000000	18.876654
2147.000000	18.925090
2146.000000	18.954613
2145.000000	19.008239
2144.000000	19.067400
2143.000000	19.107071
2142.000000	19.145243
2141.000000	19.194717
2140.000000	19.239002
2139.000000	19.281441
2138.000000	19.302430
2137.000000	19.338526
2136.000000	19.368395
2135.000000	19.374622
2134.000000	19.408758
2133.000000	19.454657
2132.000000	19.484641
2131.000000	19.508859
2130.000000	19.527080
2129.000000	19.532962
2128.000000	19.531463
2127.000000	19.539535
2126.000000	19.557872
2125.000000	19.571711
2124.000000	19.569404
2123.000000	19.560294
2122.000000	19.553028
2121.000000	19.547147
2120.000000	19.535730
2119.000000	19.518200
2118.000000	19.505399
2117.000000	19.488216
2116.000000	19.470687
2115.000000	19.452235
2114.000000	19.430439
2113.000000	19.397687
2112.000000	19.386385
2111.000000	19.378197
2110.000000	19.345791
2109.000000	19.310733
2108.000000	19.287437
2107.000000	19.260913
2106.000000	19.239809
2105.000000	19.223317
2104.000000	19.192411
2103.000000	19.180417
2102.000000	19.170153
2101.000000	19.128406
2100.000000	19.095769
2099.000000	19.073281
2098.000000	19.050908
2097.000000	19.040875
2096.000000	19.023692
2095.000000	18.992901
2094.000000	18.985981
2093.000000	18.989441
2092.000000	18.970874
2091.000000	18.951615
2090.000000	18.944580
2089.000000	18.932010
2088.000000	18.910444
2087.000000	18.899604
2086.000000	18.887841
2085.000000	18.876539
2084.000000	18.877923
2083.000000	18.868812
2082.000000	18.844018
2081.000000	18.828103
2080.000000	18.795582
2079.000000	18.781512
2078.000000	18.753373
2077.000000	18.725234
2076.000000	18.701593
2075.000000	18.669648
2074.000000	18.641970
2073.000000	18.608988
2072.000000	18.584078
2071.000000	18.544637
2070.000000	18.526993
2069.000000	18.485591
2068.000000	18.451686
2067.000000	18.435656
2066.000000	18.408324
2065.000000	18.382377
2064.000000	18.361503
2063.000000	18.340860
2062.000000	18.303841
2061.000000	18.294731
2060.000000	18.304072
2059.000000	18.298536
2058.000000	18.315835
2057.000000	18.327367
2056.000000	18.346050
2055.000000	18.383645
2054.000000	18.436002
2053.000000	18.502083
2052.000000	18.601146
2051.000000	18.684294
2050.000000	18.793045
2049.000000	18.917940
2048.000000	19.013198
2047.000000	19.147550
2046.000000	19.309349
2045.000000	19.456617
2044.000000	19.625682
2043.000000	19.779293
2042.000000	19.915721
2041.000000	20.070025
2040.000000	20.264576
2039.000000	20.421877
2038.000000	20.553923
2037.000000	20.707880
2036.000000	20.838081
2035.000000	20.965398
2034.000000	21.116472
2033.000000	21.245750
2032.000000	21.366610
2031.000000	21.496349
2030.000000	21.596680
2029.000000	21.704162
2028.000000	21.791116
2027.000000	21.895138
2026.000000	21.987859
2025.000000	22.096378
2024.000000	22.162805
2023.000000	22.248029
2022.000000	22.334868
2021.000000	22.399218
2020.000000	22.486173
2019.000000	22.551215
2018.000000	22.595730
2017.000000	22.662618
2016.000000	22.716820
2015.000000	22.755454
2014.000000	22.817036
2013.000000	22.842062
2012.000000	22.875621
2011.000000	22.886923
2010.000000	22.889921
2009.000000	22.905144
2008.000000	22.903645
2007.000000	22.902376
2006.000000	22.891074
2005.000000	22.867894
2004.000000	22.854171
2003.000000	22.830068
2002.000000	22.792818
2001.000000	22.762027
2000.000000	22.744498
1999.000000	22.685221
1998.000000	22.622485
1997.000000	22.568052
1996.000000	22.501626
1995.000000	22.463223
1994.000000	22.379844
1993.000000	22.295888
1992.000000	22.210433
1991.000000	22.130399
1990.000000	22.035141
1989.000000	21.976788
1988.000000	21.877148
1987.000000	21.778546
1986.000000	21.686633
1985.000000	21.589530
1984.000000	21.494850
1983.000000	21.387137
1982.000000	21.290265
1981.000000	21.178862
1980.000000	21.087526
1979.000000	20.959978
1978.000000	20.895973
1977.000000	20.770270
1976.000000	20.674552
1975.000000	20.574797
1974.000000	20.488304
1973.000000	20.371711
1972.000000	20.270457
1971.000000	20.184426
1970.000000	20.094358
1969.000000	19.998408
1968.000000	19.868439
1967.000000	19.831535
1966.000000	19.719556
1965.000000	19.615880
1964.000000	19.543456
1963.000000	19.439550
1962.000000	19.369087
1961.000000	19.265526
1960.000000	19.186875
1959.000000	19.111569
1958.000000	18.996130
1957.000000	18.895106
1956.000000	18.812765
1955.000000	18.741610
1954.000000	18.663536
1953.000000	18.591920
1952.000000	18.505081
1951.000000	18.416282
1950.000000	18.332441
1949.000000	18.252753
1948.000000	18.212505
1947.000000	18.132701
1946.000000	18.079421
1945.000000	18.030870
1944.000000	17.982780
1943.000000	17.961906
1942.000000	17.893173
1941.000000	17.867687
1940.000000	17.862958
1939.000000	17.884293
1938.000000	17.883255
1937.000000	17.912548
1936.000000	17.949105
1935.000000	17.977244
1934.000000	18.000309
1933.000000	18.043094
1932.000000	18.104792
1931.000000	18.185750
1930.000000	18.256558
1929.000000	18.379724
1928.000000	18.520880
1927.000000	18.660192
1926.000000	18.806537
1925.000000	18.978139
1924.000000	19.097269
1923.000000	19.196562
1922.000000	19.392959
1921.000000	19.665238
1920.000000	19.948704
1919.000000	20.198956
1918.000000	20.387626
1917.000000	20.602474
1916.000000	20.786877
1915.000000	20.995498
1914.000000	21.304450
1913.000000	21.674755
1912.000000	22.036410
1911.000000	22.361969
1910.000000	22.647395
1909.000000	22.851403
1908.000000	23.087701
1907.000000	23.424793
1906.000000	23.806630
1905.000000	24.285569
1904.000000	24.736139
1903.000000	25.086147
1902.000000	25.447110
1901.000000	25.779473
1900.000000	26.216550
1899.000000	26.744272
1898.000000	27.186654
1897.000000	27.631803
1896.000000	27.982042
1895.000000	28.269774
1894.000000	28.611133
1893.000000	29.010038
1892.000000	29.471794
1891.000000	29.962843
1890.000000	30.413874
1889.000000	30.813586
1888.000000	31.255968
1887.000000	31.635729
1886.000000	32.059313
1885.000000	32.547133
1884.000000	33.129864
1883.000000	33.739234
1882.000000	34.336266
1881.000000	34.880709
1880.000000	35.429073
1879.000000	35.899825
1878.000000	36.389144
1877.000000	36.842481
1876.000000	37.268487
1875.000000	37.702451
1874.000000	38.085095
1873.000000	38.460243
1872.000000	38.801140
1871.000000	39.113437
1870.000000	39.409242
1869.000000	39.663647
1868.000000	39.884722
1867.000000	40.013424
1866.000000	40.076736
1865.000000	40.138319
1864.000000	40.173954
1863.000000	40.204169
1862.000000	40.215240
1861.000000	40.269904
1860.000000	40.333101
1859.000000	40.372542
1858.000000	40.399412
1857.000000	40.405755
1856.000000	40.362739
1855.000000	40.317532
1854.000000	40.310382
1853.000000	40.250299
1852.000000	40.171994
1851.000000	40.089191
1850.000000	39.993127
1849.000000	39.930160
1848.000000	39.920242
1847.000000	39.949304
1846.000000	39.897869
1845.000000	39.763863
1844.000000	39.601256
1843.000000	39.497465
1842.000000	39.501732
1841.000000	39.525719
1840.000000	39.485933
1839.000000	39.417546
1838.000000	39.345468
1837.000000	39.297724
1836.000000	39.245137
1835.000000	39.196585
1834.000000	39.096023
1833.000000	38.937107
1832.000000	38.807252
1831.000000	38.722605
1830.000000	38.654218
1829.000000	38.561151
1828.000000	38.448826
1827.000000	38.359796
1826.000000	38.314474
1825.000000	38.236284
1824.000000	38.119346
1823.000000	38.015093
1822.000000	38.000447
1821.000000	38.029970
1820.000000	38.032623
1819.000000	38.011864
1818.000000	37.959161
1817.000000	37.894811
1816.000000	37.876474
1815.000000	37.882356
1814.000000	37.858368
1813.000000	37.829422
1812.000000	37.810740
1811.000000	37.797016
1810.000000	37.733588
1809.000000	37.665086
1808.000000	37.613421
1807.000000	37.572481
1806.000000	37.538576
1805.000000	37.482759
1804.000000	37.405953
1803.000000	37.332146
1802.000000	37.274830
1801.000000	37.244846
1800.000000	37.186146
1799.000000	37.096540
1798.000000	37.039339
1797.000000	36.974066
1796.000000	36.931165
1795.000000	36.871197
1794.000000	36.822992
1793.000000	36.763023
1792.000000	36.708821
1791.000000	36.637320
1790.000000	36.555441
1789.000000	36.488783
1788.000000	36.423626
1787.000000	36.352471
1786.000000	36.283507
1785.000000	36.191018
1784.000000	36.120555
1783.000000	36.019877
1782.000000	35.912280
1781.000000	35.820136
1780.000000	35.725571
1779.000000	35.631005
1778.000000	35.528944
1777.000000	35.428266
1776.000000	35.297143
1775.000000	35.162330
1774.000000	35.014715
1773.000000	34.874597
1772.000000	34.715796
1771.000000	34.544886
1770.000000	34.398194
1769.000000	34.261882
1768.000000	34.114729
1767.000000	33.970574
1766.000000	33.869781
1765.000000	33.790553
1764.000000	33.726203
1763.000000	33.701062
1762.000000	33.709366
1761.000000	33.726203
1760.000000	33.800010
1759.000000	33.904609
1758.000000	33.975763
1757.000000	34.037923
1756.000000	34.103312
1755.000000	34.156937
1754.000000	34.178733
1753.000000	34.185537
1752.000000	34.177695
1751.000000	34.131566
1750.000000	34.069060
1749.000000	34.005056
1748.000000	33.914296
1747.000000	33.798626
1746.000000	33.673039
1745.000000	33.506050
1744.000000	33.306655
1743.000000	33.103685
1742.000000	32.860352
1741.000000	32.579423
1740.000000	32.290191
1739.000000	32.000844
1738.000000	31.750246
1737.000000	31.503568
1736.000000	31.318012
1735.000000	31.200151
1734.000000	31.142374
1733.000000	31.111006
1732.000000	31.183083
1731.000000	31.269691
1730.000000	31.387206
1729.000000	31.513140
1728.000000	31.672517
1727.000000	31.796375
1726.000000	31.923231
1725.000000	32.021833
1724.000000	32.097370
1723.000000	32.172907
1722.000000	32.191359
1721.000000	32.198278
1720.000000	32.253288
1719.000000	32.286501
1718.000000	32.346123
1717.000000	32.405976
1716.000000	32.464100
1715.000000	32.545057
1714.000000	32.643197
1713.000000	32.713314
1712.000000	32.796463
1711.000000	32.870385
1710.000000	32.882725
1709.000000	32.894488
1708.000000	32.882494
1707.000000	32.868886
1706.000000	32.820565
1705.000000	32.796001
1704.000000	32.687020
1703.000000	32.620248
1702.000000	32.494430
1701.000000	32.320291
1700.000000	32.135773
1699.000000	31.964632
1698.000000	31.739751
1697.000000	31.571148
1696.000000	31.497456
1695.000000	31.454325
1694.000000	31.512563
1693.000000	31.648761
1692.000000	31.800757
1691.000000	32.015721
1690.000000	32.203699
1689.000000	32.395482
1688.000000	32.494314
1687.000000	32.539637
1686.000000	32.545518
1685.000000	32.590494
1684.000000	32.691403
1683.000000	32.883417
1682.000000	33.288203
1681.000000	33.820538
1680.000000	34.416762
1679.000000	35.124965
1678.000000	35.820021
1677.000000	36.416591
1676.000000	36.975911
1675.000000	37.485411
1674.000000	37.890313
1673.000000	38.218755
1672.000000	38.574990
1671.000000	38.828818
1670.000000	39.099713
1669.000000	39.303145
1668.000000	39.481435
1667.000000	39.677601
1666.000000	39.805034
1665.000000	39.922779
1664.000000	40.015961
1663.000000	40.098417
1662.000000	40.175223
1661.000000	40.262869
1660.000000	40.320992
1659.000000	40.358934
1658.000000	40.420978
1657.000000	40.451884
1656.000000	40.463878
1655.000000	40.465839
1654.000000	40.430780
1653.000000	40.411982
1652.000000	40.394915
1651.000000	40.364815
1650.000000	40.338867
1649.000000	40.303693
1648.000000	40.254681
1647.000000	40.205092
1646.000000	40.155618
1645.000000	40.086769
1644.000000	40.026224
1643.000000	39.957492
1642.000000	39.899830
1641.000000	39.827637
1640.000000	39.758212
1639.000000	39.688441
1638.000000	39.622361
1637.000000	39.540596
1636.000000	39.469211
1635.000000	39.368994
1634.000000	39.292765
1633.000000	39.188859
1632.000000	39.107671
1631.000000	39.030173
1630.000000	38.962478
1629.000000	38.841388
1628.000000	38.741172
1627.000000	38.644069
1626.000000	38.563804
1625.000000	38.451133
1624.000000	38.344573
1623.000000	38.246318
1622.000000	38.139066
1621.000000	38.059839
1620.000000	37.976460
1619.000000	37.897002
1618.000000	37.802667
1617.000000	37.709370
1616.000000	37.627836
1615.000000	37.555067
1614.000000	37.451045
1613.000000	37.358094
1612.000000	37.269410
1611.000000	37.201369
1610.000000	37.133328
1609.000000	37.053755
1608.000000	36.978563
1607.000000	36.886189
1606.000000	36.797044
1605.000000	36.728080
1604.000000	36.630862
1603.000000	36.548867
1602.000000	36.469178
1601.000000	36.391104
1600.000000	36.307379
1599.000000	36.235187
1598.000000	36.182830
1597.000000	36.097144
1596.000000	36.018493
1595.000000	35.947108
1594.000000	35.886678
1593.000000	35.830054
1592.000000	35.769048
1591.000000	35.696394
1590.000000	35.636080
1589.000000	35.603212
1588.000000	35.565271
1587.000000	35.517411
1586.000000	35.464939
1585.000000	35.427690
1584.000000	35.399551
1583.000000	35.353998
1582.000000	35.328626
1581.000000	35.308675
1580.000000	35.276500
1579.000000	35.260355
1578.000000	35.258048
1577.000000	35.238789
1576.000000	35.220222
1575.000000	35.225296
1574.000000	35.240288
1573.000000	35.254819
1572.000000	35.267736
1571.000000	35.277769
1570.000000	35.290339
1569.000000	35.321246
1568.000000	35.345118
1567.000000	35.364838
1566.000000	35.392862
1565.000000	35.428843
1564.000000	35.458481
1563.000000	35.489964
1562.000000	35.509223
1561.000000	35.529982
1560.000000	35.569999
1559.000000	35.591795
1558.000000	35.595255
1557.000000	35.598715
1556.000000	35.606557
1555.000000	35.613822
1554.000000	35.617743
1553.000000	35.619127
1552.000000	35.619127
1551.000000	35.590527
1550.000000	35.571614
1549.000000	35.557198
1548.000000	35.537708
1547.000000	35.518911
1546.000000	35.505764
1545.000000	35.501958
1544.000000	35.493539
1543.000000	35.483622
1542.000000	35.473012
1541.000000	35.456290
1540.000000	35.441644
1539.000000	35.426536
1538.000000	35.429881
1537.000000	35.433456
1536.000000	35.426421
1535.000000	35.408661
1534.000000	35.393784
1533.000000	35.367491
1532.000000	35.362647
1531.000000	35.353075
1530.000000	35.326781
1529.000000	35.312596
1528.000000	35.284573
1527.000000	35.237867
1526.000000	35.200271
1525.000000	35.167058
1524.000000	35.146992
1523.000000	35.110549
1522.000000	35.078605
1521.000000	35.044123
1520.000000	35.005374
1519.000000	34.976428
1518.000000	34.932028
1517.000000	34.895240
1516.000000	34.862834
1515.000000	34.809324
1514.000000	34.775764
1513.000000	34.744742
1512.000000	34.683275
1511.000000	34.644065
1510.000000	34.603355
1509.000000	34.551460
1508.000000	34.501409
1507.000000	34.470848
1506.000000	34.436597
1505.000000	34.389199
1504.000000	34.342032
1503.000000	34.311702
1502.000000	34.284831
1501.000000	34.252194
1500.000000	34.223825
1499.000000	34.206296
1498.000000	34.184961
1497.000000	34.171814
1496.000000	34.149441
1495.000000	34.149095
1494.000000	34.140676
1493.000000	34.142522
1492.000000	34.151517
1491.000000	34.164433
1490.000000	34.180117
1489.000000	34.208141
1488.000000	34.215522
1487.000000	34.224517
1486.000000	34.218635
1485.000000	34.262458
1484.000000	34.280795
1483.000000	34.312970
1482.000000	34.337188
1481.000000	34.375476
1480.000000	34.385163
1479.000000	34.419183
1478.000000	34.483649
1477.000000	34.531047
1476.000000	34.566221
1475.000000	34.608545
1474.000000	34.654444
1473.000000	34.710030
1472.000000	34.748779
1471.000000	34.820164
1470.000000	34.850264
1469.000000	34.900545
1468.000000	34.941715
1467.000000	35.002376
1466.000000	35.075030
1465.000000	35.110895
1464.000000	35.161407
1463.000000	35.269465
1462.000000	35.326897
1461.000000	35.412928
1460.000000	35.522024
1459.000000	35.604596
1458.000000	35.686591
1457.000000	35.804106
1456.000000	35.912626
1455.000000	36.025874
1454.000000	36.146272
1453.000000	36.275319
1452.000000	36.431122
1451.000000	36.543793
1450.000000	36.702478
1449.000000	36.830488
1448.000000	36.913521
1447.000000	37.068977
1446.000000	37.236197
1445.000000	37.416448
1444.000000	37.539152
1443.000000	37.671659
1442.000000	37.834381
1441.000000	38.039427
1440.000000	38.157403
1439.000000	38.318972
1438.000000	38.496801
1437.000000	38.680396
1436.000000	38.817055
1435.000000	38.949331
1434.000000	39.159566
1433.000000	39.332552
1432.000000	39.524220
1431.000000	39.699512
1430.000000	39.851509
1429.000000	40.058861
1428.000000	40.319032
1427.000000	40.532496
1426.000000	40.793819
1425.000000	41.067829
1424.000000	41.341607
1423.000000	41.612387
1422.000000	41.867484
1421.000000	42.136419
1420.000000	42.463362
1419.000000	42.795840
1418.000000	43.066505
1417.000000	43.290694
1416.000000	43.580157
1415.000000	43.882651
1414.000000	44.256415
1413.000000	44.496981
1412.000000	44.722093
1411.000000	45.029085
1410.000000	45.369636
1409.000000	45.826087
1408.000000	46.187396
1407.000000	46.610058
1406.000000	47.041830
1405.000000	47.501857
1404.000000	47.921635
1403.000000	48.371052
1402.000000	48.708489
1401.000000	49.221795
1400.000000	49.733371
1399.000000	50.030215
1398.000000	50.223036
1397.000000	50.461180
1396.000000	50.817530
1395.000000	51.105609
1394.000000	51.236040
1393.000000	51.360128
1392.000000	51.575553
1391.000000	51.759494
1390.000000	51.928328
1389.000000	52.146982
1388.000000	52.486034
1387.000000	52.775381
1386.000000	53.062307
1385.000000	53.429037
1384.000000	53.873956
1383.000000	54.233766
1382.000000	54.596459
1381.000000	54.854323
1380.000000	54.940354
1379.000000	55.064673
1378.000000	55.127294
1377.000000	55.189915
1376.000000	55.328880
1375.000000	55.511784
1374.000000	55.706681
1373.000000	56.022322
1372.000000	56.365064
1371.000000	56.731448
1370.000000	57.047204
1369.000000	57.336897
1368.000000	57.638469
1367.000000	57.870270
1366.000000	58.070472
1365.000000	58.285897
1364.000000	58.494979
1363.000000	58.656663
1362.000000	58.856057
1361.000000	58.957081
1360.000000	58.974610
1359.000000	58.977955
1358.000000	59.092817
1357.000000	59.227630
1356.000000	59.466697
1355.000000	59.845074
1354.000000	60.295874
1353.000000	60.746790
1352.000000	61.224577
1351.000000	61.702017
1350.000000	62.155009
1349.000000	62.552876
1348.000000	62.922488
1347.000000	63.269382
1346.000000	63.567494
1345.000000	63.877138
1344.000000	64.179863
1343.000000	64.443724
1342.000000	64.693285
1341.000000	64.953455
1340.000000	65.190561
1339.000000	65.398720
1338.000000	65.627638
1337.000000	65.837296
1336.000000	66.028734
1335.000000	66.222132
1334.000000	66.381394
1333.000000	66.545038
1332.000000	66.712834
1331.000000	66.860449
1330.000000	67.002182
1329.000000	67.135035
1328.000000	67.263044
1327.000000	67.380444
1326.000000	67.487695
1325.000000	67.590333
1324.000000	67.683053
1323.000000	67.760435
1322.000000	67.834819
1321.000000	67.921197
1320.000000	68.001577
1319.000000	68.071579
1318.000000	68.131547
1317.000000	68.190016
1316.000000	68.252868
1315.000000	68.303149
1314.000000	68.359542
1313.000000	68.396677
1312.000000	68.422278
1311.000000	68.461143
1310.000000	68.504966
1309.000000	68.541177
1308.000000	68.550057
1307.000000	68.560090
1306.000000	68.575890
1305.000000	68.585577
1304.000000	68.589037
1303.000000	68.581195
1302.000000	68.578312
1301.000000	68.570931
1300.000000	68.555362
1299.000000	68.534834
1298.000000	68.507041
1297.000000	68.499315
1296.000000	68.477749
1295.000000	68.444882
1294.000000	68.408094
1293.000000	68.366808
1292.000000	68.335786
1291.000000	68.305110
1290.000000	68.267283
1289.000000	68.216887
1288.000000	68.158187
1287.000000	68.108137
1286.000000	68.051859
1285.000000	67.989468
1284.000000	67.933190
1283.000000	67.874952
1282.000000	67.805527
1281.000000	67.738178
1280.000000	67.666101
1279.000000	67.604056
1278.000000	67.540513
1277.000000	67.482966
1276.000000	67.427496
1275.000000	67.371448
1274.000000	67.320475
1273.000000	67.283456
1272.000000	67.240095
1271.000000	67.183817
1270.000000	67.136073
1269.000000	67.087060
1268.000000	67.050848
1267.000000	67.015329
1266.000000	66.964356
1265.000000	66.912690
1264.000000	66.858373
1263.000000	66.815588
1262.000000	66.778108
1261.000000	66.733823
1260.000000	66.681582
1259.000000	66.631070
1258.000000	66.575023
1257.000000	66.518168
1256.000000	66.449666
1255.000000	66.392119
1254.000000	66.337225
1253.000000	66.265378
1252.000000	66.184075
1251.000000	66.122953
1250.000000	66.047416
1249.000000	65.962423
1248.000000	65.876852
1247.000000	65.790821
1246.000000	65.699715
1245.000000	65.594079
1244.000000	65.483598
1243.000000	65.369543
1242.000000	65.238305
1241.000000	65.129093
1240.000000	64.998662
1239.000000	64.847588
1238.000000	64.731457
1237.000000	64.592030
1236.000000	64.449144
1235.000000	64.299800
1234.000000	64.142960
1233.000000	63.992808
1232.000000	63.840466
1231.000000	63.686624
1230.000000	63.516982
1229.000000	63.359565
1228.000000	63.200188
1227.000000	63.031123
1226.000000	62.885239
1225.000000	62.733588
1224.000000	62.569252
1223.000000	62.388539
1222.000000	62.229969
1221.000000	62.076012
1220.000000	61.914559
1219.000000	61.776977
1218.000000	61.646085
1217.000000	61.501584
1216.000000	61.363426
1215.000000	61.250870
1214.000000	61.135777
1213.000000	61.009959
1212.000000	60.906975
1211.000000	60.810103
1210.000000	60.688782
1209.000000	60.593294
1208.000000	60.512568
1207.000000	60.441528
1206.000000	60.372219
1205.000000	60.314211
1204.000000	60.276846
1203.000000	60.249399
1202.000000	60.206383
1201.000000	60.143301
1200.000000	60.118276
1199.000000	60.045622
1198.000000	59.949673
1197.000000	59.841499
1196.000000	59.641873
1195.000000	59.436828
1194.000000	59.178041
1193.000000	58.845678
1192.000000	58.481370
1191.000000	58.081312
1190.000000	57.672144
1189.000000	57.324904
1188.000000	57.018604
1187.000000	56.843196
1186.000000	56.777462
1185.000000	56.809176
1184.000000	56.966478
1183.000000	57.220305
1182.000000	57.587842
1181.000000	57.999894
1180.000000	58.418404
1179.000000	58.822152
1178.000000	59.194071
1177.000000	59.505907
1176.000000	59.737592
1175.000000	59.970777
1174.000000	60.225758
1173.000000	60.451331
1172.000000	60.690512
1171.000000	60.962100
1170.000000	61.232649
1169.000000	61.509080
1168.000000	61.773056
1167.000000	62.053639
1166.000000	62.331915
1165.000000	62.617688
1164.000000	62.886853
1163.000000	63.158556
1162.000000	63.444213
1161.000000	63.727910
1160.000000	63.977470
1159.000000	64.240639
1158.000000	64.472324
1157.000000	64.694669
1156.000000	64.888297
1155.000000	65.030145
1154.000000	65.153542
1153.000000	65.180066
1152.000000	65.210396
1151.000000	65.191599
1150.000000	65.199210
1149.000000	65.170379
1148.000000	65.169341
1147.000000	65.182603
1146.000000	65.230578
1145.000000	65.328373
1144.000000	65.478640
1143.000000	65.682071
1142.000000	65.881927
1141.000000	66.090432
1140.000000	66.316121
1139.000000	66.549997
1138.000000	66.778108
1137.000000	67.015675
1136.000000	67.252665
1135.000000	67.534632
1134.000000	67.774390
1133.000000	67.890751
1132.000000	68.049437
1131.000000	68.219770
1130.000000	68.371305
1129.000000	68.493664
1128.000000	68.581887
1127.000000	68.637242
1126.000000	68.668610
1125.000000	68.722697
1124.000000	68.736766
1123.000000	68.766866
1122.000000	68.781973
1121.000000	68.777130
1120.000000	68.767673
1119.000000	68.752681
1118.000000	68.731461
1117.000000	68.692367
1116.000000	68.672646
1115.000000	68.625710
1114.000000	68.569778
1113.000000	68.539678
1112.000000	68.495970
1111.000000	68.463795
1110.000000	68.417896
1109.000000	68.384914
1108.000000	68.328636
1107.000000	68.294730
1106.000000	68.252637
1105.000000	68.197628
1104.000000	68.137659
1103.000000	68.079998
1102.000000	68.045054
1101.000000	67.993274
1100.000000	67.954064
1099.000000	67.907358
1098.000000	67.839778
1097.000000	67.765279
1096.000000	67.716497
1095.000000	67.655606
1094.000000	67.602096
1093.000000	67.522292
1092.000000	67.472011
1091.000000	67.402355
1090.000000	67.349652
1089.000000	67.285302
1088.000000	67.199962
1087.000000	67.136188
1086.000000	67.062611
1085.000000	67.000221
1084.000000	66.913613
1083.000000	66.853414
1082.000000	66.800711
1081.000000	66.737052
1080.000000	66.663130
1079.000000	66.602585
1078.000000	66.532007
1077.000000	66.461544
1076.000000	66.395233
1075.000000	66.331113
1074.000000	66.266416
1073.000000	66.193877
1072.000000	66.130565
1071.000000	66.076363
1070.000000	66.005784
1069.000000	65.936475
1068.000000	65.860592
1067.000000	65.796356
1066.000000	65.724856
1065.000000	65.666387
1064.000000	65.612761
1063.000000	65.549448
1062.000000	65.493170
1061.000000	65.416480
1060.000000	65.332409
1059.000000	65.278553
1058.000000	65.210166
1057.000000	65.154695
1056.000000	65.084578
1055.000000	65.012616
1054.000000	64.951149
1053.000000	64.892218
1052.000000	64.843206
1051.000000	64.795923
1050.000000	64.740106
1049.000000	64.681637
1048.000000	64.632163
1047.000000	64.573348
1046.000000	64.530794
1045.000000	64.491237
1044.000000	64.435421
1043.000000	64.386062
1042.000000	64.341778
1041.000000	64.292419
1040.000000	64.255285
1039.000000	64.236949
1038.000000	64.196239
1037.000000	64.149072
1036.000000	64.114013
1035.000000	64.074342
1034.000000	64.022216
1033.000000	63.969167
1032.000000	63.926151
1031.000000	63.880829
1030.000000	63.832508
1029.000000	63.783380
1028.000000	63.730793
1027.000000	63.696657
1026.000000	63.638072
1025.000000	63.572568
1024.000000	63.532436
1023.000000	63.471660
1022.000000	63.413537
1021.000000	63.364870
1020.000000	63.309630
1019.000000	63.286681
1018.000000	63.252660
1017.000000	63.184043
1016.000000	63.133300
1015.000000	63.103085
1014.000000	63.058801
1013.000000	63.018784
1012.000000	63.006098
1011.000000	62.976345
1010.000000	62.945092
1009.000000	62.929408
1008.000000	62.914646
1007.000000	62.915108
1006.000000	62.890890
1005.000000	62.864942
1004.000000	62.868632
1003.000000	62.850757
1002.000000	62.833574
1001.000000	62.829307
1000.000000	62.825732
999.000000	62.824579
998.000000	62.821695
997.000000	62.809817
996.000000	62.816391
995.000000	62.838879
994.000000	62.823887
993.000000	62.813969
992.000000	62.850988
991.000000	62.864942
990.000000	62.883509
989.000000	62.915684
988.000000	62.947283
987.000000	62.975422
986.000000	63.005867
985.000000	63.029163
984.000000	63.072294
983.000000	63.107814
982.000000	63.147831
981.000000	63.180122
980.000000	63.222330
979.000000	63.284144
978.000000	63.339960
977.000000	63.375941
976.000000	63.408001
975.000000	63.479272
974.000000	63.545929
973.000000	63.579603
972.000000	63.610279
971.000000	63.662406
970.000000	63.704960
969.000000	63.754088
968.000000	63.795951
967.000000	63.833315
966.000000	63.888440
965.000000	63.944257
964.000000	63.981622
963.000000	64.010107
962.000000	64.057851
961.000000	64.130389
960.000000	64.175135
959.000000	64.196470
958.000000	64.214460
957.000000	64.250326
956.000000	64.300838
955.000000	64.326786
954.000000	64.387446
953.000000	64.389176
952.000000	64.411318
951.000000	64.450413
950.000000	64.449952
949.000000	64.466674
948.000000	64.511419
947.000000	64.517762
946.000000	64.528602
945.000000	64.620285
944.000000	64.618209
943.000000	64.635162
942.000000	64.692708
941.000000	64.723730
940.000000	64.763517
939.000000	64.848972
938.000000	64.875496
937.000000	64.944345
936.000000	64.996240
935.000000	65.067510
934.000000	65.183411
933.000000	65.232077
932.000000	65.310843
931.000000	65.376578
930.000000	65.474719
929.000000	65.580586
928.000000	65.656007
927.000000	65.781941
926.000000	65.867511
925.000000	65.966690
924.000000	66.050530
923.000000	66.168160
922.000000	66.346105
921.000000	66.448628
920.000000	66.576752
919.000000	66.690692
918.000000	66.832656
917.000000	66.963433
916.000000	67.111855
915.000000	67.268003
914.000000	67.468436
913.000000	67.591371
912.000000	67.715459
911.000000	67.847620
910.000000	67.960868
909.000000	68.198666
908.000000	68.365078
907.000000	68.491934
906.000000	68.672531
905.000000	68.819915
904.000000	69.005471
903.000000	69.157583
902.000000	69.356516
901.000000	69.510589
900.000000	69.661317
899.000000	69.811238
898.000000	69.985723
897.000000	70.107159
896.000000	70.257079
895.000000	70.438138
894.000000	70.572490
893.000000	70.725871
892.000000	70.875100
891.000000	71.009567
890.000000	71.163640
889.000000	71.288881
888.000000	71.315982
887.000000	71.450219
886.000000	71.593682
885.000000	71.714887
884.000000	71.813835
883.000000	71.811413
882.000000	71.904479
881.000000	72.001005
880.000000	72.070200
879.000000	72.055092
878.000000	72.145852
877.000000	72.256909
876.000000	72.250912
875.000000	72.191405
874.000000	72.204321
873.000000	72.124402
872.000000	72.187830
871.000000	72.105604
870.000000	72.146890
869.000000	72.125901
868.000000	72.058437
867.000000	72.026146
866.000000	71.921893
865.000000	71.898252
864.000000	71.762747
863.000000	71.696435
862.000000	71.468094
861.000000	71.254515
860.000000	71.096982
859.000000	70.991922
858.000000	72.788667
857.000000	72.652300
856.000000	72.879500
855.000000	72.834200
854.000000	73.256400
853.000000	73.611700
852.000000	74.032800
851.000000	73.850600
850.000000	74.077900
849.000000	74.487100
848.000000	74.923100
847.000000	74.852000
846.000000	75.214700
845.000000	75.617800
844.000000	75.453300
843.000000	75.800000
842.000000	75.768600
841.000000	75.941100
840.000000	76.243800
839.000000	76.291400
838.000000	76.608100
837.000000	76.623600
836.000000	76.929000
835.000000	76.922100
834.000000	77.064700
833.000000	77.234000
832.000000	77.482900
831.000000	77.421700
830.000000	77.617200
829.000000	77.815300
828.000000	77.951500
827.000000	77.969000
826.000000	78.086500
825.000000	78.223100
824.000000	78.203200
823.000000	78.350600
822.000000	78.441300
821.000000	78.460800
820.000000	78.583500
819.000000	78.758100
818.000000	78.876200
817.000000	78.728200
816.000000	78.836100
815.000000	78.844400
814.000000	78.839600
813.000000	78.930400
812.000000	78.885800
811.000000	79.040200
810.000000	79.038200
809.000000	79.055200
808.000000	78.958000
807.000000	78.900700
806.000000	78.798800
805.000000	78.715100
804.000000	78.692500
803.000000	78.665900
802.000000	78.596600
801.000000	78.368400
800.000000	78.281500
799.000000	78.211100
798.000000	78.031500
797.000000	77.916400
796.000000	77.691900
795.000000	77.559300
794.000000	77.461600
793.000000	77.289900
792.000000	77.026000
791.000000	76.883400
790.000000	76.649700
789.000000	76.563800
788.000000	76.410900
787.000000	76.166800
786.000000	75.979400
785.000000	75.725400
784.000000	75.470400
783.000000	75.143500
782.000000	75.023000
781.000000	74.763100
780.000000	74.575800
779.000000	74.362500
778.000000	74.070100
777.000000	73.816000
776.000000	73.593500
775.000000	73.447000
774.000000	73.208900
773.000000	72.929500
772.000000	72.760600
771.000000	72.489300
770.000000	72.239300
769.000000	72.105600
768.000000	71.994400
767.000000	71.793300
766.000000	71.587400
765.000000	71.341500
764.000000	71.141600
763.000000	70.994700
762.000000	70.704300
761.000000	70.511000
760.000000	70.372500
759.000000	70.122700
758.000000	69.966400
757.000000	69.848100
756.000000	69.677500
755.000000	69.557700
754.000000	69.382200
753.000000	69.241800
752.000000	69.133200
751.000000	68.928400
750.000000	68.786700
749.000000	68.717100
748.000000	68.601900
747.000000	68.448200
746.000000	68.306900
745.000000	68.183100
744.000000	68.059100
743.000000	67.932700
742.000000	67.782600
741.000000	67.664700
740.000000	67.518400
739.000000	67.390000
738.000000	67.280800
737.000000	67.130200
736.000000	67.006000
735.000000	66.904800
734.000000	66.812900
733.000000	66.697700
732.000000	66.551800
731.000000	66.386800
730.000000	66.251000
729.000000	66.165400
728.000000	66.019700
727.000000	65.920700
726.000000	65.812300
725.000000	65.679500
724.000000	65.570000
723.000000	65.402700
722.000000	65.263900
721.000000	65.174600
720.000000	65.001800
719.000000	64.809500
718.000000	64.609500
717.000000	64.412000
716.000000	64.251300
715.000000	64.078100
714.000000	63.839500
713.000000	63.580000
712.000000	63.367200
711.000000	63.161200
710.000000	62.875000
709.000000	62.623100
708.000000	62.353700
707.000000	62.035900
706.000000	61.763500
705.000000	61.462700
704.000000	61.172500
703.000000	60.872100
702.000000	60.579300
701.000000	60.298500
700.000000	59.979900
699.000000	59.651800
698.000000	59.335900
697.000000	59.018700
696.000000	58.685200
695.000000	58.352800
694.000000	58.011100
693.000000	57.622400
692.000000	57.253000
691.000000	56.875100
690.000000	56.469900
689.000000	56.098800
688.000000	55.691500
687.000000	55.362200
686.000000	54.996100
685.000000	54.612600
684.000000	54.220800
683.000000	53.843100
682.000000	53.483100
681.000000	53.137500
680.000000	52.819900
679.000000	52.547500
678.000000	52.307300
677.000000	52.112100
676.000000	51.922000
675.000000	51.771300
674.000000	51.574400
673.000000	51.450400
672.000000	51.371100
671.000000	51.341900
670.000000	51.331200
669.000000	51.307000
668.000000	51.350100
667.000000	51.394800
666.000000	51.495500
665.000000	51.556300
664.000000	51.633600
663.000000	51.728300
662.000000	51.884800
661.000000	52.039900
660.000000	52.213600
659.000000	52.434800
658.000000	52.727000
657.000000	52.971900
656.000000	53.258000
655.000000	53.595200
654.000000	53.959700
653.000000	54.366400
652.000000	54.820000
651.000000	55.295600
650.000000	55.708500
649.000000	56.215000
648.000000	56.692200
647.000000	57.160200
646.000000	57.681900
645.000000	58.151300
644.000000	58.584300
643.000000	59.011700
642.000000	59.468200
641.000000	59.892200
640.000000	60.341500
639.000000	60.690400
638.000000	61.159400
637.000000	61.514800
636.000000	61.942400
635.000000	62.355700
634.000000	62.773300
633.000000	63.207800
632.000000	63.718100
631.000000	64.232200
630.000000	64.729100
629.000000	65.267500
628.000000	65.808500
627.000000	66.296800
626.000000	66.803200
625.000000	67.275400
624.000000	67.775600
623.000000	68.247700
622.000000	68.749900
621.000000	69.185000
620.000000	69.660400
619.000000	70.064000
618.000000	70.488000
617.000000	70.885000
616.000000	71.303200
615.000000	71.666700
614.000000	72.015200
613.000000	72.419500
612.000000	72.869400
611.000000	73.237200
610.000000	73.657300
609.000000	74.046300
608.000000	74.443200
607.000000	74.844800
606.000000	75.201200
605.000000	75.516800
604.000000	75.903800
603.000000	76.275000
602.000000	76.593400
601.000000	76.849800
600.000000	77.176700
599.000000	77.443500
598.000000	77.669900
597.000000	77.934500
596.000000	78.080700
595.000000	78.248000
594.000000	78.419900
593.000000	78.617400
592.000000	78.685200
591.000000	78.825000
590.000000	78.962900
589.000000	79.004900
588.000000	79.046200
587.000000	79.128300
586.000000	79.119200
585.000000	79.166000
584.000000	79.188900
583.000000	79.201900
582.000000	79.244200
581.000000	79.251800
580.000000	79.200600
579.000000	79.170900
578.000000	79.107000
577.000000	79.052100
576.000000	78.977800
575.000000	78.865700
574.000000	78.741400
573.000000	78.630100
572.000000	78.484800
571.000000	78.303600
570.000000	78.121500
569.000000	77.938500
568.000000	77.692900
567.000000	77.483200
566.000000	77.223000
565.000000	76.965900
564.000000	76.696600
563.000000	76.428300
562.000000	76.134200
561.000000	75.754700
560.000000	75.418200
559.000000	75.264100
558.000000	74.888400
557.000000	74.456300
556.000000	73.974100
555.000000	73.511300
554.000000	72.992200
553.000000	72.433900
552.000000	71.868300
551.000000	71.234800
550.000000	70.560300
549.000000	69.866500
548.000000	69.134700
547.000000	68.365800
546.000000	67.600000
545.000000	66.774600
544.000000	65.941300
543.000000	65.067600
542.000000	64.190000
541.000000	63.224900
540.000000	62.336100
539.000000	61.375400
538.000000	60.496000
537.000000	59.578300
536.000000	58.642900
535.000000	57.697300
534.000000	56.750100
533.000000	55.779500
532.000000	54.830900
531.000000	53.875900
530.000000	52.924900
529.000000	51.985900
528.000000	51.034600
527.000000	50.105000
526.000000	49.209600
525.000000	48.285600
524.000000	47.369800
523.000000	46.472000
522.000000	45.604800
521.000000	44.775400
520.000000	43.942300
519.000000	43.127700
518.000000	42.329100
517.000000	41.556800
516.000000	40.790400
515.000000	40.041100
514.000000	39.286800
513.000000	38.550000
512.000000	37.785200
511.000000	37.018100
510.000000	36.239300
509.000000	35.464100
508.000000	34.699900
507.000000	33.937400
506.000000	33.152900
505.000000	32.359300
504.000000	31.557500
503.000000	30.784200
502.000000	29.997700
501.000000	29.253900
500.000000	28.536000
499.000000	27.823800
498.000000	27.168200
497.000000	26.552700
496.000000	25.997800
495.000000	25.488900
494.000000	25.047400
493.000000	24.654000
492.000000	24.325200
491.000000	24.060500
490.000000	23.863000
489.000000	23.696300
488.000000	23.588900
487.000000	23.547600
486.000000	23.543200
485.000000	23.580100
484.000000	23.659900
483.000000	23.768100
482.000000	23.881600
481.000000	24.002900
480.000000	24.136900
479.000000	24.300800
478.000000	24.472500
477.000000	24.651400
476.000000	24.851600
475.000000	25.026100
474.000000	25.180900
473.000000	25.345400
472.000000	25.496800
471.000000	25.615700
470.000000	25.708400
469.000000	25.795300
468.000000	25.871900
467.000000	25.931100
466.000000	25.978100
465.000000	25.985300
464.000000	25.974400
463.000000	25.972400
462.000000	25.967200
461.000000	25.935600
460.000000	25.892700
459.000000	25.835300
458.000000	25.774100
457.000000	25.711800
456.000000	25.629200
455.000000	25.543900
454.000000	25.435500
453.000000	25.310500
452.000000	25.203800
451.000000	25.070300
450.000000	24.916700
449.000000	24.758400
448.000000	24.601800
447.000000	24.438500
446.000000	24.242700
445.000000	24.044200
444.000000	23.844800
443.000000	23.617100
442.000000	23.370700
441.000000	23.108300
440.000000	22.849200
439.000000	22.586200
438.000000	22.303300
437.000000	22.010900
436.000000	21.713400
435.000000	21.397200
434.000000	21.065100
433.000000	20.745900
432.000000	20.382000
431.000000	20.016400
430.000000	19.655800
429.000000	19.273900
428.000000	18.897100
427.000000	18.530100
426.000000	18.130500
425.000000	17.728100
424.000000	17.330700
423.000000	16.908400
422.000000	16.497500
421.000000	16.082500
420.000000	15.655700
419.000000	15.246700
418.000000	14.840400
417.000000	14.424900
416.000000	14.023900
415.000000	13.627300
414.000000	13.232100
413.000000	12.838500
412.000000	12.458200
411.000000	12.091900
410.000000	11.730600
409.000000	11.396300
408.000000	11.061300
407.000000	10.729700
406.000000	10.426500
405.000000	10.142500
404.000000	9.864500
403.000000	9.606300
402.000000	9.347400
401.000000	9.100900
400.000000	8.864200
399.000000	8.644300
398.000000	8.436600
397.000000	8.267300
396.000000	8.090200
395.000000	7.902400
394.000000	7.743600
393.000000	7.614100
392.000000	7.483800
391.000000	7.351900
390.000000	7.227700
389.000000	7.107700
388.000000	6.989900
387.000000	6.889500
386.000000	6.799400
385.000000	6.697800
384.000000	6.626400
383.000000	6.570000
382.000000	6.522100
381.000000	6.446300
380.000000	6.362600
379.000000	6.278000
378.000000	6.248500
377.000000	6.197800
376.000000	6.303100
375.000000	6.056200
374.000000	5.995500
373.000000	5.978700
372.000000	5.980400
371.000000	5.965600
370.000000	5.883300
369.000000	5.923800
368.000000	5.867600
367.000000	5.907100
366.000000	5.851800
365.000000	5.948200
364.000000	5.952300
363.000000	5.952800
362.000000	5.916500
361.000000	5.778000
360.000000	5.822100
359.000000	5.869000
358.000000	5.678000
357.000000	5.633600
356.000000	5.624800
355.000000	5.666700
354.000000	5.654400
353.000000	5.406000
352.000000	5.530600
351.000000	5.463300
350.000000	5.443800
349.000000	5.470600
348.000000	5.439000
347.000000	5.296900
346.000000	5.456900
345.000000	5.467800
344.000000	5.483100
343.000000	5.426800
342.000000	5.518200
341.000000	5.528800
340.000000	5.352700
339.000000	5.354800
338.000000	5.230600
337.000000	5.331000
336.000000	5.211300
335.000000	5.324600
334.000000	5.400900
333.000000	5.342900
332.000000	5.400500
331.000000	5.420400
330.000000	5.474900
329.000000	5.292300
328.000000	5.488600
327.000000	5.465900
326.000000	5.683300
325.000000	5.565100
324.000000	5.890100
323.000000	5.429200
322.000000	5.246200
321.000000	5.752900
320.000000	5.687300
319.000000	5.416700
318.000000	5.623200
317.000000	5.684800
316.000000	5.145900
315.000000	5.060200
314.000000	5.084300
313.000000	5.076000
312.000000	5.068200
311.000000	5.099600
310.000000	5.111700
309.000000	5.122800
308.000000	5.051200
307.000000	5.060100
306.000000	5.088400
305.000000	5.023200
304.000000	5.039300
303.000000	5.225800
302.000000	5.085600
301.000000	5.094100
300.000000	5.143000
299.000000	5.112600
298.000000	5.103400
297.000000	5.148100
296.000000	5.148800
295.000000	5.178600
294.000000	5.115900
293.000000	5.103900
292.000000	5.200300
291.000000	5.230900
290.000000	5.103900
289.000000	5.194600
288.000000	5.238300
287.000000	5.292800
286.000000	5.255700
285.000000	5.184400
284.000000	5.194500
283.000000	5.196100
282.000000	5.284200
281.000000	5.165900
280.000000	5.137800
279.000000	5.281300
278.000000	5.271400
277.000000	5.204700
276.000000	5.268300
275.000000	5.229900
274.000000	5.251000
273.000000	5.280400
272.000000	5.287400
271.000000	5.289800
270.000000	5.227100
269.000000	5.405600
268.000000	5.371200
267.000000	5.374200
266.000000	5.380800
265.000000	5.478100
264.000000	5.445000
263.000000	5.430000
262.000000	5.470400
261.000000	5.435500
260.000000	5.513100
259.000000	5.552300
258.000000	5.563300
257.000000	5.606800
256.000000	5.620300
255.000000	5.588300
254.000000	5.604500
253.000000	5.571800
252.000000	5.627400
251.000000	5.602300
250.000000	5.632700
