PE UV       SUBTECH     SPECTRUM    ASCII       PEDS        4.00        
   -1
CICIMAUCR0015-1.Sample.ASC
24/04/12
10:05:24.00
24/04/12
10:05:24.00
Vinicio Soto Monge
C. resplendens
250,000000
1
Lambda 1050
1050L1511233
PerkinElmer UV WinLab 6.3.2.0749 / 2.02.05 Lambda 900 UV/VIS/NIR, Aug  7 2015 09:38:08

0
0
3350/servo 860,8/2
0
0
UV/VIS
1
1
1
DoubleDePol,CommonBeamDepol,RBeamAtt,SBeamAtt,60mm sphere, WB InGaAs Detector
0
0
0
0
Program
Program
3350/servo 860,8/2
3350/0,2 860,8/0,2
3350/0,2 860,8/0,2
0
15.00
 
 
 
0
 
860,8
319,2
860,8
Front
100
on
S:100 R:100
0
0
0
0
 
0
 
 
 
0
 
 
0
0
0
0
0
 
 
 
 
0
0


0
0
#HDR
-1
-1
#GR
nm
%R
1.0
0.0
2500,000000
-1,000000
2251
8
95,380100
5,607500
#DATA
2500.000000	9.348500
2499.000000	9.154100
2498.000000	9.166700
2497.000000	9.123900
2496.000000	9.182700
2495.000000	9.108800
2494.000000	9.092400
2493.000000	9.089700
2492.000000	9.036800
2491.000000	9.070300
2490.000000	8.961900
2489.000000	9.004200
2488.000000	8.988300
2487.000000	8.944500
2486.000000	8.968700
2485.000000	8.971800
2484.000000	8.842200
2483.000000	8.888000
2482.000000	8.921700
2481.000000	8.919200
2480.000000	8.893100
2479.000000	8.950000
2478.000000	8.945800
2477.000000	8.890600
2476.000000	8.906300
2475.000000	8.904000
2474.000000	8.947500
2473.000000	8.957700
2472.000000	8.927200
2471.000000	8.938900
2470.000000	8.945600
2469.000000	8.942400
2468.000000	9.004700
2467.000000	8.975300
2466.000000	8.987600
2465.000000	9.041000
2464.000000	9.057200
2463.000000	9.093000
2462.000000	9.108800
2461.000000	9.170700
2460.000000	9.224900
2459.000000	9.262900
2458.000000	9.326400
2457.000000	9.398100
2456.000000	9.453600
2455.000000	9.526500
2454.000000	9.596300
2453.000000	9.700100
2452.000000	9.783600
2451.000000	9.855600
2450.000000	9.950300
2449.000000	10.039800
2448.000000	10.127000
2447.000000	10.233300
2446.000000	10.298900
2445.000000	10.368100
2444.000000	10.467300
2443.000000	10.560300
2442.000000	10.645800
2441.000000	10.730000
2440.000000	10.811000
2439.000000	10.890700
2438.000000	10.975700
2437.000000	11.040900
2436.000000	11.131300
2435.000000	11.196500
2434.000000	11.275400
2433.000000	11.348800
2432.000000	11.409600
2431.000000	11.466800
2430.000000	11.511200
2429.000000	11.530100
2428.000000	11.571100
2427.000000	11.618800
2426.000000	11.655500
2425.000000	11.707200
2424.000000	11.747200
2423.000000	11.794400
2422.000000	11.817600
2421.000000	11.848400
2420.000000	11.886100
2419.000000	11.931600
2418.000000	11.965900
2417.000000	12.006700
2416.000000	12.040900
2415.000000	12.061400
2414.000000	12.100700
2413.000000	12.116600
2412.000000	12.149800
2411.000000	12.203000
2410.000000	12.210700
2409.000000	12.232000
2408.000000	12.273600
2407.000000	12.297100
2406.000000	12.330200
2405.000000	12.347500
2404.000000	12.388600
2403.000000	12.427600
2402.000000	12.446600
2401.000000	12.466700
2400.000000	12.506200
2399.000000	12.527300
2398.000000	12.556000
2397.000000	12.600000
2396.000000	12.623400
2395.000000	12.645700
2394.000000	12.672300
2393.000000	12.707100
2392.000000	12.730900
2391.000000	12.752800
2390.000000	12.771600
2389.000000	12.783200
2388.000000	12.807800
2387.000000	12.818500
2386.000000	12.822000
2385.000000	12.825100
2384.000000	12.815000
2383.000000	12.810100
2382.000000	12.815100
2381.000000	12.792500
2380.000000	12.773300
2379.000000	12.762400
2378.000000	12.745300
2377.000000	12.721800
2376.000000	12.702200
2375.000000	12.674300
2374.000000	12.638200
2373.000000	12.599300
2372.000000	12.571000
2371.000000	12.545000
2370.000000	12.491800
2369.000000	12.441500
2368.000000	12.391900
2367.000000	12.330400
2366.000000	12.266700
2365.000000	12.209000
2364.000000	12.139100
2363.000000	12.060000
2362.000000	11.985200
2361.000000	11.921600
2360.000000	11.853400
2359.000000	11.791200
2358.000000	11.735800
2357.000000	11.672400
2356.000000	11.616500
2355.000000	11.581000
2354.000000	11.543800
2353.000000	11.533400
2352.000000	11.540400
2351.000000	11.567900
2350.000000	11.600100
2349.000000	11.627900
2348.000000	11.672200
2347.000000	11.710600
2346.000000	11.757900
2345.000000	11.818200
2344.000000	11.867800
2343.000000	11.916600
2342.000000	11.961300
2341.000000	11.996000
2340.000000	12.012100
2339.000000	12.040400
2338.000000	12.053500
2337.000000	12.053300
2336.000000	12.036700
2335.000000	12.015900
2334.000000	11.984300
2333.000000	11.955300
2332.000000	11.919300
2331.000000	11.863000
2330.000000	11.818600
2329.000000	11.762300
2328.000000	11.692700
2327.000000	11.622000
2326.000000	11.532500
2325.000000	11.449700
2324.000000	11.370800
2323.000000	11.283200
2322.000000	11.179400
2321.000000	11.043300
2320.000000	10.931800
2319.000000	10.820800
2318.000000	10.694700
2317.000000	10.567400
2316.000000	10.445500
2315.000000	10.307200
2314.000000	10.185100
2313.000000	10.075600
2312.000000	9.953400
2311.000000	9.849900
2310.000000	9.777800
2309.000000	9.727600
2308.000000	9.693900
2307.000000	9.665600
2306.000000	9.668700
2305.000000	9.688600
2304.000000	9.745600
2303.000000	9.804600
2302.000000	9.879500
2301.000000	9.971600
2300.000000	10.059100
2299.000000	10.173000
2298.000000	10.268800
2297.000000	10.377300
2296.000000	10.463200
2295.000000	10.568000
2294.000000	10.630600
2293.000000	10.705300
2292.000000	10.751700
2291.000000	10.783500
2290.000000	10.821300
2289.000000	10.835500
2288.000000	10.821300
2287.000000	10.806300
2286.000000	10.788900
2285.000000	10.751800
2284.000000	10.723500
2283.000000	10.666800
2282.000000	10.641700
2281.000000	10.577200
2280.000000	10.526700
2279.000000	10.464400
2278.000000	10.425200
2277.000000	10.381800
2276.000000	10.341600
2275.000000	10.310200
2274.000000	10.295700
2273.000000	10.263000
2272.000000	10.260200
2271.000000	10.295800
2270.000000	10.356400
2269.000000	10.395000
2268.000000	10.469600
2267.000000	10.566300
2266.000000	10.693100
2265.000000	10.859100
2264.000000	11.035800
2263.000000	11.217700
2262.000000	11.406300
2261.000000	11.677000
2260.000000	11.933400
2259.000000	12.207400
2258.000000	12.470400
2257.000000	12.749200
2256.000000	13.032500
2255.000000	13.309000
2254.000000	13.603000
2253.000000	13.882600
2252.000000	14.112500
2251.000000	14.359400
2250.000000	14.606900
2249.000000	14.837000
2248.000000	15.041200
2247.000000	15.238500
2246.000000	15.407900
2245.000000	15.571200
2244.000000	15.735900
2243.000000	15.887800
2242.000000	16.011100
2241.000000	16.177200
2240.000000	16.246700
2239.000000	16.373400
2238.000000	16.482000
2237.000000	16.546400
2236.000000	16.651600
2235.000000	16.714600
2234.000000	16.789300
2233.000000	16.831700
2232.000000	16.869200
2231.000000	16.925700
2230.000000	16.956400
2229.000000	16.980300
2228.000000	17.021200
2227.000000	16.994100
2226.000000	17.003400
2225.000000	17.002600
2224.000000	16.981400
2223.000000	16.979000
2222.000000	16.940500
2221.000000	16.914800
2220.000000	16.912700
2219.000000	16.846600
2218.000000	16.827500
2217.000000	16.802900
2216.000000	16.755300
2215.000000	16.718300
2214.000000	16.687200
2213.000000	16.623700
2212.000000	16.602900
2211.000000	16.576400
2210.000000	16.596100
2209.000000	16.541900
2208.000000	16.513900
2207.000000	16.488100
2206.000000	16.454100
2205.000000	16.444900
2204.000000	16.428800
2203.000000	16.411800
2202.000000	16.412800
2201.000000	16.377700
2200.000000	16.366100
2199.000000	16.353200
2198.000000	16.350200
2197.000000	16.338000
2196.000000	16.326500
2195.000000	16.317700
2194.000000	16.296100
2193.000000	16.289000
2192.000000	16.277100
2191.000000	16.287900
2190.000000	16.272000
2189.000000	16.241100
2188.000000	16.242000
2187.000000	16.235900
2186.000000	16.207400
2185.000000	16.195300
2184.000000	16.175300
2183.000000	16.154000
2182.000000	16.152200
2181.000000	16.143200
2180.000000	16.131600
2179.000000	16.122100
2178.000000	16.103100
2177.000000	16.098800
2176.000000	16.072800
2175.000000	16.074700
2174.000000	16.092800
2173.000000	16.107600
2172.000000	16.131500
2171.000000	16.133800
2170.000000	16.146100
2169.000000	16.167400
2168.000000	16.200700
2167.000000	16.218100
2166.000000	16.244800
2165.000000	16.272000
2164.000000	16.298700
2163.000000	16.318300
2162.000000	16.372600
2161.000000	16.407500
2160.000000	16.431500
2159.000000	16.480800
2158.000000	16.514400
2157.000000	16.567300
2156.000000	16.615800
2155.000000	16.691000
2154.000000	16.744600
2153.000000	16.800700
2152.000000	16.843200
2151.000000	16.900800
2150.000000	16.966300
2149.000000	17.023200
2148.000000	17.074600
2147.000000	17.133200
2146.000000	17.192800
2145.000000	17.254300
2144.000000	17.298600
2143.000000	17.359000
2142.000000	17.403100
2141.000000	17.447100
2140.000000	17.490700
2139.000000	17.542200
2138.000000	17.589800
2137.000000	17.631900
2136.000000	17.671200
2135.000000	17.702600
2134.000000	17.732400
2133.000000	17.751000
2132.000000	17.789200
2131.000000	17.822200
2130.000000	17.845300
2129.000000	17.865200
2128.000000	17.877300
2127.000000	17.892900
2126.000000	17.895700
2125.000000	17.889500
2124.000000	17.884900
2123.000000	17.878600
2122.000000	17.881200
2121.000000	17.873000
2120.000000	17.851600
2119.000000	17.841700
2118.000000	17.825900
2117.000000	17.804600
2116.000000	17.780200
2115.000000	17.766400
2114.000000	17.740900
2113.000000	17.711000
2112.000000	17.699600
2111.000000	17.671200
2110.000000	17.627000
2109.000000	17.609300
2108.000000	17.593100
2107.000000	17.562300
2106.000000	17.532400
2105.000000	17.503600
2104.000000	17.464900
2103.000000	17.443800
2102.000000	17.428400
2101.000000	17.395700
2100.000000	17.376700
2099.000000	17.361500
2098.000000	17.329300
2097.000000	17.298300
2096.000000	17.278800
2095.000000	17.263200
2094.000000	17.258400
2093.000000	17.248600
2092.000000	17.218900
2091.000000	17.203400
2090.000000	17.192800
2089.000000	17.178000
2088.000000	17.159400
2087.000000	17.154500
2086.000000	17.147900
2085.000000	17.121400
2084.000000	17.107500
2083.000000	17.086600
2082.000000	17.059400
2081.000000	17.020000
2080.000000	16.996800
2079.000000	16.981700
2078.000000	16.954800
2077.000000	16.915400
2076.000000	16.880000
2075.000000	16.841600
2074.000000	16.791200
2073.000000	16.752600
2072.000000	16.718500
2071.000000	16.686300
2070.000000	16.637100
2069.000000	16.587800
2068.000000	16.557100
2067.000000	16.498800
2066.000000	16.454800
2065.000000	16.414200
2064.000000	16.370000
2063.000000	16.360900
2062.000000	16.335300
2061.000000	16.277800
2060.000000	16.247000
2059.000000	16.245400
2058.000000	16.254200
2057.000000	16.256700
2056.000000	16.280900
2055.000000	16.325800
2054.000000	16.378300
2053.000000	16.423200
2052.000000	16.519100
2051.000000	16.612600
2050.000000	16.714800
2049.000000	16.843000
2048.000000	16.952100
2047.000000	17.083000
2046.000000	17.250700
2045.000000	17.415100
2044.000000	17.572100
2043.000000	17.740400
2042.000000	17.901200
2041.000000	18.063300
2040.000000	18.220400
2039.000000	18.378300
2038.000000	18.547300
2037.000000	18.697100
2036.000000	18.829900
2035.000000	18.957700
2034.000000	19.099700
2033.000000	19.250500
2032.000000	19.373300
2031.000000	19.477600
2030.000000	19.592000
2029.000000	19.706900
2028.000000	19.817200
2027.000000	19.918800
2026.000000	20.014500
2025.000000	20.107500
2024.000000	20.187400
2023.000000	20.283500
2022.000000	20.386100
2021.000000	20.467000
2020.000000	20.536400
2019.000000	20.629500
2018.000000	20.715600
2017.000000	20.779000
2016.000000	20.824500
2015.000000	20.882200
2014.000000	20.935400
2013.000000	20.970900
2012.000000	21.034000
2011.000000	21.076600
2010.000000	21.118100
2009.000000	21.149800
2008.000000	21.160500
2007.000000	21.175900
2006.000000	21.184700
2005.000000	21.188400
2004.000000	21.203200
2003.000000	21.202400
2002.000000	21.198200
2001.000000	21.177300
2000.000000	21.166400
1999.000000	21.139300
1998.000000	21.108900
1997.000000	21.080700
1996.000000	21.029700
1995.000000	20.990100
1994.000000	20.969200
1993.000000	20.906600
1992.000000	20.860600
1991.000000	20.793100
1990.000000	20.738200
1989.000000	20.680500
1988.000000	20.609700
1987.000000	20.549200
1986.000000	20.462400
1985.000000	20.410800
1984.000000	20.319200
1983.000000	20.243800
1982.000000	20.166200
1981.000000	20.083200
1980.000000	20.010100
1979.000000	19.935900
1978.000000	19.864800
1977.000000	19.780500
1976.000000	19.704700
1975.000000	19.624000
1974.000000	19.536300
1973.000000	19.458300
1972.000000	19.378400
1971.000000	19.315700
1970.000000	19.251800
1969.000000	19.183200
1968.000000	19.108500
1967.000000	19.044200
1966.000000	18.961600
1965.000000	18.885600
1964.000000	18.810900
1963.000000	18.737200
1962.000000	18.671200
1961.000000	18.594300
1960.000000	18.536100
1959.000000	18.463700
1958.000000	18.378900
1957.000000	18.301700
1956.000000	18.238300
1955.000000	18.160900
1954.000000	18.073100
1953.000000	17.992200
1952.000000	17.937900
1951.000000	17.864900
1950.000000	17.820200
1949.000000	17.758500
1948.000000	17.714300
1947.000000	17.661500
1946.000000	17.597300
1945.000000	17.564000
1944.000000	17.532700
1943.000000	17.503000
1942.000000	17.505700
1941.000000	17.467100
1940.000000	17.481100
1939.000000	17.512300
1938.000000	17.496200
1937.000000	17.512400
1936.000000	17.531400
1935.000000	17.567300
1934.000000	17.623500
1933.000000	17.684700
1932.000000	17.742300
1931.000000	17.851900
1930.000000	17.923500
1929.000000	18.041500
1928.000000	18.147000
1927.000000	18.271400
1926.000000	18.387800
1925.000000	18.534200
1924.000000	18.691900
1923.000000	18.840200
1922.000000	19.029800
1921.000000	19.222200
1920.000000	19.443200
1919.000000	19.603300
1918.000000	19.812500
1917.000000	20.009800
1916.000000	20.216500
1915.000000	20.463100
1914.000000	20.749500
1913.000000	21.012600
1912.000000	21.293700
1911.000000	21.526600
1910.000000	21.780200
1909.000000	22.018800
1908.000000	22.288200
1907.000000	22.604100
1906.000000	22.940700
1905.000000	23.284000
1904.000000	23.610200
1903.000000	23.907600
1902.000000	24.203800
1901.000000	24.513500
1900.000000	24.851400
1899.000000	25.177400
1898.000000	25.508600
1897.000000	25.841700
1896.000000	26.123100
1895.000000	26.395200
1894.000000	26.724000
1893.000000	27.060500
1892.000000	27.389500
1891.000000	27.709800
1890.000000	28.014600
1889.000000	28.315600
1888.000000	28.668000
1887.000000	28.996100
1886.000000	29.362800
1885.000000	29.765100
1884.000000	30.207300
1883.000000	30.635700
1882.000000	31.075100
1881.000000	31.531600
1880.000000	31.970100
1879.000000	32.400500
1878.000000	32.796900
1877.000000	33.135600
1876.000000	33.466300
1875.000000	33.784100
1874.000000	34.084100
1873.000000	34.338300
1872.000000	34.562700
1871.000000	34.780300
1870.000000	34.948400
1869.000000	35.071700
1868.000000	35.167600
1867.000000	35.234400
1866.000000	35.272200
1865.000000	35.327600
1864.000000	35.391900
1863.000000	35.426300
1862.000000	35.464400
1861.000000	35.496100
1860.000000	35.515400
1859.000000	35.501400
1858.000000	35.479300
1857.000000	35.462900
1856.000000	35.413200
1855.000000	35.367600
1854.000000	35.320500
1853.000000	35.213400
1852.000000	35.135200
1851.000000	35.104400
1850.000000	35.080200
1849.000000	35.046800
1848.000000	34.959300
1847.000000	34.839100
1846.000000	34.739800
1845.000000	34.675100
1844.000000	34.626700
1843.000000	34.634900
1842.000000	34.630600
1841.000000	34.579000
1840.000000	34.513900
1839.000000	34.440100
1838.000000	34.385400
1837.000000	34.321600
1836.000000	34.242100
1835.000000	34.158400
1834.000000	34.072100
1833.000000	33.994300
1832.000000	33.932300
1831.000000	33.846700
1830.000000	33.761200
1829.000000	33.687500
1828.000000	33.576800
1827.000000	33.501600
1826.000000	33.440500
1825.000000	33.371900
1824.000000	33.339200
1823.000000	33.341200
1822.000000	33.336400
1821.000000	33.308500
1820.000000	33.267700
1819.000000	33.223000
1818.000000	33.214100
1817.000000	33.221700
1816.000000	33.225500
1815.000000	33.213200
1814.000000	33.211400
1813.000000	33.198900
1812.000000	33.170700
1811.000000	33.128500
1810.000000	33.080000
1809.000000	33.046000
1808.000000	33.020700
1807.000000	32.988100
1806.000000	32.929200
1805.000000	32.864700
1804.000000	32.818900
1803.000000	32.775600
1802.000000	32.734800
1801.000000	32.682700
1800.000000	32.615600
1799.000000	32.551300
1798.000000	32.515800
1797.000000	32.476800
1796.000000	32.429400
1795.000000	32.374900
1794.000000	32.309400
1793.000000	32.251100
1792.000000	32.201400
1791.000000	32.143800
1790.000000	32.078500
1789.000000	32.008400
1788.000000	31.949000
1787.000000	31.888800
1786.000000	31.811000
1785.000000	31.723900
1784.000000	31.623900
1783.000000	31.520300
1782.000000	31.439000
1781.000000	31.372900
1780.000000	31.274500
1779.000000	31.170300
1778.000000	31.060600
1777.000000	30.940700
1776.000000	30.833000
1775.000000	30.697200
1774.000000	30.533700
1773.000000	30.382600
1772.000000	30.243100
1771.000000	30.093400
1770.000000	29.930000
1769.000000	29.777300
1768.000000	29.665000
1767.000000	29.554900
1766.000000	29.445200
1765.000000	29.365800
1764.000000	29.330500
1763.000000	29.294200
1762.000000	29.323900
1761.000000	29.380600
1760.000000	29.430800
1759.000000	29.490900
1758.000000	29.555300
1757.000000	29.602000
1756.000000	29.640700
1755.000000	29.667000
1754.000000	29.668500
1753.000000	29.644800
1752.000000	29.608000
1751.000000	29.569600
1750.000000	29.508500
1749.000000	29.430500
1748.000000	29.334200
1747.000000	29.201900
1746.000000	29.077300
1745.000000	28.894500
1744.000000	28.697300
1743.000000	28.501500
1742.000000	28.264100
1741.000000	28.003700
1740.000000	27.749400
1739.000000	27.490000
1738.000000	27.269300
1737.000000	27.081600
1736.000000	26.954600
1735.000000	26.849100
1734.000000	26.807200
1733.000000	26.824900
1732.000000	26.881000
1731.000000	26.966000
1730.000000	27.089900
1729.000000	27.195800
1728.000000	27.315100
1727.000000	27.412100
1726.000000	27.485000
1725.000000	27.566400
1724.000000	27.585200
1723.000000	27.624700
1722.000000	27.649300
1721.000000	27.678100
1720.000000	27.729500
1719.000000	27.750100
1718.000000	27.805700
1717.000000	27.873900
1716.000000	27.975400
1715.000000	28.053800
1714.000000	28.136800
1713.000000	28.208400
1712.000000	28.275600
1711.000000	28.313200
1710.000000	28.361700
1709.000000	28.342900
1708.000000	28.338000
1707.000000	28.337900
1706.000000	28.312500
1705.000000	28.251400
1704.000000	28.189700
1703.000000	28.129000
1702.000000	28.013900
1701.000000	27.855900
1700.000000	27.705800
1699.000000	27.532400
1698.000000	27.413800
1697.000000	27.305000
1696.000000	27.237100
1695.000000	27.236900
1694.000000	27.314400
1693.000000	27.432700
1692.000000	27.587200
1691.000000	27.736700
1690.000000	27.894600
1689.000000	27.985300
1688.000000	28.048000
1687.000000	28.066300
1686.000000	28.098100
1685.000000	28.148700
1684.000000	28.313100
1683.000000	28.559900
1682.000000	28.941600
1681.000000	29.432800
1680.000000	30.018300
1679.000000	30.616900
1678.000000	31.195300
1677.000000	31.732600
1676.000000	32.233000
1675.000000	32.615700
1674.000000	32.980400
1673.000000	33.280000
1672.000000	33.558600
1671.000000	33.791400
1670.000000	34.008700
1669.000000	34.196700
1668.000000	34.359400
1667.000000	34.515100
1666.000000	34.632700
1665.000000	34.727900
1664.000000	34.827000
1663.000000	34.906800
1662.000000	34.965700
1661.000000	35.019900
1660.000000	35.089700
1659.000000	35.127700
1658.000000	35.147000
1657.000000	35.174600
1656.000000	35.193800
1655.000000	35.201700
1654.000000	35.197600
1653.000000	35.176700
1652.000000	35.164200
1651.000000	35.139000
1650.000000	35.116700
1649.000000	35.096600
1648.000000	35.037600
1647.000000	34.999300
1646.000000	34.945100
1645.000000	34.897400
1644.000000	34.856500
1643.000000	34.796200
1642.000000	34.740400
1641.000000	34.656300
1640.000000	34.615100
1639.000000	34.549700
1638.000000	34.490700
1637.000000	34.419200
1636.000000	34.356700
1635.000000	34.285400
1634.000000	34.191600
1633.000000	34.116300
1632.000000	34.035300
1631.000000	33.948800
1630.000000	33.864900
1629.000000	33.780200
1628.000000	33.702900
1627.000000	33.624700
1626.000000	33.541000
1625.000000	33.463200
1624.000000	33.360800
1623.000000	33.270700
1622.000000	33.187600
1621.000000	33.114800
1620.000000	33.025600
1619.000000	32.952300
1618.000000	32.883100
1617.000000	32.802900
1616.000000	32.734800
1615.000000	32.651100
1614.000000	32.582300
1613.000000	32.501000
1612.000000	32.428300
1611.000000	32.371000
1610.000000	32.292400
1609.000000	32.218900
1608.000000	32.165500
1607.000000	32.076900
1606.000000	31.994300
1605.000000	31.941200
1604.000000	31.874300
1603.000000	31.813200
1602.000000	31.727500
1601.000000	31.656100
1600.000000	31.592600
1599.000000	31.537900
1598.000000	31.477400
1597.000000	31.414300
1596.000000	31.355700
1595.000000	31.306300
1594.000000	31.245900
1593.000000	31.206000
1592.000000	31.159100
1591.000000	31.121300
1590.000000	31.084700
1589.000000	31.052300
1588.000000	31.029300
1587.000000	30.986000
1586.000000	30.953300
1585.000000	30.937100
1584.000000	30.910600
1583.000000	30.890100
1582.000000	30.874800
1581.000000	30.854400
1580.000000	30.848300
1579.000000	30.838900
1578.000000	30.837300
1577.000000	30.841500
1576.000000	30.849300
1575.000000	30.859400
1574.000000	30.876600
1573.000000	30.905100
1572.000000	30.934800
1571.000000	30.966200
1570.000000	30.992000
1569.000000	31.030200
1568.000000	31.069400
1567.000000	31.100400
1566.000000	31.152600
1565.000000	31.185300
1564.000000	31.210200
1563.000000	31.253300
1562.000000	31.285200
1561.000000	31.306300
1560.000000	31.325000
1559.000000	31.351100
1558.000000	31.375900
1557.000000	31.390200
1556.000000	31.393900
1555.000000	31.394100
1554.000000	31.396300
1553.000000	31.393800
1552.000000	31.393400
1551.000000	31.389500
1550.000000	31.384900
1549.000000	31.362300
1548.000000	31.343000
1547.000000	31.338800
1546.000000	31.328200
1545.000000	31.316800
1544.000000	31.321100
1543.000000	31.326700
1542.000000	31.319400
1541.000000	31.323500
1540.000000	31.324400
1539.000000	31.325600
1538.000000	31.322500
1537.000000	31.327800
1536.000000	31.336000
1535.000000	31.322600
1534.000000	31.322200
1533.000000	31.327300
1532.000000	31.314700
1531.000000	31.302800
1530.000000	31.287000
1529.000000	31.273500
1528.000000	31.254700
1527.000000	31.245300
1526.000000	31.224000
1525.000000	31.206000
1524.000000	31.183800
1523.000000	31.149100
1522.000000	31.134900
1521.000000	31.107500
1520.000000	31.086600
1519.000000	31.063200
1518.000000	31.045100
1517.000000	31.013200
1516.000000	30.988400
1515.000000	30.965000
1514.000000	30.932300
1513.000000	30.898600
1512.000000	30.884500
1511.000000	30.838500
1510.000000	30.811300
1509.000000	30.780100
1508.000000	30.758400
1507.000000	30.726100
1506.000000	30.731900
1505.000000	30.696600
1504.000000	30.650600
1503.000000	30.629500
1502.000000	30.614500
1501.000000	30.592300
1500.000000	30.595000
1499.000000	30.580700
1498.000000	30.584800
1497.000000	30.567200
1496.000000	30.571900
1495.000000	30.576000
1494.000000	30.587400
1493.000000	30.617600
1492.000000	30.636900
1491.000000	30.653900
1490.000000	30.678600
1489.000000	30.699400
1488.000000	30.729200
1487.000000	30.754500
1486.000000	30.765700
1485.000000	30.789500
1484.000000	30.847000
1483.000000	30.888700
1482.000000	30.947900
1481.000000	30.982200
1480.000000	31.011000
1479.000000	31.057100
1478.000000	31.126100
1477.000000	31.178600
1476.000000	31.221300
1475.000000	31.271000
1474.000000	31.349900
1473.000000	31.416800
1472.000000	31.485000
1471.000000	31.580400
1470.000000	31.615500
1469.000000	31.645000
1468.000000	31.742500
1467.000000	31.801600
1466.000000	31.866900
1465.000000	31.940100
1464.000000	32.018200
1463.000000	32.101000
1462.000000	32.201800
1461.000000	32.298000
1460.000000	32.384600
1459.000000	32.469000
1458.000000	32.596500
1457.000000	32.713000
1456.000000	32.827300
1455.000000	32.943500
1454.000000	33.042300
1453.000000	33.182600
1452.000000	33.338400
1451.000000	33.468800
1450.000000	33.566600
1449.000000	33.657300
1448.000000	33.827300
1447.000000	34.006300
1446.000000	34.170500
1445.000000	34.279000
1444.000000	34.386700
1443.000000	34.534000
1442.000000	34.710500
1441.000000	34.862900
1440.000000	34.980000
1439.000000	35.109100
1438.000000	35.290400
1437.000000	35.373100
1436.000000	35.521700
1435.000000	35.677900
1434.000000	35.802800
1433.000000	35.979700
1432.000000	36.135500
1431.000000	36.262700
1430.000000	36.435000
1429.000000	36.631700
1428.000000	36.802500
1427.000000	37.010800
1426.000000	37.206200
1425.000000	37.472100
1424.000000	37.721600
1423.000000	37.920900
1422.000000	38.155200
1421.000000	38.406900
1420.000000	38.668900
1419.000000	38.907000
1418.000000	39.084300
1417.000000	39.262200
1416.000000	39.518300
1415.000000	39.799600
1414.000000	40.022000
1413.000000	40.174800
1412.000000	40.330100
1411.000000	40.640100
1410.000000	40.925000
1409.000000	41.233500
1408.000000	41.567100
1407.000000	41.932100
1406.000000	42.315600
1405.000000	42.706700
1404.000000	43.024700
1403.000000	43.419500
1402.000000	43.799900
1401.000000	44.276000
1400.000000	44.537100
1399.000000	44.715100
1398.000000	44.911700
1397.000000	45.196800
1396.000000	45.463400
1395.000000	45.546700
1394.000000	45.603000
1393.000000	45.696600
1392.000000	45.874200
1391.000000	45.998000
1390.000000	46.166300
1389.000000	46.395400
1388.000000	46.654100
1387.000000	46.888300
1386.000000	47.173100
1385.000000	47.521000
1384.000000	47.873800
1383.000000	48.229000
1382.000000	48.461500
1381.000000	48.604700
1380.000000	48.671000
1379.000000	48.724600
1378.000000	48.761600
1377.000000	48.853200
1376.000000	48.970700
1375.000000	49.164300
1374.000000	49.456100
1373.000000	49.804300
1372.000000	50.189200
1371.000000	50.552900
1370.000000	50.862700
1369.000000	51.179400
1368.000000	51.503000
1367.000000	51.730400
1366.000000	51.912400
1365.000000	52.143400
1364.000000	52.302600
1363.000000	52.474600
1362.000000	52.627000
1361.000000	52.696200
1360.000000	52.696700
1359.000000	52.770200
1358.000000	52.889100
1357.000000	53.092500
1356.000000	53.443400
1355.000000	53.929400
1354.000000	54.464100
1353.000000	55.007700
1352.000000	55.669100
1351.000000	56.277400
1350.000000	56.834900
1349.000000	57.338200
1348.000000	57.803700
1347.000000	58.223000
1346.000000	58.585800
1345.000000	58.956500
1344.000000	59.327900
1343.000000	59.636500
1342.000000	59.944300
1341.000000	60.250100
1340.000000	60.505900
1339.000000	60.775700
1338.000000	61.041600
1337.000000	61.276100
1336.000000	61.488400
1335.000000	61.693600
1334.000000	61.912300
1333.000000	62.121400
1332.000000	62.306200
1331.000000	62.486000
1330.000000	62.634000
1329.000000	62.774500
1328.000000	62.907300
1327.000000	63.036200
1326.000000	63.165200
1325.000000	63.282200
1324.000000	63.392400
1323.000000	63.504000
1322.000000	63.597100
1321.000000	63.680700
1320.000000	63.774400
1319.000000	63.857200
1318.000000	63.925900
1317.000000	64.010100
1316.000000	64.087600
1315.000000	64.144900
1314.000000	64.204000
1313.000000	64.260400
1312.000000	64.316100
1311.000000	64.376900
1310.000000	64.420300
1309.000000	64.438200
1308.000000	64.468600
1307.000000	64.490000
1306.000000	64.498000
1305.000000	64.514700
1304.000000	64.513300
1303.000000	64.496800
1302.000000	64.497800
1301.000000	64.489600
1300.000000	64.471300
1299.000000	64.457800
1298.000000	64.433500
1297.000000	64.410300
1296.000000	64.388800
1295.000000	64.372600
1294.000000	64.347300
1293.000000	64.302500
1292.000000	64.252500
1291.000000	64.194500
1290.000000	64.134600
1289.000000	64.071400
1288.000000	64.000900
1287.000000	63.929700
1286.000000	63.873600
1285.000000	63.795100
1284.000000	63.698600
1283.000000	63.599000
1282.000000	63.511400
1281.000000	63.425900
1280.000000	63.330700
1279.000000	63.249900
1278.000000	63.167200
1277.000000	63.087000
1276.000000	63.024100
1275.000000	62.967600
1274.000000	62.893500
1273.000000	62.825900
1272.000000	62.773400
1271.000000	62.718100
1270.000000	62.658600
1269.000000	62.592400
1268.000000	62.547000
1267.000000	62.476900
1266.000000	62.408000
1265.000000	62.351100
1264.000000	62.308500
1263.000000	62.256700
1262.000000	62.182500
1261.000000	62.125300
1260.000000	62.072900
1259.000000	62.014900
1258.000000	61.949700
1257.000000	61.888500
1256.000000	61.810900
1255.000000	61.734800
1254.000000	61.669000
1253.000000	61.588200
1252.000000	61.507400
1251.000000	61.408800
1250.000000	61.294400
1249.000000	61.188500
1248.000000	61.091100
1247.000000	60.973200
1246.000000	60.835800
1245.000000	60.704600
1244.000000	60.528300
1243.000000	60.370800
1242.000000	60.207600
1241.000000	60.035200
1240.000000	59.863600
1239.000000	59.681900
1238.000000	59.491500
1237.000000	59.304300
1236.000000	59.119900
1235.000000	58.926300
1234.000000	58.739600
1233.000000	58.544200
1232.000000	58.339400
1231.000000	58.134700
1230.000000	57.940900
1229.000000	57.746100
1228.000000	57.539000
1227.000000	57.355700
1226.000000	57.158600
1225.000000	56.970400
1224.000000	56.783300
1223.000000	56.591700
1222.000000	56.426700
1221.000000	56.248000
1220.000000	56.081800
1219.000000	55.951000
1218.000000	55.799100
1217.000000	55.657000
1216.000000	55.512300
1215.000000	55.391800
1214.000000	55.269300
1213.000000	55.153400
1212.000000	55.042100
1211.000000	54.952700
1210.000000	54.837100
1209.000000	54.756900
1208.000000	54.688400
1207.000000	54.617400
1206.000000	54.556700
1205.000000	54.546400
1204.000000	54.533200
1203.000000	54.487700
1202.000000	54.474500
1201.000000	54.450700
1200.000000	54.366800
1199.000000	54.284300
1198.000000	54.165800
1197.000000	53.991200
1196.000000	53.777400
1195.000000	53.481400
1194.000000	53.119300
1193.000000	52.695400
1192.000000	52.223700
1191.000000	51.714600
1190.000000	51.270100
1189.000000	50.870400
1188.000000	50.610200
1187.000000	50.462100
1186.000000	50.472100
1185.000000	50.583600
1184.000000	50.832100
1183.000000	51.192000
1182.000000	51.665200
1181.000000	52.190700
1180.000000	52.690500
1179.000000	53.176900
1178.000000	53.585700
1177.000000	53.939800
1176.000000	54.256800
1175.000000	54.573000
1174.000000	54.860500
1173.000000	55.179400
1172.000000	55.515900
1171.000000	55.855800
1170.000000	56.213400
1169.000000	56.572200
1168.000000	56.935500
1167.000000	57.314100
1166.000000	57.698600
1165.000000	58.099100
1164.000000	58.469200
1163.000000	58.860300
1162.000000	59.253300
1161.000000	59.623400
1160.000000	59.982000
1159.000000	60.347700
1158.000000	60.660700
1157.000000	60.944000
1156.000000	61.203800
1155.000000	61.356300
1154.000000	61.472700
1153.000000	61.509900
1152.000000	61.546400
1151.000000	61.501000
1150.000000	61.468700
1149.000000	61.446500
1148.000000	61.410200
1147.000000	61.469800
1146.000000	61.576400
1145.000000	61.795300
1144.000000	62.032600
1143.000000	62.345200
1142.000000	62.682300
1141.000000	63.044000
1140.000000	63.393800
1139.000000	63.732600
1138.000000	64.113700
1137.000000	64.493100
1136.000000	64.902300
1135.000000	65.260600
1134.000000	65.578500
1133.000000	65.817200
1132.000000	66.095500
1131.000000	66.337800
1130.000000	66.556600
1129.000000	66.728300
1128.000000	66.854600
1127.000000	66.950000
1126.000000	67.031700
1125.000000	67.076900
1124.000000	67.151400
1123.000000	67.187000
1122.000000	67.230100
1121.000000	67.244900
1120.000000	67.236500
1119.000000	67.241000
1118.000000	67.220900
1117.000000	67.198400
1116.000000	67.161500
1115.000000	67.126400
1114.000000	67.073800
1113.000000	67.040800
1112.000000	67.010100
1111.000000	66.977200
1110.000000	66.927100
1109.000000	66.887200
1108.000000	66.856600
1107.000000	66.811300
1106.000000	66.772400
1105.000000	66.731900
1104.000000	66.670900
1103.000000	66.646900
1102.000000	66.604800
1101.000000	66.551500
1100.000000	66.496900
1099.000000	66.450600
1098.000000	66.395400
1097.000000	66.351700
1096.000000	66.298900
1095.000000	66.247800
1094.000000	66.186100
1093.000000	66.135300
1092.000000	66.057900
1091.000000	65.989700
1090.000000	65.919500
1089.000000	65.868900
1088.000000	65.789100
1087.000000	65.715000
1086.000000	65.641400
1085.000000	65.587100
1084.000000	65.521800
1083.000000	65.455700
1082.000000	65.372800
1081.000000	65.300500
1080.000000	65.260600
1079.000000	65.195000
1078.000000	65.136400
1077.000000	65.064500
1076.000000	64.983000
1075.000000	64.916700
1074.000000	64.851900
1073.000000	64.774700
1072.000000	64.699800
1071.000000	64.620100
1070.000000	64.547200
1069.000000	64.473800
1068.000000	64.400600
1067.000000	64.325300
1066.000000	64.244000
1065.000000	64.161100
1064.000000	64.084700
1063.000000	63.975400
1062.000000	63.879300
1061.000000	63.810500
1060.000000	63.716600
1059.000000	63.614300
1058.000000	63.515200
1057.000000	63.421700
1056.000000	63.335900
1055.000000	63.229900
1054.000000	63.129500
1053.000000	63.042000
1052.000000	62.959400
1051.000000	62.887800
1050.000000	62.790200
1049.000000	62.690000
1048.000000	62.624100
1047.000000	62.550900
1046.000000	62.469400
1045.000000	62.401300
1044.000000	62.341300
1043.000000	62.276800
1042.000000	62.194400
1041.000000	62.119700
1040.000000	62.067600
1039.000000	61.989800
1038.000000	61.900500
1037.000000	61.836300
1036.000000	61.767200
1035.000000	61.699400
1034.000000	61.621400
1033.000000	61.532400
1032.000000	61.454300
1031.000000	61.379000
1030.000000	61.302400
1029.000000	61.229200
1028.000000	61.150300
1027.000000	61.058900
1026.000000	60.971600
1025.000000	60.896300
1024.000000	60.811300
1023.000000	60.723900
1022.000000	60.650700
1021.000000	60.564300
1020.000000	60.496900
1019.000000	60.428100
1018.000000	60.364100
1017.000000	60.311700
1016.000000	60.230000
1015.000000	60.179000
1014.000000	60.147700
1013.000000	60.097600
1012.000000	60.071900
1011.000000	60.059000
1010.000000	60.031900
1009.000000	60.027300
1008.000000	60.008200
1007.000000	59.993800
1006.000000	59.997300
1005.000000	59.974400
1004.000000	59.966600
1003.000000	59.956000
1002.000000	59.937500
1001.000000	59.901000
1000.000000	59.890100
999.000000	59.899800
998.000000	59.892000
997.000000	59.892700
996.000000	59.869600
995.000000	59.851600
994.000000	59.857200
993.000000	59.835700
992.000000	59.816600
991.000000	59.815800
990.000000	59.813900
989.000000	59.819000
988.000000	59.821100
987.000000	59.814900
986.000000	59.804600
985.000000	59.791000
984.000000	59.795100
983.000000	59.779600
982.000000	59.774400
981.000000	59.769100
980.000000	59.766100
979.000000	59.749300
978.000000	59.760700
977.000000	59.756100
976.000000	59.752600
975.000000	59.731600
974.000000	59.724300
973.000000	59.733800
972.000000	59.738700
971.000000	59.733000
970.000000	59.739000
969.000000	59.745100
968.000000	59.755900
967.000000	59.751000
966.000000	59.757500
965.000000	59.786100
964.000000	59.810600
963.000000	59.858900
962.000000	59.887700
961.000000	59.917300
960.000000	59.962600
959.000000	60.020800
958.000000	60.074400
957.000000	60.128800
956.000000	60.172900
955.000000	60.232900
954.000000	60.297200
953.000000	60.347400
952.000000	60.400800
951.000000	60.483000
950.000000	60.537100
949.000000	60.602700
948.000000	60.691700
947.000000	60.751500
946.000000	60.821500
945.000000	60.922600
944.000000	61.001200
943.000000	61.070800
942.000000	61.186900
941.000000	61.274000
940.000000	61.355800
939.000000	61.459400
938.000000	61.607600
937.000000	61.687600
936.000000	61.792700
935.000000	61.927100
934.000000	62.011700
933.000000	62.139400
932.000000	62.244800
931.000000	62.369600
930.000000	62.458300
929.000000	62.560300
928.000000	62.684700
927.000000	62.823400
926.000000	62.922200
925.000000	63.018400
924.000000	63.142200
923.000000	63.270100
922.000000	63.420400
921.000000	63.549300
920.000000	63.673400
919.000000	63.792300
918.000000	63.936900
917.000000	64.064100
916.000000	64.223400
915.000000	64.362600
914.000000	64.535000
913.000000	64.697200
912.000000	64.892700
911.000000	65.050600
910.000000	65.245700
909.000000	65.451300
908.000000	65.685900
907.000000	65.953300
906.000000	66.177800
905.000000	66.454800
904.000000	66.711400
903.000000	67.016600
902.000000	67.319300
901.000000	67.626600
900.000000	67.939400
899.000000	68.229500
898.000000	68.569300
897.000000	68.886100
896.000000	69.178300
895.000000	69.489700
894.000000	69.836900
893.000000	70.145400
892.000000	70.453100
891.000000	70.742400
890.000000	71.063000
889.000000	71.341900
888.000000	71.588600
887.000000	71.852400
886.000000	72.141200
885.000000	72.389900
884.000000	72.649900
883.000000	72.875000
882.000000	73.101300
881.000000	73.303800
880.000000	73.517100
879.000000	73.725500
878.000000	73.892200
877.000000	74.087200
876.000000	74.270800
875.000000	74.422400
874.000000	74.610100
873.000000	74.749700
872.000000	74.891700
871.000000	75.029700
870.000000	75.132100
869.000000	75.296400
868.000000	75.425300
867.000000	75.523800
866.000000	75.631500
865.000000	75.725900
864.000000	75.824400
863.000000	75.890500
862.000000	75.975100
861.000000	75.936000
860.000000	75.862400
859.000000	75.850600
858.000000	76.567700
857.000000	76.001100
856.000000	76.080824
855.000000	76.409625
854.000000	77.437353
853.000000	77.696903
852.000000	77.706055
851.000000	78.391961
850.000000	79.234957
849.000000	80.050780
848.000000	80.459588
847.000000	80.656019
846.000000	81.410988
845.000000	81.904615
844.000000	82.312573
843.000000	82.975931
842.000000	83.203780
841.000000	83.723730
840.000000	84.229716
839.000000	84.443602
838.000000	85.157058
837.000000	85.516050
836.000000	85.799564
835.000000	86.267717
834.000000	86.536796
833.000000	86.632842
832.000000	87.118637
831.000000	87.273084
830.000000	87.373093
829.000000	87.467063
828.000000	87.547164
827.000000	87.738123
826.000000	87.746049
825.000000	87.639908
824.000000	87.706706
823.000000	87.859171
822.000000	87.808601
821.000000	87.766050
820.000000	87.892287
819.000000	87.994843
818.000000	87.917573
817.000000	87.813885
816.000000	87.994654
815.000000	88.170235
814.000000	88.092493
813.000000	88.107588
812.000000	88.208163
811.000000	88.349307
810.000000	88.562061
809.000000	88.729150
808.000000	88.888881
807.000000	88.991059
806.000000	89.182773
805.000000	89.281932
804.000000	89.448173
803.000000	89.635264
802.000000	89.666870
801.000000	89.747632
800.000000	89.705270
799.000000	89.791032
798.000000	89.826506
797.000000	89.844904
796.000000	89.876794
795.000000	89.988784
794.000000	89.877171
793.000000	89.857830
792.000000	89.854433
791.000000	89.788296
790.000000	89.694703
789.000000	89.520537
788.000000	89.410905
787.000000	89.382507
786.000000	89.301557
785.000000	89.086727
784.000000	88.983983
783.000000	88.849443
782.000000	88.797646
781.000000	88.670938
780.000000	88.586119
779.000000	88.463939
778.000000	88.284962
777.000000	88.285245
776.000000	88.194577
775.000000	88.164103
774.000000	88.224768
773.000000	88.262979
772.000000	88.297510
771.000000	88.293076
770.000000	88.300057
769.000000	88.381479
768.000000	88.465449
767.000000	88.445070
766.000000	88.495734
765.000000	88.536209
764.000000	88.566967
763.000000	88.598479
762.000000	88.621783
761.000000	88.620462
760.000000	88.577911
759.000000	88.618669
758.000000	88.606310
757.000000	88.491583
756.000000	88.391952
755.000000	88.326663
754.000000	88.220145
753.000000	88.118816
752.000000	88.004561
751.000000	87.760390
750.000000	87.511501
749.000000	87.259687
748.000000	87.020799
747.000000	86.756815
746.000000	86.416880
745.000000	86.071946
744.000000	85.677479
743.000000	85.261406
742.000000	84.820992
741.000000	84.305194
740.000000	83.882328
739.000000	83.444933
738.000000	82.921681
737.000000	82.392769
736.000000	81.879046
735.000000	81.324566
734.000000	80.782256
733.000000	80.208434
732.000000	79.628103
731.000000	79.071547
730.000000	78.417435
729.000000	77.842575
728.000000	77.303285
727.000000	76.756258
726.000000	76.179700
725.000000	75.584367
724.000000	75.036868
723.000000	74.554846
722.000000	74.115564
721.000000	73.750062
720.000000	73.329932
719.000000	72.916501
718.000000	72.631477
717.000000	72.328433
716.000000	72.089639
715.000000	71.911606
714.000000	71.701494
713.000000	71.484589
712.000000	71.391939
711.000000	71.308253
710.000000	71.248814
709.000000	71.226925
708.000000	71.233058
707.000000	71.260230
706.000000	71.314386
705.000000	71.409111
704.000000	71.523932
703.000000	71.599410
702.000000	71.707721
701.000000	71.815937
700.000000	71.930098
699.000000	72.079733
698.000000	72.195969
697.000000	72.297393
696.000000	72.401930
695.000000	72.491749
694.000000	72.531941
693.000000	72.654781
692.000000	72.717711
691.000000	72.706389
690.000000	72.744034
689.000000	72.791774
688.000000	72.797057
687.000000	72.856213
686.000000	72.869611
685.000000	72.847345
684.000000	72.788943
683.000000	72.773093
682.000000	72.721202
681.000000	72.615910
680.000000	72.530337
679.000000	72.450707
678.000000	72.331735
677.000000	72.135964
676.000000	71.941514
675.000000	71.756026
674.000000	71.491665
673.000000	71.209754
672.000000	70.883123
671.000000	70.592910
670.000000	70.199198
669.000000	69.846055
668.000000	69.465268
667.000000	69.025703
666.000000	68.610102
665.000000	68.118551
664.000000	67.633039
663.000000	67.021478
662.000000	66.445014
661.000000	65.826566
660.000000	65.141697
659.000000	64.426920
658.000000	63.690255
657.000000	62.912076
656.000000	62.036248
655.000000	61.211839
654.000000	60.362522
653.000000	59.514810
652.000000	58.657379
651.000000	57.845236
650.000000	57.068850
649.000000	56.342562
648.000000	55.681563
647.000000	55.096892
646.000000	54.618078
645.000000	54.159832
644.000000	53.816407
643.000000	53.518363
642.000000	53.354387
641.000000	53.273531
640.000000	53.244849
639.000000	53.413920
638.000000	53.579500
637.000000	53.886318
636.000000	54.283993
635.000000	54.764411
634.000000	55.300116
633.000000	55.969512
632.000000	56.670137
631.000000	57.461901
630.000000	58.343862
629.000000	59.261392
628.000000	60.262137
627.000000	61.310715
626.000000	62.365710
625.000000	63.474199
624.000000	64.542590
623.000000	65.730426
622.000000	66.848350
621.000000	67.954292
620.000000	69.037213
619.000000	70.108718
618.000000	71.098801
617.000000	72.094734
616.000000	73.020001
615.000000	73.936210
614.000000	74.798829
613.000000	75.659279
612.000000	76.463686
611.000000	77.230354
610.000000	78.025044
609.000000	78.753029
608.000000	79.460164
607.000000	80.132673
606.000000	80.765745
605.000000	81.393534
604.000000	81.925182
603.000000	82.530233
602.000000	83.033577
601.000000	83.485785
600.000000	83.965259
599.000000	84.370482
598.000000	84.747872
597.000000	85.140736
596.000000	85.452554
595.000000	85.721822
594.000000	86.040339
593.000000	86.275359
592.000000	86.475376
591.000000	86.735398
590.000000	86.937207
589.000000	87.114675
588.000000	87.255441
587.000000	87.349129
586.000000	87.483196
585.000000	87.561788
584.000000	87.634341
583.000000	87.671986
582.000000	87.720292
581.000000	87.692742
580.000000	87.687081
579.000000	87.670476
578.000000	87.598772
577.000000	87.503387
576.000000	87.420833
575.000000	87.327712
574.000000	87.217042
573.000000	87.115618
572.000000	87.013534
571.000000	86.829651
570.000000	86.668788
569.000000	86.527739
568.000000	86.353856
567.000000	86.143367
566.000000	85.927500
565.000000	85.685876
564.000000	85.460668
563.000000	85.184135
562.000000	84.927887
561.000000	84.580122
560.000000	84.264341
559.000000	83.953277
558.000000	83.628250
557.000000	83.267465
556.000000	82.867620
555.000000	82.443717
554.000000	82.055759
553.000000	81.607892
552.000000	81.146626
551.000000	80.644509
550.000000	80.160034
549.000000	79.633764
548.000000	79.080510
547.000000	78.523765
546.000000	77.907392
545.000000	77.323947
544.000000	76.718141
543.000000	76.085069
542.000000	75.396804
541.000000	74.732409
540.000000	74.019047
539.000000	73.304741
538.000000	72.591851
537.000000	71.824428
536.000000	71.038325
535.000000	70.237880
534.000000	69.379695
533.000000	68.490752
532.000000	67.572751
531.000000	66.625313
530.000000	65.629946
529.000000	64.607313
528.000000	63.586944
527.000000	62.474964
526.000000	61.352323
525.000000	60.149391
524.000000	58.917024
523.000000	57.630972
522.000000	56.304446
521.000000	54.899611
520.000000	53.504116
519.000000	52.079280
518.000000	50.647933
517.000000	49.230172
516.000000	47.810525
515.000000	46.397199
514.000000	44.988967
513.000000	43.631683
512.000000	42.334216
511.000000	41.089300
510.000000	39.900049
509.000000	38.786654
508.000000	37.731376
507.000000	36.811299
506.000000	35.935943
505.000000	35.172105
504.000000	34.470348
503.000000	33.862655
502.000000	33.346857
501.000000	32.903329
500.000000	32.544903
499.000000	32.267616
498.000000	32.073354
497.000000	31.937588
496.000000	31.837768
495.000000	31.797765
494.000000	31.760120
493.000000	31.735401
492.000000	31.724268
491.000000	31.733420
490.000000	31.728986
489.000000	31.687095
488.000000	31.636619
487.000000	31.560764
486.000000	31.473775
485.000000	31.355747
484.000000	31.184883
483.000000	30.959676
482.000000	30.689276
481.000000	30.367267
480.000000	30.011388
479.000000	29.624186
478.000000	29.204057
477.000000	28.743735
476.000000	28.256241
475.000000	27.753274
474.000000	27.212097
473.000000	26.657805
472.000000	26.072378
471.000000	25.491009
470.000000	24.919640
469.000000	24.345441
468.000000	23.788979
467.000000	23.260727
466.000000	22.774271
465.000000	22.320460
464.000000	21.900424
463.000000	21.535299
462.000000	21.226028
461.000000	20.972988
460.000000	20.757026
459.000000	20.603806
458.000000	20.525214
457.000000	20.508137
456.000000	20.522384
455.000000	20.553707
454.000000	20.629374
453.000000	20.760706
452.000000	20.910530
451.000000	21.086111
450.000000	21.288958
449.000000	21.485578
448.000000	21.668801
447.000000	21.856741
446.000000	22.049305
445.000000	22.255643
444.000000	22.468680
443.000000	22.634354
442.000000	22.771441
441.000000	22.898999
440.000000	23.009008
439.000000	23.118168
438.000000	23.210251
437.000000	23.252142
436.000000	23.284880
435.000000	23.313373
434.000000	23.309694
433.000000	23.293277
432.000000	23.266765
431.000000	23.202986
430.000000	23.116092
429.000000	23.022594
428.000000	22.930511
427.000000	22.814935
426.000000	22.660488
425.000000	22.483020
424.000000	22.306590
423.000000	22.114499
422.000000	21.915331
421.000000	21.688991
420.000000	21.453217
419.000000	21.211404
418.000000	20.947325
417.000000	20.674284
416.000000	20.388977
415.000000	20.095650
414.000000	19.805720
413.000000	19.490505
412.000000	19.152835
411.000000	18.801579
410.000000	18.440983
409.000000	18.078311
408.000000	17.717997
407.000000	17.349287
406.000000	16.968218
405.000000	16.584695
404.000000	16.174094
403.000000	15.776891
402.000000	15.378744
401.000000	14.970786
400.000000	14.567072
399.000000	14.170058
398.000000	13.782761
397.000000	13.384992
396.000000	12.992789
395.000000	12.605304
394.000000	12.238292
393.000000	11.873261
392.000000	11.513137
391.000000	11.152352
390.000000	10.809210
389.000000	10.486541
388.000000	10.177364
387.000000	9.881773
386.000000	9.595712
385.000000	9.326066
384.000000	9.063308
383.000000	8.826213
382.000000	8.587325
381.000000	8.386176
380.000000	8.181064
379.000000	7.985105
378.000000	7.790749
377.000000	7.644604
376.000000	7.541294
375.000000	7.269856
374.000000	7.103332
373.000000	6.963604
372.000000	6.933224
371.000000	6.934167
370.000000	6.740377
369.000000	6.667069
368.000000	6.578760
367.000000	6.586025
366.000000	6.540172
365.000000	6.409029
364.000000	6.375347
363.000000	6.338551
362.000000	6.317795
361.000000	6.237411
360.000000	6.103248
359.000000	6.036922
358.000000	6.008335
357.000000	5.991918
356.000000	5.920403
355.000000	5.855020
354.000000	5.829263
353.000000	5.671608
352.000000	5.611132
351.000000	5.706894
350.000000	5.705290
349.000000	5.619529
348.000000	5.608679
347.000000	5.639247
346.000000	5.601414
345.000000	5.554617
344.000000	5.567826
343.000000	5.606886
342.000000	5.661325
341.000000	5.540465
340.000000	5.537163
339.000000	5.563203
338.000000	5.549806
337.000000	5.488763
336.000000	5.514237
335.000000	5.481687
334.000000	5.455930
333.000000	5.553957
332.000000	5.474233
331.000000	5.458949
330.000000	5.548485
329.000000	5.352714
328.000000	5.488857
327.000000	5.534333
326.000000	5.536031
325.000000	5.533295
324.000000	5.724820
323.000000	5.736520
322.000000	5.475460
321.000000	5.618868
320.000000	5.640568
319.000000	5.751993
318.000000	5.897476
317.000000	5.490744
316.000000	5.308087
315.000000	5.344411
314.000000	5.395264
313.000000	5.290539
312.000000	5.327900
311.000000	5.344789
310.000000	5.310635
309.000000	5.329316
308.000000	5.384509
307.000000	5.369319
306.000000	5.364507
305.000000	5.371489
304.000000	5.412153
303.000000	5.370545
302.000000	5.380641
301.000000	5.382528
300.000000	5.405454
299.000000	5.465365
298.000000	5.376678
297.000000	5.445269
296.000000	5.453760
295.000000	5.450929
294.000000	5.425644
293.000000	5.475082
292.000000	5.474139
291.000000	5.482064
290.000000	5.424890
289.000000	5.468289
288.000000	5.501122
287.000000	5.491499
286.000000	5.498009
285.000000	5.507161
284.000000	5.572543
283.000000	5.556599
282.000000	5.638398
281.000000	5.579242
280.000000	5.547070
279.000000	5.541031
278.000000	5.536691
277.000000	5.620000
276.000000	5.601225
275.000000	5.634247
274.000000	5.567354
273.000000	5.607358
272.000000	5.592168
271.000000	5.605376
270.000000	5.657834
269.000000	5.656796
268.000000	5.679345
267.000000	5.713687
266.000000	5.691516
265.000000	5.677458
264.000000	5.732274
263.000000	5.726990
262.000000	5.784637
261.000000	5.783505
260.000000	5.823980
259.000000	5.846812
258.000000	5.864360
257.000000	5.869172
256.000000	5.899929
255.000000	5.857096
254.000000	5.951632
253.000000	5.916723
252.000000	5.965312
251.000000	5.984559
250.000000	5.970690
