PE UV       SUBTECH     SPECTRUM    ASCII       PEDS        4.00        
   -1
CICIMAUCR0101-3.Sample.ASC
24/04/11
14:27:02.00
24/04/11
14:27:02.00
Vinicio Soto Monge
C. resplendens
250,000000
1
Lambda 1050
1050L1511233
PerkinElmer UV WinLab 6.3.2.0749 / 2.02.05 Lambda 900 UV/VIS/NIR, Aug  7 2015 09:38:08

0
0
3350/2 860,8/2
0
0
UV/VIS
1
1
1
DoubleDePol,CommonBeamDepol,RBeamAtt,SBeamAtt,60mm sphere, WB InGaAs Detector
0
0
0
0
Program
Program
3350/2 860,8/2
3350/0,2 860,8/0,2
3350/0,2 860,8/0,2
0
15.00
 
 
 
0
 
860,8
319,2
860,8
Front
100
on
S:100 R:100
0
0
0
0
 
0
 
 
 
0
 
 
0
0
0
0
0
 
 
 
 
0
0


0
0
#HDR
-1
-1
#GR
nm
%R
1.0
0.0
2400,000000
-1,000000
2151
8
92,537900
5,932000
#DATA
2400.000000	10.135704
2399.000000	9.814603
2398.000000	11.215194
2397.000000	9.911979
2396.000000	9.963685
2395.000000	10.348162
2394.000000	10.519979
2393.000000	10.548950
2392.000000	10.516357
2391.000000	10.195357
2390.000000	10.726501
2389.000000	9.935116
2388.000000	11.202419
2387.000000	11.555107
2386.000000	9.687048
2385.000000	11.091864
2384.000000	10.166888
2383.000000	10.989659
2382.000000	11.472518
2381.000000	10.742496
2380.000000	10.110454
2379.000000	10.280863
2378.000000	9.672461
2377.000000	10.301083
2376.000000	9.953223
2375.000000	9.514828
2374.000000	10.228855
2373.000000	10.263963
2372.000000	9.787140
2371.000000	10.321001
2370.000000	10.452177
2369.000000	9.802230
2368.000000	9.450045
2367.000000	8.891438
2366.000000	9.855042
2365.000000	9.145844
2364.000000	9.469761
2363.000000	9.642484
2362.000000	9.550640
2361.000000	9.508491
2360.000000	9.447731
2359.000000	9.764406
2358.000000	9.309613
2357.000000	9.311022
2356.000000	9.535450
2355.000000	8.848685
2354.000000	8.864377
2353.000000	9.158720
2352.000000	8.804020
2351.000000	8.518128
2350.000000	9.470466
2349.000000	8.445095
2348.000000	8.638038
2347.000000	9.491389
2346.000000	9.133571
2345.000000	8.897172
2344.000000	9.760684
2343.000000	9.249759
2342.000000	9.179040
2341.000000	8.897172
2340.000000	9.364337
2339.000000	9.532432
2338.000000	8.850194
2337.000000	9.083072
2336.000000	9.207207
2335.000000	8.913468
2334.000000	9.125825
2333.000000	8.766397
2332.000000	9.168780
2331.000000	9.183265
2330.000000	8.831986
2329.000000	8.895059
2328.000000	9.305489
2327.000000	9.019395
2326.000000	8.799192
2325.000000	8.871419
2324.000000	8.706141
2323.000000	8.433225
2322.000000	8.293397
2321.000000	8.788730
2320.000000	8.739639
2319.000000	7.964550
2318.000000	7.931656
2317.000000	8.394697
2316.000000	7.827640
2315.000000	7.788408
2314.000000	7.874417
2313.000000	8.206684
2312.000000	7.633088
2311.000000	7.433808
2310.000000	7.420932
2309.000000	7.136247
2308.000000	7.336533
2307.000000	7.952881
2306.000000	7.450105
2305.000000	7.420530
2304.000000	7.489941
2303.000000	7.563878
2302.000000	7.446986
2301.000000	7.110595
2300.000000	7.909424
2299.000000	7.777946
2298.000000	7.558547
2297.000000	7.751791
2296.000000	7.676847
2295.000000	7.792331
2294.000000	7.905803
2293.000000	8.126207
2292.000000	8.269355
2291.000000	7.987486
2290.000000	7.944934
2289.000000	8.235655
2288.000000	8.305770
2287.000000	8.173990
2286.000000	7.953988
2285.000000	7.784786
2284.000000	7.640331
2283.000000	8.045832
2282.000000	7.983865
2281.000000	7.798870
2280.000000	7.490846
2279.000000	7.574843
2278.000000	8.049453
2277.000000	7.604720
2276.000000	7.166325
2275.000000	7.391156
2274.000000	7.565186
2273.000000	7.500503
2272.000000	7.417814
2271.000000	7.545972
2270.000000	7.674031
2269.000000	7.770300
2268.000000	7.603413
2267.000000	7.625041
2266.000000	7.698174
2265.000000	7.613371
2264.000000	7.509456
2263.000000	7.611460
2262.000000	7.846451
2261.000000	7.991510
2260.000000	8.200749
2259.000000	8.217649
2258.000000	8.213927
2257.000000	8.308285
2256.000000	8.499115
2255.000000	8.920711
2254.000000	8.914172
2253.000000	8.906728
2252.000000	9.132968
2251.000000	9.134476
2250.000000	9.189905
2249.000000	9.253682
2248.000000	9.621258
2247.000000	9.815810
2246.000000	9.948395
2245.000000	10.356712
2244.000000	10.103916
2243.000000	10.081986
2242.000000	10.196061
2241.000000	10.335688
2240.000000	10.323817
2239.000000	10.407915
2238.000000	10.340516
2237.000000	10.332167
2236.000000	10.752053
2235.000000	10.704370
2234.000000	10.651155
2233.000000	10.789172
2232.000000	10.765935
2231.000000	10.574401
2230.000000	10.752757
2229.000000	10.568164
2228.000000	10.615846
2227.000000	11.037844
2226.000000	10.857477
2225.000000	11.020039
2224.000000	11.040460
2223.000000	10.848524
2222.000000	10.591301
2221.000000	10.351783
2220.000000	10.626107
2219.000000	10.451775
2218.000000	10.511730
2217.000000	10.837961
2216.000000	10.808688
2215.000000	10.672381
2214.000000	10.891880
2213.000000	10.769355
2212.000000	10.545027
2211.000000	10.721170
2210.000000	10.617858
2209.000000	10.733141
2208.000000	10.688376
2207.000000	10.705980
2206.000000	10.605485
2205.000000	10.464349
2204.000000	10.707086
2203.000000	10.669262
2202.000000	10.828304
2201.000000	10.767645
2200.000000	10.558205
2199.000000	10.324723
2198.000000	10.069311
2197.000000	10.316373
2196.000000	10.509517
2195.000000	10.354197
2194.000000	10.585869
2193.000000	10.672985
2192.000000	10.591905
2191.000000	10.852346
2190.000000	10.225234
2189.000000	10.279857
2188.000000	10.447248
2187.000000	10.441917
2186.000000	10.605988
2185.000000	10.393933
2184.000000	10.330054
2183.000000	10.086915
2182.000000	9.880795
2181.000000	10.468373
2180.000000	10.523600
2179.000000	10.350878
2178.000000	9.891055
2177.000000	10.098081
2176.000000	10.108040
2175.000000	10.254909
2174.000000	10.504487
2173.000000	10.412744
2172.000000	10.274827
2171.000000	10.951634
2170.000000	10.193446
2169.000000	10.429845
2168.000000	10.561323
2167.000000	10.354901
2166.000000	10.640995
2165.000000	10.769959
2164.000000	10.258028
2163.000000	10.702358
2162.000000	10.847618
2161.000000	10.593112
2160.000000	10.606390
2159.000000	10.498652
2158.000000	10.044464
2157.000000	10.641096
2156.000000	11.019033
2155.000000	11.071242
2154.000000	10.680529
2153.000000	11.353211
2152.000000	10.789877
2151.000000	10.942581
2150.000000	10.733442
2149.000000	10.775793
2148.000000	10.685257
2147.000000	10.795912
2146.000000	11.038247
2145.000000	10.896407
2144.000000	11.519194
2143.000000	11.346170
2142.000000	11.026175
2141.000000	11.084521
2140.000000	11.389627
2139.000000	11.129889
2138.000000	11.484086
2137.000000	11.433286
2136.000000	11.116208
2135.000000	11.530662
2134.000000	11.120534
2133.000000	11.513661
2132.000000	11.038951
2131.000000	11.015412
2130.000000	11.874296
2129.000000	11.271126
2128.000000	11.102427
2127.000000	11.538307
2126.000000	11.069331
2125.000000	11.361863
2124.000000	11.712136
2123.000000	11.161175
2122.000000	11.165400
2121.000000	11.335004
2120.000000	11.284706
2119.000000	11.220526
2118.000000	11.368603
2117.000000	10.636569
2116.000000	10.965215
2115.000000	11.322530
2114.000000	11.169926
2113.000000	10.839269
2112.000000	11.202419
2111.000000	10.847518
2110.000000	10.876590
2109.000000	10.888058
2108.000000	10.798528
2107.000000	10.801747
2106.000000	10.981813
2105.000000	10.981712
2104.000000	10.929805
2103.000000	10.736158
2102.000000	10.890271
2101.000000	10.756579
2100.000000	10.495735
2099.000000	10.588685
2098.000000	10.873874
2097.000000	10.575910
2096.000000	10.393731
2095.000000	10.682440
2094.000000	10.580235
2093.000000	10.230767
2092.000000	10.335788
2091.000000	10.618864
2090.000000	10.553879
2089.000000	10.519375
2088.000000	10.529032
2087.000000	10.736460
2086.000000	10.369488
2085.000000	10.616752
2084.000000	10.402785
2083.000000	10.436987
2082.000000	10.381358
2081.000000	10.253300
2080.000000	10.428034
2079.000000	10.395844
2078.000000	10.245856
2077.000000	10.170812
2076.000000	10.250886
2075.000000	10.346854
2074.000000	10.059654
2073.000000	10.086714
2072.000000	10.014889
2071.000000	10.158137
2070.000000	10.215778
2069.000000	10.172321
2068.000000	10.061565
2067.000000	10.195860
2066.000000	10.138822
2065.000000	10.115082
2064.000000	10.069613
2063.000000	10.024546
2062.000000	9.902121
2061.000000	9.840355
2060.000000	9.924353
2059.000000	9.896186
2058.000000	9.944069
2057.000000	9.907855
2056.000000	9.987124
2055.000000	9.772856
2054.000000	9.917009
2053.000000	10.200186
2052.000000	10.251690
2051.000000	10.143550
2050.000000	10.237506
2049.000000	10.184895
2048.000000	10.296355
2047.000000	10.293538
2046.000000	10.277745
2045.000000	10.448858
2044.000000	10.539494
2043.000000	10.760000
2042.000000	10.825588
2041.000000	10.825890
2040.000000	11.044383
2039.000000	11.085527
2038.000000	11.084320
2037.000000	11.288428
2036.000000	11.369005
2035.000000	11.526236
2034.000000	11.637595
2033.000000	11.762132
2032.000000	11.876107
2031.000000	11.914434
2030.000000	11.856290
2029.000000	11.922482
2028.000000	12.046918
2027.000000	12.086352
2026.000000	12.172059
2025.000000	12.226783
2024.000000	12.407553
2023.000000	12.394778
2022.000000	12.389848
2021.000000	12.534203
2020.000000	12.633893
2019.000000	12.748572
2018.000000	12.787201
2017.000000	12.846552
2016.000000	12.942420
2015.000000	12.846351
2014.000000	12.845144
2013.000000	12.959119
2012.000000	13.037885
2011.000000	13.063436
2010.000000	13.080940
2009.000000	13.138078
2008.000000	13.218051
2007.000000	13.200548
2006.000000	13.170671
2005.000000	13.205678
2004.000000	13.173890
2003.000000	13.183447
2002.000000	13.198737
2001.000000	13.228111
2000.000000	13.191092
1999.000000	13.155783
1998.000000	13.212016
1997.000000	13.148238
1996.000000	13.138782
1995.000000	13.195920
1994.000000	13.163227
1993.000000	13.122083
1992.000000	13.080537
1991.000000	13.038086
1990.000000	12.988895
1989.000000	13.015050
1988.000000	12.974007
1987.000000	12.905199
1986.000000	12.878642
1985.000000	12.788408
1984.000000	12.752596
1983.000000	12.754910
1982.000000	12.701996
1981.000000	12.599288
1980.000000	12.541949
1979.000000	12.519516
1978.000000	12.469621
1977.000000	12.426566
1976.000000	12.363090
1975.000000	12.271850
1974.000000	12.237446
1973.000000	12.285531
1972.000000	12.218132
1971.000000	12.144597
1970.000000	12.156064
1969.000000	12.116832
1968.000000	12.051747
1967.000000	12.030018
1966.000000	12.079310
1965.000000	11.966945
1964.000000	11.854982
1963.000000	11.789394
1962.000000	11.776216
1961.000000	11.814040
1960.000000	11.729338
1959.000000	11.654897
1958.000000	11.635885
1957.000000	11.611742
1956.000000	11.607517
1955.000000	11.599570
1954.000000	11.524324
1953.000000	11.469601
1952.000000	11.411758
1951.000000	11.332489
1950.000000	11.383189
1949.000000	11.340536
1948.000000	11.218413
1947.000000	11.310760
1946.000000	11.327459
1945.000000	11.239337
1944.000000	11.176767
1943.000000	11.137132
1942.000000	11.154636
1941.000000	11.210668
1940.000000	11.234106
1939.000000	11.263782
1938.000000	11.193868
1937.000000	11.226260
1936.000000	11.190448
1935.000000	11.220828
1934.000000	11.263279
1933.000000	11.288529
1932.000000	11.348986
1931.000000	11.441534
1930.000000	11.447168
1929.000000	11.588806
1928.000000	11.783559
1927.000000	11.787281
1926.000000	11.801264
1925.000000	11.953465
1924.000000	12.110696
1923.000000	12.147614
1922.000000	12.154354
1921.000000	12.485615
1920.000000	12.520220
1919.000000	12.511871
1918.000000	12.612768
1917.000000	12.757022
1916.000000	13.011328
1915.000000	13.009919
1914.000000	13.262313
1913.000000	13.440971
1912.000000	13.565408
1911.000000	13.739337
1910.000000	13.848987
1909.000000	13.978151
1908.000000	14.188698
1907.000000	14.366551
1906.000000	14.614820
1905.000000	14.991249
1904.000000	15.013983
1903.000000	15.172019
1902.000000	15.278952
1901.000000	15.474912
1900.000000	15.851341
1899.000000	16.014305
1898.000000	16.114398
1897.000000	16.271528
1896.000000	16.449280
1895.000000	16.653791
1894.000000	16.897534
1893.000000	17.138863
1892.000000	17.326373
1891.000000	17.532493
1890.000000	17.760644
1889.000000	17.861541
1888.000000	17.909022
1887.000000	18.251248
1886.000000	18.484529
1885.000000	18.835205
1884.000000	19.268571
1883.000000	19.416849
1882.000000	19.635443
1881.000000	20.126148
1880.000000	20.533660
1879.000000	20.793498
1878.000000	21.251510
1877.000000	21.577540
1876.000000	21.861219
1875.000000	22.068547
1874.000000	22.379990
1873.000000	22.666889
1872.000000	22.796758
1871.000000	23.098444
1870.000000	23.127214
1869.000000	23.277001
1868.000000	23.432622
1867.000000	23.370253
1866.000000	23.179222
1865.000000	23.305268
1864.000000	23.394798
1863.000000	23.363010
1862.000000	23.222981
1861.000000	23.437149
1860.000000	23.525874
1859.000000	23.359187
1858.000000	23.299132
1857.000000	23.358081
1856.000000	23.261107
1855.000000	23.140593
1854.000000	23.193507
1853.000000	23.115344
1852.000000	22.846351
1851.000000	22.836996
1850.000000	22.812451
1849.000000	22.841422
1848.000000	22.891921
1847.000000	22.692843
1846.000000	22.366108
1845.000000	22.268128
1844.000000	22.273057
1843.000000	22.340356
1842.000000	22.391458
1841.000000	22.355043
1840.000000	22.203747
1839.000000	22.054162
1838.000000	22.082731
1837.000000	22.131419
1836.000000	22.023279
1835.000000	21.906186
1834.000000	21.691716
1833.000000	21.638803
1832.000000	21.599671
1831.000000	21.614961
1830.000000	21.469802
1829.000000	21.358845
1828.000000	21.295872
1827.000000	21.213384
1826.000000	21.229178
1825.000000	21.025975
1824.000000	20.942983
1823.000000	21.009276
1822.000000	21.035833
1821.000000	21.084622
1820.000000	21.011992
1819.000000	20.847719
1818.000000	20.867034
1817.000000	20.855465
1816.000000	20.889366
1815.000000	20.894194
1814.000000	20.837559
1813.000000	20.822872
1812.000000	20.882224
1811.000000	20.823778
1810.000000	20.775391
1809.000000	20.708294
1808.000000	20.667955
1807.000000	20.654475
1806.000000	20.619166
1805.000000	20.520683
1804.000000	20.446846
1803.000000	20.470989
1802.000000	20.438698
1801.000000	20.338505
1800.000000	20.289314
1799.000000	20.261449
1798.000000	20.216080
1797.000000	20.177653
1796.000000	20.114378
1795.000000	20.067802
1794.000000	20.002113
1793.000000	19.981994
1792.000000	19.911779
1791.000000	19.832610
1790.000000	19.789153
1789.000000	19.688356
1788.000000	19.644094
1787.000000	19.573174
1786.000000	19.520663
1785.000000	19.469259
1784.000000	19.386670
1783.000000	19.253783
1782.000000	19.152685
1781.000000	19.078747
1780.000000	18.984791
1779.000000	18.896669
1778.000000	18.811465
1777.000000	18.707046
1776.000000	18.611984
1775.000000	18.474771
1774.000000	18.329109
1773.000000	18.191494
1772.000000	18.051365
1771.000000	17.947349
1770.000000	17.826433
1769.000000	17.689623
1768.000000	17.548287
1767.000000	17.434513
1766.000000	17.312692
1765.000000	17.272152
1764.000000	17.219239
1763.000000	17.176284
1762.000000	17.200628
1761.000000	17.255956
1760.000000	17.295389
1759.000000	17.333415
1758.000000	17.397494
1757.000000	17.438034
1756.000000	17.469721
1755.000000	17.488432
1754.000000	17.459360
1753.000000	17.453626
1752.000000	17.465597
1751.000000	17.470426
1750.000000	17.396287
1749.000000	17.300922
1748.000000	17.243080
1747.000000	17.161296
1746.000000	17.019456
1745.000000	16.879326
1744.000000	16.729841
1743.000000	16.523520
1742.000000	16.318305
1741.000000	16.091864
1740.000000	15.839973
1739.000000	15.604379
1738.000000	15.418981
1737.000000	15.266780
1736.000000	15.125041
1735.000000	14.995172
1734.000000	14.968212
1733.000000	15.002918
1732.000000	15.047079
1731.000000	15.113472
1730.000000	15.182280
1729.000000	15.260442
1728.000000	15.361843
1727.000000	15.505594
1726.000000	15.594520
1725.000000	15.633652
1724.000000	15.687571
1723.000000	15.703465
1722.000000	15.694814
1721.000000	15.718253
1720.000000	15.738975
1719.000000	15.730626
1718.000000	15.744106
1717.000000	15.817138
1716.000000	15.874679
1715.000000	15.949522
1714.000000	16.025874
1713.000000	16.107356
1712.000000	16.165400
1711.000000	16.201916
1710.000000	16.203827
1709.000000	16.199703
1708.000000	16.195880
1707.000000	16.177471
1706.000000	16.139949
1705.000000	16.106551
1704.000000	16.080095
1703.000000	16.010583
1702.000000	15.919544
1701.000000	15.804262
1700.000000	15.686766
1699.000000	15.582147
1698.000000	15.403288
1697.000000	15.288207
1696.000000	15.221613
1695.000000	15.210849
1694.000000	15.270200
1693.000000	15.315770
1692.000000	15.476019
1691.000000	15.618361
1690.000000	15.762917
1689.000000	15.863211
1688.000000	15.895301
1687.000000	15.894999
1686.000000	15.886147
1685.000000	15.890472
1684.000000	15.978292
1683.000000	16.085527
1682.000000	16.340436
1681.000000	16.800962
1680.000000	17.288851
1679.000000	17.804906
1678.000000	18.277202
1677.000000	18.781588
1676.000000	19.226723
1675.000000	19.593192
1674.000000	19.936827
1673.000000	20.185801
1672.000000	20.444432
1671.000000	20.677612
1670.000000	20.835748
1669.000000	20.975476
1668.000000	21.092971
1667.000000	21.207348
1666.000000	21.333596
1665.000000	21.420510
1664.000000	21.500383
1663.000000	21.587499
1662.000000	21.642122
1661.000000	21.700266
1660.000000	21.740907
1659.000000	21.748452
1658.000000	21.814442
1657.000000	21.815951
1656.000000	21.831845
1655.000000	21.807602
1654.000000	21.797643
1653.000000	21.808407
1652.000000	21.813939
1651.000000	21.791205
1650.000000	21.793619
1649.000000	21.753079
1648.000000	21.699562
1647.000000	21.612950
1646.000000	21.606411
1645.000000	21.537603
1644.000000	21.480264
1643.000000	21.427854
1642.000000	21.392042
1641.000000	21.336312
1640.000000	21.249196
1639.000000	21.210165
1638.000000	21.123049
1637.000000	21.038750
1636.000000	20.987447
1635.000000	20.924574
1634.000000	20.843293
1633.000000	20.812008
1632.000000	20.718856
1631.000000	20.612628
1630.000000	20.536477
1629.000000	20.489700
1628.000000	20.419887
1627.000000	20.321907
1626.000000	20.247265
1625.000000	20.198778
1624.000000	20.066394
1623.000000	20.008350
1622.000000	19.959662
1621.000000	19.899405
1620.000000	19.830699
1619.000000	19.724872
1618.000000	19.647313
1617.000000	19.560801
1616.000000	19.529214
1615.000000	19.463424
1614.000000	19.401256
1613.000000	19.316857
1612.000000	19.266861
1611.000000	19.212338
1610.000000	19.164756
1609.000000	19.052693
1608.000000	19.038006
1607.000000	18.960748
1606.000000	18.935398
1605.000000	18.851401
1604.000000	18.782191
1603.000000	18.749800
1602.000000	18.660773
1601.000000	18.635221
1600.000000	18.569130
1599.000000	18.546798
1598.000000	18.500725
1597.000000	18.416728
1596.000000	18.400632
1595.000000	18.346512
1594.000000	18.331825
1593.000000	18.284847
1592.000000	18.240887
1591.000000	18.233745
1590.000000	18.182240
1589.000000	18.163227
1588.000000	18.145723
1587.000000	18.116953
1586.000000	18.093112
1585.000000	18.087479
1584.000000	18.057501
1583.000000	18.056395
1582.000000	18.034666
1581.000000	18.016961
1580.000000	18.032855
1579.000000	17.998653
1578.000000	18.016861
1577.000000	18.038891
1576.000000	18.044826
1575.000000	18.071182
1574.000000	18.073697
1573.000000	18.120876
1572.000000	18.115645
1571.000000	18.148540
1570.000000	18.160612
1569.000000	18.192098
1568.000000	18.232336
1567.000000	18.262716
1566.000000	18.316535
1565.000000	18.328505
1564.000000	18.326494
1563.000000	18.392987
1562.000000	18.431817
1561.000000	18.457368
1560.000000	18.477890
1559.000000	18.470949
1558.000000	18.511388
1557.000000	18.515110
1556.000000	18.549916
1555.000000	18.536034
1554.000000	18.544082
1553.000000	18.542875
1552.000000	18.545993
1551.000000	18.555851
1550.000000	18.572852
1549.000000	18.518530
1548.000000	18.540158
1547.000000	18.535129
1546.000000	18.540561
1545.000000	18.506157
1544.000000	18.488754
1543.000000	18.507465
1542.000000	18.521146
1541.000000	18.513903
1540.000000	18.499216
1539.000000	18.507063
1538.000000	18.533519
1537.000000	18.530099
1536.000000	18.495192
1535.000000	18.527685
1534.000000	18.513802
1533.000000	18.517625
1532.000000	18.526779
1531.000000	18.533318
1530.000000	18.515613
1529.000000	18.500323
1528.000000	18.515613
1527.000000	18.500323
1526.000000	18.461694
1525.000000	18.428598
1524.000000	18.454552
1523.000000	18.449421
1522.000000	18.430409
1521.000000	18.418740
1520.000000	18.403147
1519.000000	18.393490
1518.000000	18.343595
1517.000000	18.340476
1516.000000	18.335648
1515.000000	18.316333
1514.000000	18.303357
1513.000000	18.307582
1512.000000	18.280723
1511.000000	18.250142
1510.000000	18.261006
1509.000000	18.249739
1508.000000	18.228916
1507.000000	18.195116
1506.000000	18.187068
1505.000000	18.203465
1504.000000	18.184151
1503.000000	18.166446
1502.000000	18.140593
1501.000000	18.150049
1500.000000	18.161819
1499.000000	18.154173
1498.000000	18.145723
1497.000000	18.159907
1496.000000	18.176606
1495.000000	18.170872
1494.000000	18.182541
1493.000000	18.212821
1492.000000	18.228614
1491.000000	18.262314
1490.000000	18.296315
1489.000000	18.328304
1488.000000	18.368945
1487.000000	18.374377
1486.000000	18.400130
1485.000000	18.419746
1484.000000	18.451232
1483.000000	18.495192
1482.000000	18.516016
1481.000000	18.563195
1480.000000	18.592267
1479.000000	18.638139
1478.000000	18.712076
1477.000000	18.742456
1476.000000	18.769516
1475.000000	18.852508
1474.000000	18.916486
1473.000000	18.959944
1472.000000	19.016981
1471.000000	19.058628
1470.000000	19.117979
1469.000000	19.169182
1468.000000	19.200166
1467.000000	19.260020
1466.000000	19.325709
1465.000000	19.380433
1464.000000	19.440388
1463.000000	19.513521
1462.000000	19.602246
1461.000000	19.664515
1460.000000	19.740967
1459.000000	19.829089
1458.000000	19.914394
1457.000000	20.012877
1456.000000	20.114982
1455.000000	20.202701
1454.000000	20.297361
1453.000000	20.384578
1452.000000	20.497446
1451.000000	20.632043
1450.000000	20.729017
1449.000000	20.822570
1448.000000	20.936746
1447.000000	21.083012
1446.000000	21.245977
1445.000000	21.352508
1444.000000	21.434493
1443.000000	21.588203
1442.000000	21.722397
1441.000000	21.836775
1440.000000	21.970768
1439.000000	22.089269
1438.000000	22.196605
1437.000000	22.315308
1436.000000	22.434916
1435.000000	22.573536
1434.000000	22.694653
1433.000000	22.818386
1432.000000	22.950769
1431.000000	23.092207
1430.000000	23.233745
1429.000000	23.395502
1428.000000	23.560680
1427.000000	23.732900
1426.000000	23.915179
1425.000000	24.126932
1424.000000	24.361119
1423.000000	24.578003
1422.000000	24.762797
1421.000000	24.957550
1420.000000	25.201192
1419.000000	25.427733
1418.000000	25.632043
1417.000000	25.791084
1416.000000	25.995997
1415.000000	26.251208
1414.000000	26.431878
1413.000000	26.552291
1412.000000	26.735978
1411.000000	26.950146
1410.000000	27.250927
1409.000000	27.525552
1408.000000	27.788509
1407.000000	28.151055
1406.000000	28.499719
1405.000000	28.899285
1404.000000	29.250967
1403.000000	29.552552
1402.000000	29.958958
1401.000000	30.406005
1400.000000	30.713224
1399.000000	30.863614
1398.000000	31.067219
1397.000000	31.373533
1396.000000	31.603695
1395.000000	31.661839
1394.000000	31.699462
1393.000000	31.837479
1392.000000	32.011208
1391.000000	32.055570
1390.000000	32.172462
1389.000000	32.412986
1388.000000	32.661759
1387.000000	32.847056
1386.000000	33.102066
1385.000000	33.494489
1384.000000	33.873332
1383.000000	34.271589
1382.000000	34.533942
1381.000000	34.696807
1380.000000	34.789153
1379.000000	34.804444
1378.000000	34.824865
1377.000000	34.891559
1376.000000	34.975758
1375.000000	35.155522
1374.000000	35.447149
1373.000000	35.814020
1372.000000	36.300199
1371.000000	36.728635
1370.000000	37.077500
1369.000000	37.444875
1368.000000	37.867578
1367.000000	38.116853
1366.000000	38.371863
1365.000000	38.687230
1364.000000	38.819915
1363.000000	38.978052
1362.000000	39.329935
1361.000000	39.375404
1360.000000	39.342308
1359.000000	39.363131
1358.000000	39.470064
1357.000000	39.687653
1356.000000	40.003321
1355.000000	40.551668
1354.000000	41.247789
1353.000000	41.999137
1352.000000	42.815268
1351.000000	43.609269
1350.000000	44.394115
1349.000000	45.089834
1348.000000	45.713425
1347.000000	46.289134
1346.000000	46.787283
1345.000000	47.318930
1344.000000	47.832370
1343.000000	48.303760
1342.000000	48.729179
1341.000000	49.148964
1340.000000	49.570258
1339.000000	49.946787
1338.000000	50.316073
1337.000000	50.668158
1336.000000	50.995495
1335.000000	51.306839
1334.000000	51.627235
1333.000000	51.904778
1332.000000	52.197310
1331.000000	52.448497
1330.000000	52.691335
1329.000000	52.914556
1328.000000	53.109913
1327.000000	53.340780
1326.000000	53.506863
1325.000000	53.718214
1324.000000	53.864782
1323.000000	54.043037
1322.000000	54.192924
1321.000000	54.316556
1320.000000	54.474894
1319.000000	54.583939
1318.000000	54.698517
1317.000000	54.821043
1316.000000	54.933810
1315.000000	55.028068
1314.000000	55.140232
1313.000000	55.218596
1312.000000	55.294948
1311.000000	55.381159
1310.000000	55.431557
1309.000000	55.500364
1308.000000	55.549656
1307.000000	55.579433
1306.000000	55.595528
1305.000000	55.639589
1304.000000	55.628020
1303.000000	55.631038
1302.000000	55.617759
1301.000000	55.619671
1300.000000	55.571385
1299.000000	55.562834
1298.000000	55.544828
1297.000000	55.521389
1296.000000	55.492518
1295.000000	55.418781
1294.000000	55.402083
1293.000000	55.358022
1292.000000	55.317985
1291.000000	55.247467
1290.000000	55.171719
1289.000000	55.099391
1288.000000	55.013683
1287.000000	54.930189
1286.000000	54.813096
1285.000000	54.681718
1284.000000	54.576596
1283.000000	54.443307
1282.000000	54.331444
1281.000000	54.218375
1280.000000	54.062351
1279.000000	53.959140
1278.000000	53.858344
1277.000000	53.739138
1276.000000	53.633714
1275.000000	53.542172
1274.000000	53.453748
1273.000000	53.350437
1272.000000	53.257285
1271.000000	53.177915
1270.000000	53.073296
1269.000000	52.977932
1268.000000	52.898159
1267.000000	52.806919
1266.000000	52.716886
1265.000000	52.629972
1264.000000	52.520725
1263.000000	52.443769
1262.000000	52.352328
1261.000000	52.270644
1260.000000	52.203950
1259.000000	52.115124
1258.000000	51.999942
1257.000000	51.927815
1256.000000	51.834060
1255.000000	51.730949
1254.000000	51.627940
1253.000000	51.517486
1252.000000	51.419506
1251.000000	51.312271
1250.000000	51.186728
1249.000000	51.044385
1248.000000	50.887758
1247.000000	50.740989
1246.000000	50.553479
1245.000000	50.363856
1244.000000	50.149185
1243.000000	49.937633
1242.000000	49.695198
1241.000000	49.458798
1240.000000	49.215156
1239.000000	48.969300
1238.000000	48.704231
1237.000000	48.428499
1236.000000	48.162524
1235.000000	47.898964
1234.000000	47.632889
1233.000000	47.352831
1232.000000	47.090478
1231.000000	46.814544
1230.000000	46.530462
1229.000000	46.256038
1228.000000	45.986140
1227.000000	45.708295
1226.000000	45.447753
1225.000000	45.189423
1224.000000	44.944473
1223.000000	44.703547
1222.000000	44.454875
1221.000000	44.229138
1220.000000	44.016077
1219.000000	43.812773
1218.000000	43.644879
1217.000000	43.468133
1216.000000	43.297825
1215.000000	43.161719
1214.000000	43.013240
1213.000000	42.865666
1212.000000	42.755816
1211.000000	42.645664
1210.000000	42.524346
1209.000000	42.428881
1208.000000	42.359570
1207.000000	42.307764
1206.000000	42.276478
1205.000000	42.261892
1204.000000	42.256359
1203.000000	42.262395
1202.000000	42.275271
1201.000000	42.277183
1200.000000	42.239057
1199.000000	42.152746
1198.000000	42.038268
1197.000000	41.864942
1196.000000	41.623312
1195.000000	41.317602
1194.000000	40.912302
1193.000000	40.394437
1192.000000	39.802130
1191.000000	39.168680
1190.000000	38.572551
1189.000000	38.070076
1188.000000	37.680973
1187.000000	37.445982
1186.000000	37.387536
1185.000000	37.503824
1184.000000	37.770503
1183.000000	38.183448
1182.000000	38.754126
1181.000000	39.405583
1180.000000	40.099893
1179.000000	40.759800
1178.000000	41.332591
1177.000000	41.815047
1176.000000	42.245596
1175.000000	42.675440
1174.000000	43.079935
1173.000000	43.499821
1172.000000	43.948577
1171.000000	44.429323
1170.000000	44.941958
1169.000000	45.445640
1168.000000	45.944795
1167.000000	46.464773
1166.000000	47.008090
1165.000000	47.572934
1164.000000	48.106794
1163.000000	48.682905
1162.000000	49.244731
1161.000000	49.795793
1160.000000	50.347660
1159.000000	50.886148
1158.000000	51.398079
1157.000000	51.865647
1156.000000	52.249821
1155.000000	52.555732
1154.000000	52.770202
1153.000000	52.882366
1152.000000	52.918379
1151.000000	52.886591
1150.000000	52.816476
1149.000000	52.745455
1148.000000	52.707732
1147.000000	52.716786
1146.000000	52.863957
1145.000000	53.142606
1144.000000	53.561989
1143.000000	54.059132
1142.000000	54.606573
1141.000000	55.156931
1140.000000	55.744107
1139.000000	56.323538
1138.000000	56.931336
1137.000000	57.568609
1136.000000	58.231131
1135.000000	58.908541
1134.000000	59.463426
1133.000000	59.945178
1132.000000	60.437593
1131.000000	60.920753
1130.000000	61.327159
1129.000000	61.681759
1128.000000	61.967852
1127.000000	62.216726
1126.000000	62.368927
1125.000000	62.508251
1124.000000	62.660654
1123.000000	62.810139
1122.000000	62.900675
1121.000000	62.953789
1120.000000	63.068367
1119.000000	63.135867
1118.000000	63.187171
1117.000000	63.209905
1116.000000	63.187674
1115.000000	63.170874
1114.000000	63.170572
1113.000000	63.162726
1112.000000	63.153572
1111.000000	63.143412
1110.000000	63.123896
1109.000000	63.123091
1108.000000	63.081042
1107.000000	63.062130
1106.000000	63.038490
1105.000000	62.995637
1104.000000	62.990808
1103.000000	63.004489
1102.000000	62.952179
1101.000000	62.913651
1100.000000	62.871301
1099.000000	62.770403
1098.000000	62.775634
1097.000000	62.704413
1096.000000	62.632386
1095.000000	62.553117
1094.000000	62.500606
1093.000000	62.398803
1092.000000	62.366713
1091.000000	62.300622
1090.000000	62.200731
1089.000000	62.118444
1088.000000	62.034648
1087.000000	61.959905
1086.000000	61.851363
1085.000000	61.770484
1084.000000	61.669788
1083.000000	61.619088
1082.000000	61.525433
1081.000000	61.454010
1080.000000	61.334201
1079.000000	61.314685
1078.000000	61.232097
1077.000000	61.183710
1076.000000	61.139046
1075.000000	61.033823
1074.000000	60.965015
1073.000000	60.931316
1072.000000	60.849632
1071.000000	60.782736
1070.000000	60.760002
1069.000000	60.698638
1068.000000	60.676709
1067.000000	60.621985
1066.000000	60.510022
1065.000000	60.488696
1064.000000	60.436386
1063.000000	60.396550
1062.000000	60.327039
1061.000000	60.251793
1060.000000	60.191235
1059.000000	60.129167
1058.000000	60.079171
1057.000000	60.018613
1056.000000	59.952521
1055.000000	59.850719
1054.000000	59.763402
1053.000000	59.643492
1052.000000	59.639367
1051.000000	59.541790
1050.000000	59.523180
1049.000000	59.457189
1048.000000	59.336575
1047.000000	59.358102
1046.000000	59.281147
1045.000000	59.220085
1044.000000	59.163752
1043.000000	59.091222
1042.000000	59.029155
1041.000000	59.043641
1040.000000	58.982378
1039.000000	58.905221
1038.000000	58.830781
1037.000000	58.768512
1036.000000	58.693166
1035.000000	58.582410
1034.000000	58.559374
1033.000000	58.460287
1032.000000	58.395403
1031.000000	58.343596
1030.000000	58.228716
1029.000000	58.128423
1028.000000	57.992417
1027.000000	57.934676
1026.000000	57.885183
1025.000000	57.859833
1024.000000	57.703708
1023.000000	57.638925
1022.000000	57.569514
1021.000000	57.469019
1020.000000	57.359873
1019.000000	57.315309
1018.000000	57.271852
1017.000000	57.273763
1016.000000	57.182523
1015.000000	57.177795
1014.000000	57.149729
1013.000000	57.134740
1012.000000	57.183730
1011.000000	57.216927
1010.000000	57.235939
1009.000000	57.396288
1008.000000	57.451918
1007.000000	57.523039
1006.000000	57.585307
1005.000000	57.627859
1004.000000	57.680873
1003.000000	57.711655
1002.000000	57.794345
1001.000000	57.782173
1000.000000	57.927634
999.000000	57.940913
998.000000	58.030644
997.000000	58.069071
996.000000	58.120677
995.000000	58.218456
994.000000	58.256179
993.000000	58.250546
992.000000	58.340277
991.000000	58.356573
990.000000	58.444293
989.000000	58.590961
988.000000	58.679988
987.000000	58.708155
986.000000	58.748996
985.000000	58.857237
984.000000	58.907434
983.000000	59.008131
982.000000	59.034185
981.000000	59.169285
980.000000	59.199966
979.000000	59.238997
978.000000	59.377618
977.000000	59.499540
976.000000	59.573276
975.000000	59.645303
974.000000	59.715921
973.000000	59.758171
972.000000	59.807563
971.000000	59.929787
970.000000	60.037726
969.000000	60.117699
968.000000	60.104421
967.000000	60.133694
966.000000	60.225638
965.000000	60.276238
964.000000	60.376129
963.000000	60.456807
962.000000	60.461937
961.000000	60.566355
960.000000	60.769156
959.000000	60.858786
958.000000	60.934032
957.000000	61.066919
956.000000	61.147395
955.000000	61.172242
954.000000	61.325550
953.000000	61.470307
952.000000	61.489722
951.000000	61.522717
950.000000	61.648461
949.000000	61.758714
948.000000	61.865245
947.000000	61.922685
946.000000	61.916448
945.000000	62.074483
944.000000	62.284728
943.000000	62.304143
942.000000	62.398099
941.000000	62.562271
940.000000	62.642848
939.000000	62.841323
938.000000	63.029739
937.000000	63.082752
936.000000	63.164034
935.000000	63.278008
934.000000	63.417233
933.000000	63.607861
932.000000	63.897677
931.000000	63.998272
930.000000	64.029759
929.000000	64.144035
928.000000	64.182060
927.000000	64.353978
926.000000	64.487066
925.000000	64.647516
924.000000	64.912786
923.000000	64.918621
922.000000	65.015997
921.000000	65.147576
920.000000	65.280161
919.000000	65.369993
918.000000	65.405503
917.000000	65.561024
916.000000	65.536780
915.000000	65.583859
914.000000	65.566557
913.000000	65.525413
912.000000	65.635263
911.000000	65.911197
910.000000	66.113293
909.000000	66.040362
908.000000	66.094381
907.000000	66.231493
906.000000	66.522214
905.000000	66.508533
904.000000	66.840297
903.000000	67.198518
902.000000	67.663973
901.000000	68.071788
900.000000	68.257688
899.000000	68.418239
898.000000	68.589754
897.000000	68.847178
896.000000	68.807644
895.000000	69.023924
894.000000	69.833718
893.000000	69.996281
892.000000	69.860175
891.000000	70.159246
890.000000	70.629932
889.000000	70.818247
888.000000	71.004248
887.000000	71.044386
886.000000	71.139348
885.000000	71.440833
884.000000	71.408441
883.000000	71.690008
882.000000	72.332713
881.000000	72.322955
880.000000	72.551709
879.000000	72.137859
878.000000	72.853294
877.000000	72.610256
876.000000	72.606735
875.000000	72.802896
874.000000	73.204574
873.000000	73.171981
872.000000	73.393694
871.000000	73.785413
870.000000	73.374782
869.000000	73.229119
868.000000	73.190390
867.000000	74.025635
866.000000	73.990628
865.000000	74.663008
864.000000	75.096172
863.000000	74.559395
862.000000	74.494913
861.000000	74.742378
860.000000	75.308932
859.000000	76.004349
858.000000	74.351967
857.000000	74.191700
856.000000	74.311100
855.000000	74.553100
854.000000	74.239200
853.000000	74.334300
852.000000	74.642800
851.000000	74.978900
850.000000	75.244500
849.000000	74.780700
848.000000	75.175100
847.000000	75.377900
846.000000	75.531500
845.000000	75.576900
844.000000	76.074700
843.000000	76.122500
842.000000	76.074700
841.000000	76.228900
840.000000	76.346200
839.000000	76.636200
838.000000	76.595300
837.000000	76.648200
836.000000	76.910400
835.000000	76.923000
834.000000	76.817400
833.000000	77.040100
832.000000	77.047400
831.000000	77.184100
830.000000	77.140000
829.000000	77.055200
828.000000	77.102500
827.000000	76.953200
826.000000	77.185900
825.000000	77.150900
824.000000	76.974200
823.000000	76.970100
822.000000	77.053100
821.000000	77.054800
820.000000	77.122800
819.000000	77.170500
818.000000	76.997700
817.000000	77.213900
816.000000	77.250000
815.000000	77.330300
814.000000	77.254100
813.000000	77.285400
812.000000	77.393100
811.000000	77.326700
810.000000	77.245900
809.000000	77.601600
808.000000	77.684300
807.000000	77.687600
806.000000	77.744700
805.000000	78.076100
804.000000	78.047400
803.000000	78.223800
802.000000	78.268200
801.000000	78.541000
800.000000	78.640000
799.000000	78.961600
798.000000	79.095000
797.000000	79.426800
796.000000	79.693400
795.000000	79.991700
794.000000	80.190500
793.000000	80.643100
792.000000	80.709800
791.000000	80.932600
790.000000	81.223900
789.000000	81.597200
788.000000	81.741400
787.000000	82.168100
786.000000	82.516900
785.000000	82.724400
784.000000	82.757700
783.000000	83.071200
782.000000	83.290600
781.000000	83.347200
780.000000	83.437800
779.000000	83.654900
778.000000	83.715000
777.000000	83.750600
776.000000	83.876800
775.000000	83.959000
774.000000	83.875300
773.000000	83.913300
772.000000	84.023700
771.000000	83.908300
770.000000	83.900800
769.000000	83.941800
768.000000	83.834300
767.000000	83.955000
766.000000	84.072700
765.000000	84.131700
764.000000	84.280700
763.000000	84.290400
762.000000	84.506400
761.000000	84.771100
760.000000	84.820600
759.000000	85.033300
758.000000	85.246700
757.000000	85.380300
756.000000	85.587200
755.000000	85.886300
754.000000	86.110000
753.000000	86.452200
752.000000	86.589300
751.000000	86.874500
750.000000	87.050400
749.000000	87.303000
748.000000	87.408400
747.000000	87.622600
746.000000	87.687600
745.000000	87.789600
744.000000	87.878900
743.000000	88.028600
742.000000	87.995800
741.000000	88.017800
740.000000	88.015000
739.000000	88.052000
738.000000	87.894100
737.000000	87.911000
736.000000	87.910900
735.000000	87.968500
734.000000	87.916900
733.000000	87.831500
732.000000	87.846600
731.000000	87.787200
730.000000	87.756200
729.000000	87.713500
728.000000	87.559400
727.000000	87.433200
726.000000	87.500300
725.000000	87.397100
724.000000	87.295800
723.000000	87.094200
722.000000	87.032200
721.000000	86.864600
720.000000	86.695000
719.000000	86.528000
718.000000	86.326900
717.000000	86.081400
716.000000	85.848300
715.000000	85.573200
714.000000	85.356800
713.000000	85.103200
712.000000	84.691900
711.000000	84.387200
710.000000	84.038800
709.000000	83.714500
708.000000	83.370300
707.000000	83.017600
706.000000	82.727800
705.000000	82.366500
704.000000	82.058300
703.000000	81.837700
702.000000	81.655200
701.000000	81.460700
700.000000	81.302600
699.000000	81.135400
698.000000	81.016300
697.000000	80.983500
696.000000	80.895100
695.000000	80.711700
694.000000	80.696500
693.000000	80.636500
692.000000	80.574900
691.000000	80.523800
690.000000	80.451300
689.000000	80.417400
688.000000	80.378200
687.000000	80.283200
686.000000	80.214000
685.000000	80.186600
684.000000	80.159800
683.000000	80.100500
682.000000	80.061400
681.000000	80.038600
680.000000	80.059400
679.000000	80.007600
678.000000	79.942000
677.000000	79.902400
676.000000	79.819200
675.000000	79.686700
674.000000	79.556700
673.000000	79.382000
672.000000	79.158400
671.000000	78.956000
670.000000	78.761400
669.000000	78.480100
668.000000	78.231900
667.000000	77.997400
666.000000	77.787600
665.000000	77.482700
664.000000	77.120900
663.000000	76.812300
662.000000	76.402100
661.000000	75.987200
660.000000	75.486900
659.000000	74.905900
658.000000	74.288300
657.000000	73.610700
656.000000	72.887200
655.000000	72.153200
654.000000	71.346000
653.000000	70.477500
652.000000	69.634300
651.000000	68.816400
650.000000	67.950200
649.000000	67.108500
648.000000	66.352800
647.000000	65.635500
646.000000	64.983800
645.000000	64.368500
644.000000	63.851600
643.000000	63.434300
642.000000	63.055500
641.000000	62.793100
640.000000	62.690000
639.000000	62.709700
638.000000	62.852800
637.000000	63.093100
636.000000	63.475000
635.000000	63.982800
634.000000	64.562200
633.000000	65.268300
632.000000	66.009500
631.000000	66.833200
630.000000	67.753900
629.000000	68.635000
628.000000	69.551800
627.000000	70.525700
626.000000	71.483800
625.000000	72.455600
624.000000	73.415400
623.000000	74.373100
622.000000	75.309800
621.000000	76.244400
620.000000	77.130800
619.000000	77.961500
618.000000	78.834900
617.000000	79.718800
616.000000	80.563900
615.000000	81.370400
614.000000	82.191100
613.000000	82.992600
612.000000	83.766700
611.000000	84.514200
610.000000	85.198000
609.000000	85.820600
608.000000	86.451600
607.000000	87.100500
606.000000	87.641800
605.000000	88.133900
604.000000	88.623200
603.000000	89.085100
602.000000	89.529400
601.000000	89.873100
600.000000	90.248000
599.000000	90.588500
598.000000	90.879300
597.000000	91.169000
596.000000	91.387600
595.000000	91.611200
594.000000	91.820100
593.000000	91.986100
592.000000	92.144500
591.000000	92.267600
590.000000	92.349600
589.000000	92.446900
588.000000	92.471600
587.000000	92.514400
586.000000	92.537900
585.000000	92.518900
584.000000	92.487000
583.000000	92.423800
582.000000	92.378700
581.000000	92.283800
580.000000	92.138200
579.000000	91.999200
578.000000	91.873000
577.000000	91.693800
576.000000	91.528900
575.000000	91.337300
574.000000	91.156800
573.000000	90.956300
572.000000	90.733500
571.000000	90.486900
570.000000	90.256200
569.000000	90.005600
568.000000	89.733700
567.000000	89.440300
566.000000	89.133000
565.000000	88.778400
564.000000	88.409800
563.000000	88.014800
562.000000	87.592400
561.000000	87.160000
560.000000	86.646000
559.000000	86.045200
558.000000	85.466900
557.000000	84.942300
556.000000	84.316000
555.000000	83.718700
554.000000	83.080900
553.000000	82.374100
552.000000	81.649100
551.000000	80.896600
550.000000	80.129000
549.000000	79.348100
548.000000	78.535000
547.000000	77.727000
546.000000	76.870200
545.000000	76.009700
544.000000	75.089500
543.000000	74.140700
542.000000	73.181300
541.000000	72.152200
540.000000	71.087200
539.000000	69.986200
538.000000	68.858900
537.000000	67.744200
536.000000	66.581900
535.000000	65.365200
534.000000	64.129100
533.000000	62.871200
532.000000	61.571300
531.000000	60.259500
530.000000	58.927000
529.000000	57.578700
528.000000	56.238500
527.000000	54.891600
526.000000	53.582800
525.000000	52.263600
524.000000	50.931800
523.000000	49.664200
522.000000	48.407900
521.000000	47.221600
520.000000	46.122600
519.000000	45.070900
518.000000	44.098400
517.000000	43.202900
516.000000	42.384800
515.000000	41.624500
514.000000	40.921600
513.000000	40.259900
512.000000	39.684400
511.000000	39.193000
510.000000	38.688700
509.000000	38.274800
508.000000	37.894200
507.000000	37.503200
506.000000	37.154100
505.000000	36.807500
504.000000	36.452600
503.000000	36.140100
502.000000	35.809300
501.000000	35.444400
500.000000	35.082500
499.000000	34.711900
498.000000	34.353800
497.000000	33.978000
496.000000	33.572400
495.000000	33.175100
494.000000	32.760100
493.000000	32.310600
492.000000	31.843900
491.000000	31.350800
490.000000	30.898400
489.000000	30.406500
488.000000	29.949300
487.000000	29.484500
486.000000	29.060300
485.000000	28.626800
484.000000	28.225300
483.000000	27.838300
482.000000	27.533000
481.000000	27.235100
480.000000	26.987500
479.000000	26.753600
478.000000	26.560800
477.000000	26.387900
476.000000	26.243800
475.000000	26.120000
474.000000	26.041400
473.000000	25.974500
472.000000	25.907100
471.000000	25.900700
470.000000	25.885800
469.000000	25.889100
468.000000	25.888600
467.000000	25.905200
466.000000	25.901800
465.000000	25.922700
464.000000	25.920200
463.000000	25.902000
462.000000	25.866000
461.000000	25.860400
460.000000	25.798700
459.000000	25.732300
458.000000	25.695200
457.000000	25.620800
456.000000	25.516200
455.000000	25.439600
454.000000	25.338400
453.000000	25.210400
452.000000	25.085400
451.000000	24.929300
450.000000	24.761100
449.000000	24.605100
448.000000	24.421600
447.000000	24.249100
446.000000	24.028400
445.000000	23.794400
444.000000	23.547600
443.000000	23.336900
442.000000	23.035600
441.000000	22.746800
440.000000	22.464100
439.000000	22.192500
438.000000	21.882500
437.000000	21.552200
436.000000	21.236400
435.000000	20.923600
434.000000	20.568200
433.000000	20.201200
432.000000	19.813400
431.000000	19.467400
430.000000	19.076700
429.000000	18.732100
428.000000	18.330000
427.000000	17.925600
426.000000	17.550400
425.000000	17.155500
424.000000	16.742100
423.000000	16.339600
422.000000	15.924300
421.000000	15.519900
420.000000	15.116700
419.000000	14.683300
418.000000	14.296700
417.000000	13.943800
416.000000	13.546800
415.000000	13.157500
414.000000	12.783000
413.000000	12.437400
412.000000	12.076800
411.000000	11.751200
410.000000	11.427100
409.000000	11.103600
408.000000	10.811900
407.000000	10.528400
406.000000	10.260300
405.000000	10.001300
404.000000	9.771300
403.000000	9.519600
402.000000	9.305000
401.000000	9.091600
400.000000	8.892000
399.000000	8.720500
398.000000	8.561600
397.000000	8.389800
396.000000	8.233500
395.000000	8.086400
394.000000	7.958100
393.000000	7.830000
392.000000	7.713000
391.000000	7.605400
390.000000	7.483100
389.000000	7.392700
388.000000	7.318900
387.000000	7.239400
386.000000	7.146500
385.000000	7.061400
384.000000	7.003400
383.000000	6.935000
382.000000	6.874400
381.000000	6.830900
380.000000	6.769300
379.000000	6.730200
378.000000	6.685600
377.000000	6.637800
376.000000	6.549300
375.000000	6.419800
374.000000	6.440700
373.000000	6.428700
372.000000	6.395500
371.000000	6.395600
370.000000	6.426500
369.000000	6.362400
368.000000	6.327900
367.000000	6.330500
366.000000	6.323100
365.000000	6.277600
364.000000	6.280500
363.000000	6.259900
362.000000	6.199700
361.000000	6.170000
360.000000	6.235500
359.000000	6.154600
358.000000	6.108400
357.000000	6.108300
356.000000	6.082600
355.000000	6.081400
354.000000	6.059500
353.000000	6.029800
352.000000	6.031100
351.000000	5.959000
350.000000	5.932000
349.000000	5.945700
348.000000	5.941000
347.000000	5.977400
346.000000	6.046900
345.000000	6.019800
344.000000	5.980600
343.000000	5.973200
342.000000	5.997800
341.000000	5.979300
340.000000	6.019300
339.000000	6.019400
338.000000	6.006600
337.000000	5.974700
336.000000	5.935400
335.000000	5.937800
334.000000	5.960600
333.000000	5.993500
332.000000	5.990200
331.000000	5.995800
330.000000	5.984800
329.000000	5.972100
328.000000	5.962800
327.000000	6.002600
326.000000	6.033600
325.000000	6.046100
324.000000	6.013700
323.000000	6.019000
322.000000	6.044300
321.000000	6.030800
320.000000	6.084300
319.000000	6.144700
318.000000	6.141800
317.000000	6.043200
316.000000	6.062200
315.000000	6.104900
314.000000	6.101400
313.000000	6.105900
312.000000	6.096800
311.000000	6.099300
310.000000	6.109100
309.000000	6.125000
308.000000	6.141400
307.000000	6.139400
306.000000	6.148200
305.000000	6.164000
304.000000	6.185400
303.000000	6.196600
302.000000	6.195900
301.000000	6.181700
300.000000	6.164000
299.000000	6.167600
298.000000	6.166500
297.000000	6.176000
296.000000	6.207000
295.000000	6.239300
294.000000	6.235100
293.000000	6.220000
292.000000	6.228300
291.000000	6.245700
290.000000	6.231300
289.000000	6.234600
288.000000	6.245500
287.000000	6.258500
286.000000	6.271100
285.000000	6.261900
284.000000	6.275500
283.000000	6.251800
282.000000	6.272400
281.000000	6.305700
280.000000	6.289200
279.000000	6.301800
278.000000	6.329000
277.000000	6.347200
276.000000	6.353300
275.000000	6.357500
274.000000	6.372400
273.000000	6.376400
272.000000	6.404400
271.000000	6.434100
270.000000	6.453100
269.000000	6.504400
268.000000	6.517400
267.000000	6.514900
266.000000	6.540900
265.000000	6.590200
264.000000	6.613000
263.000000	6.653200
262.000000	6.679300
261.000000	6.706700
260.000000	6.734100
259.000000	6.739700
258.000000	6.767800
257.000000	6.802800
256.000000	6.838600
255.000000	6.861300
254.000000	6.848200
253.000000	6.912700
252.000000	6.910700
251.000000	6.901000
250.000000	6.923500
