PE UV       SUBTECH     SPECTRUM    ASCII       PEDS        4.00        
   -1
CICIMAUCR0008-5.Sample.ASC
24/04/25
10:02:58.00
24/04/25
10:02:58.00
Vinicio Soto Monge
C. kalinini
250,000000
1
Lambda 1050
1050L1511233
PerkinElmer UV WinLab 6.3.2.0749 / 2.02.05 Lambda 900 UV/VIS/NIR, Aug  7 2015 09:38:08

0
0
3350/servo 860,8/2
0
0
UV/VIS
1
1
1
DoubleDePol,CommonBeamDepol,RBeamAtt,SBeamAtt,60mm sphere, WB InGaAs Detector
0
0
0
0
Program
Program
3350/servo 860,8/2
3350/0,2 860,8/0,2
3350/0,2 860,8/0,2
0
15.00
 
 
 
0
 
860,8
319,2
860,8
Front
100
on
S:100 R:100
0
0
0
0
 
0
 
 
 
0
 
 
0
0
0
0
0
 
 
 
 
0
0


0
0
#HDR
-1
-1
#GR
nm
%R
1.0
0.0
2500,000000
-1,000000
2251
8
95,184700
4,916500
#DATA
2500.000000	5.800100
2499.000000	5.891700
2498.000000	5.875200
2497.000000	5.779300
2496.000000	5.753400
2495.000000	5.677500
2494.000000	5.850900
2493.000000	5.820600
2492.000000	5.781800
2491.000000	5.749200
2490.000000	5.690200
2489.000000	5.746300
2488.000000	5.759800
2487.000000	5.722400
2486.000000	5.660800
2485.000000	5.683000
2484.000000	5.697500
2483.000000	5.659500
2482.000000	5.646000
2481.000000	5.595400
2480.000000	5.649700
2479.000000	5.593700
2478.000000	5.664400
2477.000000	5.664600
2476.000000	5.659600
2475.000000	5.632400
2474.000000	5.666700
2473.000000	5.657300
2472.000000	5.669300
2471.000000	5.587600
2470.000000	5.666600
2469.000000	5.664800
2468.000000	5.660200
2467.000000	5.675500
2466.000000	5.684100
2465.000000	5.708500
2464.000000	5.697200
2463.000000	5.699100
2462.000000	5.709900
2461.000000	5.718000
2460.000000	5.741300
2459.000000	5.803300
2458.000000	5.813100
2457.000000	5.850200
2456.000000	5.867300
2455.000000	5.904400
2454.000000	5.953100
2453.000000	5.966600
2452.000000	5.988300
2451.000000	6.052500
2450.000000	6.086500
2449.000000	6.133900
2448.000000	6.162700
2447.000000	6.216300
2446.000000	6.259700
2445.000000	6.295600
2444.000000	6.342500
2443.000000	6.380000
2442.000000	6.396300
2441.000000	6.441800
2440.000000	6.484400
2439.000000	6.512400
2438.000000	6.551100
2437.000000	6.596200
2436.000000	6.641200
2435.000000	6.654100
2434.000000	6.681400
2433.000000	6.723300
2432.000000	6.742300
2431.000000	6.766000
2430.000000	6.813600
2429.000000	6.825000
2428.000000	6.834700
2427.000000	6.857300
2426.000000	6.904700
2425.000000	6.924200
2424.000000	6.950900
2423.000000	6.955400
2422.000000	6.955600
2421.000000	6.975100
2420.000000	6.998800
2419.000000	7.002100
2418.000000	7.025900
2417.000000	7.034700
2416.000000	7.056300
2415.000000	7.056200
2414.000000	7.078700
2413.000000	7.089200
2412.000000	7.107300
2411.000000	7.140800
2410.000000	7.178400
2409.000000	7.223600
2408.000000	7.247000
2407.000000	7.263400
2406.000000	7.276600
2405.000000	7.288100
2404.000000	7.313100
2403.000000	7.339900
2402.000000	7.359500
2401.000000	7.375800
2400.000000	7.407000
2399.000000	7.425900
2398.000000	7.454100
2397.000000	7.460700
2396.000000	7.482700
2395.000000	7.496000
2394.000000	7.516000
2393.000000	7.538600
2392.000000	7.551200
2391.000000	7.571900
2390.000000	7.586900
2389.000000	7.585300
2388.000000	7.594000
2387.000000	7.601800
2386.000000	7.598700
2385.000000	7.610200
2384.000000	7.626700
2383.000000	7.622900
2382.000000	7.621000
2381.000000	7.612100
2380.000000	7.603300
2379.000000	7.592600
2378.000000	7.595400
2377.000000	7.593700
2376.000000	7.579700
2375.000000	7.562900
2374.000000	7.540300
2373.000000	7.526700
2372.000000	7.520400
2371.000000	7.504100
2370.000000	7.474600
2369.000000	7.440600
2368.000000	7.427900
2367.000000	7.403900
2366.000000	7.364300
2365.000000	7.316400
2364.000000	7.278500
2363.000000	7.256700
2362.000000	7.209700
2361.000000	7.178600
2360.000000	7.147500
2359.000000	7.103500
2358.000000	7.087600
2357.000000	7.069700
2356.000000	7.049900
2355.000000	7.030200
2354.000000	7.009300
2353.000000	7.006800
2352.000000	7.019200
2351.000000	7.035200
2350.000000	7.066800
2349.000000	7.081000
2348.000000	7.100300
2347.000000	7.142000
2346.000000	7.181000
2345.000000	7.199300
2344.000000	7.232000
2343.000000	7.257100
2342.000000	7.285300
2341.000000	7.301700
2340.000000	7.330000
2339.000000	7.358300
2338.000000	7.377000
2337.000000	7.364500
2336.000000	7.356100
2335.000000	7.357500
2334.000000	7.359500
2333.000000	7.335600
2332.000000	7.311500
2331.000000	7.305800
2330.000000	7.283000
2329.000000	7.254600
2328.000000	7.220400
2327.000000	7.181400
2326.000000	7.146700
2325.000000	7.115400
2324.000000	7.076000
2323.000000	7.006500
2322.000000	6.972200
2321.000000	6.933100
2320.000000	6.874900
2319.000000	6.818300
2318.000000	6.753100
2317.000000	6.698700
2316.000000	6.645100
2315.000000	6.592600
2314.000000	6.553700
2313.000000	6.510000
2312.000000	6.475700
2311.000000	6.431700
2310.000000	6.396900
2309.000000	6.378400
2308.000000	6.371000
2307.000000	6.358600
2306.000000	6.379900
2305.000000	6.392300
2304.000000	6.432500
2303.000000	6.475500
2302.000000	6.511500
2301.000000	6.572100
2300.000000	6.631000
2299.000000	6.675600
2298.000000	6.747000
2297.000000	6.797800
2296.000000	6.867200
2295.000000	6.906500
2294.000000	6.938700
2293.000000	6.970600
2292.000000	7.011800
2291.000000	7.046400
2290.000000	7.062000
2289.000000	7.065500
2288.000000	7.072000
2287.000000	7.071100
2286.000000	7.059100
2285.000000	7.038300
2284.000000	7.033800
2283.000000	7.020200
2282.000000	6.975800
2281.000000	6.985000
2280.000000	6.967000
2279.000000	6.934600
2278.000000	6.917500
2277.000000	6.887200
2276.000000	6.887400
2275.000000	6.884600
2274.000000	6.878200
2273.000000	6.864300
2272.000000	6.866300
2271.000000	6.889300
2270.000000	6.909700
2269.000000	6.941100
2268.000000	6.990500
2267.000000	7.048800
2266.000000	7.124800
2265.000000	7.189200
2264.000000	7.302600
2263.000000	7.395700
2262.000000	7.515500
2261.000000	7.621800
2260.000000	7.799500
2259.000000	7.943000
2258.000000	8.109000
2257.000000	8.253200
2256.000000	8.406700
2255.000000	8.582200
2254.000000	8.746200
2253.000000	8.898600
2252.000000	9.028700
2251.000000	9.193000
2250.000000	9.336500
2249.000000	9.446500
2248.000000	9.584500
2247.000000	9.708000
2246.000000	9.801300
2245.000000	9.883400
2244.000000	10.002600
2243.000000	10.090800
2242.000000	10.177700
2241.000000	10.249400
2240.000000	10.312800
2239.000000	10.389600
2238.000000	10.449200
2237.000000	10.524000
2236.000000	10.536300
2235.000000	10.600500
2234.000000	10.640900
2233.000000	10.664000
2232.000000	10.720700
2231.000000	10.762400
2230.000000	10.759600
2229.000000	10.759500
2228.000000	10.791100
2227.000000	10.806200
2226.000000	10.811800
2225.000000	10.811700
2224.000000	10.783600
2223.000000	10.786500
2222.000000	10.780700
2221.000000	10.769800
2220.000000	10.745000
2219.000000	10.741500
2218.000000	10.706500
2217.000000	10.688100
2216.000000	10.660700
2215.000000	10.651800
2214.000000	10.631700
2213.000000	10.609300
2212.000000	10.591200
2211.000000	10.574100
2210.000000	10.558300
2209.000000	10.523700
2208.000000	10.525200
2207.000000	10.502900
2206.000000	10.498400
2205.000000	10.491200
2204.000000	10.478000
2203.000000	10.447000
2202.000000	10.443200
2201.000000	10.433600
2200.000000	10.428900
2199.000000	10.435500
2198.000000	10.416900
2197.000000	10.410000
2196.000000	10.406300
2195.000000	10.398000
2194.000000	10.379100
2193.000000	10.376900
2192.000000	10.378600
2191.000000	10.343700
2190.000000	10.336100
2189.000000	10.339700
2188.000000	10.336200
2187.000000	10.324800
2186.000000	10.308900
2185.000000	10.303100
2184.000000	10.287100
2183.000000	10.280200
2182.000000	10.277900
2181.000000	10.262300
2180.000000	10.268500
2179.000000	10.265100
2178.000000	10.255300
2177.000000	10.257200
2176.000000	10.264500
2175.000000	10.251600
2174.000000	10.249500
2173.000000	10.251800
2172.000000	10.256600
2171.000000	10.257600
2170.000000	10.262000
2169.000000	10.271800
2168.000000	10.288700
2167.000000	10.302300
2166.000000	10.304700
2165.000000	10.317900
2164.000000	10.325400
2163.000000	10.355800
2162.000000	10.381200
2161.000000	10.380900
2160.000000	10.411800
2159.000000	10.430600
2158.000000	10.453500
2157.000000	10.475700
2156.000000	10.508400
2155.000000	10.529700
2154.000000	10.565900
2153.000000	10.607800
2152.000000	10.637800
2151.000000	10.660300
2150.000000	10.685900
2149.000000	10.709200
2148.000000	10.752400
2147.000000	10.783800
2146.000000	10.805200
2145.000000	10.838100
2144.000000	10.845500
2143.000000	10.875500
2142.000000	10.919200
2141.000000	10.944000
2140.000000	10.962000
2139.000000	11.004000
2138.000000	11.013700
2137.000000	11.036300
2136.000000	11.072200
2135.000000	11.088000
2134.000000	11.097100
2133.000000	11.118600
2132.000000	11.138500
2131.000000	11.148100
2130.000000	11.171600
2129.000000	11.192900
2128.000000	11.187900
2127.000000	11.187200
2126.000000	11.186000
2125.000000	11.199900
2124.000000	11.211600
2123.000000	11.209500
2122.000000	11.211300
2121.000000	11.217100
2120.000000	11.203200
2119.000000	11.187200
2118.000000	11.196500
2117.000000	11.195000
2116.000000	11.186400
2115.000000	11.169800
2114.000000	11.150400
2113.000000	11.149700
2112.000000	11.145900
2111.000000	11.129000
2110.000000	11.113100
2109.000000	11.104600
2108.000000	11.089800
2107.000000	11.086400
2106.000000	11.087500
2105.000000	11.067500
2104.000000	11.049300
2103.000000	11.051300
2102.000000	11.033800
2101.000000	11.016500
2100.000000	11.009900
2099.000000	11.004800
2098.000000	10.996600
2097.000000	10.987400
2096.000000	10.971600
2095.000000	10.963400
2094.000000	10.961900
2093.000000	10.957800
2092.000000	10.950300
2091.000000	10.948700
2090.000000	10.947200
2089.000000	10.936200
2088.000000	10.930900
2087.000000	10.925800
2086.000000	10.931300
2085.000000	10.919500
2084.000000	10.905500
2083.000000	10.889800
2082.000000	10.877800
2081.000000	10.886900
2080.000000	10.877800
2079.000000	10.854000
2078.000000	10.839000
2077.000000	10.825300
2076.000000	10.810000
2075.000000	10.804200
2074.000000	10.781900
2073.000000	10.768700
2072.000000	10.761300
2071.000000	10.752000
2070.000000	10.731700
2069.000000	10.708500
2068.000000	10.686700
2067.000000	10.680500
2066.000000	10.668000
2065.000000	10.645400
2064.000000	10.631600
2063.000000	10.611700
2062.000000	10.618100
2061.000000	10.609100
2060.000000	10.601200
2059.000000	10.600100
2058.000000	10.610900
2057.000000	10.616400
2056.000000	10.642700
2055.000000	10.664700
2054.000000	10.698300
2053.000000	10.749900
2052.000000	10.807100
2051.000000	10.854300
2050.000000	10.923100
2049.000000	11.007200
2048.000000	11.066800
2047.000000	11.168900
2046.000000	11.258300
2045.000000	11.338800
2044.000000	11.430800
2043.000000	11.530800
2042.000000	11.612900
2041.000000	11.721500
2040.000000	11.815300
2039.000000	11.901500
2038.000000	11.994200
2037.000000	12.082200
2036.000000	12.149200
2035.000000	12.255700
2034.000000	12.319200
2033.000000	12.386400
2032.000000	12.460800
2031.000000	12.538300
2030.000000	12.590200
2029.000000	12.644400
2028.000000	12.710300
2027.000000	12.765500
2026.000000	12.830900
2025.000000	12.859200
2024.000000	12.900100
2023.000000	12.966800
2022.000000	12.998700
2021.000000	13.047900
2020.000000	13.088100
2019.000000	13.127700
2018.000000	13.148200
2017.000000	13.188400
2016.000000	13.214800
2015.000000	13.250800
2014.000000	13.265300
2013.000000	13.280600
2012.000000	13.316300
2011.000000	13.312400
2010.000000	13.328300
2009.000000	13.346200
2008.000000	13.340200
2007.000000	13.329000
2006.000000	13.341300
2005.000000	13.331600
2004.000000	13.327500
2003.000000	13.298000
2002.000000	13.286700
2001.000000	13.265200
2000.000000	13.242200
1999.000000	13.241000
1998.000000	13.217600
1997.000000	13.181600
1996.000000	13.135700
1995.000000	13.111700
1994.000000	13.082200
1993.000000	13.038300
1992.000000	12.988800
1991.000000	12.944900
1990.000000	12.904400
1989.000000	12.859100
1988.000000	12.808500
1987.000000	12.771500
1986.000000	12.715700
1985.000000	12.665600
1984.000000	12.615900
1983.000000	12.562700
1982.000000	12.502700
1981.000000	12.467600
1980.000000	12.402500
1979.000000	12.344500
1978.000000	12.300900
1977.000000	12.243500
1976.000000	12.192200
1975.000000	12.139100
1974.000000	12.102900
1973.000000	12.063100
1972.000000	12.009300
1971.000000	11.973200
1970.000000	11.945600
1969.000000	11.848300
1968.000000	11.852900
1967.000000	11.801400
1966.000000	11.761000
1965.000000	11.720900
1964.000000	11.671600
1963.000000	11.634600
1962.000000	11.601300
1961.000000	11.556500
1960.000000	11.505500
1959.000000	11.481200
1958.000000	11.431300
1957.000000	11.398300
1956.000000	11.374700
1955.000000	11.328600
1954.000000	11.290600
1953.000000	11.245800
1952.000000	11.216100
1951.000000	11.195100
1950.000000	11.174100
1949.000000	11.154400
1948.000000	11.126100
1947.000000	11.099500
1946.000000	11.096000
1945.000000	11.066700
1944.000000	11.076200
1943.000000	11.046900
1942.000000	11.062500
1941.000000	11.064500
1940.000000	11.061500
1939.000000	11.088900
1938.000000	11.113000
1937.000000	11.101600
1936.000000	11.140400
1935.000000	11.197000
1934.000000	11.224100
1933.000000	11.278500
1932.000000	11.335300
1931.000000	11.404800
1930.000000	11.478000
1929.000000	11.553800
1928.000000	11.614800
1927.000000	11.696800
1926.000000	11.795800
1925.000000	11.915600
1924.000000	12.019400
1923.000000	12.131600
1922.000000	12.242400
1921.000000	12.363700
1920.000000	12.499800
1919.000000	12.626100
1918.000000	12.788900
1917.000000	12.931100
1916.000000	13.092100
1915.000000	13.247500
1914.000000	13.420400
1913.000000	13.583700
1912.000000	13.744300
1911.000000	13.918500
1910.000000	14.111400
1909.000000	14.301900
1908.000000	14.497400
1907.000000	14.710600
1906.000000	14.919400
1905.000000	15.131400
1904.000000	15.342200
1903.000000	15.544500
1902.000000	15.767900
1901.000000	16.008800
1900.000000	16.225300
1899.000000	16.442600
1898.000000	16.683200
1897.000000	16.915700
1896.000000	17.133500
1895.000000	17.368200
1894.000000	17.610500
1893.000000	17.853900
1892.000000	18.093400
1891.000000	18.326400
1890.000000	18.541700
1889.000000	18.814800
1888.000000	19.088000
1887.000000	19.372200
1886.000000	19.679600
1885.000000	20.050100
1884.000000	20.425900
1883.000000	20.786700
1882.000000	21.196200
1881.000000	21.583800
1880.000000	21.944800
1879.000000	22.308900
1878.000000	22.665600
1877.000000	22.952000
1876.000000	23.236600
1875.000000	23.507700
1874.000000	23.743400
1873.000000	23.950000
1872.000000	24.124100
1871.000000	24.261200
1870.000000	24.389200
1869.000000	24.509400
1868.000000	24.592800
1867.000000	24.651700
1866.000000	24.719200
1865.000000	24.770100
1864.000000	24.821300
1863.000000	24.877300
1862.000000	24.920800
1861.000000	24.925000
1860.000000	24.902800
1859.000000	24.877100
1858.000000	24.871500
1857.000000	24.846000
1856.000000	24.793200
1855.000000	24.741900
1854.000000	24.664200
1853.000000	24.593900
1852.000000	24.565500
1851.000000	24.538000
1850.000000	24.502300
1849.000000	24.428600
1848.000000	24.295600
1847.000000	24.171000
1846.000000	24.099700
1845.000000	24.084000
1844.000000	24.079200
1843.000000	24.072600
1842.000000	24.015400
1841.000000	23.930400
1840.000000	23.868300
1839.000000	23.819100
1838.000000	23.774700
1837.000000	23.708200
1836.000000	23.621000
1835.000000	23.533800
1834.000000	23.469600
1833.000000	23.417900
1832.000000	23.359400
1831.000000	23.274100
1830.000000	23.194100
1829.000000	23.112900
1828.000000	23.025200
1827.000000	22.946600
1826.000000	22.882500
1825.000000	22.856800
1824.000000	22.854700
1823.000000	22.869600
1822.000000	22.852300
1821.000000	22.793200
1820.000000	22.739900
1819.000000	22.719900
1818.000000	22.730000
1817.000000	22.736100
1816.000000	22.735000
1815.000000	22.734500
1814.000000	22.731600
1813.000000	22.718500
1812.000000	22.702900
1811.000000	22.681200
1810.000000	22.647000
1809.000000	22.621500
1808.000000	22.612000
1807.000000	22.571600
1806.000000	22.522700
1805.000000	22.497100
1804.000000	22.466300
1803.000000	22.437300
1802.000000	22.409800
1801.000000	22.358900
1800.000000	22.322700
1799.000000	22.278500
1798.000000	22.249700
1797.000000	22.232100
1796.000000	22.205600
1795.000000	22.160100
1794.000000	22.120800
1793.000000	22.088900
1792.000000	22.052600
1791.000000	22.016800
1790.000000	21.962100
1789.000000	21.917300
1788.000000	21.855100
1787.000000	21.780800
1786.000000	21.722700
1785.000000	21.674000
1784.000000	21.592300
1783.000000	21.534200
1782.000000	21.473200
1781.000000	21.391000
1780.000000	21.318400
1779.000000	21.239300
1778.000000	21.143300
1777.000000	21.045700
1776.000000	20.933800
1775.000000	20.812600
1774.000000	20.688700
1773.000000	20.560100
1772.000000	20.449400
1771.000000	20.317200
1770.000000	20.187900
1769.000000	20.093000
1768.000000	19.972900
1767.000000	19.880800
1766.000000	19.825600
1765.000000	19.774700
1764.000000	19.740000
1763.000000	19.734000
1762.000000	19.758700
1761.000000	19.826600
1760.000000	19.866000
1759.000000	19.918900
1758.000000	19.974600
1757.000000	20.015300
1756.000000	20.026000
1755.000000	20.042700
1754.000000	20.034700
1753.000000	20.014200
1752.000000	19.981000
1751.000000	19.931800
1750.000000	19.865500
1749.000000	19.799300
1748.000000	19.689700
1747.000000	19.574200
1746.000000	19.444500
1745.000000	19.283100
1744.000000	19.105300
1743.000000	18.911000
1742.000000	18.682800
1741.000000	18.439600
1740.000000	18.240700
1739.000000	18.035300
1738.000000	17.819700
1737.000000	17.676500
1736.000000	17.578900
1735.000000	17.521000
1734.000000	17.495200
1733.000000	17.526500
1732.000000	17.575900
1731.000000	17.649900
1730.000000	17.733000
1729.000000	17.836400
1728.000000	17.934600
1727.000000	18.023300
1726.000000	18.083100
1725.000000	18.124000
1724.000000	18.142700
1723.000000	18.159300
1722.000000	18.178400
1721.000000	18.176500
1720.000000	18.179100
1719.000000	18.194000
1718.000000	18.228100
1717.000000	18.255200
1716.000000	18.319800
1715.000000	18.361500
1714.000000	18.414300
1713.000000	18.457000
1712.000000	18.502300
1711.000000	18.505800
1710.000000	18.497100
1709.000000	18.480700
1708.000000	18.460500
1707.000000	18.428600
1706.000000	18.401900
1705.000000	18.337700
1704.000000	18.279300
1703.000000	18.174500
1702.000000	18.066100
1701.000000	17.931100
1700.000000	17.769000
1699.000000	17.644700
1698.000000	17.511000
1697.000000	17.464100
1696.000000	17.429600
1695.000000	17.478300
1694.000000	17.556800
1693.000000	17.709500
1692.000000	17.878000
1691.000000	18.004300
1690.000000	18.160900
1689.000000	18.254700
1688.000000	18.263900
1687.000000	18.306900
1686.000000	18.327400
1685.000000	18.415700
1684.000000	18.600500
1683.000000	18.857500
1682.000000	19.265300
1681.000000	19.761300
1680.000000	20.317000
1679.000000	20.855300
1678.000000	21.353400
1677.000000	21.817000
1676.000000	22.243400
1675.000000	22.627700
1674.000000	22.923000
1673.000000	23.200800
1672.000000	23.456700
1671.000000	23.677200
1670.000000	23.882000
1669.000000	24.029400
1668.000000	24.201400
1667.000000	24.335000
1666.000000	24.446400
1665.000000	24.548800
1664.000000	24.649800
1663.000000	24.716400
1662.000000	24.796400
1661.000000	24.850300
1660.000000	24.889100
1659.000000	24.952700
1658.000000	24.981900
1657.000000	25.037300
1656.000000	25.051300
1655.000000	25.065300
1654.000000	25.060400
1653.000000	25.049800
1652.000000	25.034900
1651.000000	25.017300
1650.000000	24.997100
1649.000000	24.974000
1648.000000	24.930900
1647.000000	24.896400
1646.000000	24.857300
1645.000000	24.806100
1644.000000	24.770600
1643.000000	24.719700
1642.000000	24.664100
1641.000000	24.618500
1640.000000	24.551600
1639.000000	24.489500
1638.000000	24.447300
1637.000000	24.395900
1636.000000	24.322100
1635.000000	24.256900
1634.000000	24.203300
1633.000000	24.120600
1632.000000	24.049600
1631.000000	23.983400
1630.000000	23.906700
1629.000000	23.814900
1628.000000	23.739800
1627.000000	23.668700
1626.000000	23.571200
1625.000000	23.488700
1624.000000	23.412800
1623.000000	23.319800
1622.000000	23.238700
1621.000000	23.164900
1620.000000	23.080800
1619.000000	22.984600
1618.000000	22.915300
1617.000000	22.835700
1616.000000	22.771400
1615.000000	22.693600
1614.000000	22.608200
1613.000000	22.549400
1612.000000	22.478100
1611.000000	22.400100
1610.000000	22.336300
1609.000000	22.260300
1608.000000	22.182200
1607.000000	22.099100
1606.000000	22.037800
1605.000000	21.969800
1604.000000	21.886900
1603.000000	21.812900
1602.000000	21.741800
1601.000000	21.674800
1600.000000	21.607400
1599.000000	21.546400
1598.000000	21.477300
1597.000000	21.417400
1596.000000	21.369900
1595.000000	21.316500
1594.000000	21.268000
1593.000000	21.211800
1592.000000	21.154700
1591.000000	21.124700
1590.000000	21.097600
1589.000000	21.060800
1588.000000	21.028300
1587.000000	20.992900
1586.000000	20.966100
1585.000000	20.954400
1584.000000	20.937300
1583.000000	20.922200
1582.000000	20.902200
1581.000000	20.898500
1580.000000	20.897400
1579.000000	20.897100
1578.000000	20.900800
1577.000000	20.919000
1576.000000	20.934300
1575.000000	20.948000
1574.000000	20.970000
1573.000000	20.995200
1572.000000	21.020500
1571.000000	21.053500
1570.000000	21.087400
1569.000000	21.130600
1568.000000	21.166100
1567.000000	21.204000
1566.000000	21.258300
1565.000000	21.304400
1564.000000	21.337500
1563.000000	21.370700
1562.000000	21.414400
1561.000000	21.454500
1560.000000	21.478100
1559.000000	21.501600
1558.000000	21.530000
1557.000000	21.552800
1556.000000	21.571400
1555.000000	21.571200
1554.000000	21.578800
1553.000000	21.603100
1552.000000	21.609600
1551.000000	21.608100
1550.000000	21.612600
1549.000000	21.599800
1548.000000	21.599700
1547.000000	21.606300
1546.000000	21.611300
1545.000000	21.623500
1544.000000	21.641200
1543.000000	21.655300
1542.000000	21.666100
1541.000000	21.679600
1540.000000	21.686300
1539.000000	21.695500
1538.000000	21.704700
1537.000000	21.695400
1536.000000	21.699400
1535.000000	21.715300
1534.000000	21.709300
1533.000000	21.708500
1532.000000	21.707300
1531.000000	21.696400
1530.000000	21.688200
1529.000000	21.660800
1528.000000	21.653100
1527.000000	21.650100
1526.000000	21.636300
1525.000000	21.617100
1524.000000	21.609000
1523.000000	21.583600
1522.000000	21.554800
1521.000000	21.551000
1520.000000	21.523500
1519.000000	21.491800
1518.000000	21.448300
1517.000000	21.423600
1516.000000	21.402700
1515.000000	21.370900
1514.000000	21.338200
1513.000000	21.312900
1512.000000	21.279700
1511.000000	21.246700
1510.000000	21.219200
1509.000000	21.190600
1508.000000	21.170500
1507.000000	21.130200
1506.000000	21.114200
1505.000000	21.084000
1504.000000	21.055400
1503.000000	21.033300
1502.000000	21.005100
1501.000000	20.989600
1500.000000	20.977400
1499.000000	20.957800
1498.000000	20.954000
1497.000000	20.950400
1496.000000	20.944700
1495.000000	20.935200
1494.000000	20.951200
1493.000000	20.960400
1492.000000	20.966100
1491.000000	20.959300
1490.000000	20.979800
1489.000000	21.000900
1488.000000	21.013800
1487.000000	21.023000
1486.000000	21.037800
1485.000000	21.052900
1484.000000	21.105600
1483.000000	21.123800
1482.000000	21.130000
1481.000000	21.182400
1480.000000	21.221600
1479.000000	21.252100
1478.000000	21.292500
1477.000000	21.337900
1476.000000	21.391800
1475.000000	21.445200
1474.000000	21.498200
1473.000000	21.548500
1472.000000	21.601100
1471.000000	21.649700
1470.000000	21.686600
1469.000000	21.745800
1468.000000	21.812400
1467.000000	21.866700
1466.000000	21.913800
1465.000000	21.963200
1464.000000	22.062600
1463.000000	22.132900
1462.000000	22.200100
1461.000000	22.307700
1460.000000	22.366200
1459.000000	22.488100
1458.000000	22.579300
1457.000000	22.685200
1456.000000	22.779600
1455.000000	22.887500
1454.000000	23.007000
1453.000000	23.149800
1452.000000	23.265800
1451.000000	23.354700
1450.000000	23.471000
1449.000000	23.552200
1448.000000	23.752600
1447.000000	23.872900
1446.000000	24.000200
1445.000000	24.111800
1444.000000	24.241900
1443.000000	24.357300
1442.000000	24.526200
1441.000000	24.639600
1440.000000	24.788300
1439.000000	24.925100
1438.000000	25.012800
1437.000000	25.168200
1436.000000	25.285700
1435.000000	25.417900
1434.000000	25.568900
1433.000000	25.697800
1432.000000	25.830600
1431.000000	25.962300
1430.000000	26.129000
1429.000000	26.324700
1428.000000	26.500100
1427.000000	26.682800
1426.000000	26.900800
1425.000000	27.113200
1424.000000	27.319300
1423.000000	27.534600
1422.000000	27.753100
1421.000000	27.985800
1420.000000	28.246500
1419.000000	28.455100
1418.000000	28.606700
1417.000000	28.860300
1416.000000	29.099400
1415.000000	29.345700
1414.000000	29.513200
1413.000000	29.694100
1412.000000	29.956200
1411.000000	30.228700
1410.000000	30.563200
1409.000000	30.869000
1408.000000	31.215700
1407.000000	31.542800
1406.000000	31.920400
1405.000000	32.236600
1404.000000	32.621200
1403.000000	32.964900
1402.000000	33.386400
1401.000000	33.619700
1400.000000	33.877300
1399.000000	34.043900
1398.000000	34.309000
1397.000000	34.523900
1396.000000	34.691200
1395.000000	34.819300
1394.000000	34.917400
1393.000000	35.075700
1392.000000	35.247900
1391.000000	35.426900
1390.000000	35.622100
1389.000000	35.913900
1388.000000	36.157500
1387.000000	36.442500
1386.000000	36.771200
1385.000000	37.167700
1384.000000	37.529000
1383.000000	37.837500
1382.000000	38.029700
1381.000000	38.137900
1380.000000	38.261500
1379.000000	38.324600
1378.000000	38.412600
1377.000000	38.529700
1376.000000	38.701500
1375.000000	38.936600
1374.000000	39.236200
1373.000000	39.580000
1372.000000	39.926100
1371.000000	40.256500
1370.000000	40.565700
1369.000000	40.866400
1368.000000	41.108900
1367.000000	41.320400
1366.000000	41.532800
1365.000000	41.721700
1364.000000	41.884400
1363.000000	42.068000
1362.000000	42.165200
1361.000000	42.203700
1360.000000	42.242700
1359.000000	42.380000
1358.000000	42.534200
1357.000000	42.763600
1356.000000	43.132800
1355.000000	43.575700
1354.000000	44.044900
1353.000000	44.544800
1352.000000	45.051100
1351.000000	45.530600
1350.000000	45.964300
1349.000000	46.356200
1348.000000	46.715700
1347.000000	47.027900
1346.000000	47.347300
1345.000000	47.667500
1344.000000	47.939200
1343.000000	48.196400
1342.000000	48.444900
1341.000000	48.687500
1340.000000	48.900500
1339.000000	49.117400
1338.000000	49.322700
1337.000000	49.511500
1336.000000	49.672500
1335.000000	49.825700
1334.000000	49.984400
1333.000000	50.152900
1332.000000	50.299800
1331.000000	50.430900
1330.000000	50.555500
1329.000000	50.673800
1328.000000	50.779400
1327.000000	50.884600
1326.000000	50.969800
1325.000000	51.061100
1324.000000	51.145900
1323.000000	51.230200
1322.000000	51.331100
1321.000000	51.408100
1320.000000	51.477300
1319.000000	51.551200
1318.000000	51.599900
1317.000000	51.659000
1316.000000	51.737300
1315.000000	51.805000
1314.000000	51.851600
1313.000000	51.902200
1312.000000	51.953100
1311.000000	51.997300
1310.000000	52.035700
1309.000000	52.076700
1308.000000	52.115700
1307.000000	52.138000
1306.000000	52.150300
1305.000000	52.160800
1304.000000	52.163500
1303.000000	52.161300
1302.000000	52.170900
1301.000000	52.178400
1300.000000	52.172700
1299.000000	52.172100
1298.000000	52.171000
1297.000000	52.166700
1296.000000	52.154300
1295.000000	52.140900
1294.000000	52.124700
1293.000000	52.092400
1292.000000	52.062100
1291.000000	52.038200
1290.000000	52.008700
1289.000000	51.973200
1288.000000	51.923000
1287.000000	51.873500
1286.000000	51.825800
1285.000000	51.757900
1284.000000	51.695600
1283.000000	51.636300
1282.000000	51.573100
1281.000000	51.521200
1280.000000	51.473100
1279.000000	51.422200
1278.000000	51.376600
1277.000000	51.326700
1276.000000	51.281000
1275.000000	51.239200
1274.000000	51.209100
1273.000000	51.186200
1272.000000	51.164400
1271.000000	51.144900
1270.000000	51.120100
1269.000000	51.074300
1268.000000	51.048800
1267.000000	51.027800
1266.000000	50.990200
1265.000000	50.953300
1264.000000	50.920400
1263.000000	50.889900
1262.000000	50.851300
1261.000000	50.812900
1260.000000	50.784800
1259.000000	50.753100
1258.000000	50.702600
1257.000000	50.661100
1256.000000	50.605800
1255.000000	50.552000
1254.000000	50.475600
1253.000000	50.408700
1252.000000	50.359600
1251.000000	50.283700
1250.000000	50.203900
1249.000000	50.128400
1248.000000	50.030200
1247.000000	49.937800
1246.000000	49.827700
1245.000000	49.720000
1244.000000	49.592700
1243.000000	49.455300
1242.000000	49.347900
1241.000000	49.227100
1240.000000	49.100700
1239.000000	48.971800
1238.000000	48.838300
1237.000000	48.701600
1236.000000	48.556600
1235.000000	48.422300
1234.000000	48.285400
1233.000000	48.132400
1232.000000	47.991300
1231.000000	47.818000
1230.000000	47.660400
1229.000000	47.504700
1228.000000	47.349600
1227.000000	47.180800
1226.000000	47.002000
1225.000000	46.851000
1224.000000	46.690400
1223.000000	46.534200
1222.000000	46.374600
1221.000000	46.216900
1220.000000	46.067400
1219.000000	45.912900
1218.000000	45.770000
1217.000000	45.654300
1216.000000	45.518200
1215.000000	45.407300
1214.000000	45.305800
1213.000000	45.179400
1212.000000	45.062000
1211.000000	44.943900
1210.000000	44.831000
1209.000000	44.746400
1208.000000	44.664000
1207.000000	44.619700
1206.000000	44.558200
1205.000000	44.509900
1204.000000	44.489200
1203.000000	44.421100
1202.000000	44.391600
1201.000000	44.360900
1200.000000	44.264700
1199.000000	44.172000
1198.000000	44.033900
1197.000000	43.855000
1196.000000	43.626100
1195.000000	43.342100
1194.000000	43.018400
1193.000000	42.628900
1192.000000	42.207400
1191.000000	41.800200
1190.000000	41.429400
1189.000000	41.153100
1188.000000	40.955600
1187.000000	40.915400
1186.000000	40.993400
1185.000000	41.176300
1184.000000	41.469900
1183.000000	41.872800
1182.000000	42.343200
1181.000000	42.816100
1180.000000	43.282400
1179.000000	43.704400
1178.000000	44.040600
1177.000000	44.366900
1176.000000	44.645300
1175.000000	44.918000
1174.000000	45.243100
1173.000000	45.506900
1172.000000	45.828400
1171.000000	46.134300
1170.000000	46.450900
1169.000000	46.780400
1168.000000	47.111000
1167.000000	47.408000
1166.000000	47.715900
1165.000000	48.059900
1164.000000	48.398700
1163.000000	48.726700
1162.000000	49.040300
1161.000000	49.329800
1160.000000	49.613900
1159.000000	49.888200
1158.000000	50.111900
1157.000000	50.332200
1156.000000	50.476400
1155.000000	50.620000
1154.000000	50.669200
1153.000000	50.698600
1152.000000	50.704200
1151.000000	50.673100
1150.000000	50.677300
1149.000000	50.643300
1148.000000	50.682200
1147.000000	50.747100
1146.000000	50.884600
1145.000000	51.058300
1144.000000	51.256200
1143.000000	51.517600
1142.000000	51.751300
1141.000000	52.012500
1140.000000	52.274800
1139.000000	52.558000
1138.000000	52.852000
1137.000000	53.149900
1136.000000	53.450100
1135.000000	53.727800
1134.000000	53.926100
1133.000000	54.158900
1132.000000	54.365400
1131.000000	54.545000
1130.000000	54.722000
1129.000000	54.842700
1128.000000	54.936700
1127.000000	55.030000
1126.000000	55.097200
1125.000000	55.155100
1124.000000	55.203800
1123.000000	55.242900
1122.000000	55.265800
1121.000000	55.277900
1120.000000	55.292100
1119.000000	55.299700
1118.000000	55.298200
1117.000000	55.284900
1116.000000	55.273600
1115.000000	55.242600
1114.000000	55.213800
1113.000000	55.181300
1112.000000	55.158000
1111.000000	55.136900
1110.000000	55.112200
1109.000000	55.077300
1108.000000	55.054000
1107.000000	55.012000
1106.000000	54.981500
1105.000000	54.953900
1104.000000	54.917500
1103.000000	54.875900
1102.000000	54.830200
1101.000000	54.805800
1100.000000	54.756900
1099.000000	54.705700
1098.000000	54.649700
1097.000000	54.603300
1096.000000	54.552300
1095.000000	54.497300
1094.000000	54.455400
1093.000000	54.401600
1092.000000	54.330100
1091.000000	54.278100
1090.000000	54.229300
1089.000000	54.176600
1088.000000	54.122200
1087.000000	54.060300
1086.000000	53.997000
1085.000000	53.958200
1084.000000	53.894200
1083.000000	53.840700
1082.000000	53.783100
1081.000000	53.732600
1080.000000	53.683900
1079.000000	53.639300
1078.000000	53.586300
1077.000000	53.537900
1076.000000	53.499400
1075.000000	53.423200
1074.000000	53.372300
1073.000000	53.338900
1072.000000	53.274300
1071.000000	53.211100
1070.000000	53.163100
1069.000000	53.120600
1068.000000	53.054800
1067.000000	53.003500
1066.000000	52.941800
1065.000000	52.876200
1064.000000	52.819800
1063.000000	52.754100
1062.000000	52.685800
1061.000000	52.618400
1060.000000	52.551400
1059.000000	52.494300
1058.000000	52.422500
1057.000000	52.341900
1056.000000	52.289200
1055.000000	52.220700
1054.000000	52.161600
1053.000000	52.095200
1052.000000	52.035700
1051.000000	51.994900
1050.000000	51.926400
1049.000000	51.876800
1048.000000	51.838600
1047.000000	51.770500
1046.000000	51.727500
1045.000000	51.687200
1044.000000	51.632400
1043.000000	51.581200
1042.000000	51.539100
1041.000000	51.508100
1040.000000	51.464200
1039.000000	51.417200
1038.000000	51.372500
1037.000000	51.337100
1036.000000	51.291800
1035.000000	51.241700
1034.000000	51.202700
1033.000000	51.161300
1032.000000	51.120800
1031.000000	51.068700
1030.000000	51.012800
1029.000000	50.954400
1028.000000	50.917500
1027.000000	50.863700
1026.000000	50.805500
1025.000000	50.747000
1024.000000	50.698700
1023.000000	50.657800
1022.000000	50.595000
1021.000000	50.540700
1020.000000	50.482100
1019.000000	50.417300
1018.000000	50.376900
1017.000000	50.340300
1016.000000	50.289300
1015.000000	50.250500
1014.000000	50.225300
1013.000000	50.196700
1012.000000	50.170300
1011.000000	50.154900
1010.000000	50.144000
1009.000000	50.143400
1008.000000	50.131500
1007.000000	50.139100
1006.000000	50.146100
1005.000000	50.135100
1004.000000	50.128000
1003.000000	50.140100
1002.000000	50.139400
1001.000000	50.137000
1000.000000	50.135000
999.000000	50.125200
998.000000	50.130100
997.000000	50.139200
996.000000	50.156400
995.000000	50.167400
994.000000	50.178500
993.000000	50.201300
992.000000	50.217300
991.000000	50.229300
990.000000	50.231400
989.000000	50.253500
988.000000	50.282000
987.000000	50.289300
986.000000	50.321100
985.000000	50.352600
984.000000	50.382500
983.000000	50.394600
982.000000	50.429400
981.000000	50.448000
980.000000	50.484100
979.000000	50.497500
978.000000	50.534000
977.000000	50.562300
976.000000	50.591500
975.000000	50.624900
974.000000	50.678500
973.000000	50.689600
972.000000	50.724400
971.000000	50.769900
970.000000	50.805800
969.000000	50.839200
968.000000	50.886500
967.000000	50.936100
966.000000	50.997900
965.000000	51.040300
964.000000	51.104000
963.000000	51.161100
962.000000	51.228100
961.000000	51.314300
960.000000	51.396500
959.000000	51.455600
958.000000	51.530700
957.000000	51.611000
956.000000	51.678800
955.000000	51.782200
954.000000	51.862200
953.000000	51.948500
952.000000	52.017500
951.000000	52.124300
950.000000	52.221400
949.000000	52.301400
948.000000	52.388100
947.000000	52.479600
946.000000	52.576600
945.000000	52.664900
944.000000	52.788500
943.000000	52.885900
942.000000	52.971300
941.000000	53.075000
940.000000	53.187300
939.000000	53.294600
938.000000	53.396400
937.000000	53.494300
936.000000	53.596200
935.000000	53.695200
934.000000	53.836900
933.000000	53.931900
932.000000	54.059800
931.000000	54.194300
930.000000	54.290800
929.000000	54.404600
928.000000	54.510100
927.000000	54.652500
926.000000	54.750800
925.000000	54.870000
924.000000	54.985000
923.000000	55.102400
922.000000	55.236200
921.000000	55.375800
920.000000	55.536200
919.000000	55.640400
918.000000	55.770800
917.000000	55.904500
916.000000	56.050000
915.000000	56.163800
914.000000	56.309500
913.000000	56.430600
912.000000	56.562100
911.000000	56.677400
910.000000	56.809600
909.000000	56.946700
908.000000	57.101300
907.000000	57.237300
906.000000	57.391000
905.000000	57.524200
904.000000	57.669000
903.000000	57.809600
902.000000	57.950500
901.000000	58.059000
900.000000	58.192200
899.000000	58.322200
898.000000	58.473600
897.000000	58.570900
896.000000	58.683300
895.000000	58.783100
894.000000	58.839200
893.000000	58.939500
892.000000	59.035600
891.000000	59.125900
890.000000	59.207000
889.000000	59.211500
888.000000	59.246400
887.000000	59.236800
886.000000	59.275700
885.000000	59.338300
884.000000	59.350900
883.000000	59.302300
882.000000	59.291900
881.000000	59.210300
880.000000	59.182900
879.000000	59.073400
878.000000	59.027000
877.000000	58.887300
876.000000	58.801900
875.000000	58.618700
874.000000	58.491900
873.000000	58.220000
872.000000	57.881900
871.000000	57.528100
870.000000	57.219500
869.000000	56.816700
868.000000	56.554500
867.000000	56.529000
866.000000	56.665200
865.000000	56.843400
864.000000	57.007500
863.000000	57.139200
862.000000	57.260900
861.000000	57.381000
860.000000	57.533600
859.000000	57.666700
858.000000	59.014700
857.000000	57.856440
856.000000	58.120914
855.000000	58.115406
854.000000	57.761317
853.000000	58.314920
852.000000	58.587700
851.000000	58.988651
850.000000	58.965045
849.000000	59.231443
848.000000	58.931298
847.000000	58.855933
846.000000	59.243596
845.000000	58.985504
844.000000	58.802602
843.000000	59.329539
842.000000	59.419329
841.000000	59.463044
840.000000	59.409012
839.000000	59.491196
838.000000	59.520222
837.000000	59.906311
836.000000	59.957457
835.000000	59.804630
834.000000	59.850793
833.000000	59.956146
832.000000	60.093935
831.000000	60.260750
830.000000	60.345294
829.000000	60.380441
828.000000	60.548218
827.000000	60.695886
826.000000	60.791097
825.000000	61.132859
824.000000	61.336307
823.000000	61.416567
822.000000	61.749586
821.000000	61.935986
820.000000	62.195127
819.000000	62.574133
818.000000	62.974123
817.000000	63.219712
816.000000	63.495115
815.000000	63.928241
814.000000	64.325695
813.000000	64.841966
812.000000	65.241256
811.000000	65.635038
810.000000	66.052601
809.000000	66.550862
808.000000	67.000686
807.000000	67.542050
806.000000	67.909865
805.000000	68.522309
804.000000	69.072240
803.000000	69.450372
802.000000	69.827193
801.000000	70.436751
800.000000	70.973393
799.000000	71.513707
798.000000	72.042131
797.000000	72.461967
796.000000	73.073449
795.000000	73.562966
794.000000	74.009294
793.000000	74.441632
792.000000	74.895828
791.000000	75.362614
790.000000	75.884655
789.000000	76.296623
788.000000	76.658756
787.000000	77.136295
786.000000	77.505248
785.000000	77.892210
784.000000	78.410405
783.000000	78.752779
782.000000	79.037973
781.000000	79.399319
780.000000	79.837603
779.000000	80.148765
778.000000	80.409042
777.000000	80.689865
776.000000	80.860265
775.000000	81.117833
774.000000	81.283686
773.000000	81.529800
772.000000	81.715938
771.000000	81.905922
770.000000	82.178264
769.000000	82.276885
768.000000	82.331441
767.000000	82.478934
766.000000	82.570473
765.000000	82.736502
764.000000	82.817986
763.000000	82.882858
762.000000	83.043816
761.000000	83.101957
760.000000	83.151879
759.000000	83.219112
758.000000	83.217626
757.000000	83.186413
756.000000	83.192971
755.000000	83.219462
754.000000	83.198916
753.000000	83.187463
752.000000	83.175747
751.000000	83.139202
750.000000	83.105978
749.000000	83.058329
748.000000	83.075640
747.000000	83.077826
746.000000	82.973872
745.000000	82.899557
744.000000	82.831275
743.000000	82.737813
742.000000	82.662536
741.000000	82.595216
740.000000	82.485229
739.000000	82.379440
738.000000	82.326108
737.000000	82.210876
736.000000	82.097042
735.000000	81.997198
734.000000	81.905747
733.000000	81.832394
732.000000	81.769532
731.000000	81.660857
730.000000	81.574127
729.000000	81.478042
728.000000	81.392449
727.000000	81.306156
726.000000	81.178246
725.000000	81.052873
724.000000	81.036523
723.000000	80.904068
722.000000	80.703679
721.000000	80.620272
720.000000	80.514132
719.000000	80.418310
718.000000	80.379316
717.000000	80.306225
716.000000	80.228850
715.000000	80.071827
714.000000	79.992178
713.000000	79.942169
712.000000	79.803243
711.000000	79.755682
710.000000	79.686088
709.000000	79.584320
708.000000	79.433329
707.000000	79.370468
706.000000	79.364960
705.000000	79.218078
704.000000	79.071109
703.000000	78.906742
702.000000	78.700321
701.000000	78.505353
700.000000	78.278823
699.000000	78.125822
698.000000	77.928056
697.000000	77.626775
696.000000	77.353383
695.000000	77.008124
694.000000	76.653423
693.000000	76.309300
692.000000	75.873552
691.000000	75.416471
690.000000	74.978536
689.000000	74.506330
688.000000	73.981054
687.000000	73.351824
686.000000	72.755818
685.000000	72.121692
684.000000	71.490451
683.000000	70.830971
682.000000	70.103820
681.000000	69.474240
680.000000	68.854278
679.000000	68.175913
678.000000	67.587863
677.000000	66.961780
676.000000	66.379850
675.000000	65.835077
674.000000	65.294850
673.000000	64.844414
672.000000	64.394852
671.000000	63.974840
670.000000	63.603265
669.000000	63.245242
668.000000	62.904879
667.000000	62.620995
666.000000	62.390531
665.000000	62.158494
664.000000	61.995175
663.000000	61.788929
662.000000	61.610398
661.000000	61.411322
660.000000	61.250714
659.000000	61.063090
658.000000	60.906154
657.000000	60.681635
656.000000	60.462013
655.000000	60.229712
654.000000	60.001347
653.000000	59.761703
652.000000	59.419679
651.000000	59.124342
650.000000	58.806011
649.000000	58.463550
648.000000	58.107100
647.000000	57.680445
646.000000	57.337808
645.000000	56.898563
644.000000	56.489306
643.000000	56.021558
642.000000	55.567362
641.000000	55.149100
640.000000	54.723231
639.000000	54.277428
638.000000	53.861526
637.000000	53.491525
636.000000	53.140758
635.000000	52.765161
634.000000	52.466502
633.000000	52.175362
632.000000	51.933007
631.000000	51.682085
630.000000	51.558022
629.000000	51.454331
628.000000	51.417960
627.000000	51.432648
626.000000	51.427140
625.000000	51.564492
624.000000	51.727810
623.000000	51.963607
622.000000	52.214443
621.000000	52.529189
620.000000	52.835891
619.000000	53.208603
618.000000	53.600199
617.000000	53.952802
616.000000	54.386452
615.000000	54.815906
614.000000	55.280156
613.000000	55.730243
612.000000	56.247476
611.000000	56.679552
610.000000	57.143278
609.000000	57.623091
608.000000	58.129045
607.000000	58.635524
606.000000	59.106681
605.000000	59.607564
604.000000	60.136950
603.000000	60.655844
602.000000	61.168268
601.000000	61.694855
600.000000	62.106735
599.000000	62.571860
598.000000	63.022734
597.000000	63.403314
596.000000	63.812047
595.000000	64.099952
594.000000	64.417146
593.000000	64.713707
592.000000	65.100320
591.000000	65.374149
590.000000	65.730511
589.000000	66.017805
588.000000	66.355807
587.000000	66.639253
586.000000	66.857827
585.000000	67.105252
584.000000	67.271193
583.000000	67.377682
582.000000	67.454882
581.000000	67.522028
580.000000	67.571426
579.000000	67.624408
578.000000	67.624233
577.000000	67.633064
576.000000	67.679489
575.000000	67.600103
574.000000	67.544847
573.000000	67.452172
572.000000	67.328809
571.000000	67.154387
570.000000	67.027440
569.000000	66.901104
568.000000	66.770922
567.000000	66.644936
566.000000	66.537835
565.000000	66.394625
564.000000	66.245471
563.000000	66.040186
562.000000	65.800542
561.000000	65.572876
560.000000	65.270195
559.000000	64.909024
558.000000	64.638955
557.000000	64.279620
556.000000	63.968371
555.000000	63.640773
554.000000	63.298661
553.000000	62.905316
552.000000	62.488190
551.000000	62.106298
550.000000	61.635053
549.000000	61.195633
548.000000	60.732432
547.000000	60.245100
546.000000	59.799035
545.000000	59.320708
544.000000	58.840896
543.000000	58.278025
542.000000	57.744093
541.000000	57.174403
540.000000	56.575336
539.000000	55.952052
538.000000	55.312942
537.000000	54.666314
536.000000	53.976845
535.000000	53.247072
534.000000	52.533560
533.000000	51.776334
532.000000	51.016484
531.000000	50.224199
530.000000	49.444940
529.000000	48.639452
528.000000	47.829506
527.000000	47.013264
526.000000	46.199908
525.000000	45.383842
524.000000	44.569611
523.000000	43.753982
522.000000	42.934593
521.000000	42.123510
520.000000	41.315400
519.000000	40.530545
518.000000	39.782062
517.000000	39.036988
516.000000	38.300308
515.000000	37.587583
514.000000	36.933960
513.000000	36.302719
512.000000	35.699719
511.000000	35.165699
510.000000	34.665078
509.000000	34.202577
508.000000	33.772599
507.000000	33.388958
506.000000	33.016596
505.000000	32.681129
504.000000	32.380459
503.000000	32.081888
502.000000	31.815315
501.000000	31.535629
500.000000	31.290039
499.000000	31.068056
498.000000	30.827887
497.000000	30.554146
496.000000	30.276382
495.000000	29.974051
494.000000	29.681687
493.000000	29.375946
492.000000	29.038119
491.000000	28.671527
490.000000	28.272149
489.000000	27.887285
488.000000	27.477416
487.000000	27.076464
486.000000	26.657939
485.000000	26.268878
484.000000	25.886724
483.000000	25.506406
482.000000	25.151443
481.000000	24.817200
480.000000	24.495372
479.000000	24.203970
478.000000	23.948850
477.000000	23.709206
476.000000	23.510217
475.000000	23.351795
474.000000	23.231754
473.000000	23.158925
472.000000	23.091080
471.000000	23.056108
470.000000	23.051562
469.000000	23.066862
468.000000	23.105069
467.000000	23.154466
466.000000	23.214268
465.000000	23.290332
464.000000	23.376362
463.000000	23.449366
462.000000	23.524643
461.000000	23.617755
460.000000	23.683764
459.000000	23.748724
458.000000	23.810799
457.000000	23.851192
456.000000	23.878382
455.000000	23.894557
454.000000	23.903912
453.000000	23.894382
452.000000	23.877770
451.000000	23.821116
450.000000	23.753183
449.000000	23.683677
448.000000	23.620203
447.000000	23.550609
446.000000	23.432929
445.000000	23.312714
444.000000	23.174663
443.000000	23.020874
442.000000	22.862539
441.000000	22.694937
440.000000	22.514658
439.000000	22.334116
438.000000	22.120176
437.000000	21.892160
436.000000	21.700077
435.000000	21.459646
434.000000	21.186604
433.000000	20.922218
432.000000	20.654858
431.000000	20.394493
430.000000	20.091376
429.000000	19.747690
428.000000	19.423852
427.000000	19.105696
426.000000	18.748197
425.000000	18.374174
424.000000	17.998227
423.000000	17.597188
422.000000	17.168784
421.000000	16.740992
420.000000	16.314073
419.000000	15.876577
418.000000	15.425615
417.000000	14.967922
416.000000	14.510491
415.000000	14.056208
414.000000	13.609094
413.000000	13.168449
412.000000	12.714603
411.000000	12.260669
410.000000	11.840483
409.000000	11.434636
408.000000	11.033160
407.000000	10.637891
406.000000	10.266316
405.000000	9.921669
404.000000	9.577022
403.000000	9.222758
402.000000	8.910198
401.000000	8.618970
400.000000	8.330103
399.000000	8.060209
398.000000	7.819253
397.000000	7.594122
396.000000	7.371352
395.000000	7.182242
394.000000	7.003799
393.000000	6.817836
392.000000	6.658277
391.000000	6.514631
390.000000	6.369760
389.000000	6.242987
388.000000	6.133876
387.000000	6.027649
386.000000	5.906734
385.000000	5.832156
384.000000	5.768683
383.000000	5.674783
382.000000	5.616730
381.000000	5.562961
380.000000	5.489258
379.000000	5.446942
378.000000	5.381020
377.000000	5.330574
376.000000	5.206948
375.000000	4.934693
374.000000	4.896049
373.000000	5.047652
372.000000	4.979807
371.000000	4.929447
370.000000	4.933382
369.000000	4.961709
368.000000	4.824882
367.000000	4.839570
366.000000	4.953316
365.000000	4.839308
364.000000	4.883110
363.000000	4.816663
362.000000	4.873930
361.000000	4.846389
360.000000	4.702481
359.000000	4.829253
358.000000	4.870258
357.000000	4.770675
356.000000	4.740600
355.000000	4.741474
354.000000	4.783440
353.000000	4.706065
352.000000	4.642766
351.000000	4.783178
350.000000	4.861952
349.000000	4.559796
348.000000	4.584626
347.000000	4.589697
346.000000	4.497284
345.000000	4.516868
344.000000	4.750130
343.000000	4.596254
342.000000	4.480759
341.000000	4.591533
340.000000	4.526572
339.000000	4.527534
338.000000	4.582352
337.000000	4.650373
336.000000	4.682372
335.000000	4.542747
334.000000	4.571424
333.000000	4.656842
332.000000	4.696186
331.000000	4.753102
330.000000	4.526660
329.000000	4.651072
328.000000	4.488453
327.000000	4.756599
326.000000	4.567140
325.000000	4.681847
324.000000	5.040570
323.000000	5.035762
322.000000	5.143475
321.000000	4.923590
320.000000	4.815265
319.000000	4.872968
318.000000	4.707377
317.000000	5.609474
316.000000	4.483470
315.000000	4.331867
314.000000	4.299431
313.000000	4.388259
312.000000	4.338424
311.000000	4.334053
310.000000	4.298556
309.000000	4.302403
308.000000	4.298469
307.000000	4.374708
306.000000	4.343845
305.000000	4.427690
304.000000	4.355823
303.000000	4.334490
302.000000	4.426990
301.000000	4.380915
300.000000	4.307737
299.000000	4.421133
298.000000	4.387909
297.000000	4.421745
296.000000	4.411690
295.000000	4.354599
294.000000	4.414575
293.000000	4.459689
292.000000	4.472279
291.000000	4.388346
290.000000	4.474727
289.000000	4.474727
288.000000	4.382838
287.000000	4.422094
286.000000	4.411690
285.000000	4.432149
284.000000	4.456804
283.000000	4.440192
282.000000	4.431274
281.000000	4.467645
280.000000	4.511797
279.000000	4.562681
278.000000	4.458028
277.000000	4.533479
276.000000	4.498682
275.000000	4.537763
274.000000	4.561894
273.000000	4.541610
272.000000	4.553326
271.000000	4.539425
270.000000	4.599314
269.000000	4.637695
268.000000	4.615488
267.000000	4.664973
266.000000	4.611117
265.000000	4.630264
264.000000	4.685956
263.000000	4.687967
262.000000	4.737627
261.000000	4.795505
260.000000	4.697672
259.000000	4.741212
258.000000	4.776184
257.000000	4.811855
256.000000	4.821734
255.000000	4.820860
254.000000	4.814303
253.000000	4.835024
252.000000	4.804074
251.000000	4.876290
250.000000	4.905841
