PE UV       SUBTECH     SPECTRUM    ASCII       PEDS        4.00        
   -1
CICIMAUCR0004-1.Sample.ASC
24/05/03
14:00:46.00
24/05/03
14:00:46.00
Vinicio Soto Monge
C. kalinini
250,000000
1
Lambda 1050
1050L1511233
PerkinElmer UV WinLab 6.3.2.0749 / 2.02.05 Lambda 900 UV/VIS/NIR, Aug  7 2015 09:38:08

0
0
3350/servo 860,8/2
0
0
UV/VIS
1
1
1
DoubleDePol,CommonBeamDepol,RBeamAtt,SBeamAtt,60mm sphere, WB InGaAs Detector
0
0
0
0
Program
Program
3350/servo 860,8/2
3350/0,2 860,8/0,2
3350/0,2 860,8/0,2
0
15.00
 
 
 
0
 
860,8
319,2
860,8
Front
100
on
S:100 R:100
0
0
0
0
 
0
 
 
 
0
 
 
0
0
0
0
0
 
 
 
 
0
0


0
0
#HDR
-1
-1
#GR
nm
%R
1.0
0.0
2500,000000
-1,000000
2251
8
95,169100
5,381700
#DATA
2500.000000	8.641088
2499.000000	8.383965
2498.000000	8.517426
2497.000000	8.526692
2496.000000	8.563120
2495.000000	8.496549
2494.000000	8.496656
2493.000000	8.421990
2492.000000	8.413682
2491.000000	8.316649
2490.000000	8.323572
2489.000000	8.325702
2488.000000	8.250717
2487.000000	8.298861
2486.000000	8.329750
2485.000000	8.318033
2484.000000	8.215568
2483.000000	8.271700
2482.000000	8.275535
2481.000000	8.216420
2480.000000	8.254019
2479.000000	8.201721
2478.000000	8.191176
2477.000000	8.183720
2476.000000	8.210668
2475.000000	8.186916
2474.000000	8.247415
2473.000000	8.216420
2472.000000	8.270635
2471.000000	8.218657
2470.000000	8.211094
2469.000000	8.227071
2468.000000	8.255936
2467.000000	8.285334
2466.000000	8.328046
2465.000000	8.359999
2464.000000	8.396960
2463.000000	8.359467
2462.000000	8.457033
2461.000000	8.485259
2460.000000	8.524030
2459.000000	8.582292
2458.000000	8.623832
2457.000000	8.675065
2456.000000	8.727257
2455.000000	8.810230
2454.000000	8.884683
2453.000000	8.938579
2452.000000	9.001847
2451.000000	9.088869
2450.000000	9.162789
2449.000000	9.232022
2448.000000	9.340985
2447.000000	9.420124
2446.000000	9.481582
2445.000000	9.549112
2444.000000	9.653388
2443.000000	9.709627
2442.000000	9.797287
2441.000000	9.891338
2440.000000	9.942464
2439.000000	10.012018
2438.000000	10.096908
2437.000000	10.184995
2436.000000	10.250820
2435.000000	10.320160
2434.000000	10.380233
2433.000000	10.447976
2432.000000	10.506238
2431.000000	10.548524
2430.000000	10.610941
2429.000000	10.662067
2428.000000	10.708187
2427.000000	10.749195
2426.000000	10.794037
2425.000000	10.835683
2424.000000	10.870087
2423.000000	10.900763
2422.000000	10.945711
2421.000000	10.988423
2420.000000	11.008980
2419.000000	11.028259
2418.000000	11.056591
2417.000000	11.102072
2416.000000	11.124547
2415.000000	11.167045
2414.000000	11.169815
2413.000000	11.188029
2412.000000	11.230634
2411.000000	11.253534
2410.000000	11.269831
2409.000000	11.291133
2408.000000	11.299228
2407.000000	11.324685
2406.000000	11.348970
2405.000000	11.375492
2404.000000	11.400735
2403.000000	11.428642
2402.000000	11.462193
2401.000000	11.495958
2400.000000	11.513107
2399.000000	11.554114
2398.000000	11.599169
2397.000000	11.618981
2396.000000	11.651680
2395.000000	11.663929
2394.000000	11.682995
2393.000000	11.704084
2392.000000	11.708345
2391.000000	11.725813
2390.000000	11.750205
2389.000000	11.754465
2388.000000	11.762241
2387.000000	11.760962
2386.000000	11.757235
2385.000000	11.753826
2384.000000	11.741151
2383.000000	11.733908
2382.000000	11.737104
2381.000000	11.720487
2380.000000	11.705150
2379.000000	11.673196
2378.000000	11.645289
2377.000000	11.634425
2376.000000	11.612377
2375.000000	11.569665
2374.000000	11.524929
2373.000000	11.503094
2372.000000	11.462832
2371.000000	11.414582
2370.000000	11.367397
2369.000000	11.318507
2368.000000	11.250658
2367.000000	11.181638
2366.000000	11.124760
2365.000000	11.051585
2364.000000	10.983630
2363.000000	10.910881
2362.000000	10.837814
2361.000000	10.771136
2360.000000	10.688269
2359.000000	10.625746
2358.000000	10.579413
2357.000000	10.530310
2356.000000	10.485255
2355.000000	10.449786
2354.000000	10.421560
2353.000000	10.405903
2352.000000	10.402068
2351.000000	10.406968
2350.000000	10.413359
2349.000000	10.432851
2348.000000	10.467361
2347.000000	10.502297
2346.000000	10.540003
2345.000000	10.560027
2344.000000	10.601994
2343.000000	10.653120
2342.000000	10.671973
2341.000000	10.673783
2340.000000	10.694873
2339.000000	10.709678
2338.000000	10.713300
2337.000000	10.695086
2336.000000	10.684861
2335.000000	10.659298
2334.000000	10.630219
2333.000000	10.600502
2332.000000	10.542346
2331.000000	10.491326
2330.000000	10.418898
2329.000000	10.340610
2328.000000	10.265199
2327.000000	10.192770
2326.000000	10.118744
2325.000000	10.031616
2324.000000	9.929257
2323.000000	9.838721
2322.000000	9.735616
2321.000000	9.647104
2320.000000	9.515667
2319.000000	9.369850
2318.000000	9.265148
2317.000000	9.141912
2316.000000	9.043387
2315.000000	8.937194
2314.000000	8.820243
2313.000000	8.715966
2312.000000	8.622128
2311.000000	8.557794
2310.000000	8.500916
2309.000000	8.450216
2308.000000	8.407611
2307.000000	8.401966
2306.000000	8.411552
2305.000000	8.424333
2304.000000	8.454264
2303.000000	8.518278
2302.000000	8.571641
2301.000000	8.635442
2300.000000	8.708830
2299.000000	8.790632
2298.000000	8.890328
2297.000000	8.960946
2296.000000	9.048820
2295.000000	9.140314
2294.000000	9.185689
2293.000000	9.247254
2292.000000	9.275479
2291.000000	9.311268
2290.000000	9.336085
2289.000000	9.356429
2288.000000	9.342370
2287.000000	9.346630
2286.000000	9.324369
2285.000000	9.305516
2284.000000	9.280912
2283.000000	9.258224
2282.000000	9.194210
2281.000000	9.155226
2280.000000	9.114645
2279.000000	9.083543
2278.000000	9.030073
2277.000000	8.997587
2276.000000	8.997906
2275.000000	8.978628
2274.000000	8.979586
2273.000000	8.957218
2272.000000	9.001741
2271.000000	8.992261
2270.000000	9.052335
2269.000000	9.092383
2268.000000	9.170138
2267.000000	9.276332
2266.000000	9.397437
2265.000000	9.512897
2264.000000	9.668193
2263.000000	9.855976
2262.000000	10.038113
2261.000000	10.272016
2260.000000	10.520511
2259.000000	10.758142
2258.000000	11.005572
2257.000000	11.267274
2256.000000	11.558481
2255.000000	11.808148
2254.000000	12.070703
2253.000000	12.332725
2252.000000	12.607848
2251.000000	12.845692
2250.000000	13.069902
2249.000000	13.273981
2248.000000	13.506712
2247.000000	13.703868
2246.000000	13.877591
2245.000000	14.063669
2244.000000	14.211935
2243.000000	14.360201
2242.000000	14.468206
2241.000000	14.644698
2240.000000	14.765590
2239.000000	14.851546
2238.000000	14.970308
2237.000000	15.074691
2236.000000	15.173109
2235.000000	15.223277
2234.000000	15.282285
2233.000000	15.370585
2232.000000	15.402326
2231.000000	15.427782
2230.000000	15.485832
2229.000000	15.492755
2228.000000	15.537917
2227.000000	15.530993
2226.000000	15.532165
2225.000000	15.536852
2224.000000	15.514058
2223.000000	15.504365
2222.000000	15.482849
2221.000000	15.454091
2220.000000	15.413083
2219.000000	15.409994
2218.000000	15.347258
2217.000000	15.319991
2216.000000	15.308168
2215.000000	15.280155
2214.000000	15.250651
2213.000000	15.182909
2212.000000	15.174601
2211.000000	15.138386
2210.000000	15.103450
2209.000000	15.104408
2208.000000	15.078526
2207.000000	15.048489
2206.000000	15.039435
2205.000000	15.003434
2204.000000	15.002901
2203.000000	14.979256
2202.000000	14.956994
2201.000000	14.963918
2200.000000	14.943680
2199.000000	14.934200
2198.000000	14.934200
2197.000000	14.924614
2196.000000	14.915028
2195.000000	14.906188
2194.000000	14.908744
2193.000000	14.907253
2192.000000	14.900010
2191.000000	14.874873
2190.000000	14.894897
2189.000000	14.871784
2188.000000	14.864115
2187.000000	14.846327
2186.000000	14.853357
2185.000000	14.833226
2184.000000	14.816077
2183.000000	14.793497
2182.000000	14.786786
2181.000000	14.786680
2180.000000	14.784656
2179.000000	14.770703
2178.000000	14.764845
2177.000000	14.773472
2176.000000	14.766549
2175.000000	14.765271
2174.000000	14.774111
2173.000000	14.772194
2172.000000	14.783378
2171.000000	14.813628
2170.000000	14.835889
2169.000000	14.852185
2168.000000	14.858044
2167.000000	14.875405
2166.000000	14.927064
2165.000000	14.964557
2164.000000	14.974782
2163.000000	15.017707
2162.000000	15.049661
2161.000000	15.103024
2160.000000	15.115486
2159.000000	15.146588
2158.000000	15.209004
2157.000000	15.260344
2156.000000	15.309766
2155.000000	15.355034
2154.000000	15.405627
2153.000000	15.467512
2152.000000	15.521620
2151.000000	15.566675
2150.000000	15.618547
2149.000000	15.684053
2148.000000	15.758505
2147.000000	15.801217
2146.000000	15.841692
2145.000000	15.888132
2144.000000	15.956407
2143.000000	16.015521
2142.000000	16.040019
2141.000000	16.089654
2140.000000	16.152817
2139.000000	16.200961
2138.000000	16.226630
2137.000000	16.260288
2136.000000	16.304917
2135.000000	16.333463
2134.000000	16.350186
2133.000000	16.371488
2132.000000	16.408448
2131.000000	16.440189
2130.000000	16.442639
2129.000000	16.458829
2128.000000	16.457764
2127.000000	16.469906
2126.000000	16.469800
2125.000000	16.463409
2124.000000	16.465646
2123.000000	16.460853
2122.000000	16.452545
2121.000000	16.441787
2120.000000	16.422721
2119.000000	16.385867
2118.000000	16.367441
2117.000000	16.349440
2116.000000	16.324516
2115.000000	16.304172
2114.000000	16.264655
2113.000000	16.232276
2112.000000	16.204795
2111.000000	16.185410
2110.000000	16.165705
2109.000000	16.133644
2108.000000	16.099347
2107.000000	16.065263
2106.000000	16.029581
2105.000000	15.994645
2104.000000	15.964715
2103.000000	15.933080
2102.000000	15.894096
2101.000000	15.877267
2100.000000	15.862143
2099.000000	15.823904
2098.000000	15.805052
2097.000000	15.800578
2096.000000	15.775760
2095.000000	15.744020
2094.000000	15.720587
2093.000000	15.726232
2092.000000	15.724102
2091.000000	15.706314
2090.000000	15.704184
2089.000000	15.686183
2088.000000	15.665413
2087.000000	15.670845
2086.000000	15.660939
2085.000000	15.634844
2084.000000	15.614180
2083.000000	15.586913
2082.000000	15.577540
2081.000000	15.569658
2080.000000	15.545160
2079.000000	15.526626
2078.000000	15.488282
2077.000000	15.451002
2076.000000	15.419687
2075.000000	15.391355
2074.000000	15.353649
2073.000000	15.321056
2072.000000	15.289528
2071.000000	15.245964
2070.000000	15.215608
2069.000000	15.167358
2068.000000	15.120918
2067.000000	15.075543
2066.000000	15.033471
2065.000000	15.016322
2064.000000	14.992250
2063.000000	14.947941
2062.000000	14.932816
2061.000000	14.906720
2060.000000	14.897453
2059.000000	14.898519
2058.000000	14.897880
2057.000000	14.920993
2056.000000	14.945917
2055.000000	14.986711
2054.000000	15.061377
2053.000000	15.149357
2052.000000	15.251077
2051.000000	15.346832
2050.000000	15.469216
2049.000000	15.605979
2048.000000	15.786731
2047.000000	15.947566
2046.000000	16.102117
2045.000000	16.289793
2044.000000	16.501647
2043.000000	16.701892
2042.000000	16.895533
2041.000000	17.099292
2040.000000	17.302200
2039.000000	17.491580
2038.000000	17.686818
2037.000000	17.868104
2036.000000	18.056206
2035.000000	18.218212
2034.000000	18.389166
2033.000000	18.561504
2032.000000	18.718611
2031.000000	18.859634
2030.000000	18.994799
2029.000000	19.134331
2028.000000	19.292503
2027.000000	19.406366
2026.000000	19.547282
2025.000000	19.671477
2024.000000	19.790665
2023.000000	19.909427
2022.000000	20.014875
2021.000000	20.139495
2020.000000	20.245689
2019.000000	20.331751
2018.000000	20.433258
2017.000000	20.520280
2016.000000	20.634036
2015.000000	20.698476
2014.000000	20.791675
2013.000000	20.873157
2012.000000	20.941432
2011.000000	20.996287
2010.000000	21.040702
2009.000000	21.095450
2008.000000	21.176187
2007.000000	21.184921
2006.000000	21.198661
2005.000000	21.236047
2004.000000	21.262250
2003.000000	21.283233
2002.000000	21.288345
2001.000000	21.278120
2000.000000	21.270451
1999.000000	21.280996
1998.000000	21.266084
1997.000000	21.245208
1996.000000	21.223053
1995.000000	21.192377
1994.000000	21.170861
1993.000000	21.104930
1992.000000	21.046987
1991.000000	20.988937
1990.000000	20.941113
1989.000000	20.878377
1988.000000	20.818836
1987.000000	20.752904
1986.000000	20.697517
1985.000000	20.608579
1984.000000	20.545310
1983.000000	20.492267
1982.000000	20.411956
1981.000000	20.309597
1980.000000	20.252719
1979.000000	20.157176
1978.000000	20.060036
1977.000000	20.008058
1976.000000	19.911664
1975.000000	19.850525
1974.000000	19.756581
1973.000000	19.698957
1972.000000	19.612468
1971.000000	19.538868
1970.000000	19.445136
1969.000000	19.396886
1968.000000	19.317853
1967.000000	19.254904
1966.000000	19.183966
1965.000000	19.110046
1964.000000	19.040919
1963.000000	18.986171
1962.000000	18.907458
1961.000000	18.821289
1960.000000	18.757701
1959.000000	18.669189
1958.000000	18.597505
1957.000000	18.521242
1956.000000	18.438268
1955.000000	18.372230
1954.000000	18.312583
1953.000000	18.242817
1952.000000	18.169003
1951.000000	18.104563
1950.000000	18.040655
1949.000000	17.986653
1948.000000	17.928283
1947.000000	17.878968
1946.000000	17.820918
1945.000000	17.785662
1944.000000	17.744761
1943.000000	17.735282
1942.000000	17.725163
1941.000000	17.735388
1940.000000	17.744974
1939.000000	17.743164
1938.000000	17.759993
1937.000000	17.788112
1936.000000	17.803983
1935.000000	17.840197
1934.000000	17.926686
1933.000000	17.983031
1932.000000	18.068455
1931.000000	18.140671
1930.000000	18.278072
1929.000000	18.383946
1928.000000	18.510271
1927.000000	18.647460
1926.000000	18.764837
1925.000000	18.929187
1924.000000	19.103123
1923.000000	19.254904
1922.000000	19.444923
1921.000000	19.670092
1920.000000	19.872786
1919.000000	20.059184
1918.000000	20.276684
1917.000000	20.494823
1916.000000	20.730430
1915.000000	20.974451
1914.000000	21.266404
1913.000000	21.540568
1912.000000	21.817183
1911.000000	22.106685
1910.000000	22.373181
1909.000000	22.641381
1908.000000	22.929286
1907.000000	23.257133
1906.000000	23.597336
1905.000000	23.944143
1904.000000	24.275292
1903.000000	24.589186
1902.000000	24.913838
1901.000000	25.250845
1900.000000	25.612244
1899.000000	25.936257
1898.000000	26.292437
1897.000000	26.635622
1896.000000	26.931835
1895.000000	27.225385
1894.000000	27.564629
1893.000000	27.889175
1892.000000	28.210312
1891.000000	28.541461
1890.000000	28.847260
1889.000000	29.174894
1888.000000	29.507961
1887.000000	29.856471
1886.000000	30.223090
1885.000000	30.624963
1884.000000	31.074449
1883.000000	31.521271
1882.000000	31.933796
1881.000000	32.389459
1880.000000	32.806991
1879.000000	33.214403
1878.000000	33.602324
1877.000000	33.934006
1876.000000	34.254184
1875.000000	34.537828
1874.000000	34.795164
1873.000000	35.040570
1872.000000	35.261585
1871.000000	35.424230
1870.000000	35.534791
1869.000000	35.662074
1868.000000	35.776682
1867.000000	35.838460
1866.000000	35.885006
1865.000000	35.918771
1864.000000	35.957541
1863.000000	35.990134
1862.000000	36.001425
1861.000000	36.001531
1860.000000	35.992797
1859.000000	35.964571
1858.000000	35.937943
1857.000000	35.883195
1856.000000	35.807571
1855.000000	35.751652
1854.000000	35.672832
1853.000000	35.578568
1852.000000	35.497831
1851.000000	35.444361
1850.000000	35.369483
1849.000000	35.279905
1848.000000	35.170729
1847.000000	35.040251
1846.000000	34.941513
1845.000000	34.887298
1844.000000	34.842882
1843.000000	34.833615
1842.000000	34.801555
1841.000000	34.708995
1840.000000	34.632199
1839.000000	34.563178
1838.000000	34.488300
1837.000000	34.411823
1836.000000	34.321926
1835.000000	34.219354
1834.000000	34.122747
1833.000000	34.033808
1832.000000	33.961699
1831.000000	33.875849
1830.000000	33.768165
1829.000000	33.661545
1828.000000	33.543635
1827.000000	33.457147
1826.000000	33.393132
1825.000000	33.332313
1824.000000	33.299720
1823.000000	33.300253
1822.000000	33.286832
1821.000000	33.247848
1820.000000	33.201409
1819.000000	33.170307
1818.000000	33.157951
1817.000000	33.159762
1816.000000	33.167537
1815.000000	33.145489
1814.000000	33.116624
1813.000000	33.105653
1812.000000	33.087440
1811.000000	33.031094
1810.000000	32.966760
1809.000000	32.923622
1808.000000	32.876118
1807.000000	32.828826
1806.000000	32.767368
1805.000000	32.691850
1804.000000	32.637422
1803.000000	32.590769
1802.000000	32.539004
1801.000000	32.465616
1800.000000	32.390950
1799.000000	32.329173
1798.000000	32.274425
1797.000000	32.228625
1796.000000	32.168977
1795.000000	32.088879
1794.000000	32.021670
1793.000000	31.963833
1792.000000	31.882777
1791.000000	31.816206
1790.000000	31.750381
1789.000000	31.675928
1788.000000	31.594020
1787.000000	31.504016
1786.000000	31.426155
1785.000000	31.339986
1784.000000	31.225804
1783.000000	31.119184
1782.000000	31.028542
1781.000000	30.918087
1780.000000	30.815196
1779.000000	30.678540
1778.000000	30.536771
1777.000000	30.409487
1776.000000	30.251742
1775.000000	30.074291
1774.000000	29.907811
1773.000000	29.738775
1772.000000	29.560898
1771.000000	29.386642
1770.000000	29.213558
1769.000000	29.053682
1768.000000	28.914363
1767.000000	28.796666
1766.000000	28.685893
1765.000000	28.594611
1764.000000	28.562231
1763.000000	28.528360
1762.000000	28.567983
1761.000000	28.649146
1760.000000	28.708154
1759.000000	28.802311
1758.000000	28.859509
1757.000000	28.920115
1756.000000	28.958673
1755.000000	28.993289
1754.000000	29.017787
1753.000000	28.986046
1752.000000	28.953880
1751.000000	28.897108
1750.000000	28.801459
1749.000000	28.704106
1748.000000	28.572563
1747.000000	28.423444
1746.000000	28.247698
1745.000000	28.042554
1744.000000	27.816213
1743.000000	27.532995
1742.000000	27.260215
1741.000000	26.949623
1740.000000	26.636368
1739.000000	26.340155
1738.000000	26.076428
1737.000000	25.877462
1736.000000	25.710769
1735.000000	25.595735
1734.000000	25.560799
1733.000000	25.588705
1732.000000	25.652080
1731.000000	25.740699
1730.000000	25.854029
1729.000000	25.975667
1728.000000	26.124146
1727.000000	26.195297
1726.000000	26.279229
1725.000000	26.352297
1724.000000	26.391814
1723.000000	26.428987
1722.000000	26.465947
1721.000000	26.508445
1720.000000	26.555311
1719.000000	26.628912
1718.000000	26.706347
1717.000000	26.782823
1716.000000	26.896899
1715.000000	27.011081
1714.000000	27.120363
1713.000000	27.211751
1712.000000	27.276085
1711.000000	27.350858
1710.000000	27.363426
1709.000000	27.372799
1708.000000	27.379403
1707.000000	27.348301
1706.000000	27.303033
1705.000000	27.242960
1704.000000	27.190555
1703.000000	27.080634
1702.000000	26.948025
1701.000000	26.770787
1700.000000	26.577786
1699.000000	26.384464
1698.000000	26.230020
1697.000000	26.120418
1696.000000	26.066097
1695.000000	26.111578
1694.000000	26.164941
1693.000000	26.288389
1692.000000	26.456467
1691.000000	26.616876
1690.000000	26.763651
1689.000000	26.837890
1688.000000	26.872188
1687.000000	26.894981
1686.000000	26.918095
1685.000000	27.007992
1684.000000	27.217929
1683.000000	27.520533
1682.000000	28.012943
1681.000000	28.614529
1680.000000	29.292165
1679.000000	29.939232
1678.000000	30.562334
1677.000000	31.143682
1676.000000	31.658460
1675.000000	32.102300
1674.000000	32.488197
1673.000000	32.832980
1672.000000	33.113216
1671.000000	33.370551
1670.000000	33.638538
1669.000000	33.847091
1668.000000	34.017831
1667.000000	34.181223
1666.000000	34.306056
1665.000000	34.431741
1664.000000	34.542941
1663.000000	34.637525
1662.000000	34.737647
1661.000000	34.804537
1660.000000	34.894328
1659.000000	34.935655
1658.000000	34.990935
1657.000000	35.013196
1656.000000	35.048772
1655.000000	35.049198
1654.000000	35.038972
1653.000000	35.033008
1652.000000	35.023422
1651.000000	34.998391
1650.000000	34.987101
1649.000000	34.953868
1648.000000	34.910305
1647.000000	34.845119
1646.000000	34.780572
1645.000000	34.740842
1644.000000	34.676402
1643.000000	34.615796
1642.000000	34.555083
1641.000000	34.495330
1640.000000	34.444629
1639.000000	34.362188
1638.000000	34.291038
1637.000000	34.212537
1636.000000	34.147351
1635.000000	34.073538
1634.000000	33.977889
1633.000000	33.898537
1632.000000	33.816628
1631.000000	33.723003
1630.000000	33.639497
1629.000000	33.550239
1628.000000	33.443726
1627.000000	33.345414
1626.000000	33.263825
1625.000000	33.163916
1624.000000	33.071356
1623.000000	32.974110
1622.000000	32.884852
1621.000000	32.793570
1620.000000	32.703566
1619.000000	32.630179
1618.000000	32.540282
1617.000000	32.436112
1616.000000	32.351647
1615.000000	32.268460
1614.000000	32.175048
1613.000000	32.092607
1612.000000	32.011444
1611.000000	31.926873
1610.000000	31.858385
1609.000000	31.778500
1608.000000	31.686579
1607.000000	31.599345
1606.000000	31.514348
1605.000000	31.433078
1604.000000	31.336364
1603.000000	31.247745
1602.000000	31.176701
1601.000000	31.094686
1600.000000	31.009050
1599.000000	30.920857
1598.000000	30.846511
1597.000000	30.773230
1596.000000	30.706872
1595.000000	30.647757
1594.000000	30.594607
1593.000000	30.536451
1592.000000	30.488201
1591.000000	30.442613
1590.000000	30.405653
1589.000000	30.354420
1588.000000	30.305957
1587.000000	30.261647
1586.000000	30.226178
1585.000000	30.188153
1584.000000	30.164827
1583.000000	30.150661
1582.000000	30.132127
1581.000000	30.097298
1580.000000	30.086966
1579.000000	30.092611
1578.000000	30.086859
1577.000000	30.081640
1576.000000	30.091120
1575.000000	30.113275
1574.000000	30.135536
1573.000000	30.160992
1572.000000	30.201787
1571.000000	30.234380
1570.000000	30.263032
1569.000000	30.316608
1568.000000	30.368373
1567.000000	30.404588
1566.000000	30.453797
1565.000000	30.512805
1564.000000	30.559458
1563.000000	30.597057
1562.000000	30.640621
1561.000000	30.680563
1560.000000	30.705487
1559.000000	30.733394
1558.000000	30.760555
1557.000000	30.767691
1556.000000	30.768863
1555.000000	30.776638
1554.000000	30.783135
1553.000000	30.775040
1552.000000	30.761939
1551.000000	30.761726
1550.000000	30.751927
1549.000000	30.739572
1548.000000	30.729559
1547.000000	30.716778
1546.000000	30.705913
1545.000000	30.709322
1544.000000	30.712943
1543.000000	30.717523
1542.000000	30.723275
1541.000000	30.734246
1540.000000	30.749051
1539.000000	30.750223
1538.000000	30.750329
1537.000000	30.764176
1536.000000	30.771312
1535.000000	30.781325
1534.000000	30.783881
1533.000000	30.785798
1532.000000	30.780473
1531.000000	30.770780
1530.000000	30.768650
1529.000000	30.766626
1528.000000	30.759063
1527.000000	30.752992
1526.000000	30.721890
1525.000000	30.711665
1524.000000	30.685250
1523.000000	30.668847
1522.000000	30.662243
1521.000000	30.643816
1520.000000	30.610052
1519.000000	30.595140
1518.000000	30.574157
1517.000000	30.558286
1516.000000	30.531871
1515.000000	30.517279
1514.000000	30.487349
1513.000000	30.448258
1512.000000	30.418648
1511.000000	30.405014
1510.000000	30.367521
1509.000000	30.340893
1508.000000	30.306489
1507.000000	30.290299
1506.000000	30.265482
1505.000000	30.234912
1504.000000	30.200189
1503.000000	30.171111
1502.000000	30.145974
1501.000000	30.154069
1500.000000	30.153643
1499.000000	30.148850
1498.000000	30.135216
1497.000000	30.136601
1496.000000	30.151619
1495.000000	30.163442
1494.000000	30.176437
1493.000000	30.198805
1492.000000	30.222131
1491.000000	30.265375
1490.000000	30.279648
1489.000000	30.303720
1488.000000	30.333970
1487.000000	30.364858
1486.000000	30.382753
1485.000000	30.439098
1484.000000	30.450282
1483.000000	30.495230
1482.000000	30.543694
1481.000000	30.603767
1480.000000	30.655852
1479.000000	30.724021
1478.000000	30.795384
1477.000000	30.827232
1476.000000	30.914892
1475.000000	31.012139
1474.000000	31.090000
1473.000000	31.185009
1472.000000	31.273841
1471.000000	31.349892
1470.000000	31.407302
1469.000000	31.478346
1468.000000	31.577084
1467.000000	31.669431
1466.000000	31.752085
1465.000000	31.848905
1464.000000	31.945087
1463.000000	32.057671
1462.000000	32.174942
1461.000000	32.286674
1460.000000	32.397980
1459.000000	32.526009
1458.000000	32.683116
1457.000000	32.803476
1456.000000	32.936191
1455.000000	33.064220
1454.000000	33.219196
1453.000000	33.391747
1452.000000	33.555352
1451.000000	33.718849
1450.000000	33.828238
1449.000000	33.983641
1448.000000	34.142026
1447.000000	34.332365
1446.000000	34.517378
1445.000000	34.700900
1444.000000	34.867912
1443.000000	35.037162
1442.000000	35.226116
1441.000000	35.376512
1440.000000	35.569834
1439.000000	35.755593
1438.000000	35.914084
1437.000000	36.047332
1436.000000	36.214344
1435.000000	36.385404
1434.000000	36.551671
1433.000000	36.714104
1432.000000	36.918289
1431.000000	37.085834
1430.000000	37.292896
1429.000000	37.506455
1428.000000	37.730878
1427.000000	37.944117
1426.000000	38.258118
1425.000000	38.510234
1424.000000	38.786636
1423.000000	39.079120
1422.000000	39.320799
1421.000000	39.605828
1420.000000	39.905662
1419.000000	40.149151
1418.000000	40.362071
1417.000000	40.610992
1416.000000	40.891760
1415.000000	41.163262
1414.000000	41.389602
1413.000000	41.602309
1412.000000	41.810649
1411.000000	42.140094
1410.000000	42.479870
1409.000000	42.832748
1408.000000	43.230681
1407.000000	43.644591
1406.000000	44.046252
1405.000000	44.454517
1404.000000	44.853195
1403.000000	45.268490
1402.000000	45.701252
1401.000000	46.127411
1400.000000	46.458560
1399.000000	46.648260
1398.000000	46.860647
1397.000000	47.104030
1396.000000	47.330903
1395.000000	47.419841
1394.000000	47.491737
1393.000000	47.620512
1392.000000	47.770908
1391.000000	47.918322
1390.000000	48.081713
1389.000000	48.337238
1388.000000	48.589035
1387.000000	48.877153
1386.000000	49.220232
1385.000000	49.613585
1384.000000	49.945693
1383.000000	50.277907
1382.000000	50.492744
1381.000000	50.605328
1380.000000	50.664443
1379.000000	50.695225
1378.000000	50.706835
1377.000000	50.807383
1376.000000	50.935838
1375.000000	51.178582
1374.000000	51.507174
1373.000000	51.910646
1372.000000	52.318165
1371.000000	52.735057
1370.000000	53.095072
1369.000000	53.445926
1368.000000	53.785063
1367.000000	54.046447
1366.000000	54.267461
1365.000000	54.497423
1364.000000	54.656340
1363.000000	54.853070
1362.000000	55.026047
1361.000000	55.097518
1360.000000	55.104974
1359.000000	55.222458
1358.000000	55.361990
1357.000000	55.620071
1356.000000	56.083403
1355.000000	56.680941
1354.000000	57.320339
1353.000000	57.979442
1352.000000	58.738561
1351.000000	59.432494
1350.000000	60.050163
1349.000000	60.621606
1348.000000	61.163438
1347.000000	61.642534
1346.000000	62.111724
1345.000000	62.569624
1344.000000	62.972883
1343.000000	63.362188
1342.000000	63.724545
1341.000000	64.078808
1340.000000	64.406762
1339.000000	64.710431
1338.000000	65.022727
1337.000000	65.304241
1336.000000	65.551991
1335.000000	65.796119
1334.000000	66.027572
1333.000000	66.237402
1332.000000	66.440097
1331.000000	66.643004
1330.000000	66.823331
1329.000000	66.986615
1328.000000	67.139462
1327.000000	67.285385
1326.000000	67.426195
1325.000000	67.550176
1324.000000	67.673944
1323.000000	67.791215
1322.000000	67.891764
1321.000000	67.988584
1320.000000	68.071771
1319.000000	68.152188
1318.000000	68.251352
1317.000000	68.337734
1316.000000	68.407607
1315.000000	68.482059
1314.000000	68.528499
1313.000000	68.580264
1312.000000	68.636503
1311.000000	68.688162
1310.000000	68.736306
1309.000000	68.767727
1308.000000	68.783172
1307.000000	68.799042
1306.000000	68.809161
1305.000000	68.810546
1304.000000	68.796912
1303.000000	68.790521
1302.000000	68.783385
1301.000000	68.749727
1300.000000	68.723737
1299.000000	68.702541
1298.000000	68.677511
1297.000000	68.643000
1296.000000	68.603804
1295.000000	68.565033
1294.000000	68.528499
1293.000000	68.495267
1292.000000	68.448295
1291.000000	68.380339
1290.000000	68.310893
1289.000000	68.239529
1288.000000	68.150377
1287.000000	68.057285
1286.000000	67.969518
1285.000000	67.868650
1284.000000	67.761072
1283.000000	67.655518
1282.000000	67.540910
1281.000000	67.437059
1280.000000	67.331505
1279.000000	67.216151
1278.000000	67.112407
1277.000000	67.023788
1276.000000	66.933465
1275.000000	66.845379
1274.000000	66.768903
1273.000000	66.699563
1272.000000	66.616269
1271.000000	66.550338
1270.000000	66.489519
1269.000000	66.428700
1268.000000	66.347643
1267.000000	66.266480
1266.000000	66.192560
1265.000000	66.107989
1264.000000	66.029595
1263.000000	65.957912
1262.000000	65.901460
1261.000000	65.828605
1260.000000	65.763206
1259.000000	65.695464
1258.000000	65.601306
1257.000000	65.519185
1256.000000	65.440152
1255.000000	65.350468
1254.000000	65.243635
1253.000000	65.147560
1252.000000	65.047545
1251.000000	64.923776
1250.000000	64.806932
1249.000000	64.666228
1248.000000	64.535217
1247.000000	64.391850
1246.000000	64.226648
1245.000000	64.042487
1244.000000	63.837769
1243.000000	63.649560
1242.000000	63.444629
1241.000000	63.228514
1240.000000	63.021772
1239.000000	62.803740
1238.000000	62.588051
1237.000000	62.356598
1236.000000	62.125891
1235.000000	61.897207
1234.000000	61.672251
1233.000000	61.429188
1232.000000	61.195499
1231.000000	60.961596
1230.000000	60.730463
1229.000000	60.484311
1228.000000	60.241035
1227.000000	60.020127
1226.000000	59.775147
1225.000000	59.546143
1224.000000	59.337697
1223.000000	59.110611
1222.000000	58.930072
1221.000000	58.722797
1220.000000	58.532884
1219.000000	58.355753
1218.000000	58.194918
1217.000000	58.034936
1216.000000	57.888161
1215.000000	57.763540
1214.000000	57.638281
1213.000000	57.508015
1212.000000	57.397987
1211.000000	57.275497
1210.000000	57.192843
1209.000000	57.076850
1208.000000	57.014966
1207.000000	56.964479
1206.000000	56.926028
1205.000000	56.918679
1204.000000	56.898015
1203.000000	56.874582
1202.000000	56.849125
1201.000000	56.799703
1200.000000	56.728979
1199.000000	56.597861
1198.000000	56.460992
1197.000000	56.256593
1196.000000	56.007033
1195.000000	55.658948
1194.000000	55.226931
1193.000000	54.765836
1192.000000	54.209518
1191.000000	53.688776
1190.000000	53.210425
1189.000000	52.821546
1188.000000	52.551748
1187.000000	52.431815
1186.000000	52.476870
1185.000000	52.642071
1184.000000	52.966191
1183.000000	53.401297
1182.000000	53.941105
1181.000000	54.504346
1180.000000	55.073339
1179.000000	55.585028
1178.000000	56.021945
1177.000000	56.418067
1176.000000	56.769134
1175.000000	57.100816
1174.000000	57.430367
1173.000000	57.791021
1172.000000	58.159556
1171.000000	58.561536
1170.000000	58.980985
1169.000000	59.382539
1168.000000	59.784626
1167.000000	60.218987
1166.000000	60.644826
1165.000000	61.089412
1164.000000	61.528885
1163.000000	61.963671
1162.000000	62.388445
1161.000000	62.811835
1160.000000	63.226597
1159.000000	63.602801
1158.000000	63.955572
1157.000000	64.256791
1156.000000	64.499854
1155.000000	64.676986
1154.000000	64.768587
1153.000000	64.797345
1152.000000	64.783712
1151.000000	64.716502
1150.000000	64.687424
1149.000000	64.630120
1148.000000	64.602426
1147.000000	64.670275
1146.000000	64.787546
1145.000000	65.008987
1144.000000	65.330443
1143.000000	65.701322
1142.000000	66.028317
1141.000000	66.420179
1140.000000	66.819816
1139.000000	67.257159
1138.000000	67.669471
1137.000000	68.116400
1136.000000	68.573021
1135.000000	68.984908
1134.000000	69.348756
1133.000000	69.634531
1132.000000	69.935643
1131.000000	70.228554
1130.000000	70.481310
1129.000000	70.659719
1128.000000	70.825880
1127.000000	70.929517
1126.000000	71.022290
1125.000000	71.099938
1124.000000	71.168106
1123.000000	71.225304
1122.000000	71.262051
1121.000000	71.280584
1120.000000	71.294111
1119.000000	71.298478
1118.000000	71.304550
1117.000000	71.279732
1116.000000	71.233292
1115.000000	71.203256
1114.000000	71.177160
1113.000000	71.122412
1112.000000	71.096956
1111.000000	71.051261
1110.000000	71.021012
1109.000000	70.964240
1108.000000	70.931328
1107.000000	70.888936
1106.000000	70.824389
1105.000000	70.769960
1104.000000	70.734492
1103.000000	70.677933
1102.000000	70.630002
1101.000000	70.545324
1100.000000	70.474493
1099.000000	70.408455
1098.000000	70.333150
1097.000000	70.259976
1096.000000	70.184671
1095.000000	70.097863
1094.000000	70.011907
1093.000000	69.910719
1092.000000	69.813260
1091.000000	69.720487
1090.000000	69.633892
1089.000000	69.534622
1088.000000	69.439186
1087.000000	69.332034
1086.000000	69.205070
1085.000000	69.103563
1084.000000	68.995665
1083.000000	68.881270
1082.000000	68.774864
1081.000000	68.690292
1080.000000	68.590703
1079.000000	68.487385
1078.000000	68.371392
1077.000000	68.279258
1076.000000	68.195113
1075.000000	68.092754
1074.000000	67.995507
1073.000000	67.898154
1072.000000	67.794730
1071.000000	67.691306
1070.000000	67.605030
1069.000000	67.514388
1068.000000	67.408940
1067.000000	67.321493
1066.000000	67.241714
1065.000000	67.158421
1064.000000	67.061920
1063.000000	66.972236
1062.000000	66.885748
1061.000000	66.792442
1060.000000	66.704249
1059.000000	66.607855
1058.000000	66.525307
1057.000000	66.436582
1056.000000	66.328365
1055.000000	66.236124
1054.000000	66.157731
1053.000000	66.051217
1052.000000	65.958977
1051.000000	65.888678
1050.000000	65.808048
1049.000000	65.727737
1048.000000	65.648278
1047.000000	65.574039
1046.000000	65.499480
1045.000000	65.410754
1044.000000	65.332680
1043.000000	65.268985
1042.000000	65.188142
1041.000000	65.108151
1040.000000	65.035296
1039.000000	64.964358
1038.000000	64.879147
1037.000000	64.791487
1036.000000	64.705425
1035.000000	64.613717
1034.000000	64.520624
1033.000000	64.425402
1032.000000	64.334972
1031.000000	64.252850
1030.000000	64.133343
1029.000000	64.022889
1028.000000	63.931607
1027.000000	63.817957
1026.000000	63.704308
1025.000000	63.593108
1024.000000	63.495223
1023.000000	63.399361
1022.000000	63.290824
1021.000000	63.185163
1020.000000	63.075455
1019.000000	62.974374
1018.000000	62.891400
1017.000000	62.814391
1016.000000	62.744945
1015.000000	62.666977
1014.000000	62.600513
1013.000000	62.552795
1012.000000	62.509125
1011.000000	62.481112
1010.000000	62.439998
1009.000000	62.409002
1008.000000	62.390256
1007.000000	62.364054
1006.000000	62.341153
1005.000000	62.326348
1004.000000	62.313567
1003.000000	62.295672
1002.000000	62.265423
1001.000000	62.227078
1000.000000	62.222498
999.000000	62.213870
998.000000	62.189585
997.000000	62.180425
996.000000	62.151667
995.000000	62.143359
994.000000	62.148578
993.000000	62.138566
992.000000	62.145169
991.000000	62.139844
990.000000	62.158910
989.000000	62.156140
988.000000	62.171904
987.000000	62.185857
986.000000	62.195231
985.000000	62.206201
984.000000	62.241138
983.000000	62.278950
982.000000	62.276287
981.000000	62.282252
980.000000	62.310052
979.000000	62.305685
978.000000	62.328159
977.000000	62.353402
976.000000	62.352870
975.000000	62.360432
974.000000	62.370019
973.000000	62.396114
972.000000	62.416565
971.000000	62.427749
970.000000	62.449690
969.000000	62.480153
968.000000	62.505823
967.000000	62.528084
966.000000	62.550984
965.000000	62.592524
964.000000	62.647485
963.000000	62.687747
962.000000	62.745584
961.000000	62.801503
960.000000	62.864985
959.000000	62.940929
958.000000	63.010801
957.000000	63.080674
956.000000	63.134783
955.000000	63.186654
954.000000	63.250136
953.000000	63.338542
952.000000	63.396485
951.000000	63.455067
950.000000	63.501188
949.000000	63.567119
948.000000	63.613559
947.000000	63.708462
946.000000	63.763423
945.000000	63.816892
944.000000	63.910411
943.000000	63.969739
942.000000	64.046535
941.000000	64.112892
940.000000	64.220044
939.000000	64.295349
938.000000	64.389720
937.000000	64.491866
936.000000	64.573881
935.000000	64.715117
934.000000	64.789357
933.000000	64.883195
932.000000	64.991625
931.000000	65.081842
930.000000	65.211894
929.000000	65.296146
928.000000	65.379652
927.000000	65.523871
926.000000	65.598217
925.000000	65.656693
924.000000	65.739667
923.000000	65.825410
922.000000	65.906892
921.000000	65.952693
920.000000	66.045253
919.000000	66.172216
918.000000	66.218017
917.000000	66.265628
916.000000	66.331773
915.000000	66.383112
914.000000	66.438499
913.000000	66.451068
912.000000	66.510928
911.000000	66.578670
910.000000	66.627240
909.000000	66.692533
908.000000	66.749091
907.000000	66.816514
906.000000	66.832811
905.000000	66.898103
904.000000	66.983527
903.000000	67.083542
902.000000	67.165770
901.000000	67.250342
900.000000	67.345245
899.000000	67.459960
898.000000	67.554543
897.000000	67.572224
896.000000	67.704088
895.000000	67.788766
894.000000	67.855549
893.000000	67.897728
892.000000	68.003070
891.000000	68.099784
890.000000	68.205125
889.000000	68.223126
888.000000	68.297152
887.000000	68.314834
886.000000	68.407394
885.000000	68.469704
884.000000	68.575471
883.000000	68.667818
882.000000	68.702328
881.000000	68.805966
880.000000	68.836215
879.000000	68.841860
878.000000	68.895650
877.000000	68.876264
876.000000	68.822475
875.000000	68.814380
874.000000	68.672185
873.000000	68.575897
872.000000	68.617437
871.000000	68.842073
870.000000	69.098877
869.000000	69.402119
868.000000	69.690131
867.000000	69.979207
866.000000	70.251029
865.000000	70.553100
864.000000	70.842922
863.000000	71.139561
862.000000	71.442910
861.000000	71.758295
860.000000	72.075491
859.000000	72.394179
858.000000	73.539833
857.000000	73.627400
856.000000	73.356800
855.000000	73.635300
854.000000	74.727900
853.000000	75.172700
852.000000	75.281300
851.000000	75.266200
850.000000	75.446100
849.000000	76.018800
848.000000	76.629400
847.000000	76.791200
846.000000	77.214600
845.000000	77.749200
844.000000	77.969600
843.000000	77.789600
842.000000	78.618200
841.000000	79.248400
840.000000	79.275200
839.000000	79.894500
838.000000	80.787800
837.000000	80.891900
836.000000	81.136400
835.000000	81.271500
834.000000	81.773500
833.000000	82.063500
832.000000	82.571200
831.000000	83.011800
830.000000	83.539400
829.000000	83.643800
828.000000	84.301300
827.000000	84.769500
826.000000	85.172900
825.000000	85.497600
824.000000	85.888400
823.000000	86.451100
822.000000	86.920700
821.000000	87.394000
820.000000	87.622600
819.000000	87.763300
818.000000	88.253000
817.000000	88.768100
816.000000	89.266000
815.000000	89.557200
814.000000	89.936100
813.000000	90.303900
812.000000	90.578900
811.000000	90.960900
810.000000	91.206100
809.000000	91.618600
808.000000	91.917300
807.000000	92.050700
806.000000	92.199800
805.000000	92.599400
804.000000	92.898900
803.000000	93.147000
802.000000	93.326000
801.000000	93.346700
800.000000	93.613200
799.000000	93.824500
798.000000	93.992800
797.000000	94.180700
796.000000	94.303600
795.000000	94.410100
794.000000	94.401700
793.000000	94.654800
792.000000	94.708200
791.000000	94.773300
790.000000	94.751100
789.000000	94.898700
788.000000	94.877500
787.000000	94.977400
786.000000	95.058200
785.000000	95.169100
784.000000	95.151800
783.000000	95.095700
782.000000	95.065300
781.000000	95.126700
780.000000	95.118600
779.000000	94.988900
778.000000	95.052700
777.000000	95.120200
776.000000	95.097900
775.000000	95.066000
774.000000	95.052300
773.000000	95.100700
772.000000	95.054900
771.000000	95.071100
770.000000	95.046500
769.000000	94.893300
768.000000	94.976900
767.000000	94.985000
766.000000	94.827700
765.000000	94.783200
764.000000	94.739000
763.000000	94.627600
762.000000	94.527700
761.000000	94.553600
760.000000	94.521700
759.000000	94.381800
758.000000	94.321000
757.000000	94.274800
756.000000	94.121400
755.000000	93.923100
754.000000	93.769200
753.000000	93.777800
752.000000	93.733800
751.000000	93.613000
750.000000	93.490500
749.000000	93.319700
748.000000	93.195200
747.000000	93.013300
746.000000	92.785600
745.000000	92.603700
744.000000	92.441700
743.000000	92.253500
742.000000	91.968200
741.000000	91.700700
740.000000	91.500400
739.000000	91.255500
738.000000	90.988500
737.000000	90.644300
736.000000	90.321800
735.000000	89.970300
734.000000	89.617500
733.000000	89.293800
732.000000	88.849600
731.000000	88.353300
730.000000	87.872400
729.000000	87.330500
728.000000	86.903200
727.000000	86.409300
726.000000	85.808700
725.000000	85.264800
724.000000	84.650300
723.000000	84.100500
722.000000	83.525500
721.000000	82.891400
720.000000	82.337800
719.000000	81.790100
718.000000	81.199600
717.000000	80.668100
716.000000	80.141300
715.000000	79.692800
714.000000	79.281100
713.000000	78.806700
712.000000	78.392600
711.000000	78.066000
710.000000	77.736500
709.000000	77.414600
708.000000	77.159200
707.000000	76.871500
706.000000	76.699700
705.000000	76.445600
704.000000	76.204700
703.000000	76.013100
702.000000	75.826000
701.000000	75.709000
700.000000	75.555000
699.000000	75.391100
698.000000	75.219300
697.000000	75.121300
696.000000	75.018400
695.000000	74.846400
694.000000	74.669900
693.000000	74.504900
692.000000	74.319000
691.000000	74.126800
690.000000	73.916900
689.000000	73.728700
688.000000	73.536800
687.000000	73.243100
686.000000	73.002200
685.000000	72.744400
684.000000	72.458500
683.000000	72.215400
682.000000	71.900300
681.000000	71.578600
680.000000	71.241600
679.000000	70.918400
678.000000	70.624200
677.000000	70.362200
676.000000	70.065700
675.000000	69.769700
674.000000	69.491000
673.000000	69.218900
672.000000	68.932700
671.000000	68.756300
670.000000	68.518400
669.000000	68.252700
668.000000	68.129200
667.000000	67.935100
666.000000	67.816200
665.000000	67.625500
664.000000	67.496600
663.000000	67.401500
662.000000	67.238800
661.000000	67.138800
660.000000	67.073400
659.000000	66.933700
658.000000	66.799100
657.000000	66.687400
656.000000	66.560300
655.000000	66.419000
654.000000	66.261200
653.000000	66.161200
652.000000	65.966200
651.000000	65.861900
650.000000	65.779700
649.000000	65.627900
648.000000	65.457300
647.000000	65.318100
646.000000	65.177400
645.000000	64.988400
644.000000	64.830600
643.000000	64.716000
642.000000	64.550600
641.000000	64.381300
640.000000	64.266600
639.000000	64.115100
638.000000	64.062100
637.000000	63.964200
636.000000	63.908500
635.000000	63.976500
634.000000	63.988200
633.000000	64.023000
632.000000	64.114700
631.000000	64.249600
630.000000	64.390400
629.000000	64.581400
628.000000	64.815600
627.000000	65.028700
626.000000	65.359100
625.000000	65.623100
624.000000	65.995300
623.000000	66.346100
622.000000	66.758500
621.000000	67.131600
620.000000	67.554700
619.000000	67.976700
618.000000	68.440400
617.000000	68.874100
616.000000	69.266700
615.000000	69.723700
614.000000	70.212900
613.000000	70.676200
612.000000	71.144400
611.000000	71.604200
610.000000	72.071600
609.000000	72.488500
608.000000	72.912900
607.000000	73.393500
606.000000	73.810500
605.000000	74.144900
604.000000	74.564100
603.000000	74.989900
602.000000	75.372700
601.000000	75.765200
600.000000	76.107500
599.000000	76.429700
598.000000	76.794200
597.000000	77.115900
596.000000	77.365000
595.000000	77.696200
594.000000	77.939300
593.000000	78.198900
592.000000	78.358600
591.000000	78.646500
590.000000	78.780300
589.000000	78.849300
588.000000	79.016100
587.000000	79.085000
586.000000	79.043100
585.000000	79.182100
584.000000	79.151900
583.000000	79.111200
582.000000	79.072300
581.000000	78.997100
580.000000	78.942700
579.000000	78.845600
578.000000	78.704100
577.000000	78.486200
576.000000	78.367500
575.000000	78.158800
574.000000	78.024400
573.000000	77.833600
572.000000	77.650500
571.000000	77.322500
570.000000	77.159800
569.000000	76.849100
568.000000	76.602800
567.000000	76.248500
566.000000	75.931800
565.000000	75.624900
564.000000	75.307300
563.000000	74.995500
562.000000	74.547500
561.000000	74.165800
560.000000	73.712800
559.000000	73.091500
558.000000	72.608000
557.000000	72.069000
556.000000	71.486600
555.000000	70.969000
554.000000	70.385600
553.000000	69.775800
552.000000	69.143400
551.000000	68.467000
550.000000	67.777900
549.000000	67.142000
548.000000	66.467400
547.000000	65.780800
546.000000	65.062000
545.000000	64.361900
544.000000	63.647500
543.000000	62.880300
542.000000	62.123600
541.000000	61.294600
540.000000	60.504400
539.000000	59.666400
538.000000	58.826400
537.000000	58.010700
536.000000	57.175300
535.000000	56.295200
534.000000	55.373500
533.000000	54.479600
532.000000	53.594100
531.000000	52.711100
530.000000	51.814400
529.000000	50.923800
528.000000	50.058300
527.000000	49.205300
526.000000	48.336500
525.000000	47.503800
524.000000	46.669400
523.000000	45.849100
522.000000	45.053600
521.000000	44.231400
520.000000	43.422600
519.000000	42.691900
518.000000	41.986100
517.000000	41.298700
516.000000	40.613600
515.000000	39.958200
514.000000	39.329200
513.000000	38.718800
512.000000	38.147700
511.000000	37.625800
510.000000	37.122500
509.000000	36.629100
508.000000	36.166400
507.000000	35.720900
506.000000	35.314500
505.000000	34.907600
504.000000	34.521200
503.000000	34.136100
502.000000	33.764600
501.000000	33.436300
500.000000	33.094600
499.000000	32.760100
498.000000	32.434500
497.000000	32.112300
496.000000	31.801000
495.000000	31.508300
494.000000	31.195400
493.000000	30.891300
492.000000	30.604800
491.000000	30.322000
490.000000	30.035500
489.000000	29.765800
488.000000	29.519000
487.000000	29.298600
486.000000	29.068200
485.000000	28.855500
484.000000	28.670200
483.000000	28.481800
482.000000	28.308000
481.000000	28.120900
480.000000	27.959900
479.000000	27.824400
478.000000	27.694000
477.000000	27.601200
476.000000	27.488600
475.000000	27.397400
474.000000	27.301500
473.000000	27.219200
472.000000	27.162200
471.000000	27.117300
470.000000	27.043000
469.000000	26.981400
468.000000	26.937900
467.000000	26.880200
466.000000	26.826800
465.000000	26.802500
464.000000	26.768500
463.000000	26.726700
462.000000	26.674500
461.000000	26.619400
460.000000	26.566900
459.000000	26.526500
458.000000	26.461700
457.000000	26.409700
456.000000	26.369500
455.000000	26.287200
454.000000	26.221800
453.000000	26.159300
452.000000	26.096000
451.000000	25.982200
450.000000	25.883500
449.000000	25.791500
448.000000	25.685700
447.000000	25.583000
446.000000	25.472300
445.000000	25.337800
444.000000	25.188200
443.000000	25.032400
442.000000	24.874400
441.000000	24.709600
440.000000	24.496000
439.000000	24.302800
438.000000	24.094500
437.000000	23.876700
436.000000	23.630000
435.000000	23.377200
434.000000	23.109700
433.000000	22.834500
432.000000	22.578100
431.000000	22.286000
430.000000	21.967400
429.000000	21.638400
428.000000	21.324100
427.000000	21.007300
426.000000	20.661800
425.000000	20.314900
424.000000	19.941600
423.000000	19.563800
422.000000	19.191300
421.000000	18.806800
420.000000	18.404600
419.000000	18.014300
418.000000	17.633200
417.000000	17.233500
416.000000	16.838900
415.000000	16.468900
414.000000	16.088700
413.000000	15.712100
412.000000	15.311200
411.000000	14.934100
410.000000	14.553100
409.000000	14.185800
408.000000	13.820400
407.000000	13.467600
406.000000	13.132800
405.000000	12.801300
404.000000	12.461500
403.000000	12.155500
402.000000	11.829500
401.000000	11.535200
400.000000	11.238700
399.000000	10.957000
398.000000	10.694600
397.000000	10.430400
396.000000	10.173500
395.000000	9.933900
394.000000	9.725600
393.000000	9.488400
392.000000	9.243100
391.000000	9.056300
390.000000	8.858900
389.000000	8.660900
388.000000	8.467300
387.000000	8.312000
386.000000	8.163000
385.000000	8.019500
384.000000	7.842400
383.000000	7.709500
382.000000	7.584900
381.000000	7.478900
380.000000	7.344000
379.000000	7.239200
378.000000	7.136200
377.000000	7.061500
376.000000	6.971500
375.000000	6.483500
374.000000	6.312200
373.000000	6.364100
372.000000	6.171200
371.000000	6.181800
370.000000	6.310500
369.000000	6.243200
368.000000	6.184600
367.000000	6.198900
366.000000	6.252100
365.000000	6.334600
364.000000	6.278400
363.000000	5.992300
362.000000	6.167100
361.000000	6.232400
360.000000	6.116000
359.000000	5.995500
358.000000	5.949700
357.000000	6.257200
356.000000	6.025700
355.000000	6.065900
354.000000	5.860300
353.000000	5.754900
352.000000	5.827700
351.000000	5.795300
350.000000	5.913500
349.000000	6.071400
348.000000	5.984400
347.000000	6.019000
346.000000	5.698800
345.000000	5.611300
344.000000	5.488300
343.000000	5.381700
342.000000	5.920800
341.000000	5.653500
340.000000	5.837800
339.000000	5.604600
338.000000	5.782900
337.000000	5.856000
336.000000	5.737700
335.000000	5.885000
334.000000	6.102900
333.000000	5.652300
332.000000	5.511500
331.000000	5.800600
330.000000	5.586000
329.000000	6.127700
328.000000	5.693500
327.000000	5.500300
326.000000	5.651900
325.000000	5.546500
324.000000	5.969100
323.000000	6.543500
322.000000	5.811200
321.000000	6.083300
320.000000	6.476000
319.000000	6.387800
318.000000	6.512900
317.000000	6.187500
316.000000	5.608600
315.000000	5.549800
314.000000	5.580600
313.000000	5.571200
312.000000	5.581400
311.000000	5.547500
310.000000	5.518200
309.000000	5.603900
308.000000	5.542100
307.000000	5.533100
306.000000	5.544100
305.000000	5.604100
304.000000	5.608900
303.000000	5.621600
302.000000	5.607600
301.000000	5.566700
300.000000	5.610000
299.000000	5.582000
298.000000	5.585500
297.000000	5.596300
296.000000	5.595800
295.000000	5.614900
294.000000	5.597200
293.000000	5.634100
292.000000	5.665000
291.000000	5.621500
290.000000	5.647200
289.000000	5.592400
288.000000	5.649300
287.000000	5.719500
286.000000	5.662300
285.000000	5.722200
284.000000	5.679800
283.000000	5.727100
282.000000	5.718100
281.000000	5.684600
280.000000	5.732600
279.000000	5.668000
278.000000	5.713400
277.000000	5.756600
276.000000	5.735800
275.000000	5.773500
274.000000	5.769500
273.000000	5.793600
272.000000	5.760000
271.000000	5.826700
270.000000	5.786400
269.000000	5.815400
268.000000	5.872300
267.000000	5.885300
266.000000	5.886600
265.000000	5.921700
264.000000	5.915000
263.000000	5.959200
262.000000	6.030700
261.000000	6.046800
260.000000	6.043300
259.000000	6.073400
258.000000	6.099000
257.000000	6.085600
256.000000	6.104300
255.000000	6.097800
254.000000	6.091200
253.000000	6.111800
252.000000	6.124500
251.000000	6.187700
250.000000	6.149200
