PE UV       SUBTECH     SPECTRUM    ASCII       PEDS        4.00        
   -1
CICIMAUCR0101-1.Sample.ASC
24/04/19
09:59:09.00
24/04/19
09:59:09.00
Vinicio Soto Monge
C. resplendens
250,000000
1
Lambda 1050
1050L1511233
PerkinElmer UV WinLab 6.3.2.0749 / 2.02.05 Lambda 900 UV/VIS/NIR, Aug  7 2015 09:38:08

0
0
3350/servo 860,8/2
0
0
UV/VIS
1
1
1
DoubleDePol,CommonBeamDepol,RBeamAtt,SBeamAtt,60mm sphere, WB InGaAs Detector
0
0
0
0
Program
Program
3350/servo 860,8/2
3350/0,2 860,8/0,2
3350/0,2 860,8/0,2
0
15.00
 
 
 
0
 
860,8
319,2
860,8
Front
100
on
S:100 R:100
0
0
0
0
 
0
 
 
 
0
 
 
0
0
0
0
0
 
 
 
 
0
0


0
0
#HDR
-1
-1
#GR
nm
%R
1.0
0.0
2500,000000
-1,000000
2251
8
92,662600
5,537600
#DATA
2500.000000	6.748300
2499.000000	6.734000
2498.000000	6.720800
2497.000000	6.649800
2496.000000	6.704400
2495.000000	6.699400
2494.000000	6.604800
2493.000000	6.614400
2492.000000	6.584500
2491.000000	6.616000
2490.000000	6.530200
2489.000000	6.541800
2488.000000	6.525400
2487.000000	6.450100
2486.000000	6.497700
2485.000000	6.481900
2484.000000	6.470200
2483.000000	6.531000
2482.000000	6.513100
2481.000000	6.497500
2480.000000	6.433000
2479.000000	6.415900
2478.000000	6.441500
2477.000000	6.397100
2476.000000	6.441900
2475.000000	6.424700
2474.000000	6.444300
2473.000000	6.435500
2472.000000	6.406900
2471.000000	6.453700
2470.000000	6.422200
2469.000000	6.411000
2468.000000	6.411100
2467.000000	6.420100
2466.000000	6.407700
2465.000000	6.416300
2464.000000	6.411200
2463.000000	6.431800
2462.000000	6.457100
2461.000000	6.489600
2460.000000	6.522400
2459.000000	6.535400
2458.000000	6.553200
2457.000000	6.596700
2456.000000	6.640400
2455.000000	6.673700
2454.000000	6.701200
2453.000000	6.748000
2452.000000	6.783500
2451.000000	6.821700
2450.000000	6.874600
2449.000000	6.926700
2448.000000	6.974300
2447.000000	6.991600
2446.000000	7.026800
2445.000000	7.083200
2444.000000	7.140200
2443.000000	7.178900
2442.000000	7.228000
2441.000000	7.282100
2440.000000	7.336800
2439.000000	7.352600
2438.000000	7.390800
2437.000000	7.442100
2436.000000	7.479000
2435.000000	7.497500
2434.000000	7.531100
2433.000000	7.565900
2432.000000	7.599600
2431.000000	7.621600
2430.000000	7.651600
2429.000000	7.676500
2428.000000	7.709300
2427.000000	7.733400
2426.000000	7.764000
2425.000000	7.778000
2424.000000	7.798600
2423.000000	7.806600
2422.000000	7.802200
2421.000000	7.812400
2420.000000	7.821900
2419.000000	7.829200
2418.000000	7.847600
2417.000000	7.858100
2416.000000	7.841600
2415.000000	7.853900
2414.000000	7.865100
2413.000000	7.869000
2412.000000	7.885100
2411.000000	7.905200
2410.000000	7.894500
2409.000000	7.875900
2408.000000	7.901800
2407.000000	7.919200
2406.000000	7.937400
2405.000000	7.932700
2404.000000	7.941400
2403.000000	7.958700
2402.000000	7.966400
2401.000000	7.978000
2400.000000	7.979600
2399.000000	7.987800
2398.000000	8.012100
2397.000000	8.033500
2396.000000	8.042500
2395.000000	8.051900
2394.000000	8.065900
2393.000000	8.075100
2392.000000	8.090300
2391.000000	8.087600
2390.000000	8.105500
2389.000000	8.123700
2388.000000	8.118000
2387.000000	8.119700
2386.000000	8.119900
2385.000000	8.105400
2384.000000	8.103800
2383.000000	8.096600
2382.000000	8.083600
2381.000000	8.072600
2380.000000	8.064100
2379.000000	8.049300
2378.000000	8.026000
2377.000000	8.006300
2376.000000	7.986000
2375.000000	7.978700
2374.000000	7.965600
2373.000000	7.933200
2372.000000	7.913400
2371.000000	7.885200
2370.000000	7.843200
2369.000000	7.812400
2368.000000	7.783300
2367.000000	7.739900
2366.000000	7.697600
2365.000000	7.657700
2364.000000	7.601800
2363.000000	7.551100
2362.000000	7.516700
2361.000000	7.460100
2360.000000	7.399800
2359.000000	7.354400
2358.000000	7.319000
2357.000000	7.287200
2356.000000	7.253400
2355.000000	7.233600
2354.000000	7.232700
2353.000000	7.231800
2352.000000	7.214200
2351.000000	7.220200
2350.000000	7.241000
2349.000000	7.255500
2348.000000	7.286600
2347.000000	7.332600
2346.000000	7.339600
2345.000000	7.353600
2344.000000	7.402100
2343.000000	7.425700
2342.000000	7.445700
2341.000000	7.460600
2340.000000	7.477800
2339.000000	7.499000
2338.000000	7.499600
2337.000000	7.487100
2336.000000	7.470000
2335.000000	7.432800
2334.000000	7.421200
2333.000000	7.404000
2332.000000	7.383100
2331.000000	7.343300
2330.000000	7.290900
2329.000000	7.252400
2328.000000	7.215700
2327.000000	7.157600
2326.000000	7.107300
2325.000000	7.055200
2324.000000	7.004400
2323.000000	6.934000
2322.000000	6.864700
2321.000000	6.800000
2320.000000	6.735100
2319.000000	6.670000
2318.000000	6.606200
2317.000000	6.533700
2316.000000	6.465100
2315.000000	6.407400
2314.000000	6.342400
2313.000000	6.278300
2312.000000	6.249400
2311.000000	6.195900
2310.000000	6.146100
2309.000000	6.116900
2308.000000	6.111500
2307.000000	6.108300
2306.000000	6.110200
2305.000000	6.100700
2304.000000	6.125700
2303.000000	6.158900
2302.000000	6.196500
2301.000000	6.245400
2300.000000	6.294800
2299.000000	6.334000
2298.000000	6.383200
2297.000000	6.432300
2296.000000	6.487900
2295.000000	6.525300
2294.000000	6.547900
2293.000000	6.584700
2292.000000	6.599100
2291.000000	6.619300
2290.000000	6.639300
2289.000000	6.633200
2288.000000	6.621600
2287.000000	6.601000
2286.000000	6.574900
2285.000000	6.575000
2284.000000	6.552600
2283.000000	6.514800
2282.000000	6.491900
2281.000000	6.467200
2280.000000	6.421700
2279.000000	6.407200
2278.000000	6.390000
2277.000000	6.345800
2276.000000	6.342000
2275.000000	6.335300
2274.000000	6.319600
2273.000000	6.316000
2272.000000	6.310800
2271.000000	6.313000
2270.000000	6.324100
2269.000000	6.360900
2268.000000	6.396300
2267.000000	6.446500
2266.000000	6.517000
2265.000000	6.600600
2264.000000	6.690200
2263.000000	6.788100
2262.000000	6.893400
2261.000000	7.039900
2260.000000	7.179700
2259.000000	7.313200
2258.000000	7.471700
2257.000000	7.625000
2256.000000	7.800800
2255.000000	7.989300
2254.000000	8.133900
2253.000000	8.285700
2252.000000	8.434800
2251.000000	8.575900
2250.000000	8.756900
2249.000000	8.868700
2248.000000	9.012400
2247.000000	9.121900
2246.000000	9.257600
2245.000000	9.370400
2244.000000	9.479200
2243.000000	9.555300
2242.000000	9.643200
2241.000000	9.737200
2240.000000	9.812000
2239.000000	9.880400
2238.000000	9.960100
2237.000000	10.034900
2236.000000	10.090600
2235.000000	10.141700
2234.000000	10.208800
2233.000000	10.238800
2232.000000	10.289600
2231.000000	10.319900
2230.000000	10.351200
2229.000000	10.373600
2228.000000	10.373800
2227.000000	10.399400
2226.000000	10.395400
2225.000000	10.414000
2224.000000	10.426400
2223.000000	10.420200
2222.000000	10.428300
2221.000000	10.412100
2220.000000	10.389200
2219.000000	10.389500
2218.000000	10.376700
2217.000000	10.375300
2216.000000	10.355700
2215.000000	10.313300
2214.000000	10.325300
2213.000000	10.301000
2212.000000	10.297600
2211.000000	10.293800
2210.000000	10.280300
2209.000000	10.273900
2208.000000	10.250400
2207.000000	10.245600
2206.000000	10.223400
2205.000000	10.220100
2204.000000	10.213100
2203.000000	10.210000
2202.000000	10.214500
2201.000000	10.201900
2200.000000	10.201300
2199.000000	10.202100
2198.000000	10.169300
2197.000000	10.179500
2196.000000	10.160600
2195.000000	10.166100
2194.000000	10.181000
2193.000000	10.170800
2192.000000	10.155200
2191.000000	10.161400
2190.000000	10.165900
2189.000000	10.165000
2188.000000	10.144200
2187.000000	10.142000
2186.000000	10.139900
2185.000000	10.117600
2184.000000	10.132800
2183.000000	10.110000
2182.000000	10.116500
2181.000000	10.089700
2180.000000	10.090800
2179.000000	10.102600
2178.000000	10.091100
2177.000000	10.104400
2176.000000	10.109600
2175.000000	10.112700
2174.000000	10.110100
2173.000000	10.126300
2172.000000	10.162700
2171.000000	10.158300
2170.000000	10.160400
2169.000000	10.179400
2168.000000	10.198600
2167.000000	10.219100
2166.000000	10.231300
2165.000000	10.269200
2164.000000	10.290400
2163.000000	10.300800
2162.000000	10.314600
2161.000000	10.354400
2160.000000	10.386500
2159.000000	10.396900
2158.000000	10.430600
2157.000000	10.467700
2156.000000	10.490000
2155.000000	10.518500
2154.000000	10.559500
2153.000000	10.584300
2152.000000	10.615400
2151.000000	10.647500
2150.000000	10.694200
2149.000000	10.704300
2148.000000	10.732200
2147.000000	10.774900
2146.000000	10.805400
2145.000000	10.819600
2144.000000	10.852800
2143.000000	10.870600
2142.000000	10.909900
2141.000000	10.936700
2140.000000	10.945100
2139.000000	10.970100
2138.000000	10.971800
2137.000000	10.989400
2136.000000	11.016100
2135.000000	11.013500
2134.000000	11.027700
2133.000000	11.041400
2132.000000	11.033800
2131.000000	11.039100
2130.000000	11.047900
2129.000000	11.052300
2128.000000	11.035300
2127.000000	11.019300
2126.000000	11.023400
2125.000000	11.010500
2124.000000	10.990000
2123.000000	10.978200
2122.000000	10.968200
2121.000000	10.945500
2120.000000	10.932400
2119.000000	10.915400
2118.000000	10.890000
2117.000000	10.864700
2116.000000	10.826100
2115.000000	10.806200
2114.000000	10.783700
2113.000000	10.758900
2112.000000	10.726900
2111.000000	10.700300
2110.000000	10.687700
2109.000000	10.655900
2108.000000	10.631600
2107.000000	10.609200
2106.000000	10.588400
2105.000000	10.558800
2104.000000	10.524400
2103.000000	10.509700
2102.000000	10.488000
2101.000000	10.464800
2100.000000	10.425900
2099.000000	10.395100
2098.000000	10.382600
2097.000000	10.371100
2096.000000	10.353400
2095.000000	10.338200
2094.000000	10.332500
2093.000000	10.310100
2092.000000	10.294000
2091.000000	10.284800
2090.000000	10.263700
2089.000000	10.245400
2088.000000	10.237700
2087.000000	10.229700
2086.000000	10.210800
2085.000000	10.207000
2084.000000	10.205700
2083.000000	10.205700
2082.000000	10.188300
2081.000000	10.160900
2080.000000	10.130500
2079.000000	10.112600
2078.000000	10.109800
2077.000000	10.095300
2076.000000	10.063100
2075.000000	10.046200
2074.000000	10.038000
2073.000000	10.019400
2072.000000	10.007800
2071.000000	9.991000
2070.000000	9.963500
2069.000000	9.950300
2068.000000	9.943000
2067.000000	9.936200
2066.000000	9.913800
2065.000000	9.895600
2064.000000	9.879600
2063.000000	9.885700
2062.000000	9.889200
2061.000000	9.882000
2060.000000	9.874200
2059.000000	9.880100
2058.000000	9.883500
2057.000000	9.899500
2056.000000	9.945200
2055.000000	9.979800
2054.000000	10.014500
2053.000000	10.055700
2052.000000	10.094800
2051.000000	10.150900
2050.000000	10.238900
2049.000000	10.320700
2048.000000	10.413900
2047.000000	10.509400
2046.000000	10.605300
2045.000000	10.702600
2044.000000	10.816300
2043.000000	10.933700
2042.000000	11.047800
2041.000000	11.168500
2040.000000	11.275900
2039.000000	11.386800
2038.000000	11.517900
2037.000000	11.620600
2036.000000	11.713400
2035.000000	11.817600
2034.000000	11.925900
2033.000000	12.013900
2032.000000	12.111100
2031.000000	12.215000
2030.000000	12.289500
2029.000000	12.373000
2028.000000	12.470200
2027.000000	12.546200
2026.000000	12.619200
2025.000000	12.690900
2024.000000	12.775600
2023.000000	12.859300
2022.000000	12.925000
2021.000000	13.003100
2020.000000	13.065400
2019.000000	13.146700
2018.000000	13.209200
2017.000000	13.258500
2016.000000	13.337100
2015.000000	13.387600
2014.000000	13.432800
2013.000000	13.463800
2012.000000	13.504700
2011.000000	13.558600
2010.000000	13.579100
2009.000000	13.644500
2008.000000	13.663800
2007.000000	13.679600
2006.000000	13.705200
2005.000000	13.729300
2004.000000	13.735500
2003.000000	13.732900
2002.000000	13.737800
2001.000000	13.754100
2000.000000	13.747100
1999.000000	13.736300
1998.000000	13.724900
1997.000000	13.710900
1996.000000	13.695800
1995.000000	13.672700
1994.000000	13.652500
1993.000000	13.615500
1992.000000	13.608000
1991.000000	13.570200
1990.000000	13.555500
1989.000000	13.498300
1988.000000	13.465500
1987.000000	13.426300
1986.000000	13.381100
1985.000000	13.324700
1984.000000	13.287000
1983.000000	13.249900
1982.000000	13.186600
1981.000000	13.152600
1980.000000	13.096400
1979.000000	13.049500
1978.000000	13.001600
1977.000000	12.942600
1976.000000	12.909700
1975.000000	12.838700
1974.000000	12.800300
1973.000000	12.763300
1972.000000	12.707600
1971.000000	12.653500
1970.000000	12.628900
1969.000000	12.560700
1968.000000	12.544800
1967.000000	12.474200
1966.000000	12.426600
1965.000000	12.396300
1964.000000	12.357300
1963.000000	12.310100
1962.000000	12.236300
1961.000000	12.216500
1960.000000	12.158900
1959.000000	12.127900
1958.000000	12.079300
1957.000000	12.040500
1956.000000	11.986600
1955.000000	11.950700
1954.000000	11.886700
1953.000000	11.840900
1952.000000	11.816900
1951.000000	11.771400
1950.000000	11.730500
1949.000000	11.714200
1948.000000	11.687700
1947.000000	11.658700
1946.000000	11.622100
1945.000000	11.590700
1944.000000	11.579300
1943.000000	11.573900
1942.000000	11.575100
1941.000000	11.565200
1940.000000	11.580600
1939.000000	11.583600
1938.000000	11.579300
1937.000000	11.608700
1936.000000	11.629700
1935.000000	11.651600
1934.000000	11.700400
1933.000000	11.728300
1932.000000	11.798300
1931.000000	11.869800
1930.000000	11.919500
1929.000000	11.996600
1928.000000	12.065600
1927.000000	12.156700
1926.000000	12.225800
1925.000000	12.341900
1924.000000	12.436000
1923.000000	12.542400
1922.000000	12.668300
1921.000000	12.807200
1920.000000	12.935100
1919.000000	13.078100
1918.000000	13.195200
1917.000000	13.313400
1916.000000	13.462200
1915.000000	13.641300
1914.000000	13.835400
1913.000000	14.016800
1912.000000	14.183800
1911.000000	14.353100
1910.000000	14.493000
1909.000000	14.668300
1908.000000	14.850000
1907.000000	15.067200
1906.000000	15.297800
1905.000000	15.521900
1904.000000	15.702800
1903.000000	15.903400
1902.000000	16.107200
1901.000000	16.313200
1900.000000	16.562100
1899.000000	16.788400
1898.000000	17.001400
1897.000000	17.176200
1896.000000	17.344600
1895.000000	17.550000
1894.000000	17.751300
1893.000000	17.963200
1892.000000	18.200400
1891.000000	18.411600
1890.000000	18.590300
1889.000000	18.800800
1888.000000	19.031600
1887.000000	19.276300
1886.000000	19.560800
1885.000000	19.883300
1884.000000	20.240000
1883.000000	20.610100
1882.000000	20.995700
1881.000000	21.358200
1880.000000	21.704100
1879.000000	22.062900
1878.000000	22.409900
1877.000000	22.729900
1876.000000	23.007500
1875.000000	23.284500
1874.000000	23.558400
1873.000000	23.786000
1872.000000	23.986300
1871.000000	24.166600
1870.000000	24.325800
1869.000000	24.439300
1868.000000	24.498400
1867.000000	24.528800
1866.000000	24.548800
1865.000000	24.570300
1864.000000	24.579100
1863.000000	24.597200
1862.000000	24.614000
1861.000000	24.624300
1860.000000	24.633400
1859.000000	24.616300
1858.000000	24.577000
1857.000000	24.511700
1856.000000	24.441200
1855.000000	24.394300
1854.000000	24.324000
1853.000000	24.230100
1852.000000	24.149500
1851.000000	24.074400
1850.000000	24.013600
1849.000000	23.958700
1848.000000	23.888100
1847.000000	23.785100
1846.000000	23.682900
1845.000000	23.614200
1844.000000	23.552500
1843.000000	23.562800
1842.000000	23.545500
1841.000000	23.482100
1840.000000	23.440100
1839.000000	23.389700
1838.000000	23.335200
1837.000000	23.252800
1836.000000	23.175900
1835.000000	23.095800
1834.000000	22.989400
1833.000000	22.901800
1832.000000	22.828500
1831.000000	22.739800
1830.000000	22.660300
1829.000000	22.578300
1828.000000	22.492400
1827.000000	22.424200
1826.000000	22.351200
1825.000000	22.284100
1824.000000	22.241200
1823.000000	22.245900
1822.000000	22.251400
1821.000000	22.227300
1820.000000	22.190900
1819.000000	22.152800
1818.000000	22.135200
1817.000000	22.135300
1816.000000	22.129000
1815.000000	22.120100
1814.000000	22.118900
1813.000000	22.101800
1812.000000	22.084600
1811.000000	22.053600
1810.000000	22.006800
1809.000000	21.960000
1808.000000	21.915000
1807.000000	21.875100
1806.000000	21.814100
1805.000000	21.743400
1804.000000	21.692400
1803.000000	21.653000
1802.000000	21.613900
1801.000000	21.556100
1800.000000	21.488300
1799.000000	21.443500
1798.000000	21.395600
1797.000000	21.344100
1796.000000	21.294900
1795.000000	21.234700
1794.000000	21.188000
1793.000000	21.127400
1792.000000	21.067800
1791.000000	20.994400
1790.000000	20.926600
1789.000000	20.859800
1788.000000	20.796400
1787.000000	20.722200
1786.000000	20.622100
1785.000000	20.526300
1784.000000	20.459300
1783.000000	20.371700
1782.000000	20.268500
1781.000000	20.177000
1780.000000	20.078400
1779.000000	19.973700
1778.000000	19.884400
1777.000000	19.763200
1776.000000	19.632400
1775.000000	19.484800
1774.000000	19.350900
1773.000000	19.211500
1772.000000	19.048100
1771.000000	18.921400
1770.000000	18.774200
1769.000000	18.652000
1768.000000	18.548900
1767.000000	18.443600
1766.000000	18.337700
1765.000000	18.283100
1764.000000	18.270800
1763.000000	18.261900
1762.000000	18.281400
1761.000000	18.327000
1760.000000	18.397300
1759.000000	18.464200
1758.000000	18.522100
1757.000000	18.585100
1756.000000	18.607900
1755.000000	18.639000
1754.000000	18.623600
1753.000000	18.627000
1752.000000	18.575800
1751.000000	18.521000
1750.000000	18.449500
1749.000000	18.377900
1748.000000	18.270500
1747.000000	18.152400
1746.000000	18.027300
1745.000000	17.858500
1744.000000	17.667300
1743.000000	17.451600
1742.000000	17.233800
1741.000000	16.990900
1740.000000	16.755800
1739.000000	16.539300
1738.000000	16.350700
1737.000000	16.177600
1736.000000	16.097500
1735.000000	16.038900
1734.000000	16.039800
1733.000000	16.051100
1732.000000	16.115000
1731.000000	16.220600
1730.000000	16.325700
1729.000000	16.434400
1728.000000	16.544300
1727.000000	16.634700
1726.000000	16.707900
1725.000000	16.743700
1724.000000	16.795100
1723.000000	16.814100
1722.000000	16.847300
1721.000000	16.842600
1720.000000	16.863300
1719.000000	16.892800
1718.000000	16.961600
1717.000000	17.005800
1716.000000	17.057000
1715.000000	17.111400
1714.000000	17.195400
1713.000000	17.237300
1712.000000	17.266500
1711.000000	17.310100
1710.000000	17.314000
1709.000000	17.314200
1708.000000	17.311500
1707.000000	17.285300
1706.000000	17.252800
1705.000000	17.201200
1704.000000	17.165300
1703.000000	17.059700
1702.000000	16.949300
1701.000000	16.839900
1700.000000	16.683900
1699.000000	16.556400
1698.000000	16.442300
1697.000000	16.359000
1696.000000	16.344400
1695.000000	16.348800
1694.000000	16.422100
1693.000000	16.580600
1692.000000	16.722100
1691.000000	16.859100
1690.000000	16.988900
1689.000000	17.066000
1688.000000	17.073900
1687.000000	17.058600
1686.000000	17.067800
1685.000000	17.123100
1684.000000	17.264400
1683.000000	17.531000
1682.000000	17.897200
1681.000000	18.379700
1680.000000	18.960000
1679.000000	19.451800
1678.000000	19.980200
1677.000000	20.454500
1676.000000	20.860400
1675.000000	21.305000
1674.000000	21.630900
1673.000000	21.899200
1672.000000	22.140800
1671.000000	22.332000
1670.000000	22.501700
1669.000000	22.652500
1668.000000	22.783300
1667.000000	22.921400
1666.000000	23.004400
1665.000000	23.078100
1664.000000	23.153900
1663.000000	23.206900
1662.000000	23.260100
1661.000000	23.295300
1660.000000	23.325800
1659.000000	23.356800
1658.000000	23.371700
1657.000000	23.367700
1656.000000	23.377700
1655.000000	23.369500
1654.000000	23.341600
1653.000000	23.337500
1652.000000	23.310000
1651.000000	23.262300
1650.000000	23.248800
1649.000000	23.195100
1648.000000	23.154900
1647.000000	23.101000
1646.000000	23.037400
1645.000000	22.981300
1644.000000	22.931900
1643.000000	22.886000
1642.000000	22.806300
1641.000000	22.739200
1640.000000	22.676700
1639.000000	22.605400
1638.000000	22.530700
1637.000000	22.459300
1636.000000	22.395000
1635.000000	22.324200
1634.000000	22.239500
1633.000000	22.170900
1632.000000	22.091600
1631.000000	22.010200
1630.000000	21.931600
1629.000000	21.851200
1628.000000	21.781900
1627.000000	21.697700
1626.000000	21.618000
1625.000000	21.522000
1624.000000	21.454700
1623.000000	21.374200
1622.000000	21.291900
1621.000000	21.217200
1620.000000	21.134700
1619.000000	21.061900
1618.000000	20.993600
1617.000000	20.939100
1616.000000	20.865700
1615.000000	20.777400
1614.000000	20.725600
1613.000000	20.665800
1612.000000	20.608200
1611.000000	20.548900
1610.000000	20.489700
1609.000000	20.433800
1608.000000	20.368200
1607.000000	20.315700
1606.000000	20.260600
1605.000000	20.200000
1604.000000	20.135100
1603.000000	20.071400
1602.000000	20.015400
1601.000000	19.983500
1600.000000	19.925100
1599.000000	19.870700
1598.000000	19.827800
1597.000000	19.784200
1596.000000	19.738200
1595.000000	19.693500
1594.000000	19.658400
1593.000000	19.627600
1592.000000	19.612400
1591.000000	19.591200
1590.000000	19.556200
1589.000000	19.537700
1588.000000	19.519500
1587.000000	19.489200
1586.000000	19.470400
1585.000000	19.470900
1584.000000	19.456300
1583.000000	19.438700
1582.000000	19.435100
1581.000000	19.426600
1580.000000	19.423800
1579.000000	19.429000
1578.000000	19.440700
1577.000000	19.450800
1576.000000	19.460500
1575.000000	19.473000
1574.000000	19.483200
1573.000000	19.519700
1572.000000	19.553500
1571.000000	19.570000
1570.000000	19.590100
1569.000000	19.621200
1568.000000	19.659200
1567.000000	19.684800
1566.000000	19.727300
1565.000000	19.759600
1564.000000	19.772300
1563.000000	19.794300
1562.000000	19.830000
1561.000000	19.864100
1560.000000	19.882900
1559.000000	19.907400
1558.000000	19.923600
1557.000000	19.924000
1556.000000	19.923400
1555.000000	19.925100
1554.000000	19.934300
1553.000000	19.939400
1552.000000	19.944800
1551.000000	19.950200
1550.000000	19.944600
1549.000000	19.937600
1548.000000	19.936500
1547.000000	19.937300
1546.000000	19.927500
1545.000000	19.919300
1544.000000	19.916000
1543.000000	19.922200
1542.000000	19.920500
1541.000000	19.918500
1540.000000	19.920300
1539.000000	19.932900
1538.000000	19.941300
1537.000000	19.937300
1536.000000	19.924500
1535.000000	19.926300
1534.000000	19.937000
1533.000000	19.931900
1532.000000	19.923500
1531.000000	19.921500
1530.000000	19.908300
1529.000000	19.905300
1528.000000	19.903500
1527.000000	19.882200
1526.000000	19.863900
1525.000000	19.849500
1524.000000	19.841500
1523.000000	19.846100
1522.000000	19.829400
1521.000000	19.806200
1520.000000	19.803800
1519.000000	19.778400
1518.000000	19.767000
1517.000000	19.770700
1516.000000	19.752800
1515.000000	19.743300
1514.000000	19.739200
1513.000000	19.704800
1512.000000	19.714300
1511.000000	19.696600
1510.000000	19.670700
1509.000000	19.649000
1508.000000	19.651100
1507.000000	19.630400
1506.000000	19.615300
1505.000000	19.603400
1504.000000	19.612500
1503.000000	19.603000
1502.000000	19.596600
1501.000000	19.599100
1500.000000	19.591200
1499.000000	19.589800
1498.000000	19.602600
1497.000000	19.616400
1496.000000	19.632600
1495.000000	19.657800
1494.000000	19.667000
1493.000000	19.689600
1492.000000	19.712700
1491.000000	19.726000
1490.000000	19.748600
1489.000000	19.770400
1488.000000	19.803200
1487.000000	19.833200
1486.000000	19.854500
1485.000000	19.882800
1484.000000	19.914500
1483.000000	19.966300
1482.000000	20.003100
1481.000000	20.041000
1480.000000	20.092400
1479.000000	20.145600
1478.000000	20.179700
1477.000000	20.225000
1476.000000	20.284800
1475.000000	20.327000
1474.000000	20.375800
1473.000000	20.452200
1472.000000	20.502000
1471.000000	20.547100
1470.000000	20.604300
1469.000000	20.634000
1468.000000	20.708700
1467.000000	20.750500
1466.000000	20.800900
1465.000000	20.852100
1464.000000	20.935400
1463.000000	21.003000
1462.000000	21.083300
1461.000000	21.177000
1460.000000	21.235100
1459.000000	21.345100
1458.000000	21.437100
1457.000000	21.533700
1456.000000	21.621700
1455.000000	21.726400
1454.000000	21.823600
1453.000000	21.938000
1452.000000	22.070300
1451.000000	22.172600
1450.000000	22.294700
1449.000000	22.381300
1448.000000	22.533100
1447.000000	22.674300
1446.000000	22.808000
1445.000000	22.930500
1444.000000	23.035600
1443.000000	23.182800
1442.000000	23.300100
1441.000000	23.462500
1440.000000	23.583600
1439.000000	23.722900
1438.000000	23.868800
1437.000000	23.970800
1436.000000	24.083800
1435.000000	24.218500
1434.000000	24.343400
1433.000000	24.514600
1432.000000	24.634600
1431.000000	24.774500
1430.000000	24.927600
1429.000000	25.119400
1428.000000	25.323600
1427.000000	25.492900
1426.000000	25.713400
1425.000000	25.952000
1424.000000	26.149700
1423.000000	26.356000
1422.000000	26.590100
1421.000000	26.840000
1420.000000	27.083500
1419.000000	27.287900
1418.000000	27.475900
1417.000000	27.653000
1416.000000	27.872800
1415.000000	28.140300
1414.000000	28.289200
1413.000000	28.461400
1412.000000	28.649600
1411.000000	28.889200
1410.000000	29.231100
1409.000000	29.496700
1408.000000	29.839000
1407.000000	30.172000
1406.000000	30.568300
1405.000000	30.912500
1404.000000	31.263000
1403.000000	31.618200
1402.000000	32.030900
1401.000000	32.393900
1400.000000	32.691600
1399.000000	32.851900
1398.000000	33.021000
1397.000000	33.250700
1396.000000	33.444200
1395.000000	33.529200
1394.000000	33.614800
1393.000000	33.734400
1392.000000	33.857800
1391.000000	33.966800
1390.000000	34.110700
1389.000000	34.356300
1388.000000	34.584100
1387.000000	34.861100
1386.000000	35.171400
1385.000000	35.573000
1384.000000	35.919500
1383.000000	36.263800
1382.000000	36.501700
1381.000000	36.613500
1380.000000	36.631700
1379.000000	36.661000
1378.000000	36.678700
1377.000000	36.771400
1376.000000	36.931400
1375.000000	37.173100
1374.000000	37.497600
1373.000000	37.883600
1372.000000	38.298100
1371.000000	38.718900
1370.000000	39.072200
1369.000000	39.412500
1368.000000	39.721500
1367.000000	39.966900
1366.000000	40.200600
1365.000000	40.409800
1364.000000	40.569600
1363.000000	40.764400
1362.000000	40.908000
1361.000000	40.966200
1360.000000	40.947700
1359.000000	41.054800
1358.000000	41.215900
1357.000000	41.495400
1356.000000	41.964200
1355.000000	42.592900
1354.000000	43.260000
1353.000000	43.936500
1352.000000	44.713700
1351.000000	45.411600
1350.000000	46.039400
1349.000000	46.631600
1348.000000	47.191700
1347.000000	47.647500
1346.000000	48.079700
1345.000000	48.546300
1344.000000	48.954800
1343.000000	49.334000
1342.000000	49.719200
1341.000000	50.085000
1340.000000	50.431400
1339.000000	50.761000
1338.000000	51.081300
1337.000000	51.401800
1336.000000	51.681900
1335.000000	51.956500
1334.000000	52.220000
1333.000000	52.464900
1332.000000	52.707300
1331.000000	52.931000
1330.000000	53.142300
1329.000000	53.341200
1328.000000	53.521900
1327.000000	53.699000
1326.000000	53.862700
1325.000000	54.017300
1324.000000	54.172000
1323.000000	54.309900
1322.000000	54.444300
1321.000000	54.583800
1320.000000	54.702800
1319.000000	54.795800
1318.000000	54.907000
1317.000000	55.015300
1316.000000	55.117200
1315.000000	55.203100
1314.000000	55.285700
1313.000000	55.360600
1312.000000	55.428600
1311.000000	55.494800
1310.000000	55.549800
1309.000000	55.602000
1308.000000	55.644300
1307.000000	55.669800
1306.000000	55.698500
1305.000000	55.699500
1304.000000	55.699300
1303.000000	55.710800
1302.000000	55.699500
1301.000000	55.677100
1300.000000	55.665500
1299.000000	55.639500
1298.000000	55.601800
1297.000000	55.579900
1296.000000	55.554100
1295.000000	55.513500
1294.000000	55.480900
1293.000000	55.438600
1292.000000	55.379000
1291.000000	55.315400
1290.000000	55.252500
1289.000000	55.170900
1288.000000	55.078900
1287.000000	54.983200
1286.000000	54.872900
1285.000000	54.762000
1284.000000	54.666500
1283.000000	54.562300
1282.000000	54.447500
1281.000000	54.349000
1280.000000	54.233200
1279.000000	54.117900
1278.000000	54.020200
1277.000000	53.921100
1276.000000	53.825200
1275.000000	53.740200
1274.000000	53.658700
1273.000000	53.584300
1272.000000	53.504300
1271.000000	53.425100
1270.000000	53.339800
1269.000000	53.253700
1268.000000	53.176100
1267.000000	53.099500
1266.000000	53.015900
1265.000000	52.939600
1264.000000	52.868100
1263.000000	52.801300
1262.000000	52.721200
1261.000000	52.648000
1260.000000	52.584500
1259.000000	52.518400
1258.000000	52.442600
1257.000000	52.348400
1256.000000	52.279900
1255.000000	52.203600
1254.000000	52.123000
1253.000000	52.025100
1252.000000	51.921600
1251.000000	51.828900
1250.000000	51.702600
1249.000000	51.582400
1248.000000	51.454900
1247.000000	51.302000
1246.000000	51.160300
1245.000000	50.992100
1244.000000	50.805100
1243.000000	50.593400
1242.000000	50.405200
1241.000000	50.206200
1240.000000	49.993000
1239.000000	49.765400
1238.000000	49.540500
1237.000000	49.311100
1236.000000	49.064200
1235.000000	48.841800
1234.000000	48.601700
1233.000000	48.361000
1232.000000	48.119700
1231.000000	47.865500
1230.000000	47.603200
1229.000000	47.362700
1228.000000	47.128900
1227.000000	46.883700
1226.000000	46.647300
1225.000000	46.421400
1224.000000	46.187100
1223.000000	45.955800
1222.000000	45.745100
1221.000000	45.547600
1220.000000	45.348800
1219.000000	45.169300
1218.000000	44.988300
1217.000000	44.827900
1216.000000	44.675300
1215.000000	44.545800
1214.000000	44.427100
1213.000000	44.286600
1212.000000	44.159700
1211.000000	44.044800
1210.000000	43.948400
1209.000000	43.875700
1208.000000	43.796700
1207.000000	43.751100
1206.000000	43.719500
1205.000000	43.706600
1204.000000	43.700100
1203.000000	43.702700
1202.000000	43.698200
1201.000000	43.647000
1200.000000	43.609000
1199.000000	43.500400
1198.000000	43.347800
1197.000000	43.143500
1196.000000	42.859100
1195.000000	42.501500
1194.000000	42.048200
1193.000000	41.504300
1192.000000	40.927900
1191.000000	40.337200
1190.000000	39.820300
1189.000000	39.409400
1188.000000	39.163500
1187.000000	39.055200
1186.000000	39.113000
1185.000000	39.331800
1184.000000	39.708300
1183.000000	40.224700
1182.000000	40.825400
1181.000000	41.481100
1180.000000	42.116200
1179.000000	42.654000
1178.000000	43.143800
1177.000000	43.563600
1176.000000	43.943700
1175.000000	44.328200
1174.000000	44.714000
1173.000000	45.131400
1172.000000	45.552000
1171.000000	46.006500
1170.000000	46.445300
1169.000000	46.920300
1168.000000	47.366300
1167.000000	47.903000
1166.000000	48.355400
1165.000000	48.841900
1164.000000	49.332300
1163.000000	49.840200
1162.000000	50.348200
1161.000000	50.818400
1160.000000	51.283400
1159.000000	51.747100
1158.000000	52.146300
1157.000000	52.502700
1156.000000	52.818500
1155.000000	53.000700
1154.000000	53.113300
1153.000000	53.169900
1152.000000	53.138500
1151.000000	53.107700
1150.000000	53.063500
1149.000000	53.026400
1148.000000	53.036000
1147.000000	53.114100
1146.000000	53.343700
1145.000000	53.672700
1144.000000	54.065700
1143.000000	54.527300
1142.000000	54.986200
1141.000000	55.484200
1140.000000	55.974300
1139.000000	56.493800
1138.000000	57.039100
1137.000000	57.599200
1136.000000	58.139600
1135.000000	58.670500
1134.000000	59.087200
1133.000000	59.495300
1132.000000	59.896300
1131.000000	60.252700
1130.000000	60.561300
1129.000000	60.824400
1128.000000	61.010600
1127.000000	61.172100
1126.000000	61.312100
1125.000000	61.422500
1124.000000	61.531400
1123.000000	61.623500
1122.000000	61.705100
1121.000000	61.757000
1120.000000	61.802600
1119.000000	61.845200
1118.000000	61.860900
1117.000000	61.859300
1116.000000	61.843900
1115.000000	61.822000
1114.000000	61.810200
1113.000000	61.784900
1112.000000	61.770200
1111.000000	61.723100
1110.000000	61.703600
1109.000000	61.687100
1108.000000	61.655400
1107.000000	61.618200
1106.000000	61.597400
1105.000000	61.556700
1104.000000	61.523200
1103.000000	61.492500
1102.000000	61.433100
1101.000000	61.383100
1100.000000	61.326800
1099.000000	61.274900
1098.000000	61.224300
1097.000000	61.170900
1096.000000	61.102400
1095.000000	61.035600
1094.000000	60.969200
1093.000000	60.900400
1092.000000	60.830700
1091.000000	60.774700
1090.000000	60.715900
1089.000000	60.650300
1088.000000	60.576900
1087.000000	60.497400
1086.000000	60.416300
1085.000000	60.348500
1084.000000	60.290000
1083.000000	60.226200
1082.000000	60.156300
1081.000000	60.101900
1080.000000	60.065700
1079.000000	60.011400
1078.000000	59.980300
1077.000000	59.932700
1076.000000	59.875600
1075.000000	59.840200
1074.000000	59.797400
1073.000000	59.745000
1072.000000	59.708600
1071.000000	59.675600
1070.000000	59.630200
1069.000000	59.584200
1068.000000	59.538200
1067.000000	59.484500
1066.000000	59.445700
1065.000000	59.412700
1064.000000	59.362500
1063.000000	59.300400
1062.000000	59.249900
1061.000000	59.194600
1060.000000	59.136900
1059.000000	59.064800
1058.000000	58.977700
1057.000000	58.911800
1056.000000	58.837800
1055.000000	58.768400
1054.000000	58.696700
1053.000000	58.632600
1052.000000	58.558800
1051.000000	58.486900
1050.000000	58.408100
1049.000000	58.338400
1048.000000	58.284000
1047.000000	58.215200
1046.000000	58.158500
1045.000000	58.086200
1044.000000	58.018100
1043.000000	57.965200
1042.000000	57.909500
1041.000000	57.855400
1040.000000	57.799900
1039.000000	57.730900
1038.000000	57.654500
1037.000000	57.590400
1036.000000	57.531300
1035.000000	57.461000
1034.000000	57.388000
1033.000000	57.323800
1032.000000	57.258600
1031.000000	57.185400
1030.000000	57.125900
1029.000000	57.062300
1028.000000	56.990200
1027.000000	56.911900
1026.000000	56.831000
1025.000000	56.753600
1024.000000	56.687900
1023.000000	56.625200
1022.000000	56.562600
1021.000000	56.513600
1020.000000	56.464500
1019.000000	56.417500
1018.000000	56.388800
1017.000000	56.371400
1016.000000	56.343300
1015.000000	56.340000
1014.000000	56.340700
1013.000000	56.355900
1012.000000	56.397100
1011.000000	56.430100
1010.000000	56.481200
1009.000000	56.537300
1008.000000	56.590000
1007.000000	56.642500
1006.000000	56.704000
1005.000000	56.761100
1004.000000	56.811800
1003.000000	56.848100
1002.000000	56.881500
1001.000000	56.932700
1000.000000	56.985900
999.000000	57.039000
998.000000	57.078600
997.000000	57.124800
996.000000	57.179100
995.000000	57.231500
994.000000	57.282700
993.000000	57.346200
992.000000	57.394300
991.000000	57.456900
990.000000	57.521500
989.000000	57.583200
988.000000	57.660100
987.000000	57.718800
986.000000	57.792700
985.000000	57.863200
984.000000	57.921200
983.000000	57.981800
982.000000	58.051700
981.000000	58.116800
980.000000	58.178700
979.000000	58.222700
978.000000	58.278800
977.000000	58.338800
976.000000	58.404700
975.000000	58.453500
974.000000	58.513300
973.000000	58.568400
972.000000	58.632300
971.000000	58.671700
970.000000	58.721500
969.000000	58.756700
968.000000	58.823300
967.000000	58.865600
966.000000	58.905200
965.000000	58.978000
964.000000	59.052400
963.000000	59.131100
962.000000	59.217900
961.000000	59.314100
960.000000	59.410900
959.000000	59.524000
958.000000	59.624900
957.000000	59.728200
956.000000	59.849200
955.000000	59.957400
954.000000	60.048300
953.000000	60.163300
952.000000	60.258700
951.000000	60.370500
950.000000	60.502900
949.000000	60.601800
948.000000	60.721900
947.000000	60.833100
946.000000	60.951500
945.000000	61.086600
944.000000	61.222200
943.000000	61.357900
942.000000	61.496400
941.000000	61.635100
940.000000	61.759900
939.000000	61.905200
938.000000	62.055600
937.000000	62.236500
936.000000	62.360800
935.000000	62.510100
934.000000	62.669100
933.000000	62.799700
932.000000	62.951000
931.000000	63.078100
930.000000	63.179700
929.000000	63.279300
928.000000	63.397900
927.000000	63.513200
926.000000	63.648400
925.000000	63.738900
924.000000	63.806300
923.000000	63.909000
922.000000	64.023400
921.000000	64.125700
920.000000	64.232000
919.000000	64.312300
918.000000	64.382900
917.000000	64.488200
916.000000	64.544800
915.000000	64.636300
914.000000	64.705300
913.000000	64.797200
912.000000	64.887900
911.000000	64.998100
910.000000	65.110200
909.000000	65.223100
908.000000	65.427700
907.000000	65.566100
906.000000	65.727300
905.000000	65.910200
904.000000	66.119400
903.000000	66.316200
902.000000	66.537700
901.000000	66.755100
900.000000	66.976500
899.000000	67.193700
898.000000	67.423100
897.000000	67.626500
896.000000	67.844700
895.000000	68.048200
894.000000	68.249800
893.000000	68.423300
892.000000	68.620800
891.000000	68.820000
890.000000	68.976200
889.000000	69.162200
888.000000	69.316100
887.000000	69.440200
886.000000	69.585800
885.000000	69.743300
884.000000	69.868300
883.000000	69.958200
882.000000	70.072700
881.000000	70.221100
880.000000	70.317200
879.000000	70.397300
878.000000	70.462700
877.000000	70.534700
876.000000	70.652800
875.000000	70.752400
874.000000	70.841100
873.000000	70.886800
872.000000	70.958300
871.000000	71.002200
870.000000	71.079600
869.000000	71.095900
868.000000	71.169600
867.000000	71.210300
866.000000	71.258900
865.000000	71.213300
864.000000	71.171600
863.000000	71.163500
862.000000	71.130100
861.000000	71.063000
860.000000	70.993300
859.000000	71.035100
858.000000	71.693600
857.000000	71.141720
856.000000	70.657897
855.000000	70.707892
854.000000	70.855109
853.000000	71.291800
852.000000	71.483287
851.000000	71.767894
850.000000	71.987337
849.000000	72.222999
848.000000	72.398362
847.000000	72.413914
846.000000	72.811677
845.000000	72.976450
844.000000	73.024441
843.000000	73.416575
842.000000	73.539558
841.000000	73.644700
840.000000	73.733049
839.000000	73.750795
838.000000	74.033876
837.000000	74.270874
836.000000	74.314476
835.000000	74.580097
834.000000	74.507777
833.000000	74.551188
832.000000	74.577998
831.000000	74.662150
830.000000	74.862319
829.000000	74.848485
828.000000	74.687338
827.000000	74.663962
826.000000	74.797154
825.000000	74.906494
824.000000	74.938552
823.000000	74.878062
822.000000	74.823201
821.000000	74.917084
820.000000	74.881306
819.000000	74.892278
818.000000	74.807172
817.000000	74.796391
816.000000	74.915367
815.000000	75.121834
814.000000	75.160570
813.000000	75.139580
812.000000	75.236230
811.000000	75.371044
810.000000	75.358832
809.000000	75.293762
808.000000	75.402720
807.000000	75.460920
806.000000	75.622449
805.000000	75.813459
804.000000	75.999985
803.000000	76.009145
802.000000	76.142050
801.000000	76.437725
800.000000	76.733305
799.000000	76.966772
798.000000	77.152249
797.000000	77.379133
796.000000	77.660783
795.000000	77.835383
794.000000	78.132584
793.000000	78.460985
792.000000	78.665448
791.000000	78.951677
790.000000	79.233136
789.000000	79.519938
788.000000	79.735850
787.000000	80.008627
786.000000	80.302680
785.000000	80.493117
784.000000	80.620108
783.000000	80.913779
782.000000	81.104980
781.000000	81.210599
780.000000	81.257731
779.000000	81.464198
778.000000	81.614945
777.000000	81.631738
776.000000	81.677057
775.000000	81.718847
774.000000	81.670665
773.000000	81.672191
772.000000	81.666467
771.000000	81.660361
770.000000	81.689365
769.000000	81.662269
768.000000	81.694326
767.000000	81.745943
766.000000	81.908903
765.000000	81.983132
764.000000	81.985803
763.000000	82.125006
762.000000	82.285867
761.000000	82.410281
760.000000	82.539371
759.000000	82.762534
758.000000	82.999150
757.000000	83.173846
756.000000	83.409508
755.000000	83.570941
754.000000	83.687818
753.000000	83.885698
752.000000	84.068121
751.000000	84.262757
750.000000	84.461400
749.000000	84.657945
748.000000	84.774535
747.000000	84.913643
746.000000	85.060860
745.000000	85.119155
744.000000	85.184893
743.000000	85.179645
742.000000	85.254637
741.000000	85.312456
740.000000	85.233552
739.000000	85.233647
738.000000	85.199395
737.000000	85.192621
736.000000	85.248913
735.000000	85.266182
734.000000	85.248149
733.000000	85.222866
732.000000	85.208459
731.000000	85.164761
730.000000	85.183080
729.000000	85.220385
728.000000	85.145011
727.000000	85.018975
726.000000	84.985391
725.000000	84.935492
724.000000	84.838937
723.000000	84.718053
722.000000	84.544789
721.000000	84.422760
720.000000	84.382020
719.000000	84.209519
718.000000	84.007059
717.000000	83.797062
716.000000	83.555485
715.000000	83.357128
714.000000	83.090171
713.000000	82.806136
712.000000	82.539657
711.000000	82.268025
710.000000	81.987807
709.000000	81.631833
708.000000	81.321847
707.000000	81.090955
706.000000	80.792418
705.000000	80.508001
704.000000	80.256787
703.000000	79.961399
702.000000	79.770102
701.000000	79.606284
700.000000	79.443133
699.000000	79.300400
698.000000	79.121507
697.000000	78.959596
696.000000	78.821061
695.000000	78.677279
694.000000	78.553914
693.000000	78.460508
692.000000	78.335139
691.000000	78.147659
690.000000	77.987085
689.000000	77.919439
688.000000	77.869158
687.000000	77.809622
686.000000	77.707820
685.000000	77.569571
684.000000	77.562225
683.000000	77.413004
682.000000	77.333432
681.000000	77.283533
680.000000	77.250712
679.000000	77.121336
678.000000	77.054645
677.000000	76.993869
676.000000	76.862203
675.000000	76.719089
674.000000	76.550786
673.000000	76.385536
672.000000	76.277055
671.000000	76.141096
670.000000	75.984434
669.000000	75.811074
668.000000	75.704501
667.000000	75.531237
666.000000	75.302922
665.000000	75.081380
664.000000	74.872146
663.000000	74.635912
662.000000	74.323254
661.000000	73.932646
660.000000	73.523339
659.000000	73.130441
658.000000	72.689648
657.000000	72.150297
656.000000	71.527939
655.000000	70.990400
654.000000	70.346575
653.000000	69.733090
652.000000	69.119033
651.000000	68.422732
650.000000	67.816213
649.000000	67.121439
648.000000	66.523029
647.000000	65.926050
646.000000	65.414844
645.000000	64.960789
644.000000	64.520568
643.000000	64.124332
642.000000	63.853463
641.000000	63.635070
640.000000	63.519243
639.000000	63.418586
638.000000	63.453792
637.000000	63.558075
636.000000	63.771125
635.000000	63.920727
634.000000	64.262390
633.000000	64.629717
632.000000	65.014028
631.000000	65.452817
630.000000	65.901148
629.000000	66.421226
628.000000	66.919552
627.000000	67.482374
626.000000	68.053115
625.000000	68.598763
624.000000	69.147656
623.000000	69.760282
622.000000	70.360219
621.000000	70.968647
620.000000	71.601881
619.000000	72.242558
618.000000	72.887432
617.000000	73.492426
616.000000	74.191016
615.000000	74.886935
614.000000	75.542782
613.000000	76.257878
612.000000	76.955419
611.000000	77.628248
610.000000	78.303559
609.000000	79.002721
608.000000	79.652939
607.000000	80.337218
606.000000	80.991347
605.000000	81.584605
604.000000	82.256481
603.000000	82.867008
602.000000	83.397582
601.000000	84.003147
600.000000	84.526565
599.000000	85.016304
598.000000	85.426852
597.000000	85.845224
596.000000	86.211025
595.000000	86.574727
594.000000	86.915530
593.000000	87.179720
592.000000	87.459748
591.000000	87.653048
590.000000	87.835376
589.000000	87.954638
588.000000	88.092887
587.000000	88.179328
586.000000	88.248405
585.000000	88.349635
584.000000	88.371579
583.000000	88.409170
582.000000	88.338281
581.000000	88.362610
580.000000	88.323969
579.000000	88.243157
578.000000	88.160628
577.000000	88.101474
576.000000	87.931931
575.000000	87.855603
574.000000	87.740062
573.000000	87.550196
572.000000	87.396682
571.000000	87.185349
570.000000	87.049486
569.000000	86.799417
568.000000	86.545245
567.000000	86.278002
566.000000	86.022209
565.000000	85.731972
564.000000	85.391264
563.000000	85.031092
562.000000	84.675691
561.000000	84.257987
560.000000	83.883217
559.000000	83.390807
558.000000	82.915190
557.000000	82.473824
556.000000	81.977789
555.000000	81.443208
554.000000	80.867792
553.000000	80.280258
552.000000	79.673643
551.000000	79.097082
550.000000	78.437800
549.000000	77.785388
548.000000	77.118665
547.000000	76.438107
546.000000	75.704501
545.000000	74.926721
544.000000	74.132912
543.000000	73.289394
542.000000	72.483849
541.000000	71.570014
540.000000	70.671445
539.000000	69.734712
538.000000	68.796262
537.000000	67.837584
536.000000	66.837308
535.000000	65.802303
534.000000	64.763482
533.000000	63.667414
532.000000	62.527745
531.000000	61.354491
530.000000	60.190873
529.000000	59.018860
528.000000	57.824997
527.000000	56.662620
526.000000	55.503773
525.000000	54.347311
524.000000	53.185411
523.000000	52.092301
522.000000	50.983640
521.000000	49.920298
520.000000	48.912580
519.000000	47.953330
518.000000	47.010205
517.000000	46.118601
516.000000	45.274701
515.000000	44.469920
514.000000	43.715992
513.000000	42.975040
512.000000	42.309843
511.000000	41.664300
510.000000	41.038317
509.000000	40.462328
508.000000	39.873745
507.000000	39.343935
506.000000	38.822711
505.000000	38.306830
504.000000	37.806883
503.000000	37.284706
502.000000	36.773118
501.000000	36.253708
500.000000	35.737159
499.000000	35.227385
498.000000	34.732590
497.000000	34.231784
496.000000	33.741187
495.000000	33.209373
494.000000	32.708090
493.000000	32.217684
492.000000	31.711249
491.000000	31.209489
490.000000	30.720514
489.000000	30.264646
488.000000	29.809446
487.000000	29.401569
486.000000	29.017354
485.000000	28.646305
484.000000	28.289854
483.000000	27.965366
482.000000	27.684575
481.000000	27.432407
480.000000	27.196554
479.000000	26.977970
478.000000	26.763966
477.000000	26.582783
476.000000	26.447492
475.000000	26.303900
474.000000	26.181299
473.000000	26.081977
472.000000	25.971397
471.000000	25.863775
470.000000	25.775712
469.000000	25.719515
468.000000	25.642424
467.000000	25.572394
466.000000	25.498260
465.000000	25.403232
464.000000	25.325855
463.000000	25.247714
462.000000	25.159078
461.000000	25.059471
460.000000	24.958718
459.000000	24.855675
458.000000	24.773241
457.000000	24.691475
456.000000	24.558092
455.000000	24.443124
454.000000	24.356873
453.000000	24.258887
452.000000	24.131515
451.000000	24.004239
450.000000	23.879252
449.000000	23.750449
448.000000	23.614967
447.000000	23.452007
446.000000	23.304122
445.000000	23.162438
444.000000	22.990891
443.000000	22.809327
442.000000	22.598948
441.000000	22.384562
440.000000	22.158250
439.000000	21.918867
438.000000	21.683205
437.000000	21.419970
436.000000	21.148338
435.000000	20.887106
434.000000	20.591431
433.000000	20.279060
432.000000	19.971840
431.000000	19.650786
430.000000	19.329637
429.000000	19.003813
428.000000	18.669211
427.000000	18.323732
426.000000	17.962320
425.000000	17.596328
424.000000	17.238160
423.000000	16.882186
422.000000	16.511233
421.000000	16.127113
420.000000	15.756923
419.000000	15.387496
418.000000	15.008720
417.000000	14.651601
416.000000	14.286849
415.000000	13.935073
414.000000	13.577382
413.000000	13.213108
412.000000	12.874785
411.000000	12.543045
410.000000	12.208252
409.000000	11.890824
408.000000	11.569293
407.000000	11.268180
406.000000	10.974222
405.000000	10.665285
404.000000	10.382586
403.000000	10.112863
402.000000	9.858596
401.000000	9.593070
400.000000	9.343288
399.000000	9.135485
398.000000	8.908887
397.000000	8.700894
396.000000	8.480593
395.000000	8.285193
394.000000	8.095232
393.000000	7.914145
392.000000	7.756242
391.000000	7.612554
390.000000	7.446446
389.000000	7.288161
388.000000	7.162602
387.000000	7.044294
386.000000	6.918353
385.000000	6.826760
384.000000	6.720473
383.000000	6.618576
382.000000	6.530417
381.000000	6.431095
380.000000	6.370128
379.000000	6.318321
378.000000	6.230639
377.000000	6.176256
376.000000	6.100500
375.000000	5.805589
374.000000	5.757789
373.000000	5.800723
372.000000	5.773340
371.000000	5.732314
370.000000	5.769333
369.000000	5.776871
368.000000	5.723536
367.000000	5.723155
366.000000	5.634328
365.000000	5.612480
364.000000	5.726399
363.000000	5.675641
362.000000	5.612861
361.000000	5.647113
360.000000	5.619731
359.000000	5.575938
358.000000	5.639003
357.000000	5.641007
356.000000	5.556951
355.000000	5.466216
354.000000	5.481005
353.000000	5.510868
352.000000	5.592157
351.000000	5.460492
350.000000	5.429961
349.000000	5.407539
348.000000	5.356877
347.000000	5.297627
346.000000	5.420133
345.000000	5.419561
344.000000	5.410783
343.000000	5.477093
342.000000	5.447993
341.000000	5.283411
340.000000	5.382542
339.000000	5.408970
338.000000	5.486062
337.000000	5.548460
336.000000	5.533576
335.000000	5.474517
334.000000	5.495412
333.000000	5.487111
332.000000	5.505525
331.000000	5.456389
330.000000	5.525275
329.000000	5.525084
328.000000	5.633660
327.000000	5.585288
326.000000	5.757121
325.000000	5.745672
324.000000	5.592539
323.000000	5.434922
322.000000	5.712278
321.000000	5.550654
320.000000	5.701497
319.000000	5.610285
318.000000	5.435494
317.000000	5.863503
316.000000	5.449043
315.000000	5.416412
314.000000	5.408207
313.000000	5.403246
312.000000	5.456866
311.000000	5.409543
310.000000	5.384259
309.000000	5.424809
308.000000	5.447707
307.000000	5.404295
306.000000	5.418034
305.000000	5.467170
304.000000	5.468792
303.000000	5.462209
302.000000	5.427575
301.000000	5.476330
300.000000	5.466121
299.000000	5.415745
298.000000	5.475185
297.000000	5.530523
296.000000	5.523081
295.000000	5.489878
294.000000	5.476902
293.000000	5.454386
292.000000	5.475948
291.000000	5.473945
290.000000	5.513730
289.000000	5.488638
288.000000	5.525370
287.000000	5.586814
286.000000	5.549795
285.000000	5.555711
284.000000	5.499896
283.000000	5.561054
282.000000	5.542067
281.000000	5.595878
280.000000	5.588818
279.000000	5.545884
278.000000	5.568591
277.000000	5.653506
276.000000	5.629749
275.000000	5.646445
274.000000	5.631657
273.000000	5.628508
272.000000	5.662665
271.000000	5.743477
270.000000	5.655891
269.000000	5.702737
268.000000	5.748725
267.000000	5.734127
266.000000	5.845566
265.000000	5.831254
264.000000	5.844039
263.000000	5.899472
262.000000	5.863121
261.000000	5.908918
260.000000	5.943361
259.000000	5.935919
258.000000	5.946032
257.000000	5.959866
256.000000	6.018639
255.000000	6.047166
254.000000	6.005091
253.000000	6.082182
252.000000	6.019211
251.000000	6.009575
250.000000	6.072068
