PE UV       SUBTECH     SPECTRUM    ASCII       PEDS        4.00        
   -1
CICIMAUCR0098-4.Sample.ASC
24/04/25
11:26:36.00
24/04/25
11:26:36.00
Vinicio Soto Monge
C. cupreomarginata
250,000000
1
Lambda 1050
1050L1511233
PerkinElmer UV WinLab 6.3.2.0749 / 2.02.05 Lambda 900 UV/VIS/NIR, Aug  7 2015 09:38:08

0
0
3350/servo 860,8/2
0
0
UV/VIS
1
1
1
DoubleDePol,CommonBeamDepol,RBeamAtt,SBeamAtt,60mm sphere, WB InGaAs Detector
0
0
0
0
Program
Program
3350/servo 860,8/2
3350/0,2 860,8/0,2
3350/0,2 860,8/0,2
0
15.00
 
 
 
0
 
860,8
319,2
860,8
Front
100
on
S:100 R:100
0
0
0
0
 
0
 
 
 
0
 
 
0
0
0
0
0
 
 
 
 
0
0


0
0
#HDR
-1
-1
#GR
nm
%R
1.0
0.0
2500,000000
-1,000000
2251
8
67,710500
4,817400
#DATA
2500.000000	6.159200
2499.000000	6.010700
2498.000000	5.996800
2497.000000	6.096200
2496.000000	6.000300
2495.000000	5.952100
2494.000000	6.034300
2493.000000	5.986400
2492.000000	5.994200
2491.000000	6.000100
2490.000000	5.984900
2489.000000	6.015900
2488.000000	5.947600
2487.000000	5.954200
2486.000000	5.867500
2485.000000	5.932200
2484.000000	5.957400
2483.000000	5.854900
2482.000000	5.953300
2481.000000	5.894100
2480.000000	5.861500
2479.000000	5.874000
2478.000000	5.899800
2477.000000	5.890800
2476.000000	5.896100
2475.000000	5.899400
2474.000000	5.867600
2473.000000	5.868300
2472.000000	5.920700
2471.000000	5.897000
2470.000000	5.912000
2469.000000	5.914100
2468.000000	5.916500
2467.000000	5.901100
2466.000000	5.926500
2465.000000	5.901500
2464.000000	5.933400
2463.000000	5.930600
2462.000000	5.920600
2461.000000	5.985400
2460.000000	5.967100
2459.000000	5.980300
2458.000000	5.989500
2457.000000	6.027200
2456.000000	6.057100
2455.000000	6.082000
2454.000000	6.085100
2453.000000	6.122600
2452.000000	6.146400
2451.000000	6.182100
2450.000000	6.229100
2449.000000	6.245300
2448.000000	6.257600
2447.000000	6.307800
2446.000000	6.334000
2445.000000	6.351000
2444.000000	6.358600
2443.000000	6.403100
2442.000000	6.428200
2441.000000	6.438100
2440.000000	6.466200
2439.000000	6.495200
2438.000000	6.532900
2437.000000	6.563000
2436.000000	6.598500
2435.000000	6.611100
2434.000000	6.638900
2433.000000	6.649800
2432.000000	6.646500
2431.000000	6.662700
2430.000000	6.707000
2429.000000	6.728500
2428.000000	6.745000
2427.000000	6.760900
2426.000000	6.779000
2425.000000	6.793800
2424.000000	6.815400
2423.000000	6.834500
2422.000000	6.826100
2421.000000	6.832100
2420.000000	6.854100
2419.000000	6.873900
2418.000000	6.870500
2417.000000	6.874400
2416.000000	6.885400
2415.000000	6.918000
2414.000000	6.923600
2413.000000	6.921100
2412.000000	6.929300
2411.000000	6.942500
2410.000000	6.968500
2409.000000	6.982600
2408.000000	7.000700
2407.000000	7.039700
2406.000000	7.046400
2405.000000	7.058200
2404.000000	7.076500
2403.000000	7.074200
2402.000000	7.092500
2401.000000	7.117900
2400.000000	7.139300
2399.000000	7.159100
2398.000000	7.158100
2397.000000	7.167600
2396.000000	7.197100
2395.000000	7.211800
2394.000000	7.231900
2393.000000	7.243000
2392.000000	7.241600
2391.000000	7.260900
2390.000000	7.287200
2389.000000	7.301200
2388.000000	7.304800
2387.000000	7.310000
2386.000000	7.316900
2385.000000	7.334200
2384.000000	7.338300
2383.000000	7.328900
2382.000000	7.332500
2381.000000	7.344400
2380.000000	7.349700
2379.000000	7.358200
2378.000000	7.363000
2377.000000	7.343900
2376.000000	7.331400
2375.000000	7.339900
2374.000000	7.327800
2373.000000	7.308200
2372.000000	7.315100
2371.000000	7.310700
2370.000000	7.307100
2369.000000	7.296600
2368.000000	7.272400
2367.000000	7.263900
2366.000000	7.246100
2365.000000	7.224300
2364.000000	7.211100
2363.000000	7.194500
2362.000000	7.179900
2361.000000	7.169200
2360.000000	7.148700
2359.000000	7.120300
2358.000000	7.106300
2357.000000	7.097100
2356.000000	7.089600
2355.000000	7.067000
2354.000000	7.053000
2353.000000	7.066900
2352.000000	7.070800
2351.000000	7.076300
2350.000000	7.085800
2349.000000	7.100400
2348.000000	7.101900
2347.000000	7.117200
2346.000000	7.147100
2345.000000	7.172400
2344.000000	7.205400
2343.000000	7.233800
2342.000000	7.246000
2341.000000	7.245200
2340.000000	7.269400
2339.000000	7.275600
2338.000000	7.280300
2337.000000	7.293800
2336.000000	7.301800
2335.000000	7.310600
2334.000000	7.301900
2333.000000	7.287400
2332.000000	7.287200
2331.000000	7.273300
2330.000000	7.248800
2329.000000	7.225100
2328.000000	7.206700
2327.000000	7.193000
2326.000000	7.156900
2325.000000	7.123700
2324.000000	7.095100
2323.000000	7.082300
2322.000000	7.053400
2321.000000	7.007200
2320.000000	6.971800
2319.000000	6.913400
2318.000000	6.878100
2317.000000	6.840200
2316.000000	6.805700
2315.000000	6.761200
2314.000000	6.721600
2313.000000	6.697200
2312.000000	6.676900
2311.000000	6.634300
2310.000000	6.605600
2309.000000	6.607300
2308.000000	6.589400
2307.000000	6.584000
2306.000000	6.574800
2305.000000	6.577700
2304.000000	6.603100
2303.000000	6.601400
2302.000000	6.637900
2301.000000	6.682100
2300.000000	6.685200
2299.000000	6.707700
2298.000000	6.728300
2297.000000	6.789100
2296.000000	6.818800
2295.000000	6.855300
2294.000000	6.890500
2293.000000	6.916000
2292.000000	6.920400
2291.000000	6.938900
2290.000000	6.963900
2289.000000	6.958900
2288.000000	6.967700
2287.000000	6.959400
2286.000000	6.949000
2285.000000	6.943400
2284.000000	6.933000
2283.000000	6.931500
2282.000000	6.925000
2281.000000	6.891700
2280.000000	6.853600
2279.000000	6.856400
2278.000000	6.830100
2277.000000	6.799000
2276.000000	6.809800
2275.000000	6.805800
2274.000000	6.813900
2273.000000	6.783300
2272.000000	6.806800
2271.000000	6.791500
2270.000000	6.801600
2269.000000	6.817200
2268.000000	6.853000
2267.000000	6.882200
2266.000000	6.916400
2265.000000	6.981300
2264.000000	7.014100
2263.000000	7.080000
2262.000000	7.138800
2261.000000	7.225600
2260.000000	7.318400
2259.000000	7.377500
2258.000000	7.480900
2257.000000	7.594300
2256.000000	7.675100
2255.000000	7.784000
2254.000000	7.867900
2253.000000	7.949800
2252.000000	8.037000
2251.000000	8.140900
2250.000000	8.230800
2249.000000	8.303800
2248.000000	8.387300
2247.000000	8.454500
2246.000000	8.533300
2245.000000	8.587100
2244.000000	8.667700
2243.000000	8.711700
2242.000000	8.761700
2241.000000	8.810300
2240.000000	8.881700
2239.000000	8.915200
2238.000000	8.944800
2237.000000	8.981700
2236.000000	9.023000
2235.000000	9.051500
2234.000000	9.078000
2233.000000	9.134800
2232.000000	9.141100
2231.000000	9.165200
2230.000000	9.202400
2229.000000	9.179800
2228.000000	9.208900
2227.000000	9.216100
2226.000000	9.242300
2225.000000	9.234800
2224.000000	9.238300
2223.000000	9.243700
2222.000000	9.250900
2221.000000	9.269600
2220.000000	9.257900
2219.000000	9.277800
2218.000000	9.269300
2217.000000	9.252700
2216.000000	9.255900
2215.000000	9.258500
2214.000000	9.242900
2213.000000	9.230500
2212.000000	9.219000
2211.000000	9.191800
2210.000000	9.211400
2209.000000	9.211700
2208.000000	9.194000
2207.000000	9.197500
2206.000000	9.197500
2205.000000	9.199000
2204.000000	9.196100
2203.000000	9.190000
2202.000000	9.175400
2201.000000	9.193600
2200.000000	9.201200
2199.000000	9.192000
2198.000000	9.197200
2197.000000	9.196400
2196.000000	9.183500
2195.000000	9.190900
2194.000000	9.183900
2193.000000	9.195700
2192.000000	9.188400
2191.000000	9.186700
2190.000000	9.178100
2189.000000	9.184200
2188.000000	9.187600
2187.000000	9.187400
2186.000000	9.180400
2185.000000	9.167700
2184.000000	9.167800
2183.000000	9.172300
2182.000000	9.158900
2181.000000	9.167600
2180.000000	9.163300
2179.000000	9.167000
2178.000000	9.165200
2177.000000	9.182400
2176.000000	9.180500
2175.000000	9.175800
2174.000000	9.168600
2173.000000	9.178900
2172.000000	9.179200
2171.000000	9.189300
2170.000000	9.191200
2169.000000	9.203100
2168.000000	9.208000
2167.000000	9.213400
2166.000000	9.220500
2165.000000	9.227800
2164.000000	9.248600
2163.000000	9.246900
2162.000000	9.256900
2161.000000	9.266800
2160.000000	9.278700
2159.000000	9.297900
2158.000000	9.308400
2157.000000	9.321600
2156.000000	9.331300
2155.000000	9.360200
2154.000000	9.373800
2153.000000	9.380600
2152.000000	9.383700
2151.000000	9.390600
2150.000000	9.391500
2149.000000	9.409700
2148.000000	9.424500
2147.000000	9.435200
2146.000000	9.453300
2145.000000	9.475200
2144.000000	9.483400
2143.000000	9.477200
2142.000000	9.481000
2141.000000	9.477700
2140.000000	9.497300
2139.000000	9.499300
2138.000000	9.489000
2137.000000	9.505000
2136.000000	9.504600
2135.000000	9.514200
2134.000000	9.513100
2133.000000	9.510700
2132.000000	9.515100
2131.000000	9.518200
2130.000000	9.510000
2129.000000	9.512500
2128.000000	9.510900
2127.000000	9.506900
2126.000000	9.500400
2125.000000	9.485000
2124.000000	9.460800
2123.000000	9.461800
2122.000000	9.469500
2121.000000	9.442600
2120.000000	9.424900
2119.000000	9.417500
2118.000000	9.409200
2117.000000	9.407400
2116.000000	9.384500
2115.000000	9.358800
2114.000000	9.328800
2113.000000	9.317500
2112.000000	9.324600
2111.000000	9.300500
2110.000000	9.287800
2109.000000	9.285900
2108.000000	9.277800
2107.000000	9.266100
2106.000000	9.245100
2105.000000	9.230300
2104.000000	9.217500
2103.000000	9.202800
2102.000000	9.189400
2101.000000	9.171800
2100.000000	9.164400
2099.000000	9.152800
2098.000000	9.131400
2097.000000	9.121900
2096.000000	9.112100
2095.000000	9.111400
2094.000000	9.103000
2093.000000	9.086700
2092.000000	9.077400
2091.000000	9.083000
2090.000000	9.074700
2089.000000	9.054800
2088.000000	9.053100
2087.000000	9.048000
2086.000000	9.030500
2085.000000	9.024300
2084.000000	9.025800
2083.000000	9.018600
2082.000000	9.010400
2081.000000	9.006200
2080.000000	8.981100
2079.000000	8.960900
2078.000000	8.961100
2077.000000	8.962000
2076.000000	8.941400
2075.000000	8.946700
2074.000000	8.935200
2073.000000	8.922800
2072.000000	8.923600
2071.000000	8.923400
2070.000000	8.906000
2069.000000	8.892900
2068.000000	8.893400
2067.000000	8.897800
2066.000000	8.884400
2065.000000	8.873700
2064.000000	8.863000
2063.000000	8.856400
2062.000000	8.859700
2061.000000	8.856300
2060.000000	8.848700
2059.000000	8.861700
2058.000000	8.870200
2057.000000	8.892300
2056.000000	8.901000
2055.000000	8.925600
2054.000000	8.936900
2053.000000	8.939400
2052.000000	8.959600
2051.000000	9.001500
2050.000000	9.033800
2049.000000	9.073500
2048.000000	9.104900
2047.000000	9.143700
2046.000000	9.202200
2045.000000	9.244200
2044.000000	9.262100
2043.000000	9.310400
2042.000000	9.365500
2041.000000	9.406800
2040.000000	9.443500
2039.000000	9.493200
2038.000000	9.523600
2037.000000	9.570300
2036.000000	9.604700
2035.000000	9.635200
2034.000000	9.672200
2033.000000	9.701900
2032.000000	9.744700
2031.000000	9.757000
2030.000000	9.772100
2029.000000	9.818200
2028.000000	9.845100
2027.000000	9.857300
2026.000000	9.868000
2025.000000	9.883100
2024.000000	9.909300
2023.000000	9.933300
2022.000000	9.937700
2021.000000	9.965100
2020.000000	9.977500
2019.000000	10.011000
2018.000000	10.021600
2017.000000	10.015500
2016.000000	10.023300
2015.000000	10.027500
2014.000000	10.030200
2013.000000	10.035800
2012.000000	10.034200
2011.000000	10.036200
2010.000000	10.020600
2009.000000	10.021500
2008.000000	10.018300
2007.000000	10.007900
2006.000000	10.021300
2005.000000	10.010700
2004.000000	9.989700
2003.000000	9.976000
2002.000000	9.962300
2001.000000	9.955400
2000.000000	9.944300
1999.000000	9.937400
1998.000000	9.906200
1997.000000	9.884800
1996.000000	9.870200
1995.000000	9.843300
1994.000000	9.808400
1993.000000	9.801900
1992.000000	9.749100
1991.000000	9.756300
1990.000000	9.716600
1989.000000	9.700700
1988.000000	9.666200
1987.000000	9.637400
1986.000000	9.611600
1985.000000	9.582500
1984.000000	9.539400
1983.000000	9.527200
1982.000000	9.504000
1981.000000	9.472600
1980.000000	9.422500
1979.000000	9.397100
1978.000000	9.360300
1977.000000	9.337000
1976.000000	9.318000
1975.000000	9.275500
1974.000000	9.271300
1973.000000	9.236400
1972.000000	9.209600
1971.000000	9.189100
1970.000000	9.148400
1969.000000	9.118700
1968.000000	9.113300
1967.000000	9.078800
1966.000000	9.056700
1965.000000	9.037500
1964.000000	8.994100
1963.000000	8.975800
1962.000000	8.948400
1961.000000	8.945100
1960.000000	8.899400
1959.000000	8.884800
1958.000000	8.868200
1957.000000	8.870400
1956.000000	8.833400
1955.000000	8.809100
1954.000000	8.792700
1953.000000	8.760100
1952.000000	8.741100
1951.000000	8.729500
1950.000000	8.710700
1949.000000	8.697500
1948.000000	8.680400
1947.000000	8.675000
1946.000000	8.638600
1945.000000	8.650700
1944.000000	8.645100
1943.000000	8.663200
1942.000000	8.653200
1941.000000	8.631900
1940.000000	8.656800
1939.000000	8.640100
1938.000000	8.627500
1937.000000	8.629600
1936.000000	8.656700
1935.000000	8.656100
1934.000000	8.687100
1933.000000	8.704900
1932.000000	8.737300
1931.000000	8.763900
1930.000000	8.783900
1929.000000	8.829700
1928.000000	8.866400
1927.000000	8.894900
1926.000000	8.945600
1925.000000	8.971400
1924.000000	9.038100
1923.000000	9.096600
1922.000000	9.144000
1921.000000	9.194600
1920.000000	9.240200
1919.000000	9.302600
1918.000000	9.370600
1917.000000	9.446900
1916.000000	9.519200
1915.000000	9.602900
1914.000000	9.672800
1913.000000	9.740300
1912.000000	9.822000
1911.000000	9.913700
1910.000000	9.987700
1909.000000	10.095200
1908.000000	10.184000
1907.000000	10.297400
1906.000000	10.386200
1905.000000	10.491300
1904.000000	10.582000
1903.000000	10.707100
1902.000000	10.792200
1901.000000	10.913300
1900.000000	11.031000
1899.000000	11.151100
1898.000000	11.277200
1897.000000	11.398500
1896.000000	11.524400
1895.000000	11.644000
1894.000000	11.790900
1893.000000	11.929400
1892.000000	12.104100
1891.000000	12.225900
1890.000000	12.399800
1889.000000	12.584100
1888.000000	12.757600
1887.000000	12.948300
1886.000000	13.170000
1885.000000	13.435800
1884.000000	13.719300
1883.000000	14.036400
1882.000000	14.368200
1881.000000	14.691200
1880.000000	15.021100
1879.000000	15.363200
1878.000000	15.682600
1877.000000	15.986900
1876.000000	16.293800
1875.000000	16.591700
1874.000000	16.853800
1873.000000	17.102600
1872.000000	17.335000
1871.000000	17.556700
1870.000000	17.746200
1869.000000	17.926800
1868.000000	18.063500
1867.000000	18.182200
1866.000000	18.293900
1865.000000	18.380800
1864.000000	18.472000
1863.000000	18.548300
1862.000000	18.625300
1861.000000	18.672100
1860.000000	18.710100
1859.000000	18.742400
1858.000000	18.742300
1857.000000	18.756300
1856.000000	18.756500
1855.000000	18.724800
1854.000000	18.700100
1853.000000	18.661300
1852.000000	18.636700
1851.000000	18.630400
1850.000000	18.615800
1849.000000	18.573100
1848.000000	18.488100
1847.000000	18.392600
1846.000000	18.315500
1845.000000	18.299200
1844.000000	18.304600
1843.000000	18.320300
1842.000000	18.304400
1841.000000	18.254800
1840.000000	18.204400
1839.000000	18.173900
1838.000000	18.141400
1837.000000	18.084000
1836.000000	18.027000
1835.000000	17.961100
1834.000000	17.897300
1833.000000	17.847000
1832.000000	17.803200
1831.000000	17.728500
1830.000000	17.654200
1829.000000	17.595900
1828.000000	17.527800
1827.000000	17.460500
1826.000000	17.388800
1825.000000	17.332400
1824.000000	17.314200
1823.000000	17.318800
1822.000000	17.305100
1821.000000	17.262100
1820.000000	17.203300
1819.000000	17.170800
1818.000000	17.158400
1817.000000	17.153100
1816.000000	17.166300
1815.000000	17.156600
1814.000000	17.136800
1813.000000	17.117900
1812.000000	17.096600
1811.000000	17.076600
1810.000000	17.052800
1809.000000	17.020900
1808.000000	16.994000
1807.000000	16.949800
1806.000000	16.894600
1805.000000	16.864300
1804.000000	16.829000
1803.000000	16.783400
1802.000000	16.742900
1801.000000	16.707100
1800.000000	16.661000
1799.000000	16.606900
1798.000000	16.567800
1797.000000	16.539000
1796.000000	16.508600
1795.000000	16.448200
1794.000000	16.401300
1793.000000	16.364400
1792.000000	16.306500
1791.000000	16.250300
1790.000000	16.186200
1789.000000	16.151700
1788.000000	16.094000
1787.000000	16.038800
1786.000000	15.975300
1785.000000	15.898400
1784.000000	15.831600
1783.000000	15.763400
1782.000000	15.703900
1781.000000	15.636300
1780.000000	15.575200
1779.000000	15.492300
1778.000000	15.423200
1777.000000	15.354900
1776.000000	15.273800
1775.000000	15.175900
1774.000000	15.073500
1773.000000	14.985700
1772.000000	14.897500
1771.000000	14.801000
1770.000000	14.708600
1769.000000	14.620600
1768.000000	14.538400
1767.000000	14.445500
1766.000000	14.388000
1765.000000	14.361700
1764.000000	14.322000
1763.000000	14.314700
1762.000000	14.333900
1761.000000	14.371500
1760.000000	14.425600
1759.000000	14.457400
1758.000000	14.514300
1757.000000	14.565200
1756.000000	14.589800
1755.000000	14.626900
1754.000000	14.641500
1753.000000	14.619800
1752.000000	14.614500
1751.000000	14.587200
1750.000000	14.564000
1749.000000	14.527300
1748.000000	14.445200
1747.000000	14.399600
1746.000000	14.321400
1745.000000	14.230000
1744.000000	14.123200
1743.000000	13.995500
1742.000000	13.837300
1741.000000	13.670300
1740.000000	13.504700
1739.000000	13.381900
1738.000000	13.246400
1737.000000	13.150000
1736.000000	13.065400
1735.000000	13.014600
1734.000000	12.991500
1733.000000	13.001800
1732.000000	13.054100
1731.000000	13.118100
1730.000000	13.198900
1729.000000	13.286700
1728.000000	13.362900
1727.000000	13.442200
1726.000000	13.503600
1725.000000	13.563000
1724.000000	13.604100
1723.000000	13.613400
1722.000000	13.629000
1721.000000	13.618100
1720.000000	13.614300
1719.000000	13.622900
1718.000000	13.628900
1717.000000	13.647900
1716.000000	13.671200
1715.000000	13.710400
1714.000000	13.730900
1713.000000	13.754000
1712.000000	13.766200
1711.000000	13.771600
1710.000000	13.762300
1709.000000	13.753000
1708.000000	13.738800
1707.000000	13.724800
1706.000000	13.695900
1705.000000	13.639900
1704.000000	13.593700
1703.000000	13.510900
1702.000000	13.467600
1701.000000	13.351400
1700.000000	13.239500
1699.000000	13.131800
1698.000000	13.046200
1697.000000	13.004400
1696.000000	12.949200
1695.000000	12.949600
1694.000000	13.005100
1693.000000	13.080800
1692.000000	13.197500
1691.000000	13.295900
1690.000000	13.392700
1689.000000	13.475200
1688.000000	13.530000
1687.000000	13.543400
1686.000000	13.529300
1685.000000	13.534500
1684.000000	13.618700
1683.000000	13.777800
1682.000000	14.021000
1681.000000	14.334800
1680.000000	14.691600
1679.000000	15.106500
1678.000000	15.489900
1677.000000	15.867300
1676.000000	16.208100
1675.000000	16.531600
1674.000000	16.778800
1673.000000	16.999900
1672.000000	17.216100
1671.000000	17.387500
1670.000000	17.525700
1669.000000	17.634400
1668.000000	17.716800
1667.000000	17.824200
1666.000000	17.902400
1665.000000	17.988700
1664.000000	18.013200
1663.000000	18.061300
1662.000000	18.112400
1661.000000	18.130900
1660.000000	18.139000
1659.000000	18.169500
1658.000000	18.177800
1657.000000	18.172300
1656.000000	18.172600
1655.000000	18.169900
1654.000000	18.145400
1653.000000	18.124400
1652.000000	18.095800
1651.000000	18.068700
1650.000000	18.029900
1649.000000	18.000800
1648.000000	17.953000
1647.000000	17.905800
1646.000000	17.865400
1645.000000	17.814600
1644.000000	17.779200
1643.000000	17.717000
1642.000000	17.651500
1641.000000	17.600400
1640.000000	17.542600
1639.000000	17.494400
1638.000000	17.426800
1637.000000	17.380800
1636.000000	17.309000
1635.000000	17.255400
1634.000000	17.187400
1633.000000	17.134800
1632.000000	17.087700
1631.000000	17.000700
1630.000000	16.918400
1629.000000	16.861300
1628.000000	16.807400
1627.000000	16.741200
1626.000000	16.680400
1625.000000	16.605400
1624.000000	16.542800
1623.000000	16.491700
1622.000000	16.416500
1621.000000	16.348300
1620.000000	16.298100
1619.000000	16.236500
1618.000000	16.165000
1617.000000	16.090000
1616.000000	16.040500
1615.000000	15.991700
1614.000000	15.954000
1613.000000	15.899400
1612.000000	15.833200
1611.000000	15.784800
1610.000000	15.745500
1609.000000	15.686400
1608.000000	15.620900
1607.000000	15.580100
1606.000000	15.544300
1605.000000	15.500000
1604.000000	15.449200
1603.000000	15.400000
1602.000000	15.352000
1601.000000	15.297200
1600.000000	15.265300
1599.000000	15.236700
1598.000000	15.193000
1597.000000	15.142500
1596.000000	15.111400
1595.000000	15.084500
1594.000000	15.040700
1593.000000	15.021600
1592.000000	14.995700
1591.000000	14.961400
1590.000000	14.935700
1589.000000	14.908200
1588.000000	14.867800
1587.000000	14.842800
1586.000000	14.821700
1585.000000	14.809600
1584.000000	14.787800
1583.000000	14.763400
1582.000000	14.760800
1581.000000	14.755300
1580.000000	14.752500
1579.000000	14.753400
1578.000000	14.729100
1577.000000	14.716300
1576.000000	14.732300
1575.000000	14.733500
1574.000000	14.728400
1573.000000	14.747900
1572.000000	14.766100
1571.000000	14.764100
1570.000000	14.764700
1569.000000	14.785500
1568.000000	14.807100
1567.000000	14.822100
1566.000000	14.839500
1565.000000	14.865800
1564.000000	14.878400
1563.000000	14.880400
1562.000000	14.893900
1561.000000	14.899200
1560.000000	14.905000
1559.000000	14.919400
1558.000000	14.927300
1557.000000	14.922400
1556.000000	14.930400
1555.000000	14.939700
1554.000000	14.944900
1553.000000	14.948500
1552.000000	14.935600
1551.000000	14.928900
1550.000000	14.924600
1549.000000	14.905900
1548.000000	14.913100
1547.000000	14.909500
1546.000000	14.899700
1545.000000	14.909100
1544.000000	14.902500
1543.000000	14.887800
1542.000000	14.895400
1541.000000	14.902500
1540.000000	14.895100
1539.000000	14.882300
1538.000000	14.878500
1537.000000	14.887200
1536.000000	14.888000
1535.000000	14.879400
1534.000000	14.871300
1533.000000	14.850800
1532.000000	14.833500
1531.000000	14.825800
1530.000000	14.820800
1529.000000	14.808100
1528.000000	14.781700
1527.000000	14.766200
1526.000000	14.765700
1525.000000	14.762000
1524.000000	14.726500
1523.000000	14.690600
1522.000000	14.696500
1521.000000	14.680700
1520.000000	14.648600
1519.000000	14.636000
1518.000000	14.614400
1517.000000	14.603600
1516.000000	14.589200
1515.000000	14.554900
1514.000000	14.526000
1513.000000	14.507700
1512.000000	14.485400
1511.000000	14.450800
1510.000000	14.442300
1509.000000	14.425300
1508.000000	14.399000
1507.000000	14.372600
1506.000000	14.348800
1505.000000	14.324500
1504.000000	14.300600
1503.000000	14.288700
1502.000000	14.278500
1501.000000	14.257300
1500.000000	14.224400
1499.000000	14.199200
1498.000000	14.204700
1497.000000	14.199000
1496.000000	14.156100
1495.000000	14.141500
1494.000000	14.145000
1493.000000	14.141100
1492.000000	14.133000
1491.000000	14.128500
1490.000000	14.128700
1489.000000	14.128300
1488.000000	14.113400
1487.000000	14.116600
1486.000000	14.096100
1485.000000	14.078800
1484.000000	14.095900
1483.000000	14.093400
1482.000000	14.113700
1481.000000	14.126500
1480.000000	14.138200
1479.000000	14.122700
1478.000000	14.127200
1477.000000	14.152000
1476.000000	14.156500
1475.000000	14.155300
1474.000000	14.177600
1473.000000	14.186400
1472.000000	14.208100
1471.000000	14.213900
1470.000000	14.228900
1469.000000	14.233700
1468.000000	14.238400
1467.000000	14.258300
1466.000000	14.302400
1465.000000	14.317400
1464.000000	14.331400
1463.000000	14.356800
1462.000000	14.387600
1461.000000	14.443000
1460.000000	14.473600
1459.000000	14.513800
1458.000000	14.557900
1457.000000	14.608400
1456.000000	14.650700
1455.000000	14.714300
1454.000000	14.770500
1453.000000	14.832400
1452.000000	14.921500
1451.000000	15.005900
1450.000000	15.028100
1449.000000	15.096500
1448.000000	15.167000
1447.000000	15.239200
1446.000000	15.357500
1445.000000	15.432900
1444.000000	15.465000
1443.000000	15.575600
1442.000000	15.672400
1441.000000	15.752100
1440.000000	15.854500
1439.000000	15.926600
1438.000000	16.024500
1437.000000	16.089300
1436.000000	16.187300
1435.000000	16.311500
1434.000000	16.396300
1433.000000	16.492200
1432.000000	16.590400
1431.000000	16.718000
1430.000000	16.796300
1429.000000	16.948400
1428.000000	17.081200
1427.000000	17.199000
1426.000000	17.362100
1425.000000	17.538700
1424.000000	17.701800
1423.000000	17.875800
1422.000000	18.052100
1421.000000	18.234400
1420.000000	18.428400
1419.000000	18.616700
1418.000000	18.749600
1417.000000	18.933300
1416.000000	19.140000
1415.000000	19.348300
1414.000000	19.547600
1413.000000	19.719700
1412.000000	19.893300
1411.000000	20.158900
1410.000000	20.414900
1409.000000	20.713700
1408.000000	21.022500
1407.000000	21.328300
1406.000000	21.658200
1405.000000	21.992000
1404.000000	22.325800
1403.000000	22.652600
1402.000000	22.992400
1401.000000	23.364700
1400.000000	23.654600
1399.000000	23.869400
1398.000000	24.089600
1397.000000	24.360400
1396.000000	24.633800
1395.000000	24.797400
1394.000000	24.969700
1393.000000	25.148100
1392.000000	25.361800
1391.000000	25.564200
1390.000000	25.809100
1389.000000	26.110700
1388.000000	26.462200
1387.000000	26.796300
1386.000000	27.190300
1385.000000	27.618200
1384.000000	28.062700
1383.000000	28.506300
1382.000000	28.847900
1381.000000	29.099300
1380.000000	29.270900
1379.000000	29.408100
1378.000000	29.498800
1377.000000	29.640800
1376.000000	29.797600
1375.000000	30.041500
1374.000000	30.343800
1373.000000	30.694100
1372.000000	31.066400
1371.000000	31.448900
1370.000000	31.769500
1369.000000	32.105200
1368.000000	32.403400
1367.000000	32.655400
1366.000000	32.870900
1365.000000	33.079700
1364.000000	33.260800
1363.000000	33.444400
1362.000000	33.603500
1361.000000	33.697700
1360.000000	33.748300
1359.000000	33.851700
1358.000000	33.983500
1357.000000	34.214900
1356.000000	34.552500
1355.000000	35.016900
1354.000000	35.526600
1353.000000	36.035400
1352.000000	36.631600
1351.000000	37.169000
1350.000000	37.646000
1349.000000	38.096300
1348.000000	38.518400
1347.000000	38.889000
1346.000000	39.208100
1345.000000	39.559800
1344.000000	39.896800
1343.000000	40.205600
1342.000000	40.489300
1341.000000	40.774800
1340.000000	41.041200
1339.000000	41.303700
1338.000000	41.555200
1337.000000	41.789500
1336.000000	42.023700
1335.000000	42.247200
1334.000000	42.474600
1333.000000	42.691400
1332.000000	42.879000
1331.000000	43.053100
1330.000000	43.239400
1329.000000	43.400900
1328.000000	43.563100
1327.000000	43.719000
1326.000000	43.864900
1325.000000	44.007600
1324.000000	44.143000
1323.000000	44.278700
1322.000000	44.395800
1321.000000	44.501900
1320.000000	44.621700
1319.000000	44.723800
1318.000000	44.831800
1317.000000	44.942200
1316.000000	45.037000
1315.000000	45.124000
1314.000000	45.201100
1313.000000	45.285300
1312.000000	45.365800
1311.000000	45.421700
1310.000000	45.484100
1309.000000	45.546700
1308.000000	45.601700
1307.000000	45.638700
1306.000000	45.671300
1305.000000	45.713100
1304.000000	45.739300
1303.000000	45.762600
1302.000000	45.782300
1301.000000	45.791300
1300.000000	45.810300
1299.000000	45.821900
1298.000000	45.825400
1297.000000	45.816000
1296.000000	45.812600
1295.000000	45.822900
1294.000000	45.814300
1293.000000	45.790700
1292.000000	45.776900
1291.000000	45.748400
1290.000000	45.719000
1289.000000	45.694800
1288.000000	45.655400
1287.000000	45.615800
1286.000000	45.558900
1285.000000	45.500400
1284.000000	45.445400
1283.000000	45.388500
1282.000000	45.320900
1281.000000	45.264500
1280.000000	45.223000
1279.000000	45.156600
1278.000000	45.091000
1277.000000	45.051900
1276.000000	45.000800
1275.000000	44.955800
1274.000000	44.910300
1273.000000	44.872100
1272.000000	44.836100
1271.000000	44.800800
1270.000000	44.771300
1269.000000	44.731200
1268.000000	44.692100
1267.000000	44.644400
1266.000000	44.608100
1265.000000	44.579000
1264.000000	44.528800
1263.000000	44.483800
1262.000000	44.441400
1261.000000	44.382600
1260.000000	44.337000
1259.000000	44.292200
1258.000000	44.248900
1257.000000	44.181500
1256.000000	44.120900
1255.000000	44.050500
1254.000000	43.973000
1253.000000	43.883000
1252.000000	43.821700
1251.000000	43.745700
1250.000000	43.648100
1249.000000	43.559900
1248.000000	43.463400
1247.000000	43.343400
1246.000000	43.215000
1245.000000	43.085400
1244.000000	42.949400
1243.000000	42.818000
1242.000000	42.669400
1241.000000	42.514700
1240.000000	42.357100
1239.000000	42.206700
1238.000000	42.040500
1237.000000	41.863800
1236.000000	41.702300
1235.000000	41.530900
1234.000000	41.349800
1233.000000	41.163000
1232.000000	40.965500
1231.000000	40.766600
1230.000000	40.569800
1229.000000	40.360400
1228.000000	40.166200
1227.000000	39.967200
1226.000000	39.764500
1225.000000	39.564400
1224.000000	39.359200
1223.000000	39.161500
1222.000000	38.965700
1221.000000	38.761100
1220.000000	38.572500
1219.000000	38.406000
1218.000000	38.228000
1217.000000	38.061200
1216.000000	37.890600
1215.000000	37.738300
1214.000000	37.578500
1213.000000	37.448000
1212.000000	37.317500
1211.000000	37.187400
1210.000000	37.028900
1209.000000	36.931900
1208.000000	36.834300
1207.000000	36.759200
1206.000000	36.685400
1205.000000	36.629600
1204.000000	36.593900
1203.000000	36.565600
1202.000000	36.520100
1201.000000	36.469700
1200.000000	36.393000
1199.000000	36.302400
1198.000000	36.172000
1197.000000	36.000800
1196.000000	35.759200
1195.000000	35.462700
1194.000000	35.097800
1193.000000	34.661500
1192.000000	34.167700
1191.000000	33.697100
1190.000000	33.228700
1189.000000	32.844400
1188.000000	32.562500
1187.000000	32.477800
1186.000000	32.493200
1185.000000	32.650000
1184.000000	32.941700
1183.000000	33.381500
1182.000000	33.889200
1181.000000	34.452700
1180.000000	35.005700
1179.000000	35.518900
1178.000000	35.958600
1177.000000	36.393400
1176.000000	36.758600
1175.000000	37.058600
1174.000000	37.416400
1173.000000	37.764100
1172.000000	38.142500
1171.000000	38.516500
1170.000000	38.893600
1169.000000	39.292300
1168.000000	39.669100
1167.000000	40.085500
1166.000000	40.460200
1165.000000	40.843800
1164.000000	41.279000
1163.000000	41.654800
1162.000000	42.034400
1161.000000	42.424900
1160.000000	42.796700
1159.000000	43.164900
1158.000000	43.461600
1157.000000	43.778000
1156.000000	44.009600
1155.000000	44.195300
1154.000000	44.319200
1153.000000	44.409000
1152.000000	44.467800
1151.000000	44.474000
1150.000000	44.491800
1149.000000	44.487800
1148.000000	44.534600
1147.000000	44.635400
1146.000000	44.783600
1145.000000	45.009400
1144.000000	45.301000
1143.000000	45.656200
1142.000000	45.995500
1141.000000	46.361000
1140.000000	46.705700
1139.000000	47.096700
1138.000000	47.470400
1137.000000	47.866100
1136.000000	48.266900
1135.000000	48.654100
1134.000000	48.986300
1133.000000	49.274500
1132.000000	49.587600
1131.000000	49.841200
1130.000000	50.078000
1129.000000	50.242600
1128.000000	50.393500
1127.000000	50.525600
1126.000000	50.620600
1125.000000	50.692900
1124.000000	50.772500
1123.000000	50.837100
1122.000000	50.860400
1121.000000	50.910500
1120.000000	50.920700
1119.000000	50.937200
1118.000000	50.961300
1117.000000	50.956600
1116.000000	50.948400
1115.000000	50.934900
1114.000000	50.932400
1113.000000	50.896800
1112.000000	50.901800
1111.000000	50.892400
1110.000000	50.882800
1109.000000	50.873200
1108.000000	50.858400
1107.000000	50.840600
1106.000000	50.835500
1105.000000	50.825900
1104.000000	50.815200
1103.000000	50.799500
1102.000000	50.786200
1101.000000	50.762600
1100.000000	50.743100
1099.000000	50.722800
1098.000000	50.707400
1097.000000	50.673900
1096.000000	50.610700
1095.000000	50.583200
1094.000000	50.561800
1093.000000	50.526700
1092.000000	50.506900
1091.000000	50.480200
1090.000000	50.443900
1089.000000	50.421400
1088.000000	50.373700
1087.000000	50.350600
1086.000000	50.313200
1085.000000	50.286600
1084.000000	50.245000
1083.000000	50.196900
1082.000000	50.163700
1081.000000	50.125700
1080.000000	50.099500
1079.000000	50.061700
1078.000000	50.029100
1077.000000	49.997700
1076.000000	49.966400
1075.000000	49.941000
1074.000000	49.910900
1073.000000	49.887200
1072.000000	49.848500
1071.000000	49.808000
1070.000000	49.775700
1069.000000	49.745300
1068.000000	49.706600
1067.000000	49.673900
1066.000000	49.629900
1065.000000	49.593100
1064.000000	49.574200
1063.000000	49.532300
1062.000000	49.489100
1061.000000	49.450400
1060.000000	49.416200
1059.000000	49.379100
1058.000000	49.315600
1057.000000	49.257300
1056.000000	49.211300
1055.000000	49.167000
1054.000000	49.123700
1053.000000	49.084300
1052.000000	49.049300
1051.000000	49.013600
1050.000000	48.973600
1049.000000	48.948800
1048.000000	48.917600
1047.000000	48.876800
1046.000000	48.847500
1045.000000	48.806200
1044.000000	48.781300
1043.000000	48.764600
1042.000000	48.733000
1041.000000	48.710800
1040.000000	48.687800
1039.000000	48.644000
1038.000000	48.607000
1037.000000	48.570600
1036.000000	48.526600
1035.000000	48.481800
1034.000000	48.444300
1033.000000	48.412500
1032.000000	48.365300
1031.000000	48.326000
1030.000000	48.288100
1029.000000	48.227300
1028.000000	48.183700
1027.000000	48.144200
1026.000000	48.080600
1025.000000	48.031600
1024.000000	47.989400
1023.000000	47.933500
1022.000000	47.896300
1021.000000	47.861900
1020.000000	47.822600
1019.000000	47.780200
1018.000000	47.746000
1017.000000	47.707000
1016.000000	47.673900
1015.000000	47.668300
1014.000000	47.667900
1013.000000	47.675200
1012.000000	47.684600
1011.000000	47.696700
1010.000000	47.729800
1009.000000	47.764400
1008.000000	47.795700
1007.000000	47.850600
1006.000000	47.897400
1005.000000	47.921700
1004.000000	47.981100
1003.000000	48.028700
1002.000000	48.065600
1001.000000	48.115100
1000.000000	48.161200
999.000000	48.211100
998.000000	48.261300
997.000000	48.317700
996.000000	48.369800
995.000000	48.428800
994.000000	48.494900
993.000000	48.554100
992.000000	48.612400
991.000000	48.691800
990.000000	48.783900
989.000000	48.860800
988.000000	48.947800
987.000000	49.034500
986.000000	49.121000
985.000000	49.213100
984.000000	49.315000
983.000000	49.413800
982.000000	49.498000
981.000000	49.613100
980.000000	49.719400
979.000000	49.800700
978.000000	49.900200
977.000000	49.996800
976.000000	50.100300
975.000000	50.191000
974.000000	50.279000
973.000000	50.392500
972.000000	50.467700
971.000000	50.562800
970.000000	50.688200
969.000000	50.786000
968.000000	50.873900
967.000000	50.988400
966.000000	51.066700
965.000000	51.181300
964.000000	51.304400
963.000000	51.400200
962.000000	51.524400
961.000000	51.640900
960.000000	51.755900
959.000000	51.888600
958.000000	51.996400
957.000000	52.092900
956.000000	52.223700
955.000000	52.319000
954.000000	52.398900
953.000000	52.504800
952.000000	52.583800
951.000000	52.703000
950.000000	52.776700
949.000000	52.868700
948.000000	52.967200
947.000000	53.078400
946.000000	53.190500
945.000000	53.273400
944.000000	53.359100
943.000000	53.448100
942.000000	53.561600
941.000000	53.681500
940.000000	53.794100
939.000000	53.907600
938.000000	53.981600
937.000000	54.079400
936.000000	54.185000
935.000000	54.297000
934.000000	54.428000
933.000000	54.527400
932.000000	54.643900
931.000000	54.751800
930.000000	54.870000
929.000000	54.981100
928.000000	55.103600
927.000000	55.219500
926.000000	55.328000
925.000000	55.428900
924.000000	55.536400
923.000000	55.661200
922.000000	55.811100
921.000000	55.916900
920.000000	56.030400
919.000000	56.115100
918.000000	56.214700
917.000000	56.298400
916.000000	56.412000
915.000000	56.490400
914.000000	56.585800
913.000000	56.670800
912.000000	56.814100
911.000000	56.881700
910.000000	56.935300
909.000000	57.032600
908.000000	57.122900
907.000000	57.225200
906.000000	57.354900
905.000000	57.471300
904.000000	57.584800
903.000000	57.700300
902.000000	57.853600
901.000000	57.952000
900.000000	58.050700
899.000000	58.173500
898.000000	58.212900
897.000000	58.320500
896.000000	58.427000
895.000000	58.510900
894.000000	58.569700
893.000000	58.666900
892.000000	58.707300
891.000000	58.680800
890.000000	58.731800
889.000000	58.736600
888.000000	58.673600
887.000000	58.674200
886.000000	58.712800
885.000000	58.709300
884.000000	58.592300
883.000000	58.554300
882.000000	58.447900
881.000000	58.426700
880.000000	58.373000
879.000000	58.251300
878.000000	58.165200
877.000000	58.014200
876.000000	57.926200
875.000000	57.737900
874.000000	57.624000
873.000000	57.401800
872.000000	57.120400
871.000000	56.922600
870.000000	56.593700
869.000000	56.267700
868.000000	55.975400
867.000000	55.672700
866.000000	55.506900
865.000000	55.570800
864.000000	55.656400
863.000000	55.764200
862.000000	55.846800
861.000000	55.926600
860.000000	56.017000
859.000000	56.085700
858.000000	57.529500
857.000000	56.333240
856.000000	56.487882
855.000000	56.779631
854.000000	57.171694
853.000000	56.724186
852.000000	56.756249
851.000000	57.004846
850.000000	56.699516
849.000000	56.792611
848.000000	56.961006
847.000000	57.134732
846.000000	56.704759
845.000000	56.953270
844.000000	56.989115
843.000000	56.963757
842.000000	56.813929
841.000000	56.865591
840.000000	56.867740
839.000000	56.878743
838.000000	56.754100
837.000000	56.686536
836.000000	56.825103
835.000000	56.811866
834.000000	56.721264
833.000000	56.797510
832.000000	56.736994
831.000000	56.722983
830.000000	56.703986
829.000000	56.704673
828.000000	56.658083
827.000000	56.628255
826.000000	56.440862
825.000000	56.471464
824.000000	56.371062
823.000000	56.328942
822.000000	56.331349
821.000000	56.173268
820.000000	56.100632
819.000000	55.945646
818.000000	55.953984
817.000000	55.756964
816.000000	55.687250
815.000000	55.671519
814.000000	55.654929
813.000000	55.548511
812.000000	55.511720
811.000000	55.422235
810.000000	55.310315
809.000000	55.293725
808.000000	55.207679
807.000000	55.194183
806.000000	55.107965
805.000000	55.069455
804.000000	54.989770
803.000000	54.876733
802.000000	54.895386
801.000000	54.880171
800.000000	54.866417
799.000000	54.803409
798.000000	54.797993
797.000000	54.768337
796.000000	54.665185
795.000000	54.558423
794.000000	54.617563
793.000000	54.497735
792.000000	54.442205
791.000000	54.456990
790.000000	54.407906
789.000000	54.344640
788.000000	54.338451
787.000000	54.281287
786.000000	54.239511
785.000000	54.197562
784.000000	54.179597
783.000000	54.202720
782.000000	54.194124
781.000000	54.169023
780.000000	54.120800
779.000000	54.077734
778.000000	54.019883
777.000000	54.031831
776.000000	54.015671
775.000000	53.899195
774.000000	53.952576
773.000000	53.927906
772.000000	53.833951
771.000000	53.755298
770.000000	53.626615
769.000000	53.608048
768.000000	53.615355
767.000000	53.540140
766.000000	53.473864
765.000000	53.457274
764.000000	53.414810
763.000000	53.383864
762.000000	53.358764
761.000000	53.329623
760.000000	53.219938
759.000000	53.155984
758.000000	53.137073
757.000000	53.048964
756.000000	53.029451
755.000000	52.973835
754.000000	52.883835
753.000000	52.815238
752.000000	52.749135
751.000000	52.674522
750.000000	52.605754
749.000000	52.576098
748.000000	52.529249
747.000000	52.464951
746.000000	52.449650
745.000000	52.439851
744.000000	52.353289
743.000000	52.298962
742.000000	52.295180
741.000000	52.193833
740.000000	52.156011
739.000000	52.136326
738.000000	52.097300
737.000000	52.058704
736.000000	51.991053
735.000000	51.935093
734.000000	51.894520
733.000000	51.811483
732.000000	51.729993
731.000000	51.661568
730.000000	51.622457
729.000000	51.582829
728.000000	51.563402
727.000000	51.548273
726.000000	51.495322
725.000000	51.433430
724.000000	51.399992
723.000000	51.376267
722.000000	51.367241
721.000000	51.325808
720.000000	51.266926
719.000000	51.209590
718.000000	51.152169
717.000000	51.093029
716.000000	51.051424
715.000000	50.992111
714.000000	50.901510
713.000000	50.788042
712.000000	50.695635
711.000000	50.641308
710.000000	50.547956
709.000000	50.443944
708.000000	50.376380
707.000000	50.304603
706.000000	50.250018
705.000000	50.148242
704.000000	49.990591
703.000000	49.869645
702.000000	49.743026
701.000000	49.636693
700.000000	49.540418
699.000000	49.376922
698.000000	49.230532
697.000000	49.061105
696.000000	48.891505
695.000000	48.772365
694.000000	48.656920
693.000000	48.493940
692.000000	48.334312
691.000000	48.177005
690.000000	47.974655
689.000000	47.802477
688.000000	47.597806
687.000000	47.373451
686.000000	47.193192
685.000000	47.012676
684.000000	46.803106
683.000000	46.627919
682.000000	46.436142
681.000000	46.292073
680.000000	46.117402
679.000000	45.994221
678.000000	45.858748
677.000000	45.726800
676.000000	45.601384
675.000000	45.512845
674.000000	45.421298
673.000000	45.368088
672.000000	45.252988
671.000000	45.137973
670.000000	44.991411
669.000000	44.891010
668.000000	44.823789
667.000000	44.739548
666.000000	44.647485
665.000000	44.542098
664.000000	44.437141
663.000000	44.365794
662.000000	44.355737
661.000000	44.315593
660.000000	44.246653
659.000000	44.241152
658.000000	44.232470
657.000000	44.209175
656.000000	44.159060
655.000000	44.124934
654.000000	44.088229
653.000000	44.025650
652.000000	43.917942
651.000000	43.774475
650.000000	43.653185
649.000000	43.536795
648.000000	43.402182
647.000000	43.216680
646.000000	43.013986
645.000000	42.831665
644.000000	42.600002
643.000000	42.391377
642.000000	42.175274
641.000000	42.015044
640.000000	41.824041
639.000000	41.638969
638.000000	41.484585
637.000000	41.344985
636.000000	41.223524
635.000000	41.109713
634.000000	41.024698
633.000000	40.919053
632.000000	40.796474
631.000000	40.717993
630.000000	40.644927
629.000000	40.548222
628.000000	40.486588
627.000000	40.464926
626.000000	40.486072
625.000000	40.512634
624.000000	40.604354
623.000000	40.745758
622.000000	40.946732
621.000000	41.193524
620.000000	41.526189
619.000000	41.919457
618.000000	42.388541
617.000000	42.855390
616.000000	43.392124
615.000000	44.006997
614.000000	44.596425
613.000000	45.218002
612.000000	45.854192
611.000000	46.414738
610.000000	46.975112
609.000000	47.506345
608.000000	47.978352
607.000000	48.425172
606.000000	48.842938
605.000000	49.259672
604.000000	49.586836
603.000000	49.979072
602.000000	50.361508
601.000000	50.711194
600.000000	51.089074
599.000000	51.513287
598.000000	51.909133
597.000000	52.287873
596.000000	52.716900
595.000000	53.166901
594.000000	53.573750
593.000000	54.009052
592.000000	54.454927
591.000000	54.846991
590.000000	55.299570
589.000000	55.630774
588.000000	55.941864
587.000000	56.243670
586.000000	56.506450
585.000000	56.677424
584.000000	56.828198
583.000000	56.933585
582.000000	56.994531
581.000000	57.076021
580.000000	57.124674
579.000000	57.141007
578.000000	57.218629
577.000000	57.260921
576.000000	57.321781
575.000000	57.422870
574.000000	57.512612
573.000000	57.658486
572.000000	57.746681
571.000000	57.844848
570.000000	57.951438
569.000000	58.028201
568.000000	58.141066
567.000000	58.146482
566.000000	58.203989
565.000000	58.178545
564.000000	58.164533
563.000000	58.115794
562.000000	58.040063
561.000000	57.935278
560.000000	57.842441
559.000000	57.641810
558.000000	57.532297
557.000000	57.420979
556.000000	57.279316
555.000000	57.110835
554.000000	56.931436
553.000000	56.726679
552.000000	56.452123
551.000000	56.179801
550.000000	55.834156
549.000000	55.482407
548.000000	55.067908
547.000000	54.608537
546.000000	54.136445
545.000000	53.591544
544.000000	53.054637
543.000000	52.454894
542.000000	51.828761
541.000000	51.197470
540.000000	50.524317
539.000000	49.838441
538.000000	49.132022
537.000000	48.372049
536.000000	47.596689
535.000000	46.795283
534.000000	45.957173
533.000000	45.111841
532.000000	44.244332
531.000000	43.400119
530.000000	42.546535
529.000000	41.695101
528.000000	40.854411
527.000000	40.038822
526.000000	39.227015
525.000000	38.399994
524.000000	37.602456
523.000000	36.817383
522.000000	36.052252
521.000000	35.308526
520.000000	34.567636
519.000000	33.839211
518.000000	33.105885
517.000000	32.404451
516.000000	31.707229
515.000000	31.026425
514.000000	30.340206
513.000000	29.669202
512.000000	28.998026
511.000000	28.316534
510.000000	27.634527
509.000000	26.976761
508.000000	26.304897
507.000000	25.668792
506.000000	25.051427
505.000000	24.432257
504.000000	23.834835
503.000000	23.257269
502.000000	22.675147
501.000000	22.137811
500.000000	21.626950
499.000000	21.160187
498.000000	20.735974
497.000000	20.334455
496.000000	19.974626
495.000000	19.647204
494.000000	19.351244
493.000000	19.104022
492.000000	18.903392
491.000000	18.717116
490.000000	18.560239
489.000000	18.431901
488.000000	18.324880
487.000000	18.240382
486.000000	18.147545
485.000000	18.059264
484.000000	18.014479
483.000000	17.958089
482.000000	17.895854
481.000000	17.837401
480.000000	17.760381
479.000000	17.694191
478.000000	17.638317
477.000000	17.578145
476.000000	17.519778
475.000000	17.443446
474.000000	17.351555
473.000000	17.272042
472.000000	17.189262
471.000000	17.107600
470.000000	17.018116
469.000000	16.923044
468.000000	16.823846
467.000000	16.713559
466.000000	16.592699
465.000000	16.484475
464.000000	16.385621
463.000000	16.273272
462.000000	16.141409
461.000000	16.017025
460.000000	15.886107
459.000000	15.742984
458.000000	15.622296
457.000000	15.489488
456.000000	15.327109
455.000000	15.174874
454.000000	15.013269
453.000000	14.871349
452.000000	14.697108
451.000000	14.498540
450.000000	14.314156
449.000000	14.143267
448.000000	13.961204
447.000000	13.752235
446.000000	13.549971
445.000000	13.331890
444.000000	13.094039
443.000000	12.875872
442.000000	12.651430
441.000000	12.423034
440.000000	12.183378
439.000000	11.943291
438.000000	11.710425
437.000000	11.463376
436.000000	11.209450
435.000000	10.974263
434.000000	10.720939
433.000000	10.452142
432.000000	10.207070
431.000000	9.967671
430.000000	9.729476
429.000000	9.485091
428.000000	9.246638
427.000000	9.023056
426.000000	8.781594
425.000000	8.542539
424.000000	8.314573
423.000000	8.095031
422.000000	7.891907
421.000000	7.679930
420.000000	7.477150
419.000000	7.274714
418.000000	7.079499
417.000000	6.895802
416.000000	6.717349
415.000000	6.553939
414.000000	6.400758
413.000000	6.252047
412.000000	6.106603
411.000000	5.978265
410.000000	5.866087
409.000000	5.747290
408.000000	5.640527
407.000000	5.542705
406.000000	5.440069
405.000000	5.347833
404.000000	5.273048
403.000000	5.196630
402.000000	5.130011
401.000000	5.059523
400.000000	4.992560
399.000000	4.943563
398.000000	4.903678
397.000000	4.859838
396.000000	4.827947
395.000000	4.778692
394.000000	4.745167
393.000000	4.715339
392.000000	4.683190
391.000000	4.653620
390.000000	4.636342
389.000000	4.619752
388.000000	4.581585
387.000000	4.572732
386.000000	4.564565
385.000000	4.542903
384.000000	4.536456
383.000000	4.507832
382.000000	4.484966
381.000000	4.481442
380.000000	4.471900
379.000000	4.455224
378.000000	4.441471
377.000000	4.439407
376.000000	4.335052
375.000000	4.141040
374.000000	4.150324
373.000000	4.251671
372.000000	4.185567
371.000000	4.268089
370.000000	4.234221
369.000000	4.206370
368.000000	4.327573
367.000000	4.320525
366.000000	4.385167
365.000000	4.408290
364.000000	4.366857
363.000000	4.428920
362.000000	4.309264
361.000000	4.271785
360.000000	4.337717
359.000000	4.383018
358.000000	4.402101
357.000000	4.329551
356.000000	4.446026
355.000000	4.422903
354.000000	4.390496
353.000000	4.369780
352.000000	4.397717
351.000000	4.347688
350.000000	4.332215
349.000000	4.490468
348.000000	4.476972
347.000000	4.506198
346.000000	4.565253
345.000000	4.403992
344.000000	4.395740
343.000000	4.448433
342.000000	4.482731
341.000000	4.430811
340.000000	4.433132
339.000000	4.357745
338.000000	4.362301
337.000000	4.490984
336.000000	4.555196
335.000000	4.620611
334.000000	4.684394
333.000000	4.526055
332.000000	4.461327
331.000000	4.677947
330.000000	4.403390
329.000000	4.593104
328.000000	4.808434
327.000000	4.727374
326.000000	4.988520
325.000000	4.593792
324.000000	4.805769
323.000000	4.817632
322.000000	4.454193
321.000000	5.052647
320.000000	4.853993
319.000000	5.311644
318.000000	5.147203
317.000000	5.103191
316.000000	4.496915
315.000000	4.454193
314.000000	4.497946
313.000000	4.493218
312.000000	4.473104
311.000000	4.508090
310.000000	4.482216
309.000000	4.521241
308.000000	4.512044
307.000000	4.508004
306.000000	4.475167
305.000000	4.518491
304.000000	4.532760
303.000000	4.601786
302.000000	4.553047
301.000000	4.573333
300.000000	4.516600
299.000000	4.491499
298.000000	4.590869
297.000000	4.577116
296.000000	4.593878
295.000000	4.606514
294.000000	4.631528
293.000000	4.596714
292.000000	4.665225
291.000000	4.607116
290.000000	4.687316
289.000000	4.656886
288.000000	4.624995
287.000000	4.671242
286.000000	4.732961
285.000000	4.689895
284.000000	4.714222
283.000000	4.737689
282.000000	4.703219
281.000000	4.699179
280.000000	4.750583
279.000000	4.726170
278.000000	4.782302
277.000000	4.800440
276.000000	4.781099
275.000000	4.814967
274.000000	4.839552
273.000000	4.826915
272.000000	4.841271
271.000000	4.862847
270.000000	4.870153
269.000000	4.931615
268.000000	4.916916
267.000000	4.899122
266.000000	4.961873
265.000000	4.945196
264.000000	5.016285
263.000000	5.028492
262.000000	5.035455
261.000000	5.034251
260.000000	5.095799
259.000000	5.106973
258.000000	5.134051
257.000000	5.142131
256.000000	5.122188
255.000000	5.183048
254.000000	5.140068
253.000000	5.138435
252.000000	5.206429
251.000000	5.191214
250.000000	5.219065
