PE UV       SUBTECH     SPECTRUM    ASCII       PEDS        4.00        
   -1
CICIMAUCR0071-2.Sample.ASC
24/04/18
15:50:28.00
24/04/18
15:50:28.00
Vinicio Soto Monge
C. resplendens
250,000000
1
Lambda 1050
1050L1511233
PerkinElmer UV WinLab 6.3.2.0749 / 2.02.05 Lambda 900 UV/VIS/NIR, Aug  7 2015 09:38:08

0
0
3350/servo 860,8/2
0
0
UV/VIS
1
1
1
DoubleDePol,CommonBeamDepol,RBeamAtt,SBeamAtt,60mm sphere, WB InGaAs Detector
0
0
0
0
Program
Program
3350/servo 860,8/2
3350/0,2 860,8/0,2
3350/0,2 860,8/0,2
0
15.00
 
 
 
0
 
860,8
319,2
860,8
Front
100
on
S:100 R:100
0
0
0
0
 
0
 
 
 
0
 
 
0
0
0
0
0
 
 
 
 
0
0


0
0
#HDR
-1
-1
#GR
nm
%R
1.0
0.0
2500,000000
-1,000000
2251
8
94,034700
5,881900
#DATA
2500.000000	13.970200
2499.000000	13.903500
2498.000000	13.849600
2497.000000	13.795700
2496.000000	13.805300
2495.000000	13.867200
2494.000000	13.823000
2493.000000	13.751500
2492.000000	13.762200
2491.000000	13.780600
2490.000000	13.691600
2489.000000	13.778100
2488.000000	13.715400
2487.000000	13.735800
2486.000000	13.686300
2485.000000	13.791900
2484.000000	13.725200
2483.000000	13.721400
2482.000000	13.730000
2481.000000	13.737800
2480.000000	13.751500
2479.000000	13.771500
2478.000000	13.817200
2477.000000	13.822300
2476.000000	13.824700
2475.000000	13.911900
2474.000000	13.905700
2473.000000	13.917600
2472.000000	13.951200
2471.000000	13.988800
2470.000000	14.024200
2469.000000	14.030800
2468.000000	14.103100
2467.000000	14.108200
2466.000000	14.157900
2465.000000	14.208200
2464.000000	14.269000
2463.000000	14.334400
2462.000000	14.373500
2461.000000	14.424800
2460.000000	14.496400
2459.000000	14.577500
2458.000000	14.615800
2457.000000	14.703700
2456.000000	14.790500
2455.000000	14.841500
2454.000000	14.910700
2453.000000	15.033900
2452.000000	15.100700
2451.000000	15.201000
2450.000000	15.286800
2449.000000	15.378800
2448.000000	15.479800
2447.000000	15.593700
2446.000000	15.686200
2445.000000	15.784600
2444.000000	15.885400
2443.000000	15.976400
2442.000000	16.087800
2441.000000	16.190600
2440.000000	16.282100
2439.000000	16.382200
2438.000000	16.498900
2437.000000	16.597700
2436.000000	16.697500
2435.000000	16.792100
2434.000000	16.889100
2433.000000	16.990200
2432.000000	17.094400
2431.000000	17.188100
2430.000000	17.296000
2429.000000	17.373100
2428.000000	17.466500
2427.000000	17.564100
2426.000000	17.643200
2425.000000	17.733200
2424.000000	17.823000
2423.000000	17.893300
2422.000000	17.964600
2421.000000	18.039000
2420.000000	18.109100
2419.000000	18.171800
2418.000000	18.236100
2417.000000	18.291100
2416.000000	18.359000
2415.000000	18.424500
2414.000000	18.476300
2413.000000	18.523000
2412.000000	18.545400
2411.000000	18.603200
2410.000000	18.639700
2409.000000	18.675600
2408.000000	18.708400
2407.000000	18.741600
2406.000000	18.765200
2405.000000	18.796500
2404.000000	18.832700
2403.000000	18.855500
2402.000000	18.877900
2401.000000	18.883400
2400.000000	18.900000
2399.000000	18.919500
2398.000000	18.939200
2397.000000	18.973200
2396.000000	18.979400
2395.000000	18.987100
2394.000000	19.005200
2393.000000	19.016900
2392.000000	19.023400
2391.000000	19.023500
2390.000000	19.041300
2389.000000	19.063600
2388.000000	19.067000
2387.000000	19.068100
2386.000000	19.083900
2385.000000	19.085200
2384.000000	19.077100
2383.000000	19.076300
2382.000000	19.073100
2381.000000	19.058300
2380.000000	19.044500
2379.000000	19.042400
2378.000000	19.041800
2377.000000	19.030200
2376.000000	18.997800
2375.000000	18.979700
2374.000000	18.986200
2373.000000	18.980400
2372.000000	18.953100
2371.000000	18.941000
2370.000000	18.935400
2369.000000	18.926800
2368.000000	18.925600
2367.000000	18.920700
2366.000000	18.899400
2365.000000	18.887600
2364.000000	18.899100
2363.000000	18.906500
2362.000000	18.876800
2361.000000	18.850100
2360.000000	18.850600
2359.000000	18.850600
2358.000000	18.830000
2357.000000	18.808600
2356.000000	18.799200
2355.000000	18.777000
2354.000000	18.755200
2353.000000	18.726300
2352.000000	18.713500
2351.000000	18.675900
2350.000000	18.641500
2349.000000	18.628600
2348.000000	18.607200
2347.000000	18.580700
2346.000000	18.571300
2345.000000	18.551600
2344.000000	18.528300
2343.000000	18.511800
2342.000000	18.495500
2341.000000	18.491500
2340.000000	18.487100
2339.000000	18.480200
2338.000000	18.471300
2337.000000	18.475800
2336.000000	18.469500
2335.000000	18.476100
2334.000000	18.467200
2333.000000	18.470400
2332.000000	18.480100
2331.000000	18.501300
2330.000000	18.499900
2329.000000	18.513300
2328.000000	18.536500
2327.000000	18.542800
2326.000000	18.564900
2325.000000	18.578000
2324.000000	18.594900
2323.000000	18.604700
2322.000000	18.600100
2321.000000	18.599300
2320.000000	18.602500
2319.000000	18.588400
2318.000000	18.553200
2317.000000	18.527400
2316.000000	18.499700
2315.000000	18.465300
2314.000000	18.431300
2313.000000	18.399400
2312.000000	18.351000
2311.000000	18.312000
2310.000000	18.276200
2309.000000	18.228600
2308.000000	18.192600
2307.000000	18.169300
2306.000000	18.138600
2305.000000	18.126000
2304.000000	18.102400
2303.000000	18.098300
2302.000000	18.097800
2301.000000	18.085400
2300.000000	18.096200
2299.000000	18.091200
2298.000000	18.095300
2297.000000	18.107200
2296.000000	18.120300
2295.000000	18.145500
2294.000000	18.164900
2293.000000	18.171500
2292.000000	18.184200
2291.000000	18.231700
2290.000000	18.254700
2289.000000	18.274100
2288.000000	18.303800
2287.000000	18.334300
2286.000000	18.366500
2285.000000	18.407100
2284.000000	18.444000
2283.000000	18.474100
2282.000000	18.502400
2281.000000	18.545100
2280.000000	18.584700
2279.000000	18.615300
2278.000000	18.637300
2277.000000	18.681800
2276.000000	18.708500
2275.000000	18.732200
2274.000000	18.747500
2273.000000	18.781700
2272.000000	18.789500
2271.000000	18.823400
2270.000000	18.848400
2269.000000	18.880100
2268.000000	18.915800
2267.000000	18.980700
2266.000000	19.008000
2265.000000	19.069700
2264.000000	19.133700
2263.000000	19.234100
2262.000000	19.302000
2261.000000	19.409700
2260.000000	19.507300
2259.000000	19.644900
2258.000000	19.746300
2257.000000	19.885600
2256.000000	20.027900
2255.000000	20.166400
2254.000000	20.329600
2253.000000	20.465100
2252.000000	20.619400
2251.000000	20.750300
2250.000000	20.915400
2249.000000	21.075600
2248.000000	21.209600
2247.000000	21.340800
2246.000000	21.459800
2245.000000	21.587100
2244.000000	21.711200
2243.000000	21.800200
2242.000000	21.887600
2241.000000	21.943700
2240.000000	22.040400
2239.000000	22.112400
2238.000000	22.159300
2237.000000	22.185700
2236.000000	22.216800
2235.000000	22.245400
2234.000000	22.274000
2233.000000	22.275200
2232.000000	22.271000
2231.000000	22.274800
2230.000000	22.250800
2229.000000	22.232300
2228.000000	22.197700
2227.000000	22.159100
2226.000000	22.122700
2225.000000	22.073300
2224.000000	22.020600
2223.000000	21.941900
2222.000000	21.890600
2221.000000	21.821600
2220.000000	21.764600
2219.000000	21.674300
2218.000000	21.602700
2217.000000	21.542300
2216.000000	21.459400
2215.000000	21.382200
2214.000000	21.290000
2213.000000	21.218300
2212.000000	21.165200
2211.000000	21.080400
2210.000000	21.006600
2209.000000	20.949200
2208.000000	20.901000
2207.000000	20.835100
2206.000000	20.789100
2205.000000	20.714400
2204.000000	20.671100
2203.000000	20.649800
2202.000000	20.606300
2201.000000	20.559500
2200.000000	20.512700
2199.000000	20.463700
2198.000000	20.449900
2197.000000	20.403500
2196.000000	20.345600
2195.000000	20.314700
2194.000000	20.311800
2193.000000	20.273000
2192.000000	20.255100
2191.000000	20.231500
2190.000000	20.228800
2189.000000	20.192900
2188.000000	20.178000
2187.000000	20.138900
2186.000000	20.129000
2185.000000	20.110300
2184.000000	20.085900
2183.000000	20.074400
2182.000000	20.046800
2181.000000	20.038600
2180.000000	19.997600
2179.000000	19.972900
2178.000000	19.954600
2177.000000	19.952300
2176.000000	19.943500
2175.000000	19.940200
2174.000000	19.932400
2173.000000	19.942900
2172.000000	19.945600
2171.000000	19.947300
2170.000000	19.967800
2169.000000	20.000100
2168.000000	20.040900
2167.000000	20.055800
2166.000000	20.088900
2165.000000	20.123700
2164.000000	20.155700
2163.000000	20.214000
2162.000000	20.264600
2161.000000	20.303900
2160.000000	20.369400
2159.000000	20.445400
2158.000000	20.516700
2157.000000	20.591800
2156.000000	20.672100
2155.000000	20.756800
2154.000000	20.850900
2153.000000	20.944700
2152.000000	21.053000
2151.000000	21.165600
2150.000000	21.260700
2149.000000	21.353900
2148.000000	21.470100
2147.000000	21.574400
2146.000000	21.676900
2145.000000	21.787800
2144.000000	21.890000
2143.000000	21.991200
2142.000000	22.091400
2141.000000	22.181100
2140.000000	22.288600
2139.000000	22.400500
2138.000000	22.498200
2137.000000	22.596300
2136.000000	22.674900
2135.000000	22.752400
2134.000000	22.841100
2133.000000	22.910200
2132.000000	22.997700
2131.000000	23.080200
2130.000000	23.145900
2129.000000	23.204700
2128.000000	23.265500
2127.000000	23.336000
2126.000000	23.396800
2125.000000	23.441200
2124.000000	23.501400
2123.000000	23.532200
2122.000000	23.579100
2121.000000	23.620300
2120.000000	23.645700
2119.000000	23.687200
2118.000000	23.693800
2117.000000	23.721900
2116.000000	23.750800
2115.000000	23.768200
2114.000000	23.782700
2113.000000	23.806200
2112.000000	23.822500
2111.000000	23.820700
2110.000000	23.813900
2109.000000	23.828900
2108.000000	23.842000
2107.000000	23.838300
2106.000000	23.843800
2105.000000	23.834900
2104.000000	23.826600
2103.000000	23.823800
2102.000000	23.835800
2101.000000	23.844700
2100.000000	23.833400
2099.000000	23.842600
2098.000000	23.863100
2097.000000	23.867700
2096.000000	23.864000
2095.000000	23.860300
2094.000000	23.876700
2093.000000	23.891800
2092.000000	23.916000
2091.000000	23.936000
2090.000000	23.938100
2089.000000	23.962400
2088.000000	23.980700
2087.000000	23.989800
2086.000000	23.993900
2085.000000	23.986600
2084.000000	23.978100
2083.000000	23.970400
2082.000000	23.944700
2081.000000	23.925500
2080.000000	23.893800
2079.000000	23.841000
2078.000000	23.784200
2077.000000	23.749100
2076.000000	23.691500
2075.000000	23.625500
2074.000000	23.549300
2073.000000	23.452800
2072.000000	23.367500
2071.000000	23.276700
2070.000000	23.181700
2069.000000	23.073700
2068.000000	22.977300
2067.000000	22.866300
2066.000000	22.759200
2065.000000	22.644300
2064.000000	22.532700
2063.000000	22.415800
2062.000000	22.303900
2061.000000	22.196800
2060.000000	22.098900
2059.000000	22.016400
2058.000000	21.943000
2057.000000	21.879300
2056.000000	21.818800
2055.000000	21.770800
2054.000000	21.763300
2053.000000	21.773400
2052.000000	21.783200
2051.000000	21.818700
2050.000000	21.876800
2049.000000	21.939000
2048.000000	22.030500
2047.000000	22.151400
2046.000000	22.264900
2045.000000	22.393300
2044.000000	22.519100
2043.000000	22.644200
2042.000000	22.800400
2041.000000	22.935700
2040.000000	23.073200
2039.000000	23.212200
2038.000000	23.345600
2037.000000	23.460700
2036.000000	23.591900
2035.000000	23.705800
2034.000000	23.817600
2033.000000	23.923400
2032.000000	24.020800
2031.000000	24.114300
2030.000000	24.206100
2029.000000	24.289300
2028.000000	24.373600
2027.000000	24.440200
2026.000000	24.514200
2025.000000	24.579600
2024.000000	24.635700
2023.000000	24.695600
2022.000000	24.751600
2021.000000	24.773700
2020.000000	24.823300
2019.000000	24.868300
2018.000000	24.893100
2017.000000	24.925200
2016.000000	24.930700
2015.000000	24.947000
2014.000000	24.961400
2013.000000	24.955600
2012.000000	24.969500
2011.000000	24.962900
2010.000000	24.958800
2009.000000	24.936600
2008.000000	24.924900
2007.000000	24.898700
2006.000000	24.851800
2005.000000	24.808300
2004.000000	24.777200
2003.000000	24.712100
2002.000000	24.653600
2001.000000	24.592100
2000.000000	24.540800
1999.000000	24.457400
1998.000000	24.403000
1997.000000	24.337400
1996.000000	24.241900
1995.000000	24.154900
1994.000000	24.081600
1993.000000	23.995900
1992.000000	23.902900
1991.000000	23.821400
1990.000000	23.709600
1989.000000	23.622400
1988.000000	23.540400
1987.000000	23.426800
1986.000000	23.321200
1985.000000	23.202600
1984.000000	23.111700
1983.000000	23.020800
1982.000000	22.916100
1981.000000	22.798500
1980.000000	22.690300
1979.000000	22.601300
1978.000000	22.494100
1977.000000	22.379500
1976.000000	22.294100
1975.000000	22.214300
1974.000000	22.092800
1973.000000	22.014300
1972.000000	21.914600
1971.000000	21.812300
1970.000000	21.711300
1969.000000	21.632900
1968.000000	21.540300
1967.000000	21.461600
1966.000000	21.358200
1965.000000	21.271200
1964.000000	21.195800
1963.000000	21.104600
1962.000000	21.000000
1961.000000	20.932600
1960.000000	20.790800
1959.000000	20.706200
1958.000000	20.614000
1957.000000	20.529800
1956.000000	20.457100
1955.000000	20.366000
1954.000000	20.261500
1953.000000	20.175900
1952.000000	20.077200
1951.000000	20.029000
1950.000000	19.956100
1949.000000	19.869500
1948.000000	19.794300
1947.000000	19.725900
1946.000000	19.662900
1945.000000	19.607800
1944.000000	19.539800
1943.000000	19.504000
1942.000000	19.464900
1941.000000	19.455600
1940.000000	19.433100
1939.000000	19.404800
1938.000000	19.387200
1937.000000	19.386600
1936.000000	19.378000
1935.000000	19.374600
1934.000000	19.403500
1933.000000	19.440500
1932.000000	19.491300
1931.000000	19.545500
1930.000000	19.633100
1929.000000	19.673800
1928.000000	19.758200
1927.000000	19.846000
1926.000000	19.951700
1925.000000	20.071900
1924.000000	20.189100
1923.000000	20.333400
1922.000000	20.502100
1921.000000	20.656900
1920.000000	20.847300
1919.000000	21.021600
1918.000000	21.207500
1917.000000	21.424400
1916.000000	21.685200
1915.000000	21.902800
1914.000000	22.193000
1913.000000	22.480000
1912.000000	22.791700
1911.000000	23.084600
1910.000000	23.393200
1909.000000	23.717500
1908.000000	24.091900
1907.000000	24.496900
1906.000000	24.949200
1905.000000	25.434600
1904.000000	25.918500
1903.000000	26.367000
1902.000000	26.872000
1901.000000	27.386600
1900.000000	27.954500
1899.000000	28.546400
1898.000000	29.097500
1897.000000	29.688000
1896.000000	30.238900
1895.000000	30.780200
1894.000000	31.356600
1893.000000	31.966000
1892.000000	32.593400
1891.000000	33.231500
1890.000000	33.812000
1889.000000	34.356100
1888.000000	34.920500
1887.000000	35.427800
1886.000000	35.936400
1885.000000	36.447200
1884.000000	36.958300
1883.000000	37.415000
1882.000000	37.820400
1881.000000	38.220000
1880.000000	38.610300
1879.000000	38.966900
1878.000000	39.325000
1877.000000	39.675600
1876.000000	39.999000
1875.000000	40.313300
1874.000000	40.586100
1873.000000	40.873000
1872.000000	41.121600
1871.000000	41.359500
1870.000000	41.530100
1869.000000	41.682100
1868.000000	41.854800
1867.000000	41.965900
1866.000000	42.048800
1865.000000	42.142300
1864.000000	42.244700
1863.000000	42.343100
1862.000000	42.453800
1861.000000	42.588800
1860.000000	42.712700
1859.000000	42.777600
1858.000000	42.838000
1857.000000	42.902300
1856.000000	42.956600
1855.000000	43.014200
1854.000000	43.049100
1853.000000	43.054500
1852.000000	43.061300
1851.000000	43.100300
1850.000000	43.168300
1849.000000	43.236600
1848.000000	43.243100
1847.000000	43.211900
1846.000000	43.122500
1845.000000	43.062700
1844.000000	43.076900
1843.000000	43.092700
1842.000000	43.134900
1841.000000	43.142400
1840.000000	43.094500
1839.000000	43.051300
1838.000000	43.009600
1837.000000	42.970500
1836.000000	42.931800
1835.000000	42.862600
1834.000000	42.788600
1833.000000	42.746000
1832.000000	42.720700
1831.000000	42.716800
1830.000000	42.687400
1829.000000	42.642000
1828.000000	42.603300
1827.000000	42.558100
1826.000000	42.530600
1825.000000	42.505300
1824.000000	42.482500
1823.000000	42.492100
1822.000000	42.565000
1821.000000	42.603700
1820.000000	42.560400
1819.000000	42.503100
1818.000000	42.472300
1817.000000	42.477200
1816.000000	42.479300
1815.000000	42.460700
1814.000000	42.429500
1813.000000	42.424300
1812.000000	42.413300
1811.000000	42.368600
1810.000000	42.303100
1809.000000	42.285200
1808.000000	42.270700
1807.000000	42.255100
1806.000000	42.224800
1805.000000	42.178200
1804.000000	42.147800
1803.000000	42.141500
1802.000000	42.140300
1801.000000	42.112600
1800.000000	42.085900
1799.000000	42.034400
1798.000000	42.008300
1797.000000	41.991000
1796.000000	41.971800
1795.000000	41.946000
1794.000000	41.921000
1793.000000	41.913600
1792.000000	41.889300
1791.000000	41.868200
1790.000000	41.861000
1789.000000	41.853300
1788.000000	41.847700
1787.000000	41.865400
1786.000000	41.870000
1785.000000	41.871700
1784.000000	41.850500
1783.000000	41.846600
1782.000000	41.852200
1781.000000	41.828700
1780.000000	41.801000
1779.000000	41.775000
1778.000000	41.741700
1777.000000	41.706400
1776.000000	41.671300
1775.000000	41.623300
1774.000000	41.574200
1773.000000	41.509500
1772.000000	41.470800
1771.000000	41.408600
1770.000000	41.369300
1769.000000	41.316700
1768.000000	41.258800
1767.000000	41.206000
1766.000000	41.137700
1765.000000	41.099500
1764.000000	41.077200
1763.000000	41.053700
1762.000000	41.028000
1761.000000	41.039100
1760.000000	41.041400
1759.000000	41.040800
1758.000000	41.052500
1757.000000	41.077800
1756.000000	41.074200
1755.000000	41.096800
1754.000000	41.100000
1753.000000	41.102400
1752.000000	41.103100
1751.000000	41.088500
1750.000000	41.080100
1749.000000	41.062600
1748.000000	41.031900
1747.000000	40.983400
1746.000000	40.931300
1745.000000	40.867800
1744.000000	40.780100
1743.000000	40.711500
1742.000000	40.628200
1741.000000	40.529400
1740.000000	40.440800
1739.000000	40.328000
1738.000000	40.240900
1737.000000	40.147400
1736.000000	40.050000
1735.000000	39.967700
1734.000000	39.876200
1733.000000	39.786100
1732.000000	39.710100
1731.000000	39.634500
1730.000000	39.569400
1729.000000	39.504900
1728.000000	39.442900
1727.000000	39.389300
1726.000000	39.357200
1725.000000	39.343500
1724.000000	39.320500
1723.000000	39.361000
1722.000000	39.431900
1721.000000	39.548300
1720.000000	39.735100
1719.000000	39.916900
1718.000000	40.123500
1717.000000	40.370800
1716.000000	40.605600
1715.000000	40.829000
1714.000000	41.051600
1713.000000	41.264700
1712.000000	41.442800
1711.000000	41.602200
1710.000000	41.750300
1709.000000	41.890100
1708.000000	42.013500
1707.000000	42.126100
1706.000000	42.211400
1705.000000	42.292500
1704.000000	42.364200
1703.000000	42.422800
1702.000000	42.475000
1701.000000	42.511200
1700.000000	42.548900
1699.000000	42.583100
1698.000000	42.605400
1697.000000	42.610800
1696.000000	42.600100
1695.000000	42.550900
1694.000000	42.506400
1693.000000	42.437400
1692.000000	42.355600
1691.000000	42.268400
1690.000000	42.213300
1689.000000	42.170900
1688.000000	42.176800
1687.000000	42.223900
1686.000000	42.331700
1685.000000	42.465000
1684.000000	42.645800
1683.000000	42.864300
1682.000000	43.118100
1681.000000	43.322300
1680.000000	43.551100
1679.000000	43.774200
1678.000000	43.955600
1677.000000	44.163900
1676.000000	44.336800
1675.000000	44.503700
1674.000000	44.662200
1673.000000	44.843400
1672.000000	45.000200
1671.000000	45.160800
1670.000000	45.349300
1669.000000	45.542100
1668.000000	45.710200
1667.000000	45.876500
1666.000000	46.037700
1665.000000	46.174700
1664.000000	46.342400
1663.000000	46.506800
1662.000000	46.631800
1661.000000	46.774400
1660.000000	46.897400
1659.000000	47.011100
1658.000000	47.142400
1657.000000	47.219400
1656.000000	47.286200
1655.000000	47.362100
1654.000000	47.406500
1653.000000	47.448800
1652.000000	47.490300
1651.000000	47.525200
1650.000000	47.540400
1649.000000	47.557300
1648.000000	47.555700
1647.000000	47.568500
1646.000000	47.554800
1645.000000	47.543200
1644.000000	47.537100
1643.000000	47.535000
1642.000000	47.547200
1641.000000	47.541600
1640.000000	47.519100
1639.000000	47.507800
1638.000000	47.498800
1637.000000	47.478800
1636.000000	47.471000
1635.000000	47.436100
1634.000000	47.409800
1633.000000	47.376900
1632.000000	47.350600
1631.000000	47.315800
1630.000000	47.284600
1629.000000	47.241100
1628.000000	47.193800
1627.000000	47.147200
1626.000000	47.102800
1625.000000	47.073500
1624.000000	47.029900
1623.000000	46.994600
1622.000000	46.952500
1621.000000	46.902600
1620.000000	46.860600
1619.000000	46.824200
1618.000000	46.789400
1617.000000	46.753500
1616.000000	46.722000
1615.000000	46.677700
1614.000000	46.636600
1613.000000	46.608200
1612.000000	46.551000
1611.000000	46.499100
1610.000000	46.454600
1609.000000	46.399800
1608.000000	46.334200
1607.000000	46.275700
1606.000000	46.208200
1605.000000	46.134800
1604.000000	46.068200
1603.000000	45.993000
1602.000000	45.909400
1601.000000	45.835600
1600.000000	45.760300
1599.000000	45.679600
1598.000000	45.610500
1597.000000	45.548100
1596.000000	45.490100
1595.000000	45.429500
1594.000000	45.375900
1593.000000	45.325100
1592.000000	45.268500
1591.000000	45.214400
1590.000000	45.172500
1589.000000	45.119000
1588.000000	45.070400
1587.000000	45.033300
1586.000000	44.993100
1585.000000	44.936600
1584.000000	44.896100
1583.000000	44.852300
1582.000000	44.801300
1581.000000	44.759400
1580.000000	44.730300
1579.000000	44.692400
1578.000000	44.674600
1577.000000	44.659200
1576.000000	44.645300
1575.000000	44.640000
1574.000000	44.627500
1573.000000	44.620500
1572.000000	44.610100
1571.000000	44.611800
1570.000000	44.631600
1569.000000	44.649800
1568.000000	44.671200
1567.000000	44.684400
1566.000000	44.703400
1565.000000	44.727900
1564.000000	44.744200
1563.000000	44.757300
1562.000000	44.756100
1561.000000	44.746300
1560.000000	44.732900
1559.000000	44.722100
1558.000000	44.697800
1557.000000	44.654900
1556.000000	44.618500
1555.000000	44.579700
1554.000000	44.507700
1553.000000	44.436400
1552.000000	44.372900
1551.000000	44.292200
1550.000000	44.213200
1549.000000	44.137000
1548.000000	44.050700
1547.000000	43.954600
1546.000000	43.879800
1545.000000	43.815300
1544.000000	43.757900
1543.000000	43.697600
1542.000000	43.644400
1541.000000	43.598100
1540.000000	43.554000
1539.000000	43.513300
1538.000000	43.467500
1537.000000	43.422800
1536.000000	43.385400
1535.000000	43.343400
1534.000000	43.292500
1533.000000	43.226100
1532.000000	43.160700
1531.000000	43.110300
1530.000000	43.046300
1529.000000	42.988700
1528.000000	42.918000
1527.000000	42.865900
1526.000000	42.800000
1525.000000	42.731700
1524.000000	42.665100
1523.000000	42.598900
1522.000000	42.530000
1521.000000	42.449100
1520.000000	42.386400
1519.000000	42.310600
1518.000000	42.235700
1517.000000	42.169800
1516.000000	42.093400
1515.000000	42.013700
1514.000000	41.944200
1513.000000	41.868700
1512.000000	41.796700
1511.000000	41.704300
1510.000000	41.621900
1509.000000	41.539300
1508.000000	41.469300
1507.000000	41.393500
1506.000000	41.313100
1505.000000	41.249200
1504.000000	41.188800
1503.000000	41.118500
1502.000000	41.050800
1501.000000	40.986700
1500.000000	40.951700
1499.000000	40.909800
1498.000000	40.862700
1497.000000	40.825500
1496.000000	40.810200
1495.000000	40.794100
1494.000000	40.783000
1493.000000	40.768800
1492.000000	40.777700
1491.000000	40.798100
1490.000000	40.796500
1489.000000	40.800100
1488.000000	40.811900
1487.000000	40.819300
1486.000000	40.841200
1485.000000	40.859800
1484.000000	40.872600
1483.000000	40.887400
1482.000000	40.904600
1481.000000	40.940900
1480.000000	40.943800
1479.000000	40.994900
1478.000000	41.014300
1477.000000	41.045800
1476.000000	41.094000
1475.000000	41.115800
1474.000000	41.190000
1473.000000	41.268600
1472.000000	41.330000
1471.000000	41.426200
1470.000000	41.483300
1469.000000	41.545800
1468.000000	41.605300
1467.000000	41.709300
1466.000000	41.793700
1465.000000	41.846600
1464.000000	41.958300
1463.000000	42.057200
1462.000000	42.141200
1461.000000	42.227000
1460.000000	42.338900
1459.000000	42.432200
1458.000000	42.517700
1457.000000	42.626500
1456.000000	42.733700
1455.000000	42.845300
1454.000000	42.914200
1453.000000	43.025500
1452.000000	43.161700
1451.000000	43.273500
1450.000000	43.368200
1449.000000	43.419200
1448.000000	43.495300
1447.000000	43.632400
1446.000000	43.771700
1445.000000	43.877100
1444.000000	43.943500
1443.000000	44.037000
1442.000000	44.175200
1441.000000	44.289100
1440.000000	44.405700
1439.000000	44.534700
1438.000000	44.667200
1437.000000	44.789700
1436.000000	44.914500
1435.000000	45.055700
1434.000000	45.244600
1433.000000	45.384200
1432.000000	45.576400
1431.000000	45.724300
1430.000000	45.889100
1429.000000	46.089700
1428.000000	46.318500
1427.000000	46.505600
1426.000000	46.728000
1425.000000	47.008600
1424.000000	47.252400
1423.000000	47.504700
1422.000000	47.728600
1421.000000	48.022600
1420.000000	48.380900
1419.000000	48.721800
1418.000000	49.016200
1417.000000	49.255100
1416.000000	49.634400
1415.000000	50.037000
1414.000000	50.465200
1413.000000	50.816800
1412.000000	51.185700
1411.000000	51.608400
1410.000000	52.058500
1409.000000	52.580600
1408.000000	53.028000
1407.000000	53.469800
1406.000000	53.920300
1405.000000	54.431800
1404.000000	54.828300
1403.000000	55.277200
1402.000000	55.759500
1401.000000	56.300200
1400.000000	56.833000
1399.000000	57.164000
1398.000000	57.431800
1397.000000	57.884200
1396.000000	58.402100
1395.000000	58.809000
1394.000000	59.099700
1393.000000	59.397000
1392.000000	59.788700
1391.000000	60.139100
1390.000000	60.457300
1389.000000	60.840100
1388.000000	61.301700
1387.000000	61.612300
1386.000000	61.924100
1385.000000	62.249200
1384.000000	62.633400
1383.000000	62.896200
1382.000000	63.197700
1381.000000	63.378800
1380.000000	63.481800
1379.000000	63.676500
1378.000000	63.822800
1377.000000	63.957200
1376.000000	64.104600
1375.000000	64.254200
1374.000000	64.370600
1373.000000	64.558700
1372.000000	64.734000
1371.000000	64.915000
1370.000000	65.040700
1369.000000	65.188300
1368.000000	65.390500
1367.000000	65.501400
1366.000000	65.636200
1365.000000	65.801300
1364.000000	65.902900
1363.000000	65.984500
1362.000000	66.132700
1361.000000	66.252500
1360.000000	66.292300
1359.000000	66.326800
1358.000000	66.403400
1357.000000	66.508800
1356.000000	66.642700
1355.000000	66.826200
1354.000000	66.965100
1353.000000	67.093400
1352.000000	67.272000
1351.000000	67.469900
1350.000000	67.673700
1349.000000	67.892000
1348.000000	68.146000
1347.000000	68.376600
1346.000000	68.554900
1345.000000	68.750000
1344.000000	68.986300
1343.000000	69.173000
1342.000000	69.362600
1341.000000	69.544400
1340.000000	69.709900
1339.000000	69.873200
1338.000000	70.025800
1337.000000	70.177200
1336.000000	70.329100
1335.000000	70.469500
1334.000000	70.604900
1333.000000	70.733000
1332.000000	70.861500
1331.000000	70.971800
1330.000000	71.083700
1329.000000	71.191400
1328.000000	71.290600
1327.000000	71.377500
1326.000000	71.460700
1325.000000	71.542700
1324.000000	71.624800
1323.000000	71.704000
1322.000000	71.775200
1321.000000	71.837400
1320.000000	71.908700
1319.000000	71.989200
1318.000000	72.043800
1317.000000	72.105000
1316.000000	72.171100
1315.000000	72.209000
1314.000000	72.267600
1313.000000	72.326200
1312.000000	72.375200
1311.000000	72.426000
1310.000000	72.473800
1309.000000	72.519500
1308.000000	72.557400
1307.000000	72.594000
1306.000000	72.634800
1305.000000	72.664900
1304.000000	72.679300
1303.000000	72.702400
1302.000000	72.734500
1301.000000	72.755500
1300.000000	72.763200
1299.000000	72.766500
1298.000000	72.779000
1297.000000	72.780600
1296.000000	72.779200
1295.000000	72.785000
1294.000000	72.775300
1293.000000	72.761900
1292.000000	72.747400
1291.000000	72.734600
1290.000000	72.720900
1289.000000	72.700300
1288.000000	72.666800
1287.000000	72.642900
1286.000000	72.618400
1285.000000	72.577600
1284.000000	72.544400
1283.000000	72.514700
1282.000000	72.484200
1281.000000	72.447700
1280.000000	72.432400
1279.000000	72.415400
1278.000000	72.392100
1277.000000	72.375500
1276.000000	72.363000
1275.000000	72.352800
1274.000000	72.354700
1273.000000	72.342500
1272.000000	72.338700
1271.000000	72.357000
1270.000000	72.368300
1269.000000	72.356600
1268.000000	72.348600
1267.000000	72.354400
1266.000000	72.355800
1265.000000	72.360900
1264.000000	72.358600
1263.000000	72.341500
1262.000000	72.343000
1261.000000	72.350000
1260.000000	72.336400
1259.000000	72.314300
1258.000000	72.307800
1257.000000	72.305500
1256.000000	72.301200
1255.000000	72.264200
1254.000000	72.238800
1253.000000	72.215500
1252.000000	72.194600
1251.000000	72.156600
1250.000000	72.091500
1249.000000	72.055600
1248.000000	72.005800
1247.000000	71.944100
1246.000000	71.883700
1245.000000	71.822100
1244.000000	71.768500
1243.000000	71.676000
1242.000000	71.600900
1241.000000	71.548200
1240.000000	71.492000
1239.000000	71.420900
1238.000000	71.360200
1237.000000	71.295500
1236.000000	71.240000
1235.000000	71.197300
1234.000000	71.137900
1233.000000	71.085400
1232.000000	71.045300
1231.000000	70.976200
1230.000000	70.905300
1229.000000	70.847900
1228.000000	70.794800
1227.000000	70.721800
1226.000000	70.661500
1225.000000	70.593200
1224.000000	70.514400
1223.000000	70.432700
1222.000000	70.363400
1221.000000	70.288900
1220.000000	70.210100
1219.000000	70.132200
1218.000000	70.060200
1217.000000	69.995200
1216.000000	69.927900
1215.000000	69.858700
1214.000000	69.799300
1213.000000	69.727300
1212.000000	69.655800
1211.000000	69.625900
1210.000000	69.544100
1209.000000	69.463500
1208.000000	69.412500
1207.000000	69.362600
1206.000000	69.295800
1205.000000	69.248100
1204.000000	69.188100
1203.000000	69.115400
1202.000000	69.047800
1201.000000	68.998100
1200.000000	68.929700
1199.000000	68.868500
1198.000000	68.792800
1197.000000	68.714200
1196.000000	68.642800
1195.000000	68.546800
1194.000000	68.480500
1193.000000	68.398600
1192.000000	68.318000
1191.000000	68.230900
1190.000000	68.182300
1189.000000	68.119800
1188.000000	68.066500
1187.000000	68.054500
1186.000000	68.056700
1185.000000	68.066000
1184.000000	68.101200
1183.000000	68.133500
1182.000000	68.213100
1181.000000	68.270000
1180.000000	68.322000
1179.000000	68.405500
1178.000000	68.489700
1177.000000	68.561000
1176.000000	68.644400
1175.000000	68.705000
1174.000000	68.781400
1173.000000	68.861200
1172.000000	68.928100
1171.000000	69.032000
1170.000000	69.145000
1169.000000	69.265200
1168.000000	69.383900
1167.000000	69.522200
1166.000000	69.666000
1165.000000	69.825800
1164.000000	69.969900
1163.000000	70.154300
1162.000000	70.315400
1161.000000	70.485200
1160.000000	70.678500
1159.000000	70.823800
1158.000000	70.974400
1157.000000	71.120000
1156.000000	71.263500
1155.000000	71.381300
1154.000000	71.535600
1153.000000	71.629400
1152.000000	71.728700
1151.000000	71.812800
1150.000000	71.878500
1149.000000	71.968400
1148.000000	72.047500
1147.000000	72.140600
1146.000000	72.209600
1145.000000	72.296500
1144.000000	72.370800
1143.000000	72.428100
1142.000000	72.497600
1141.000000	72.589800
1140.000000	72.688500
1139.000000	72.785400
1138.000000	72.909600
1137.000000	73.020800
1136.000000	73.182900
1135.000000	73.298600
1134.000000	73.399200
1133.000000	73.460400
1132.000000	73.505200
1131.000000	73.621300
1130.000000	73.706400
1129.000000	73.790000
1128.000000	73.847800
1127.000000	73.884000
1126.000000	73.926300
1125.000000	73.960900
1124.000000	73.991900
1123.000000	74.010800
1122.000000	74.037000
1121.000000	74.032400
1120.000000	74.030600
1119.000000	74.006600
1118.000000	74.013200
1117.000000	74.009200
1116.000000	73.984300
1115.000000	73.950400
1114.000000	73.928300
1113.000000	73.897600
1112.000000	73.899500
1111.000000	73.880600
1110.000000	73.879300
1109.000000	73.848400
1108.000000	73.823300
1107.000000	73.811900
1106.000000	73.767400
1105.000000	73.749100
1104.000000	73.725400
1103.000000	73.709000
1102.000000	73.681000
1101.000000	73.651400
1100.000000	73.619400
1099.000000	73.593600
1098.000000	73.581900
1097.000000	73.540000
1096.000000	73.507400
1095.000000	73.475100
1094.000000	73.442300
1093.000000	73.413200
1092.000000	73.368400
1091.000000	73.333900
1090.000000	73.295400
1089.000000	73.256000
1088.000000	73.195700
1087.000000	73.148400
1086.000000	73.113100
1085.000000	73.071000
1084.000000	73.020900
1083.000000	72.977100
1082.000000	72.918800
1081.000000	72.844000
1080.000000	72.803100
1079.000000	72.746700
1078.000000	72.693800
1077.000000	72.635000
1076.000000	72.574000
1075.000000	72.518900
1074.000000	72.459100
1073.000000	72.393400
1072.000000	72.328000
1071.000000	72.286500
1070.000000	72.219900
1069.000000	72.156100
1068.000000	72.092900
1067.000000	72.031500
1066.000000	71.975000
1065.000000	71.896500
1064.000000	71.828800
1063.000000	71.781400
1062.000000	71.733300
1061.000000	71.674700
1060.000000	71.613500
1059.000000	71.552200
1058.000000	71.487700
1057.000000	71.431200
1056.000000	71.380400
1055.000000	71.324700
1054.000000	71.252800
1053.000000	71.201100
1052.000000	71.168600
1051.000000	71.119000
1050.000000	71.069500
1049.000000	71.015800
1048.000000	70.964200
1047.000000	70.933100
1046.000000	70.897300
1045.000000	70.848000
1044.000000	70.805800
1043.000000	70.768000
1042.000000	70.727200
1041.000000	70.686100
1040.000000	70.648400
1039.000000	70.616200
1038.000000	70.572500
1037.000000	70.531200
1036.000000	70.493400
1035.000000	70.451500
1034.000000	70.408300
1033.000000	70.373600
1032.000000	70.339800
1031.000000	70.303000
1030.000000	70.255300
1029.000000	70.216800
1028.000000	70.197500
1027.000000	70.168400
1026.000000	70.132100
1025.000000	70.103800
1024.000000	70.076500
1023.000000	70.052700
1022.000000	70.027400
1021.000000	69.992100
1020.000000	69.961700
1019.000000	69.936100
1018.000000	69.908200
1017.000000	69.897700
1016.000000	69.879200
1015.000000	69.847000
1014.000000	69.836700
1013.000000	69.828800
1012.000000	69.811800
1011.000000	69.797300
1010.000000	69.781800
1009.000000	69.764800
1008.000000	69.757000
1007.000000	69.744100
1006.000000	69.738600
1005.000000	69.734400
1004.000000	69.721300
1003.000000	69.728100
1002.000000	69.740200
1001.000000	69.721700
1000.000000	69.704200
999.000000	69.691300
998.000000	69.702700
997.000000	69.707400
996.000000	69.716200
995.000000	69.697200
994.000000	69.705400
993.000000	69.712500
992.000000	69.728200
991.000000	69.737200
990.000000	69.749700
989.000000	69.760100
988.000000	69.762400
987.000000	69.775200
986.000000	69.802300
985.000000	69.825100
984.000000	69.846000
983.000000	69.884100
982.000000	69.918500
981.000000	69.959600
980.000000	69.995300
979.000000	70.050700
978.000000	70.081900
977.000000	70.119500
976.000000	70.168000
975.000000	70.220100
974.000000	70.268200
973.000000	70.319500
972.000000	70.369400
971.000000	70.430200
970.000000	70.485700
969.000000	70.541500
968.000000	70.605400
967.000000	70.657900
966.000000	70.740700
965.000000	70.793400
964.000000	70.856800
963.000000	70.954300
962.000000	71.027300
961.000000	71.065700
960.000000	71.123900
959.000000	71.192300
958.000000	71.274300
957.000000	71.335600
956.000000	71.433100
955.000000	71.464800
954.000000	71.527600
953.000000	71.592900
952.000000	71.659900
951.000000	71.747200
950.000000	71.789000
949.000000	71.844700
948.000000	71.888000
947.000000	71.980300
946.000000	71.999700
945.000000	72.061700
944.000000	72.147800
943.000000	72.186200
942.000000	72.229300
941.000000	72.295400
940.000000	72.326600
939.000000	72.362300
938.000000	72.410500
937.000000	72.505100
936.000000	72.527400
935.000000	72.583900
934.000000	72.603500
933.000000	72.661100
932.000000	72.742500
931.000000	72.768500
930.000000	72.854200
929.000000	72.885300
928.000000	72.941700
927.000000	73.008500
926.000000	73.090300
925.000000	73.109800
924.000000	73.156100
923.000000	73.226800
922.000000	73.272300
921.000000	73.316900
920.000000	73.435100
919.000000	73.474300
918.000000	73.518900
917.000000	73.585300
916.000000	73.646900
915.000000	73.688300
914.000000	73.735200
913.000000	73.791100
912.000000	73.826800
911.000000	73.875100
910.000000	73.929500
909.000000	74.035300
908.000000	74.023600
907.000000	74.054600
906.000000	74.075400
905.000000	74.108700
904.000000	74.149000
903.000000	74.169200
902.000000	74.201200
901.000000	74.217600
900.000000	74.248000
899.000000	74.281500
898.000000	74.291700
897.000000	74.337600
896.000000	74.344500
895.000000	74.364200
894.000000	74.391400
893.000000	74.390100
892.000000	74.412700
891.000000	74.389700
890.000000	74.372300
889.000000	74.405900
888.000000	74.398900
887.000000	74.416100
886.000000	74.422700
885.000000	74.429500
884.000000	74.438800
883.000000	74.451800
882.000000	74.484600
881.000000	74.492700
880.000000	74.488800
879.000000	74.497700
878.000000	74.525900
877.000000	74.537400
876.000000	74.564900
875.000000	74.590300
874.000000	74.609200
873.000000	74.619000
872.000000	74.615300
871.000000	74.615800
870.000000	74.627900
869.000000	74.633800
868.000000	74.640200
867.000000	74.622300
866.000000	74.605200
865.000000	74.566900
864.000000	74.555600
863.000000	74.463000
862.000000	74.412400
861.000000	74.240400
860.000000	74.086400
859.000000	73.861900
858.000000	74.252600
857.000000	74.074740
856.000000	73.986643
855.000000	73.924141
854.000000	74.209426
853.000000	74.100143
852.000000	74.065346
851.000000	73.980220
850.000000	74.338936
849.000000	74.204058
848.000000	74.302796
847.000000	74.740501
846.000000	74.467007
845.000000	74.557693
844.000000	74.548777
843.000000	74.690845
842.000000	74.604857
841.000000	74.687394
840.000000	74.717494
839.000000	74.918134
838.000000	74.893593
837.000000	75.206007
836.000000	75.112925
835.000000	75.136603
834.000000	75.128359
833.000000	75.305032
832.000000	75.360249
831.000000	75.615721
830.000000	75.636427
829.000000	75.871097
828.000000	76.033775
827.000000	76.232209
826.000000	76.549225
825.000000	76.643649
824.000000	76.672407
823.000000	77.109346
822.000000	77.395590
821.000000	77.367886
820.000000	77.838856
819.000000	78.183192
818.000000	78.409043
817.000000	78.716376
816.000000	78.846269
815.000000	79.253778
814.000000	79.421920
813.000000	79.556510
812.000000	79.918677
811.000000	80.100239
810.000000	80.276242
809.000000	80.521553
808.000000	80.640709
807.000000	80.716919
806.000000	80.948042
805.000000	81.131139
804.000000	81.310017
803.000000	81.471545
802.000000	81.552452
801.000000	81.714938
800.000000	81.993801
799.000000	82.109027
798.000000	82.316855
797.000000	82.541172
796.000000	82.692730
795.000000	82.894999
794.000000	83.158619
793.000000	83.362613
792.000000	83.533535
791.000000	83.826106
790.000000	84.208308
789.000000	84.463588
788.000000	84.660968
787.000000	84.823741
786.000000	85.144112
785.000000	85.307077
784.000000	85.427097
783.000000	85.706726
782.000000	85.949257
781.000000	86.061032
780.000000	86.221409
779.000000	86.377184
778.000000	86.457996
777.000000	86.602364
776.000000	86.764179
775.000000	86.851797
774.000000	86.887649
773.000000	86.909410
772.000000	87.061639
771.000000	87.192011
770.000000	87.292954
769.000000	87.336283
768.000000	87.471736
767.000000	87.665761
766.000000	87.757597
765.000000	87.849241
764.000000	88.043265
763.000000	88.242562
762.000000	88.363252
761.000000	88.487202
760.000000	88.602907
759.000000	88.744112
758.000000	88.900175
757.000000	89.028822
756.000000	89.231187
755.000000	89.359546
754.000000	89.380444
753.000000	89.476785
752.000000	89.654801
751.000000	89.775395
750.000000	89.855727
749.000000	89.968365
748.000000	90.041987
747.000000	90.034989
746.000000	90.090781
745.000000	90.143505
744.000000	90.083016
743.000000	90.069212
742.000000	90.117430
741.000000	90.072088
740.000000	89.972679
739.000000	89.902508
738.000000	89.786323
737.000000	89.627001
736.000000	89.536315
735.000000	89.387058
734.000000	89.193225
733.000000	89.027672
732.000000	88.909474
731.000000	88.752260
730.000000	88.575395
729.000000	88.489886
728.000000	88.346285
727.000000	88.219555
726.000000	88.076529
725.000000	87.913852
724.000000	87.810608
723.000000	87.717047
722.000000	87.570091
721.000000	87.506822
720.000000	87.453714
719.000000	87.344432
718.000000	87.166224
717.000000	87.036811
716.000000	86.902316
715.000000	86.663428
714.000000	86.483879
713.000000	86.390222
712.000000	86.171561
711.000000	85.952516
710.000000	85.781786
709.000000	85.621025
708.000000	85.424700
707.000000	85.216967
706.000000	85.043649
705.000000	84.789710
704.000000	84.576130
703.000000	84.397731
702.000000	84.192395
701.000000	84.005176
700.000000	83.796197
699.000000	83.588272
698.000000	83.410065
697.000000	83.244224
696.000000	83.028439
695.000000	82.885413
694.000000	82.661958
693.000000	82.529956
692.000000	82.339766
691.000000	82.108068
690.000000	81.925547
689.000000	81.759897
688.000000	81.542003
687.000000	81.327464
686.000000	81.151653
685.000000	80.970091
684.000000	80.735612
683.000000	80.580508
682.000000	80.321680
681.000000	80.100048
680.000000	79.830580
679.000000	79.569068
678.000000	79.299888
677.000000	78.973478
676.000000	78.641700
675.000000	78.289023
674.000000	77.885061
673.000000	77.444959
672.000000	76.979453
671.000000	76.545774
670.000000	76.043361
669.000000	75.597603
668.000000	75.044480
667.000000	74.475347
666.000000	73.956159
665.000000	73.375235
664.000000	72.690397
663.000000	72.088960
662.000000	71.374596
661.000000	70.698003
660.000000	69.997731
659.000000	69.206774
658.000000	68.456271
657.000000	67.704905
656.000000	66.908867
655.000000	66.181083
654.000000	65.439591
653.000000	64.690717
652.000000	63.973670
651.000000	63.296405
650.000000	62.677904
649.000000	62.142802
648.000000	61.669819
647.000000	61.197507
646.000000	60.831698
645.000000	60.537306
644.000000	60.243393
643.000000	60.021185
642.000000	59.899536
641.000000	59.840677
640.000000	59.777983
639.000000	59.780284
638.000000	59.760345
637.000000	59.890429
636.000000	60.006806
635.000000	60.148777
634.000000	60.334941
633.000000	60.585045
632.000000	60.861607
631.000000	61.127240
630.000000	61.515865
629.000000	61.914842
628.000000	62.375171
627.000000	62.881035
626.000000	63.370602
625.000000	63.893337
624.000000	64.461128
623.000000	65.103882
622.000000	65.696213
621.000000	66.352292
620.000000	66.976641
619.000000	67.640294
618.000000	68.309410
617.000000	68.974884
616.000000	69.651669
615.000000	70.364019
614.000000	71.059498
613.000000	71.707237
612.000000	72.441348
611.000000	73.077392
610.000000	73.805655
609.000000	74.420418
608.000000	75.095286
607.000000	75.749544
606.000000	76.382713
605.000000	76.964307
604.000000	77.604377
603.000000	78.204186
602.000000	78.704106
601.000000	79.226937
600.000000	79.731267
599.000000	80.156606
598.000000	80.539383
597.000000	80.954273
596.000000	81.299089
595.000000	81.613133
594.000000	81.851733
593.000000	82.164627
592.000000	82.352804
591.000000	82.523725
590.000000	82.684294
589.000000	82.925962
588.000000	83.047419
587.000000	83.187761
586.000000	83.307876
585.000000	83.410065
584.000000	83.518677
583.000000	83.631123
582.000000	83.688736
581.000000	83.734079
580.000000	83.816040
579.000000	83.876529
578.000000	83.948138
577.000000	83.949384
576.000000	83.931554
575.000000	83.935101
574.000000	83.890142
573.000000	83.813740
572.000000	83.788336
571.000000	83.660169
570.000000	83.500175
569.000000	83.367502
568.000000	83.235788
567.000000	83.052788
566.000000	82.840453
565.000000	82.662725
564.000000	82.470139
563.000000	82.227895
562.000000	82.005304
561.000000	81.780795
560.000000	81.507972
559.000000	81.250103
558.000000	81.020131
557.000000	80.740789
556.000000	80.470746
555.000000	80.178846
554.000000	79.858380
553.000000	79.519412
552.000000	79.148234
551.000000	78.775427
550.000000	78.377504
549.000000	77.971433
548.000000	77.530084
547.000000	77.052308
546.000000	76.587090
545.000000	76.075763
544.000000	75.548426
543.000000	74.981690
542.000000	74.380156
541.000000	73.792139
540.000000	73.138169
539.000000	72.504905
538.000000	71.873078
537.000000	71.199456
536.000000	70.514619
535.000000	69.843777
534.000000	69.109378
533.000000	68.363380
532.000000	67.569452
531.000000	66.749353
530.000000	65.919380
529.000000	65.049145
528.000000	64.129925
527.000000	63.211471
526.000000	62.233392
525.000000	61.234318
524.000000	60.202844
523.000000	59.167151
522.000000	58.115066
521.000000	57.053778
520.000000	56.029685
519.000000	55.024668
518.000000	54.010545
517.000000	53.053938
516.000000	52.107589
515.000000	51.168813
514.000000	50.253043
513.000000	49.333344
512.000000	48.428311
511.000000	47.538520
510.000000	46.654002
509.000000	45.790382
508.000000	44.973446
507.000000	44.142898
506.000000	43.317143
505.000000	42.531363
504.000000	41.775970
503.000000	41.007253
502.000000	40.285700
501.000000	39.583799
500.000000	38.900591
499.000000	38.255536
498.000000	37.647388
497.000000	37.036939
496.000000	36.457165
495.000000	35.901358
494.000000	35.352740
493.000000	34.815338
492.000000	34.276689
491.000000	33.759514
490.000000	33.246557
489.000000	32.735613
488.000000	32.273366
487.000000	31.802109
486.000000	31.365841
485.000000	30.944719
484.000000	30.548234
483.000000	30.181658
482.000000	29.830228
481.000000	29.520882
480.000000	29.235692
479.000000	28.951270
478.000000	28.665889
477.000000	28.401598
476.000000	28.173254
475.000000	27.952676
474.000000	27.736795
473.000000	27.539223
472.000000	27.347883
471.000000	27.176769
470.000000	27.031347
469.000000	26.888800
468.000000	26.778367
467.000000	26.674644
466.000000	26.596709
465.000000	26.538233
464.000000	26.481291
463.000000	26.447164
462.000000	26.411503
461.000000	26.396165
460.000000	26.393673
459.000000	26.374213
458.000000	26.362614
457.000000	26.370570
456.000000	26.369132
455.000000	26.356479
454.000000	26.339990
453.000000	26.316121
452.000000	26.282281
451.000000	26.252660
450.000000	26.200032
449.000000	26.105512
448.000000	26.023550
447.000000	25.956255
446.000000	25.856942
445.000000	25.734910
444.000000	25.590733
443.000000	25.435437
442.000000	25.270650
441.000000	25.078447
440.000000	24.882026
439.000000	24.654258
438.000000	24.424572
437.000000	24.188848
436.000000	23.933088
435.000000	23.691229
434.000000	23.435277
433.000000	23.158811
432.000000	22.892123
431.000000	22.590062
430.000000	22.271034
429.000000	21.957277
428.000000	21.636619
427.000000	21.312318
426.000000	20.953603
425.000000	20.604090
424.000000	20.248634
423.000000	19.888480
422.000000	19.518166
421.000000	19.111999
420.000000	18.709091
419.000000	18.324109
418.000000	17.925899
417.000000	17.505065
416.000000	17.106854
415.000000	16.698290
414.000000	16.294999
413.000000	15.881451
412.000000	15.467423
411.000000	15.054258
410.000000	14.647132
409.000000	14.234159
408.000000	13.844767
407.000000	13.456335
406.000000	13.078543
405.000000	12.729318
404.000000	12.365042
403.000000	12.017926
402.000000	11.682409
401.000000	11.334622
400.000000	11.011951
399.000000	10.721489
398.000000	10.440709
397.000000	10.155232
396.000000	9.884135
395.000000	9.633743
394.000000	9.391213
393.000000	9.148682
392.000000	8.928391
391.000000	8.713373
390.000000	8.524908
389.000000	8.352932
388.000000	8.184215
387.000000	8.037642
386.000000	7.877936
385.000000	7.751590
384.000000	7.630899
383.000000	7.517974
382.000000	7.428822
381.000000	7.331618
380.000000	7.219364
379.000000	7.128870
378.000000	7.051702
377.000000	6.981051
376.000000	6.973957
375.000000	6.696533
374.000000	6.606614
373.000000	6.567503
372.000000	6.601054
371.000000	6.520147
370.000000	6.477968
369.000000	6.582170
368.000000	6.464835
367.000000	6.383640
366.000000	6.263237
365.000000	6.322671
364.000000	6.334175
363.000000	6.277137
362.000000	6.330053
361.000000	6.279725
360.000000	6.238888
359.000000	6.160281
358.000000	6.185301
357.000000	6.190478
356.000000	6.092123
355.000000	6.056175
354.000000	5.977472
353.000000	5.958396
352.000000	5.914491
351.000000	5.936443
350.000000	5.810097
349.000000	5.801470
348.000000	5.822272
347.000000	5.820451
346.000000	5.773191
345.000000	5.879214
344.000000	5.846621
343.000000	5.842882
342.000000	5.855153
341.000000	5.867902
340.000000	5.854098
339.000000	5.856207
338.000000	5.861479
337.000000	5.852085
336.000000	5.851222
335.000000	6.062598
334.000000	6.036523
333.000000	5.879501
332.000000	5.695159
331.000000	5.739926
330.000000	5.788624
329.000000	5.750663
328.000000	5.762550
327.000000	5.925899
326.000000	5.853044
325.000000	5.763604
324.000000	5.903371
323.000000	5.983703
322.000000	5.769931
321.000000	6.305991
320.000000	6.026841
319.000000	6.024541
318.000000	5.993769
317.000000	5.898674
316.000000	5.657102
315.000000	5.638505
314.000000	5.672631
313.000000	5.721329
312.000000	5.680588
311.000000	5.683560
310.000000	5.691995
309.000000	5.701965
308.000000	5.717878
307.000000	5.715769
306.000000	5.718262
305.000000	5.682409
304.000000	5.685573
303.000000	5.701869
302.000000	5.725547
301.000000	5.726122
300.000000	5.710593
299.000000	5.708580
298.000000	5.730149
297.000000	5.733695
296.000000	5.700144
295.000000	5.765234
294.000000	5.762646
293.000000	5.730628
292.000000	5.729094
291.000000	5.784119
290.000000	5.717303
289.000000	5.731395
288.000000	5.721809
287.000000	5.737338
286.000000	5.720850
285.000000	5.702828
284.000000	5.770602
283.000000	5.744528
282.000000	5.795718
281.000000	5.785365
280.000000	5.806838
279.000000	5.813836
278.000000	5.771657
277.000000	5.850168
276.000000	5.890717
275.000000	5.849688
274.000000	5.914875
273.000000	5.923598
272.000000	5.895606
271.000000	5.949001
270.000000	5.962422
269.000000	5.927816
268.000000	6.024157
267.000000	6.025691
266.000000	6.063940
265.000000	6.051957
264.000000	6.138041
263.000000	6.192299
262.000000	6.158556
261.000000	6.239463
260.000000	6.257198
259.000000	6.243106
258.000000	6.259882
257.000000	6.276849
256.000000	6.302444
255.000000	6.334654
254.000000	6.361591
253.000000	6.347691
252.000000	6.371273
251.000000	6.429462
250.000000	6.462534
