PE UV       SUBTECH     SPECTRUM    ASCII       PEDS        4.00        
   -1
CICIMAUCR0013-2.Sample.ASC
24/04/11
15:59:46.00
24/04/11
15:59:46.00
Vinicio Soto Monge
C. resplendens
250,000000
1
Lambda 1050
1050L1511233
PerkinElmer UV WinLab 6.3.2.0749 / 2.02.05 Lambda 900 UV/VIS/NIR, Aug  7 2015 09:38:08

0
0
3350/2 860,8/2
0
0
UV/VIS
1
1
1
DoubleDePol,CommonBeamDepol,RBeamAtt,SBeamAtt,60mm sphere, WB InGaAs Detector
0
0
0
0
Program
Program
3350/2 860,8/2
3350/0,2 860,8/0,2
3350/0,2 860,8/0,2
0
15.00
 
 
 
0
 
860,8
319,2
860,8
Front
100
on
S:100 R:100
0
0
0
0
 
0
 
 
 
0
 
 
0
0
0
0
0
 
 
 
 
0
0


0
0
#HDR
-1
-1
#GR
nm
%R
1.0
0.0
2400,000000
-1,000000
2151
8
74,743200
5,012800
#DATA
2400.000000	17.747000
2399.000000	18.425200
2398.000000	17.013900
2397.000000	16.884700
2396.000000	17.158500
2395.000000	17.639900
2394.000000	18.292900
2393.000000	17.323600
2392.000000	17.608600
2391.000000	16.950300
2390.000000	17.650200
2389.000000	17.510700
2388.000000	16.972000
2387.000000	18.194800
2386.000000	17.242800
2385.000000	18.129700
2384.000000	16.855400
2383.000000	17.912800
2382.000000	18.227600
2381.000000	18.296100
2380.000000	17.961300
2379.000000	17.264600
2378.000000	17.828500
2377.000000	17.389900
2376.000000	17.162800
2375.000000	17.396000
2374.000000	17.418300
2373.000000	16.985800
2372.000000	17.986200
2371.000000	17.413800
2370.000000	17.399300
2369.000000	17.631900
2368.000000	17.419500
2367.000000	17.173600
2366.000000	17.104300
2365.000000	16.738900
2364.000000	17.232900
2363.000000	17.387500
2362.000000	17.254400
2361.000000	16.525800
2360.000000	16.580600
2359.000000	15.942000
2358.000000	16.485700
2357.000000	16.267200
2356.000000	15.619000
2355.000000	15.863200
2354.000000	16.008500
2353.000000	15.177300
2352.000000	15.716600
2351.000000	16.463700
2350.000000	16.133100
2349.000000	15.326600
2348.000000	15.091900
2347.000000	16.329900
2346.000000	16.101900
2345.000000	15.938500
2344.000000	15.119600
2343.000000	16.409400
2342.000000	16.765900
2341.000000	16.933400
2340.000000	16.667000
2339.000000	16.699800
2338.000000	16.831500
2337.000000	16.651000
2336.000000	16.121400
2335.000000	16.612700
2334.000000	16.232200
2333.000000	16.562900
2332.000000	16.772400
2331.000000	16.277600
2330.000000	16.425900
2329.000000	15.976500
2328.000000	16.002600
2327.000000	15.759700
2326.000000	15.634900
2325.000000	15.792600
2324.000000	15.504800
2323.000000	14.990200
2322.000000	15.115400
2321.000000	15.322400
2320.000000	14.881000
2319.000000	14.830300
2318.000000	14.683100
2317.000000	14.326300
2316.000000	14.439900
2315.000000	14.085700
2314.000000	13.712900
2313.000000	13.419300
2312.000000	13.358000
2311.000000	13.367000
2310.000000	13.266700
2309.000000	13.285700
2308.000000	13.613500
2307.000000	13.243500
2306.000000	12.942700
2305.000000	13.035400
2304.000000	13.375800
2303.000000	13.730900
2302.000000	13.884100
2301.000000	13.677200
2300.000000	13.345300
2299.000000	14.183600
2298.000000	14.089900
2297.000000	13.820200
2296.000000	14.003700
2295.000000	14.174200
2294.000000	14.246700
2293.000000	14.188500
2292.000000	14.365400
2291.000000	14.431500
2290.000000	14.572400
2289.000000	14.545300
2288.000000	14.748300
2287.000000	14.967400
2286.000000	14.927700
2285.000000	14.585700
2284.000000	14.045600
2283.000000	13.945600
2282.000000	14.121100
2281.000000	14.486900
2280.000000	14.415400
2279.000000	14.041600
2278.000000	14.001100
2277.000000	13.898400
2276.000000	13.829900
2275.000000	13.761600
2274.000000	13.680200
2273.000000	13.858900
2272.000000	14.021000
2271.000000	14.081900
2270.000000	13.992800
2269.000000	13.762200
2268.000000	13.680200
2267.000000	13.864000
2266.000000	13.971300
2265.000000	14.134300
2264.000000	14.236300
2263.000000	14.400800
2262.000000	14.684900
2261.000000	14.823000
2260.000000	15.057400
2259.000000	15.525700
2258.000000	15.852300
2257.000000	16.017200
2256.000000	16.261100
2255.000000	16.645700
2254.000000	16.792500
2253.000000	16.984500
2252.000000	16.975900
2251.000000	17.365400
2250.000000	17.809300
2249.000000	17.797500
2248.000000	17.891500
2247.000000	18.566600
2246.000000	18.685200
2245.000000	18.498500
2244.000000	18.835500
2243.000000	19.110300
2242.000000	19.357600
2241.000000	19.472600
2240.000000	19.487100
2239.000000	19.553100
2238.000000	19.450500
2237.000000	19.483000
2236.000000	19.426300
2235.000000	19.773400
2234.000000	19.779300
2233.000000	19.806500
2232.000000	20.001800
2231.000000	20.108300
2230.000000	20.165100
2229.000000	20.108400
2228.000000	20.227800
2227.000000	20.158300
2226.000000	20.094600
2225.000000	20.155000
2224.000000	20.170300
2223.000000	20.184800
2222.000000	20.237400
2221.000000	20.439300
2220.000000	20.299900
2219.000000	20.185200
2218.000000	19.968600
2217.000000	19.937400
2216.000000	19.943000
2215.000000	19.857200
2214.000000	20.051100
2213.000000	19.880400
2212.000000	19.708500
2211.000000	19.711600
2210.000000	20.078300
2209.000000	19.998100
2208.000000	19.839300
2207.000000	19.891200
2206.000000	20.144100
2205.000000	19.915200
2204.000000	19.569600
2203.000000	19.954000
2202.000000	19.962500
2201.000000	19.899400
2200.000000	19.781600
2199.000000	19.756400
2198.000000	19.887900
2197.000000	19.700600
2196.000000	19.538900
2195.000000	19.743400
2194.000000	19.720000
2193.000000	19.429800
2192.000000	19.590400
2191.000000	19.583000
2190.000000	19.558700
2189.000000	19.892400
2188.000000	19.492800
2187.000000	19.548300
2186.000000	19.436000
2185.000000	19.661000
2184.000000	19.398500
2183.000000	19.460100
2182.000000	19.375600
2181.000000	19.797400
2180.000000	19.867000
2179.000000	19.822300
2178.000000	19.701900
2177.000000	19.533100
2176.000000	19.559000
2175.000000	19.724600
2174.000000	19.449500
2173.000000	19.414700
2172.000000	19.478600
2171.000000	19.683800
2170.000000	19.673300
2169.000000	19.805500
2168.000000	19.635500
2167.000000	19.720000
2166.000000	19.793700
2165.000000	19.406600
2164.000000	19.862500
2163.000000	20.055300
2162.000000	19.991400
2161.000000	19.866900
2160.000000	20.080200
2159.000000	19.561400
2158.000000	19.656000
2157.000000	19.859600
2156.000000	19.788700
2155.000000	19.989200
2154.000000	20.173300
2153.000000	20.038100
2152.000000	20.050000
2151.000000	20.364500
2150.000000	20.409200
2149.000000	19.888900
2148.000000	20.078300
2147.000000	19.969500
2146.000000	20.176200
2145.000000	20.223300
2144.000000	20.446500
2143.000000	20.356600
2142.000000	20.835600
2141.000000	20.561800
2140.000000	20.896900
2139.000000	20.673600
2138.000000	20.460700
2137.000000	20.616300
2136.000000	20.613300
2135.000000	20.190000
2134.000000	20.347000
2133.000000	20.679500
2132.000000	20.568600
2131.000000	20.802900
2130.000000	21.049700
2129.000000	20.091400
2128.000000	20.565500
2127.000000	20.753400
2126.000000	20.622500
2125.000000	20.904300
2124.000000	20.547000
2123.000000	20.241000
2122.000000	20.737300
2121.000000	20.785300
2120.000000	20.380600
2119.000000	20.439700
2118.000000	20.426400
2117.000000	20.451000
2116.000000	20.432300
2115.000000	20.498600
2114.000000	20.346300
2113.000000	19.994800
2112.000000	20.162600
2111.000000	20.415700
2110.000000	20.211900
2109.000000	20.499300
2108.000000	20.235100
2107.000000	20.239800
2106.000000	19.986800
2105.000000	19.997100
2104.000000	20.132600
2103.000000	19.518300
2102.000000	19.787100
2101.000000	20.100600
2100.000000	19.637900
2099.000000	19.643500
2098.000000	19.632700
2097.000000	19.511600
2096.000000	19.500600
2095.000000	19.646600
2094.000000	19.675100
2093.000000	19.551800
2092.000000	19.541400
2091.000000	19.390700
2090.000000	19.560800
2089.000000	19.593800
2088.000000	19.277400
2087.000000	19.432800
2086.000000	19.491900
2085.000000	19.777400
2084.000000	19.570900
2083.000000	19.504800
2082.000000	19.213500
2081.000000	19.559200
2080.000000	19.581000
2079.000000	19.310800
2078.000000	19.226700
2077.000000	19.200900
2076.000000	19.320400
2075.000000	19.238000
2074.000000	19.072700
2073.000000	19.007500
2072.000000	19.257100
2071.000000	19.363500
2070.000000	19.062700
2069.000000	18.860400
2068.000000	18.977800
2067.000000	19.105300
2066.000000	18.812200
2065.000000	18.983200
2064.000000	18.811900
2063.000000	18.916800
2062.000000	18.771300
2061.000000	18.737800
2060.000000	19.096800
2059.000000	18.983400
2058.000000	18.812400
2057.000000	18.737900
2056.000000	18.883200
2055.000000	18.895800
2054.000000	18.979600
2053.000000	18.978200
2052.000000	18.972900
2051.000000	19.117200
2050.000000	19.314500
2049.000000	19.226000
2048.000000	19.316400
2047.000000	19.477500
2046.000000	19.740200
2045.000000	19.678600
2044.000000	19.871300
2043.000000	20.021100
2042.000000	20.175400
2041.000000	20.332000
2040.000000	20.406900
2039.000000	20.621700
2038.000000	20.814600
2037.000000	20.889600
2036.000000	20.886700
2035.000000	21.043500
2034.000000	21.196400
2033.000000	21.181400
2032.000000	21.266600
2031.000000	21.428400
2030.000000	21.537500
2029.000000	21.565300
2028.000000	21.622600
2027.000000	21.797000
2026.000000	21.874800
2025.000000	22.063300
2024.000000	22.051000
2023.000000	22.055300
2022.000000	22.049800
2021.000000	22.196200
2020.000000	22.304900
2019.000000	22.299300
2018.000000	22.335300
2017.000000	22.331200
2016.000000	22.428400
2015.000000	22.562300
2014.000000	22.643300
2013.000000	22.579600
2012.000000	22.564200
2011.000000	22.668200
2010.000000	22.747200
2009.000000	22.650700
2008.000000	22.536200
2007.000000	22.611000
2006.000000	22.616400
2005.000000	22.603800
2004.000000	22.617100
2003.000000	22.561200
2002.000000	22.518700
2001.000000	22.491300
2000.000000	22.492600
1999.000000	22.502500
1998.000000	22.519500
1997.000000	22.476100
1996.000000	22.389000
1995.000000	22.318500
1994.000000	22.209100
1993.000000	22.155800
1992.000000	22.138200
1991.000000	22.117900
1990.000000	22.077800
1989.000000	22.011800
1988.000000	21.893700
1987.000000	21.842200
1986.000000	21.793000
1985.000000	21.683800
1984.000000	21.635500
1983.000000	21.597900
1982.000000	21.491600
1981.000000	21.396100
1980.000000	21.346400
1979.000000	21.257000
1978.000000	21.177800
1977.000000	21.050500
1976.000000	20.979500
1975.000000	20.949300
1974.000000	20.855100
1973.000000	20.793400
1972.000000	20.733500
1971.000000	20.612600
1970.000000	20.501700
1969.000000	20.457800
1968.000000	20.375600
1967.000000	20.313900
1966.000000	20.170500
1965.000000	20.135200
1964.000000	20.052600
1963.000000	20.000600
1962.000000	19.881700
1961.000000	19.803900
1960.000000	19.769600
1959.000000	19.687900
1958.000000	19.638600
1957.000000	19.610700
1956.000000	19.465700
1955.000000	19.355000
1954.000000	19.302800
1953.000000	19.212800
1952.000000	19.166000
1951.000000	19.128400
1950.000000	18.982000
1949.000000	18.945600
1948.000000	18.891200
1947.000000	18.837700
1946.000000	18.850600
1945.000000	18.733300
1944.000000	18.728100
1943.000000	18.674000
1942.000000	18.723000
1941.000000	18.743600
1940.000000	18.805600
1939.000000	18.779400
1938.000000	18.720600
1937.000000	18.667000
1936.000000	18.718600
1935.000000	18.799500
1934.000000	18.839300
1933.000000	18.855700
1932.000000	18.882600
1931.000000	19.034700
1930.000000	19.098900
1929.000000	19.187900
1928.000000	19.238800
1927.000000	19.314400
1926.000000	19.431400
1925.000000	19.652000
1924.000000	19.812500
1923.000000	19.942700
1922.000000	20.028400
1921.000000	20.252000
1920.000000	20.575300
1919.000000	20.579400
1918.000000	20.603100
1917.000000	20.879100
1916.000000	21.262900
1915.000000	21.295300
1914.000000	21.564100
1913.000000	21.759000
1912.000000	21.987400
1911.000000	22.247400
1910.000000	22.430500
1909.000000	22.556300
1908.000000	22.870500
1907.000000	23.349400
1906.000000	23.683800
1905.000000	23.938300
1904.000000	23.943500
1903.000000	24.197700
1902.000000	24.492200
1901.000000	24.612300
1900.000000	25.190900
1899.000000	25.405500
1898.000000	25.561100
1897.000000	25.753600
1896.000000	26.084000
1895.000000	26.260500
1894.000000	26.599200
1893.000000	26.993100
1892.000000	27.234800
1891.000000	27.453800
1890.000000	27.784400
1889.000000	27.961000
1888.000000	28.192600
1887.000000	28.482900
1886.000000	28.844100
1885.000000	29.187600
1884.000000	29.566400
1883.000000	29.883700
1882.000000	30.251200
1881.000000	30.792700
1880.000000	31.207200
1879.000000	31.651000
1878.000000	32.013100
1877.000000	32.540300
1876.000000	32.740600
1875.000000	32.955100
1874.000000	33.341400
1873.000000	33.738800
1872.000000	33.763400
1871.000000	33.972200
1870.000000	34.027900
1869.000000	34.175500
1868.000000	34.523000
1867.000000	34.403700
1866.000000	34.179300
1865.000000	34.454800
1864.000000	34.556700
1863.000000	34.519500
1862.000000	34.504400
1861.000000	34.708700
1860.000000	34.925200
1859.000000	34.649000
1858.000000	34.489800
1857.000000	34.568100
1856.000000	34.567200
1855.000000	34.424800
1854.000000	34.612600
1853.000000	34.420600
1852.000000	34.124900
1851.000000	34.221100
1850.000000	34.246600
1849.000000	34.350700
1848.000000	34.547900
1847.000000	34.228800
1846.000000	33.788500
1845.000000	33.650000
1844.000000	33.746000
1843.000000	33.864700
1842.000000	33.988900
1841.000000	33.876800
1840.000000	33.693100
1839.000000	33.626800
1838.000000	33.705200
1837.000000	33.782100
1836.000000	33.703400
1835.000000	33.435500
1834.000000	33.268100
1833.000000	33.251500
1832.000000	33.270400
1831.000000	33.236800
1830.000000	33.073300
1829.000000	32.924000
1828.000000	32.875400
1827.000000	32.858500
1826.000000	32.858900
1825.000000	32.602700
1824.000000	32.488500
1823.000000	32.615900
1822.000000	32.684400
1821.000000	32.707200
1820.000000	32.598600
1819.000000	32.427100
1818.000000	32.416900
1817.000000	32.463000
1816.000000	32.452900
1815.000000	32.489800
1814.000000	32.410400
1813.000000	32.472800
1812.000000	32.483100
1811.000000	32.411600
1810.000000	32.370600
1809.000000	32.298100
1808.000000	32.258800
1807.000000	32.253300
1806.000000	32.200700
1805.000000	32.103100
1804.000000	32.013200
1803.000000	32.034800
1802.000000	32.004000
1801.000000	31.983400
1800.000000	31.908900
1799.000000	31.793500
1798.000000	31.757800
1797.000000	31.780200
1796.000000	31.706800
1795.000000	31.659600
1794.000000	31.603700
1793.000000	31.569700
1792.000000	31.509700
1791.000000	31.419000
1790.000000	31.391600
1789.000000	31.345600
1788.000000	31.245300
1787.000000	31.189900
1786.000000	31.134600
1785.000000	31.063600
1784.000000	30.975700
1783.000000	30.882400
1782.000000	30.779700
1781.000000	30.714000
1780.000000	30.648000
1779.000000	30.568000
1778.000000	30.443800
1777.000000	30.350400
1776.000000	30.249000
1775.000000	30.165300
1774.000000	30.039000
1773.000000	29.908000
1772.000000	29.754200
1771.000000	29.595300
1770.000000	29.489900
1769.000000	29.349700
1768.000000	29.205100
1767.000000	29.082400
1766.000000	29.002000
1765.000000	28.940900
1764.000000	28.906900
1763.000000	28.904300
1762.000000	28.909900
1761.000000	28.931300
1760.000000	28.942800
1759.000000	28.984900
1758.000000	29.092300
1757.000000	29.147600
1756.000000	29.177700
1755.000000	29.202600
1754.000000	29.222800
1753.000000	29.214900
1752.000000	29.209700
1751.000000	29.181100
1750.000000	29.134800
1749.000000	29.064600
1748.000000	28.965200
1747.000000	28.864500
1746.000000	28.744400
1745.000000	28.611900
1744.000000	28.483200
1743.000000	28.321900
1742.000000	28.119600
1741.000000	27.883400
1740.000000	27.633700
1739.000000	27.408400
1738.000000	27.178600
1737.000000	26.997300
1736.000000	26.836300
1735.000000	26.729500
1734.000000	26.707300
1733.000000	26.707600
1732.000000	26.742200
1731.000000	26.836900
1730.000000	26.962500
1729.000000	27.071700
1728.000000	27.188500
1727.000000	27.324300
1726.000000	27.420500
1725.000000	27.510900
1724.000000	27.581300
1723.000000	27.601900
1722.000000	27.654100
1721.000000	27.688000
1720.000000	27.639600
1719.000000	27.648400
1718.000000	27.695900
1717.000000	27.734600
1716.000000	27.800200
1715.000000	27.885300
1714.000000	27.931100
1713.000000	27.982100
1712.000000	28.028800
1711.000000	28.070100
1710.000000	28.068700
1709.000000	28.051900
1708.000000	28.075400
1707.000000	28.056700
1706.000000	28.018500
1705.000000	27.989100
1704.000000	27.987000
1703.000000	27.908000
1702.000000	27.791400
1701.000000	27.668400
1700.000000	27.553100
1699.000000	27.395300
1698.000000	27.202300
1697.000000	27.070500
1696.000000	27.049300
1695.000000	27.027200
1694.000000	27.042900
1693.000000	27.194800
1692.000000	27.367000
1691.000000	27.530000
1690.000000	27.696000
1689.000000	27.815600
1688.000000	27.891800
1687.000000	27.945100
1686.000000	27.951300
1685.000000	27.926200
1684.000000	27.973200
1683.000000	28.116800
1682.000000	28.406000
1681.000000	28.811200
1680.000000	29.354800
1679.000000	29.914600
1678.000000	30.449500
1677.000000	30.973700
1676.000000	31.423900
1675.000000	31.804600
1674.000000	32.158000
1673.000000	32.430700
1672.000000	32.667600
1671.000000	32.884000
1670.000000	33.074500
1669.000000	33.219200
1668.000000	33.341400
1667.000000	33.497800
1666.000000	33.585600
1665.000000	33.679500
1664.000000	33.772100
1663.000000	33.815500
1662.000000	33.887700
1661.000000	33.916900
1660.000000	33.978300
1659.000000	33.978500
1658.000000	34.009400
1657.000000	34.040700
1656.000000	34.066600
1655.000000	34.059700
1654.000000	34.063400
1653.000000	34.050300
1652.000000	34.002800
1651.000000	33.978600
1650.000000	33.980900
1649.000000	33.932200
1648.000000	33.863900
1647.000000	33.844100
1646.000000	33.791600
1645.000000	33.723500
1644.000000	33.681600
1643.000000	33.651500
1642.000000	33.564600
1641.000000	33.526900
1640.000000	33.471700
1639.000000	33.411600
1638.000000	33.326000
1637.000000	33.287000
1636.000000	33.236700
1635.000000	33.126400
1634.000000	33.077400
1633.000000	32.988400
1632.000000	32.948000
1631.000000	32.873800
1630.000000	32.772500
1629.000000	32.669000
1628.000000	32.615200
1627.000000	32.543900
1626.000000	32.461400
1625.000000	32.395300
1624.000000	32.280700
1623.000000	32.250100
1622.000000	32.141700
1621.000000	32.093500
1620.000000	32.003100
1619.000000	31.915000
1618.000000	31.875600
1617.000000	31.788700
1616.000000	31.722900
1615.000000	31.642000
1614.000000	31.566600
1613.000000	31.527000
1612.000000	31.436200
1611.000000	31.393700
1610.000000	31.319700
1609.000000	31.270100
1608.000000	31.169000
1607.000000	31.117300
1606.000000	31.114500
1605.000000	31.023100
1604.000000	30.975800
1603.000000	30.905500
1602.000000	30.807400
1601.000000	30.766300
1600.000000	30.723300
1599.000000	30.677000
1598.000000	30.635400
1597.000000	30.538800
1596.000000	30.511000
1595.000000	30.499400
1594.000000	30.461400
1593.000000	30.413600
1592.000000	30.377300
1591.000000	30.294500
1590.000000	30.283200
1589.000000	30.263400
1588.000000	30.231400
1587.000000	30.199900
1586.000000	30.175100
1585.000000	30.130800
1584.000000	30.118200
1583.000000	30.114000
1582.000000	30.137100
1581.000000	30.112300
1580.000000	30.094600
1579.000000	30.057000
1578.000000	30.084300
1577.000000	30.099700
1576.000000	30.122200
1575.000000	30.162400
1574.000000	30.154400
1573.000000	30.130000
1572.000000	30.170000
1571.000000	30.185000
1570.000000	30.188300
1569.000000	30.246400
1568.000000	30.313700
1567.000000	30.304800
1566.000000	30.349100
1565.000000	30.367100
1564.000000	30.410900
1563.000000	30.438800
1562.000000	30.442900
1561.000000	30.526900
1560.000000	30.547200
1559.000000	30.556200
1558.000000	30.563600
1557.000000	30.564200
1556.000000	30.587100
1555.000000	30.616000
1554.000000	30.622400
1553.000000	30.611000
1552.000000	30.632300
1551.000000	30.617400
1550.000000	30.627900
1549.000000	30.611300
1548.000000	30.620000
1547.000000	30.621700
1546.000000	30.616600
1545.000000	30.597100
1544.000000	30.602900
1543.000000	30.635800
1542.000000	30.620700
1541.000000	30.621400
1540.000000	30.600100
1539.000000	30.616700
1538.000000	30.633500
1537.000000	30.632700
1536.000000	30.623600
1535.000000	30.626700
1534.000000	30.644200
1533.000000	30.605500
1532.000000	30.604100
1531.000000	30.593400
1530.000000	30.590000
1529.000000	30.581500
1528.000000	30.551000
1527.000000	30.526000
1526.000000	30.516400
1525.000000	30.509500
1524.000000	30.474700
1523.000000	30.451300
1522.000000	30.436400
1521.000000	30.412000
1520.000000	30.379900
1519.000000	30.368500
1518.000000	30.354100
1517.000000	30.313500
1516.000000	30.294400
1515.000000	30.280300
1514.000000	30.260500
1513.000000	30.228800
1512.000000	30.214400
1511.000000	30.172900
1510.000000	30.156800
1509.000000	30.130600
1508.000000	30.094800
1507.000000	30.095600
1506.000000	30.068100
1505.000000	30.050300
1504.000000	30.026400
1503.000000	29.991500
1502.000000	29.973200
1501.000000	29.985900
1500.000000	29.988600
1499.000000	29.974600
1498.000000	29.953800
1497.000000	29.943800
1496.000000	29.943600
1495.000000	29.955000
1494.000000	29.972400
1493.000000	29.966900
1492.000000	29.982500
1491.000000	30.013400
1490.000000	30.027600
1489.000000	30.040900
1488.000000	30.059500
1487.000000	30.091500
1486.000000	30.113000
1485.000000	30.125200
1484.000000	30.136900
1483.000000	30.183200
1482.000000	30.230500
1481.000000	30.274200
1480.000000	30.298900
1479.000000	30.319100
1478.000000	30.366900
1477.000000	30.399500
1476.000000	30.452600
1475.000000	30.516600
1474.000000	30.562800
1473.000000	30.591400
1472.000000	30.638100
1471.000000	30.707700
1470.000000	30.744300
1469.000000	30.776000
1468.000000	30.824900
1467.000000	30.874600
1466.000000	30.919600
1465.000000	30.966700
1464.000000	31.033100
1463.000000	31.103900
1462.000000	31.164500
1461.000000	31.235100
1460.000000	31.325900
1459.000000	31.415400
1458.000000	31.513100
1457.000000	31.611700
1456.000000	31.708300
1455.000000	31.791600
1454.000000	31.863100
1453.000000	31.976600
1452.000000	32.118100
1451.000000	32.241600
1450.000000	32.348600
1449.000000	32.446700
1448.000000	32.545900
1447.000000	32.680700
1446.000000	32.840300
1445.000000	32.956200
1444.000000	33.055200
1443.000000	33.187500
1442.000000	33.314400
1441.000000	33.441700
1440.000000	33.561100
1439.000000	33.685400
1438.000000	33.831600
1437.000000	33.914800
1436.000000	34.010700
1435.000000	34.138700
1434.000000	34.263100
1433.000000	34.390000
1432.000000	34.525900
1431.000000	34.621200
1430.000000	34.754000
1429.000000	34.904800
1428.000000	35.061100
1427.000000	35.223700
1426.000000	35.396200
1425.000000	35.603900
1424.000000	35.825200
1423.000000	35.984300
1422.000000	36.147600
1421.000000	36.353300
1420.000000	36.600200
1419.000000	36.815600
1418.000000	36.951400
1417.000000	37.102900
1416.000000	37.303000
1415.000000	37.562600
1414.000000	37.739200
1413.000000	37.814500
1412.000000	37.961900
1411.000000	38.183900
1410.000000	38.459600
1409.000000	38.732900
1408.000000	38.989100
1407.000000	39.312300
1406.000000	39.625900
1405.000000	40.028700
1404.000000	40.321400
1403.000000	40.583600
1402.000000	41.004400
1401.000000	41.483400
1400.000000	41.711900
1399.000000	41.809200
1398.000000	42.065400
1397.000000	42.410700
1396.000000	42.669600
1395.000000	42.671600
1394.000000	42.678100
1393.000000	42.843900
1392.000000	42.978200
1391.000000	43.011300
1390.000000	43.171100
1389.000000	43.425600
1388.000000	43.681700
1387.000000	43.763400
1386.000000	44.045400
1385.000000	44.418200
1384.000000	44.779500
1383.000000	45.176600
1382.000000	45.330300
1381.000000	45.425500
1380.000000	45.518300
1379.000000	45.522200
1378.000000	45.551600
1377.000000	45.647300
1376.000000	45.749800
1375.000000	45.890000
1374.000000	46.152300
1373.000000	46.476200
1372.000000	46.892100
1371.000000	47.214800
1370.000000	47.418200
1369.000000	47.767500
1368.000000	48.103300
1367.000000	48.257000
1366.000000	48.495100
1365.000000	48.785600
1364.000000	48.825900
1363.000000	49.017700
1362.000000	49.371800
1361.000000	49.304300
1360.000000	49.231200
1359.000000	49.289900
1358.000000	49.375200
1357.000000	49.561800
1356.000000	49.823600
1355.000000	50.187800
1354.000000	50.626000
1353.000000	51.129000
1352.000000	51.695400
1351.000000	52.249100
1350.000000	52.767300
1349.000000	53.202300
1348.000000	53.650300
1347.000000	53.972000
1346.000000	54.286900
1345.000000	54.641300
1344.000000	54.952300
1343.000000	55.213700
1342.000000	55.501300
1341.000000	55.747600
1340.000000	56.010500
1339.000000	56.266200
1338.000000	56.482700
1337.000000	56.669400
1336.000000	56.906700
1335.000000	57.069400
1334.000000	57.265200
1333.000000	57.431800
1332.000000	57.593900
1331.000000	57.748900
1330.000000	57.898500
1329.000000	58.017300
1328.000000	58.136400
1327.000000	58.263500
1326.000000	58.356000
1325.000000	58.477100
1324.000000	58.581900
1323.000000	58.660500
1322.000000	58.765000
1321.000000	58.814000
1320.000000	58.899900
1319.000000	58.983200
1318.000000	59.052600
1317.000000	59.124700
1316.000000	59.178500
1315.000000	59.224300
1314.000000	59.298400
1313.000000	59.341900
1312.000000	59.390200
1311.000000	59.429400
1310.000000	59.459400
1309.000000	59.482600
1308.000000	59.522400
1307.000000	59.550400
1306.000000	59.565900
1305.000000	59.586900
1304.000000	59.582800
1303.000000	59.577700
1302.000000	59.554300
1301.000000	59.542500
1300.000000	59.541900
1299.000000	59.527200
1298.000000	59.501000
1297.000000	59.499400
1296.000000	59.498500
1295.000000	59.471800
1294.000000	59.449700
1293.000000	59.419500
1292.000000	59.386800
1291.000000	59.359000
1290.000000	59.308000
1289.000000	59.270400
1288.000000	59.217500
1287.000000	59.170200
1286.000000	59.123900
1285.000000	59.049700
1284.000000	58.975200
1283.000000	58.904200
1282.000000	58.841000
1281.000000	58.785500
1280.000000	58.720500
1279.000000	58.660800
1278.000000	58.580600
1277.000000	58.509500
1276.000000	58.440000
1275.000000	58.386800
1274.000000	58.313100
1273.000000	58.291500
1272.000000	58.222000
1271.000000	58.164400
1270.000000	58.126900
1269.000000	58.083000
1268.000000	58.021800
1267.000000	57.966400
1266.000000	57.913100
1265.000000	57.874800
1264.000000	57.821100
1263.000000	57.762700
1262.000000	57.706200
1261.000000	57.639600
1260.000000	57.577300
1259.000000	57.525700
1258.000000	57.467100
1257.000000	57.411600
1256.000000	57.342000
1255.000000	57.280000
1254.000000	57.195900
1253.000000	57.121400
1252.000000	57.044500
1251.000000	56.970100
1250.000000	56.886700
1249.000000	56.789500
1248.000000	56.693400
1247.000000	56.607400
1246.000000	56.486200
1245.000000	56.359300
1244.000000	56.230900
1243.000000	56.111500
1242.000000	55.968800
1241.000000	55.807900
1240.000000	55.652500
1239.000000	55.482400
1238.000000	55.329000
1237.000000	55.171100
1236.000000	55.003500
1235.000000	54.829000
1234.000000	54.664200
1233.000000	54.468000
1232.000000	54.290200
1231.000000	54.126000
1230.000000	53.946200
1229.000000	53.760400
1228.000000	53.575300
1227.000000	53.408100
1226.000000	53.228300
1225.000000	53.048400
1224.000000	52.860500
1223.000000	52.693500
1222.000000	52.533600
1221.000000	52.364500
1220.000000	52.199300
1219.000000	52.044900
1218.000000	51.915300
1217.000000	51.798100
1216.000000	51.683800
1215.000000	51.564100
1214.000000	51.448600
1213.000000	51.339300
1212.000000	51.244800
1211.000000	51.141300
1210.000000	51.041100
1209.000000	50.964300
1208.000000	50.895500
1207.000000	50.830100
1206.000000	50.786200
1205.000000	50.757300
1204.000000	50.735600
1203.000000	50.717200
1202.000000	50.698800
1201.000000	50.673400
1200.000000	50.633200
1199.000000	50.564300
1198.000000	50.471700
1197.000000	50.350500
1196.000000	50.174400
1195.000000	49.941300
1194.000000	49.642500
1193.000000	49.295900
1192.000000	48.879500
1191.000000	48.418700
1190.000000	47.979500
1189.000000	47.610100
1188.000000	47.306900
1187.000000	47.130300
1186.000000	47.071200
1185.000000	47.127500
1184.000000	47.301700
1183.000000	47.590500
1182.000000	47.994300
1181.000000	48.474400
1180.000000	48.948400
1179.000000	49.376300
1178.000000	49.758000
1177.000000	50.086200
1176.000000	50.381400
1175.000000	50.656000
1174.000000	50.908000
1173.000000	51.182400
1172.000000	51.479400
1171.000000	51.786300
1170.000000	52.093100
1169.000000	52.398800
1168.000000	52.732100
1167.000000	53.040300
1166.000000	53.353500
1165.000000	53.698900
1164.000000	54.044200
1163.000000	54.378200
1162.000000	54.699900
1161.000000	55.014700
1160.000000	55.338200
1159.000000	55.661600
1158.000000	55.964400
1157.000000	56.205300
1156.000000	56.424000
1155.000000	56.595600
1154.000000	56.709600
1153.000000	56.780800
1152.000000	56.767000
1151.000000	56.729500
1150.000000	56.709200
1149.000000	56.669500
1148.000000	56.612600
1147.000000	56.630800
1146.000000	56.703400
1145.000000	56.839900
1144.000000	57.075500
1143.000000	57.318700
1142.000000	57.605800
1141.000000	57.899900
1140.000000	58.182600
1139.000000	58.507100
1138.000000	58.799200
1137.000000	59.127700
1136.000000	59.541400
1135.000000	59.898800
1134.000000	60.105500
1133.000000	60.300000
1132.000000	60.537600
1131.000000	60.772500
1130.000000	61.026000
1129.000000	61.162200
1128.000000	61.249300
1127.000000	61.334400
1126.000000	61.415000
1125.000000	61.442200
1124.000000	61.505600
1123.000000	61.549600
1122.000000	61.584100
1121.000000	61.567600
1120.000000	61.582600
1119.000000	61.596200
1118.000000	61.600500
1117.000000	61.575800
1116.000000	61.559200
1115.000000	61.539700
1114.000000	61.474300
1113.000000	61.442400
1112.000000	61.397700
1111.000000	61.384500
1110.000000	61.362900
1109.000000	61.348400
1108.000000	61.315900
1107.000000	61.262100
1106.000000	61.257400
1105.000000	61.196600
1104.000000	61.137700
1103.000000	61.115200
1102.000000	61.097300
1101.000000	61.025600
1100.000000	61.020600
1099.000000	60.964400
1098.000000	60.908300
1097.000000	60.847800
1096.000000	60.820400
1095.000000	60.786400
1094.000000	60.715500
1093.000000	60.673100
1092.000000	60.610700
1091.000000	60.518400
1090.000000	60.474000
1089.000000	60.404400
1088.000000	60.362500
1087.000000	60.299600
1086.000000	60.253500
1085.000000	60.184100
1084.000000	60.110100
1083.000000	60.008300
1082.000000	59.962100
1081.000000	59.873700
1080.000000	59.857800
1079.000000	59.798500
1078.000000	59.688200
1077.000000	59.660900
1076.000000	59.615900
1075.000000	59.517500
1074.000000	59.503600
1073.000000	59.455700
1072.000000	59.439100
1071.000000	59.339300
1070.000000	59.270900
1069.000000	59.263700
1068.000000	59.181100
1067.000000	59.145900
1066.000000	59.066600
1065.000000	59.007100
1064.000000	58.928600
1063.000000	58.868600
1062.000000	58.803700
1061.000000	58.728700
1060.000000	58.684600
1059.000000	58.644900
1058.000000	58.598700
1057.000000	58.488100
1056.000000	58.386800
1055.000000	58.335700
1054.000000	58.267100
1053.000000	58.213100
1052.000000	58.147600
1051.000000	58.059700
1050.000000	57.978200
1049.000000	57.934900
1048.000000	57.880000
1047.000000	57.787600
1046.000000	57.742100
1045.000000	57.703900
1044.000000	57.673600
1043.000000	57.585800
1042.000000	57.539400
1041.000000	57.472900
1040.000000	57.429500
1039.000000	57.360200
1038.000000	57.306500
1037.000000	57.221200
1036.000000	57.203400
1035.000000	57.117900
1034.000000	57.096100
1033.000000	56.999200
1032.000000	56.974000
1031.000000	56.934300
1030.000000	56.889200
1029.000000	56.833400
1028.000000	56.770800
1027.000000	56.736000
1026.000000	56.629500
1025.000000	56.611700
1024.000000	56.556500
1023.000000	56.500000
1022.000000	56.453200
1021.000000	56.373000
1020.000000	56.363400
1019.000000	56.318100
1018.000000	56.318200
1017.000000	56.249800
1016.000000	56.186700
1015.000000	56.134200
1014.000000	56.178100
1013.000000	56.152600
1012.000000	56.087100
1011.000000	56.045900
1010.000000	56.084900
1009.000000	56.066900
1008.000000	56.108800
1007.000000	56.136000
1006.000000	56.135800
1005.000000	56.130200
1004.000000	56.137100
1003.000000	56.146100
1002.000000	56.119800
1001.000000	56.110400
1000.000000	56.157500
999.000000	56.209500
998.000000	56.264400
997.000000	56.258800
996.000000	56.328000
995.000000	56.376800
994.000000	56.375300
993.000000	56.384900
992.000000	56.435400
991.000000	56.489100
990.000000	56.568900
989.000000	56.611800
988.000000	56.716400
987.000000	56.796500
986.000000	56.847100
985.000000	56.889700
984.000000	57.005100
983.000000	57.137300
982.000000	57.151700
981.000000	57.225500
980.000000	57.306400
979.000000	57.300200
978.000000	57.377200
977.000000	57.487400
976.000000	57.526300
975.000000	57.584000
974.000000	57.610800
973.000000	57.674700
972.000000	57.675700
971.000000	57.689300
970.000000	57.692900
969.000000	57.738300
968.000000	57.738800
967.000000	57.717600
966.000000	57.704900
965.000000	57.649300
964.000000	57.726400
963.000000	57.827900
962.000000	57.871500
961.000000	57.866400
960.000000	57.926200
959.000000	58.045600
958.000000	58.035500
957.000000	58.012800
956.000000	58.124600
955.000000	58.235700
954.000000	58.304900
953.000000	58.314200
952.000000	58.321500
951.000000	58.508900
950.000000	58.585000
949.000000	58.659400
948.000000	58.722100
947.000000	58.771800
946.000000	58.843000
945.000000	58.895700
944.000000	59.070100
943.000000	59.194200
942.000000	59.244800
941.000000	59.355500
940.000000	59.489000
939.000000	59.654800
938.000000	59.810700
937.000000	59.830500
936.000000	59.798600
935.000000	59.921800
934.000000	60.046200
933.000000	60.113400
932.000000	60.253600
931.000000	60.385300
930.000000	60.359500
929.000000	60.401100
928.000000	60.467600
927.000000	60.488300
926.000000	60.536600
925.000000	60.523600
924.000000	60.594700
923.000000	60.653900
922.000000	60.704600
921.000000	60.673800
920.000000	60.678600
919.000000	60.821700
918.000000	60.878800
917.000000	60.884700
916.000000	61.035400
915.000000	61.096100
914.000000	60.990000
913.000000	61.154500
912.000000	61.352900
911.000000	61.262800
910.000000	61.296200
909.000000	61.496600
908.000000	61.667300
907.000000	61.784400
906.000000	61.978100
905.000000	62.345200
904.000000	62.430800
903.000000	62.667100
902.000000	62.860100
901.000000	62.893900
900.000000	62.977400
899.000000	63.080600
898.000000	63.080500
897.000000	63.345100
896.000000	63.731600
895.000000	63.706300
894.000000	63.953400
893.000000	64.154100
892.000000	64.203100
891.000000	64.354300
890.000000	64.359600
889.000000	64.651700
888.000000	64.800200
887.000000	64.924600
886.000000	65.211400
885.000000	65.274900
884.000000	65.341200
883.000000	65.356900
882.000000	65.545200
881.000000	66.088700
880.000000	66.023900
879.000000	66.224700
878.000000	66.068100
877.000000	65.890300
876.000000	66.160000
875.000000	66.479700
874.000000	66.322000
873.000000	65.943400
872.000000	66.525200
871.000000	66.803900
870.000000	67.367200
869.000000	67.146100
868.000000	66.569000
867.000000	67.705200
866.000000	67.682500
865.000000	67.494600
864.000000	67.581800
863.000000	67.713300
862.000000	67.885700
861.000000	68.553200
860.000000	67.659200
859.000000	68.804700
858.000000	66.179200
857.000000	67.592300
856.000000	67.559684
855.000000	67.878826
854.000000	67.743098
853.000000	68.310680
852.000000	68.349902
851.000000	68.719413
850.000000	68.796824
849.000000	69.390726
848.000000	69.644636
847.000000	69.845081
846.000000	70.222024
845.000000	70.442389
844.000000	70.593186
843.000000	70.809836
842.000000	70.990360
841.000000	71.332622
840.000000	71.546485
839.000000	71.673646
838.000000	71.953876
837.000000	72.393677
836.000000	72.495035
835.000000	72.813248
834.000000	72.882815
833.000000	72.898607
832.000000	73.253772
831.000000	73.372263
830.000000	73.595208
829.000000	73.925601
828.000000	74.065355
827.000000	74.080218
826.000000	74.285513
825.000000	74.526418
824.000000	74.605688
823.000000	74.808609
822.000000	75.032690
821.000000	75.225806
820.000000	75.423980
819.000000	75.615651
818.000000	75.798859
817.000000	75.907854
816.000000	76.124297
815.000000	76.441891
814.000000	76.651831
813.000000	76.671132
812.000000	76.958484
811.000000	77.022994
810.000000	76.977270
809.000000	77.146543
808.000000	77.052410
807.000000	76.955491
806.000000	76.855579
805.000000	76.822240
804.000000	76.526837
803.000000	76.714793
802.000000	76.472236
801.000000	76.517754
800.000000	76.450355
799.000000	76.090133
798.000000	75.839113
797.000000	75.905377
796.000000	75.816921
795.000000	75.792356
794.000000	75.488696
793.000000	75.535453
792.000000	75.474762
791.000000	75.474246
790.000000	75.481677
789.000000	75.290316
788.000000	75.411904
787.000000	75.211563
786.000000	75.342956
785.000000	75.445758
784.000000	75.511197
783.000000	75.544020
782.000000	75.590983
781.000000	75.725885
780.000000	75.931387
779.000000	75.817953
778.000000	75.999509
777.000000	76.083011
776.000000	75.974428
775.000000	76.235873
774.000000	76.213475
773.000000	76.171466
772.000000	76.276333
771.000000	76.120168
770.000000	76.039970
769.000000	75.942844
768.000000	75.887417
767.000000	75.701217
766.000000	75.561979
765.000000	75.442559
764.000000	75.354516
763.000000	75.280304
762.000000	75.156342
761.000000	75.060868
760.000000	74.980670
759.000000	74.865894
758.000000	74.732540
757.000000	74.611055
756.000000	74.458915
755.000000	74.343211
754.000000	74.238963
753.000000	74.101480
752.000000	74.058026
751.000000	73.882973
750.000000	73.771191
749.000000	73.690786
748.000000	73.542672
747.000000	73.385268
746.000000	73.227761
745.000000	73.097400
744.000000	72.949080
743.000000	72.652645
742.000000	72.449413
741.000000	72.273225
740.000000	71.964610
739.000000	71.701927
738.000000	71.446056
737.000000	71.097084
736.000000	70.804262
735.000000	70.452917
734.000000	70.025398
733.000000	69.682929
732.000000	69.183160
731.000000	68.735411
730.000000	68.387059
729.000000	67.946948
728.000000	67.457707
727.000000	67.071784
726.000000	66.652110
725.000000	66.185576
724.000000	65.815136
723.000000	65.399281
722.000000	65.025331
721.000000	64.632596
720.000000	64.339465
719.000000	63.940743
718.000000	63.595797
717.000000	63.262411
716.000000	62.937489
715.000000	62.615147
714.000000	62.349161
713.000000	62.129209
712.000000	61.923294
711.000000	61.755362
710.000000	61.652043
709.000000	61.552337
708.000000	61.559769
707.000000	61.583199
706.000000	61.630368
705.000000	61.622937
704.000000	61.713457
703.000000	61.827407
702.000000	61.971495
701.000000	62.088335
700.000000	62.254822
699.000000	62.494488
698.000000	62.685850
697.000000	62.812082
696.000000	62.970827
695.000000	63.183555
694.000000	63.433749
693.000000	63.624594
692.000000	63.761355
691.000000	63.935892
690.000000	64.104856
689.000000	64.241926
688.000000	64.451040
687.000000	64.646118
686.000000	64.766054
685.000000	64.838821
684.000000	64.839750
683.000000	64.836344
682.000000	64.851207
681.000000	64.802386
680.000000	64.721052
679.000000	64.587595
678.000000	64.395098
677.000000	64.222109
676.000000	64.065531
675.000000	63.907611
674.000000	63.685285
673.000000	63.400513
672.000000	63.114916
671.000000	62.826429
670.000000	62.574583
669.000000	62.311074
668.000000	62.044778
667.000000	61.718205
666.000000	61.374084
665.000000	61.021500
664.000000	60.599659
663.000000	60.150981
662.000000	59.756595
661.000000	59.288616
660.000000	58.801645
659.000000	58.267299
658.000000	57.743067
657.000000	57.219249
656.000000	56.624418
655.000000	56.044554
654.000000	55.495654
653.000000	54.885444
652.000000	54.253765
651.000000	53.646136
650.000000	53.076593
649.000000	52.503747
648.000000	51.936475
647.000000	51.421533
646.000000	50.947567
645.000000	50.471950
644.000000	50.028950
643.000000	49.639208
642.000000	49.289617
641.000000	49.037668
640.000000	48.896366
639.000000	48.806259
638.000000	48.746085
637.000000	48.774882
636.000000	48.945807
635.000000	49.179899
634.000000	49.474373
633.000000	49.879803
632.000000	50.392991
631.000000	50.975229
630.000000	51.624970
629.000000	52.355220
628.000000	53.134290
627.000000	53.898910
626.000000	54.664872
625.000000	55.458703
624.000000	56.251088
623.000000	57.024172
622.000000	57.774445
621.000000	58.493650
620.000000	59.194483
619.000000	59.839993
618.000000	60.486328
617.000000	61.141127
616.000000	61.770741
615.000000	62.377958
614.000000	62.977020
613.000000	63.576289
612.000000	64.178861
611.000000	64.770802
610.000000	65.352731
609.000000	65.920106
608.000000	66.451872
607.000000	66.973420
606.000000	67.453372
605.000000	67.921970
604.000000	68.331426
603.000000	68.759461
602.000000	69.139706
601.000000	69.474537
600.000000	69.815871
599.000000	70.135839
598.000000	70.448994
597.000000	70.773091
596.000000	71.113909
595.000000	71.392797
594.000000	71.673440
593.000000	71.965023
592.000000	72.264967
591.000000	72.592264
590.000000	72.879203
589.000000	73.144054
588.000000	73.403124
587.000000	73.658376
586.000000	73.882767
585.000000	74.049356
584.000000	74.253310
583.000000	74.465212
582.000000	74.627157
581.000000	74.808609
580.000000	74.912754
579.000000	75.023401
578.000000	75.172237
577.000000	75.284226
576.000000	75.387751
575.000000	75.511816
574.000000	75.618438
573.000000	75.730117
572.000000	75.808974
571.000000	75.888243
570.000000	75.978350
569.000000	76.024075
568.000000	76.050601
567.000000	75.965448
566.000000	75.920550
565.000000	75.909506
564.000000	75.825075
563.000000	75.705552
562.000000	75.608323
561.000000	75.490864
560.000000	75.401995
559.000000	75.436469
558.000000	75.262345
557.000000	75.006886
556.000000	74.827291
555.000000	74.653889
554.000000	74.446323
553.000000	74.275501
552.000000	74.067832
551.000000	73.788531
550.000000	73.543291
549.000000	73.271938
548.000000	72.936487
547.000000	72.616519
546.000000	72.260736
545.000000	71.870375
544.000000	71.422832
543.000000	70.979522
542.000000	70.466954
541.000000	69.930750
540.000000	69.363787
539.000000	68.782374
538.000000	68.174229
537.000000	67.528719
536.000000	66.862567
535.000000	66.140471
534.000000	65.413938
533.000000	64.641060
532.000000	63.826174
531.000000	62.963190
530.000000	62.063873
529.000000	61.137411
528.000000	60.148710
527.000000	59.096016
526.000000	58.060248
525.000000	56.887721
524.000000	55.693311
523.000000	54.551129
522.000000	53.368796
521.000000	52.181095
520.000000	50.972339
519.000000	49.850181
518.000000	48.663719
517.000000	47.516169
516.000000	46.419814
515.000000	45.365778
514.000000	44.338475
513.000000	43.353902
512.000000	42.387393
511.000000	41.461137
510.000000	40.558827
509.000000	39.746625
508.000000	38.848754
507.000000	38.086507
506.000000	37.351407
505.000000	36.625905
504.000000	35.964810
503.000000	35.303715
502.000000	34.614236
501.000000	33.958405
500.000000	33.383391
499.000000	32.795166
498.000000	32.220153
497.000000	31.710475
496.000000	31.181289
495.000000	30.681107
494.000000	30.231913
493.000000	29.771779
492.000000	29.321450
491.000000	28.930883
490.000000	28.537425
489.000000	28.204762
488.000000	27.880252
487.000000	27.587327
486.000000	27.338061
485.000000	27.112123
484.000000	26.911472
483.000000	26.760571
482.000000	26.625978
481.000000	26.533807
480.000000	26.482818
479.000000	26.397046
478.000000	26.346470
477.000000	26.209813
476.000000	26.160167
475.000000	26.075117
474.000000	25.993164
473.000000	25.830187
472.000000	25.683414
471.000000	25.536435
470.000000	25.323089
469.000000	25.102311
468.000000	24.860065
467.000000	24.573332
466.000000	24.277207
465.000000	23.976643
464.000000	23.621582
463.000000	23.227918
462.000000	22.850769
461.000000	22.480535
460.000000	22.048785
459.000000	21.658011
458.000000	21.282823
457.000000	20.900719
456.000000	20.503546
455.000000	20.179037
454.000000	19.846167
453.000000	19.535798
452.000000	19.241221
451.000000	19.009399
450.000000	18.836203
449.000000	18.687780
448.000000	18.599324
447.000000	18.514068
446.000000	18.503127
445.000000	18.505191
444.000000	18.547097
443.000000	18.636894
442.000000	18.702539
441.000000	18.799562
440.000000	18.888637
439.000000	19.036648
438.000000	19.144405
437.000000	19.265270
436.000000	19.408017
435.000000	19.509994
434.000000	19.576774
433.000000	19.640458
432.000000	19.696504
431.000000	19.769787
430.000000	19.824801
429.000000	19.848850
428.000000	19.830581
427.000000	19.790327
426.000000	19.673797
425.000000	19.645103
424.000000	19.576981
423.000000	19.487906
422.000000	19.407604
421.000000	19.328748
420.000000	19.212940
419.000000	19.075147
418.000000	18.937355
417.000000	18.825779
416.000000	18.655370
415.000000	18.472059
414.000000	18.306398
413.000000	18.110392
412.000000	17.899626
411.000000	17.691854
410.000000	17.448471
409.000000	17.248543
408.000000	17.000723
407.000000	16.754038
406.000000	16.466996
405.000000	16.196674
404.000000	15.910458
403.000000	15.613300
402.000000	15.297048
401.000000	14.995040
400.000000	14.668260
399.000000	14.338796
398.000000	14.017176
397.000000	13.676153
396.000000	13.339670
395.000000	12.992144
394.000000	12.630477
393.000000	12.274899
392.000000	11.922935
391.000000	11.590168
390.000000	11.252757
389.000000	10.913900
388.000000	10.594448
387.000000	10.266430
386.000000	9.989399
385.000000	9.686049
384.000000	9.387034
383.000000	9.117435
382.000000	8.864557
381.000000	8.629432
380.000000	8.397817
379.000000	8.173530
378.000000	7.978040
377.000000	7.788020
376.000000	7.628449
375.000000	7.494991
374.000000	7.365353
373.000000	7.270394
372.000000	7.133014
371.000000	6.990784
370.000000	6.918223
369.000000	6.815833
368.000000	6.697548
367.000000	6.618485
366.000000	6.514238
365.000000	6.425163
364.000000	6.354873
363.000000	6.337843
362.000000	6.245465
361.000000	6.196541
360.000000	6.183845
359.000000	6.150300
358.000000	6.086926
357.000000	6.002392
356.000000	5.949443
355.000000	5.887617
354.000000	5.852523
353.000000	5.801329
352.000000	5.811650
351.000000	5.778724
350.000000	5.752508
349.000000	5.718240
348.000000	5.677367
347.000000	5.639177
346.000000	5.629268
345.000000	5.597272
344.000000	5.582821
343.000000	5.576938
342.000000	5.587260
341.000000	5.611722
340.000000	5.590563
339.000000	5.577867
338.000000	5.595001
337.000000	5.584370
336.000000	5.612341
335.000000	5.593556
334.000000	5.544528
333.000000	5.563314
332.000000	5.547418
331.000000	5.509745
330.000000	5.447506
329.000000	5.426347
328.000000	5.471762
327.000000	5.498598
326.000000	5.526363
325.000000	5.389086
324.000000	5.350587
323.000000	5.461750
322.000000	5.488895
321.000000	5.412826
320.000000	5.413238
319.000000	5.525330
318.000000	5.555469
317.000000	5.509126
316.000000	5.395072
315.000000	5.306823
314.000000	5.298463
313.000000	5.332937
312.000000	5.324576
311.000000	5.303933
310.000000	5.312707
309.000000	5.304965
308.000000	5.312397
307.000000	5.295057
306.000000	5.280090
305.000000	5.267808
304.000000	5.272969
303.000000	5.280400
302.000000	5.296192
301.000000	5.292580
300.000000	5.269356
299.000000	5.236843
298.000000	5.265021
297.000000	5.293715
296.000000	5.246958
295.000000	5.227967
294.000000	5.251913
293.000000	5.219297
292.000000	5.178320
291.000000	5.176565
290.000000	5.173985
289.000000	5.185029
288.000000	5.178423
287.000000	5.210626
286.000000	5.197208
285.000000	5.216716
284.000000	5.191325
283.000000	5.211349
282.000000	5.222806
281.000000	5.226522
280.000000	5.240869
279.000000	5.244481
278.000000	5.251087
277.000000	5.258725
276.000000	5.243552
275.000000	5.265021
274.000000	5.273588
273.000000	5.304449
272.000000	5.311778
271.000000	5.336136
270.000000	5.315493
269.000000	5.307236
268.000000	5.355747
267.000000	5.366069
266.000000	5.388260
265.000000	5.430063
264.000000	5.441623
263.000000	5.430269
262.000000	5.475787
261.000000	5.505926
260.000000	5.506339
259.000000	5.541638
258.000000	5.534517
257.000000	5.549173
256.000000	5.554127
255.000000	5.554024
254.000000	5.586537
253.000000	5.614715
252.000000	5.596549
251.000000	5.620082
250.000000	5.605219
