PE UV       SUBTECH     SPECTRUM    ASCII       PEDS        4.00        
   -1
CICIMAUCR0014-5.Sample.ASC
24/04/23
11:16:56.00
24/04/23
11:16:56.00
Vinicio Soto Monge
C. cupreomarginata
250,000000
1
Lambda 1050
1050L1511233
PerkinElmer UV WinLab 6.3.2.0749 / 2.02.05 Lambda 900 UV/VIS/NIR, Aug  7 2015 09:38:08

0
0
3350/servo 860,8/2
0
0
UV/VIS
1
1
1
DoubleDePol,CommonBeamDepol,RBeamAtt,SBeamAtt,60mm sphere, WB InGaAs Detector
0
0
0
0
Program
Program
3350/servo 860,8/2
3350/0,2 860,8/0,2
3350/0,2 860,8/0,2
0
15.00
 
 
 
0
 
860,8
319,2
860,8
Front
100
on
S:100 R:100
0
0
0
0
 
0
 
 
 
0
 
 
0
0
0
0
0
 
 
 
 
0
0


0
0
#HDR
-1
-1
#GR
nm
%R
1.0
0.0
2500,000000
-1,000000
2251
8
75,082300
5,658100
#DATA
2500.000000	9.128577
2499.000000	9.143193
2498.000000	9.009369
2497.000000	9.042026
2496.000000	9.060181
2495.000000	9.126865
2494.000000	8.931724
2493.000000	8.968263
2492.000000	9.004573
2491.000000	8.928641
2490.000000	8.939945
2489.000000	8.925786
2488.000000	8.831584
2487.000000	8.908430
2486.000000	8.814000
2485.000000	8.930810
2484.000000	8.878971
2483.000000	8.930810
2482.000000	8.879541
2481.000000	8.941544
2480.000000	8.850653
2479.000000	8.902264
2478.000000	8.866867
2477.000000	8.921105
2476.000000	8.916651
2475.000000	8.931838
2474.000000	8.954789
2473.000000	8.963809
2472.000000	8.965408
2471.000000	8.948052
2470.000000	8.986075
2469.000000	9.025812
2468.000000	9.008341
2467.000000	9.019189
2466.000000	9.039057
2465.000000	9.086329
2464.000000	9.076738
2463.000000	9.167286
2462.000000	9.194005
2461.000000	9.218098
2460.000000	9.280328
2459.000000	9.256464
2458.000000	9.379326
2457.000000	9.428425
2456.000000	9.432879
2455.000000	9.516347
2454.000000	9.595477
2453.000000	9.642863
2452.000000	9.715827
2451.000000	9.800895
2450.000000	9.881052
2449.000000	9.945680
2448.000000	10.030519
2447.000000	10.080874
2446.000000	10.170052
2445.000000	10.267794
2444.000000	10.317578
2443.000000	10.401390
2442.000000	10.483831
2441.000000	10.545719
2440.000000	10.616513
2439.000000	10.687079
2438.000000	10.760613
2437.000000	10.815765
2436.000000	10.901859
2435.000000	10.968543
2434.000000	11.009535
2433.000000	11.083412
2432.000000	11.148383
2431.000000	11.197825
2430.000000	11.270218
2429.000000	11.318175
2428.000000	11.357912
2427.000000	11.407125
2426.000000	11.462504
2425.000000	11.515828
2424.000000	11.561274
2423.000000	11.588792
2422.000000	11.628414
2421.000000	11.679683
2420.000000	11.712225
2419.000000	11.750135
2418.000000	11.786331
2417.000000	11.813849
2416.000000	11.842053
2415.000000	11.881789
2414.000000	11.902799
2413.000000	11.928833
2412.000000	11.965144
2411.000000	12.014700
2410.000000	12.048270
2409.000000	12.082068
2408.000000	12.142586
2407.000000	12.154347
2406.000000	12.184263
2405.000000	12.214065
2404.000000	12.245352
2403.000000	12.290112
2402.000000	12.342637
2401.000000	12.368557
2400.000000	12.389567
2399.000000	12.432728
2398.000000	12.469610
2397.000000	12.510259
2396.000000	12.557418
2395.000000	12.600237
2394.000000	12.637917
2393.000000	12.672287
2392.000000	12.706085
2391.000000	12.755299
2390.000000	12.783617
2389.000000	12.811820
2388.000000	12.827007
2387.000000	12.844020
2386.000000	12.851785
2385.000000	12.881929
2384.000000	12.906136
2383.000000	12.911046
2382.000000	12.933426
2381.000000	12.927032
2380.000000	12.918468
2379.000000	12.929544
2378.000000	12.932170
2377.000000	12.928060
2376.000000	12.930914
2375.000000	12.925662
2374.000000	12.902482
2373.000000	12.890151
2372.000000	12.878504
2371.000000	12.874736
2370.000000	12.865030
2369.000000	12.852013
2368.000000	12.834657
2367.000000	12.783502
2366.000000	12.739998
2365.000000	12.723099
2364.000000	12.677882
2363.000000	12.613825
2362.000000	12.582424
2361.000000	12.542117
2360.000000	12.481942
2359.000000	12.433185
2358.000000	12.401099
2357.000000	12.366501
2356.000000	12.345948
2355.000000	12.322312
2354.000000	12.314433
2353.000000	12.316146
2352.000000	12.302101
2351.000000	12.319343
2350.000000	12.356339
2349.000000	12.392878
2348.000000	12.471323
2347.000000	12.528415
2346.000000	12.576829
2345.000000	12.629011
2344.000000	12.696266
2343.000000	12.758724
2342.000000	12.808280
2341.000000	12.867770
2340.000000	12.944388
2339.000000	12.986522
2338.000000	13.008103
2337.000000	13.026144
2336.000000	13.050808
2335.000000	13.046926
2334.000000	13.066223
2333.000000	13.053662
2332.000000	13.029798
2331.000000	13.018836
2330.000000	12.988235
2329.000000	12.958661
2328.000000	12.908192
2327.000000	12.840709
2326.000000	12.795378
2325.000000	12.746963
2324.000000	12.684733
2323.000000	12.610171
2322.000000	12.525560
2321.000000	12.431472
2320.000000	12.329848
2319.000000	12.236331
2318.000000	12.139617
2317.000000	12.039934
2316.000000	11.940023
2315.000000	11.847534
2314.000000	11.742941
2313.000000	11.644742
2312.000000	11.544945
2311.000000	11.461819
2310.000000	11.407353
2309.000000	11.348092
2308.000000	11.316463
2307.000000	11.300248
2306.000000	11.286318
2305.000000	11.310411
2304.000000	11.347407
2303.000000	11.384516
2302.000000	11.445491
2301.000000	11.557734
2300.000000	11.643258
2299.000000	11.722730
2298.000000	11.846734
2297.000000	11.953040
2296.000000	12.044273
2295.000000	12.172845
2294.000000	12.268075
2293.000000	12.325281
2292.000000	12.402698
2291.000000	12.471893
2290.000000	12.514256
2289.000000	12.555476
2288.000000	12.564839
2287.000000	12.553079
2286.000000	12.549310
2285.000000	12.523847
2284.000000	12.503865
2283.000000	12.469610
2282.000000	12.430559
2281.000000	12.371183
2280.000000	12.329734
2279.000000	12.268645
2278.000000	12.217833
2277.000000	12.179582
2276.000000	12.139731
2275.000000	12.107646
2274.000000	12.083324
2273.000000	12.061629
2272.000000	12.054322
2271.000000	12.049983
2270.000000	12.105248
2269.000000	12.123517
2268.000000	12.194426
2267.000000	12.285431
2266.000000	12.387283
2265.000000	12.508204
2264.000000	12.669432
2263.000000	12.879874
2262.000000	13.060514
2261.000000	13.287055
2260.000000	13.527299
2259.000000	13.818583
2258.000000	14.062366
2257.000000	14.344973
2256.000000	14.608624
2255.000000	14.923887
2254.000000	15.192106
2253.000000	15.441484
2252.000000	15.711416
2251.000000	15.956341
2250.000000	16.250252
2249.000000	16.437057
2248.000000	16.646585
2247.000000	16.842183
2246.000000	17.058562
2245.000000	17.210313
2244.000000	17.368230
2243.000000	17.502054
2242.000000	17.658715
2241.000000	17.805099
2240.000000	17.908322
2239.000000	18.019081
2238.000000	18.147081
2237.000000	18.197094
2236.000000	18.321669
2235.000000	18.380017
2234.000000	18.443389
2233.000000	18.482440
2232.000000	18.552778
2231.000000	18.601078
2230.000000	18.613638
2229.000000	18.680664
2228.000000	18.712522
2227.000000	18.718574
2226.000000	18.687401
2225.000000	18.700532
2224.000000	18.692882
2223.000000	18.690142
2222.000000	18.676668
2221.000000	18.642869
2220.000000	18.628254
2219.000000	18.614894
2218.000000	18.583265
2217.000000	18.573217
2216.000000	18.510187
2215.000000	18.491575
2214.000000	18.456406
2213.000000	18.412788
2212.000000	18.381387
2211.000000	18.353526
2210.000000	18.317672
2209.000000	18.291182
2208.000000	18.262407
2207.000000	18.258182
2206.000000	18.221529
2205.000000	18.220844
2204.000000	18.211709
2203.000000	18.189558
2202.000000	18.148908
2201.000000	18.130867
2200.000000	18.132123
2199.000000	18.121961
2198.000000	18.110200
2197.000000	18.066239
2196.000000	18.075944
2195.000000	18.079827
2194.000000	18.039634
2193.000000	18.016226
2192.000000	18.016226
2191.000000	17.999098
2190.000000	17.974206
2189.000000	17.973978
2188.000000	17.963016
2187.000000	17.934927
2186.000000	17.916201
2185.000000	17.904097
2184.000000	17.874637
2183.000000	17.838669
2182.000000	17.817774
2181.000000	17.800760
2180.000000	17.790141
2179.000000	17.774155
2178.000000	17.764906
2177.000000	17.741955
2176.000000	17.735218
2175.000000	17.728025
2174.000000	17.722087
2173.000000	17.709984
2172.000000	17.685092
2171.000000	17.694911
2170.000000	17.721174
2169.000000	17.737502
2168.000000	17.735333
2167.000000	17.748350
2166.000000	17.769702
2165.000000	17.789799
2164.000000	17.824853
2163.000000	17.820400
2162.000000	17.835015
2161.000000	17.865046
2160.000000	17.899986
2159.000000	17.925678
2158.000000	17.941093
2157.000000	17.985853
2156.000000	18.036893
2155.000000	18.061671
2154.000000	18.109172
2153.000000	18.159299
2152.000000	18.184648
2151.000000	18.207941
2150.000000	18.254300
2149.000000	18.313676
2148.000000	18.365402
2147.000000	18.389266
2146.000000	18.426718
2145.000000	18.467482
2144.000000	18.510758
2143.000000	18.554491
2142.000000	18.581781
2141.000000	18.603362
2140.000000	18.629624
2139.000000	18.661367
2138.000000	18.699733
2137.000000	18.730563
2136.000000	18.769842
2135.000000	18.779662
2134.000000	18.778977
2133.000000	18.808437
2132.000000	18.828190
2131.000000	18.850114
2130.000000	18.860505
2129.000000	18.856851
2128.000000	18.859820
2127.000000	18.874321
2126.000000	18.864615
2125.000000	18.849315
2124.000000	18.838810
2123.000000	18.828419
2122.000000	18.821796
2121.000000	18.800558
2120.000000	18.771783
2119.000000	18.751459
2118.000000	18.731819
2117.000000	18.717203
2116.000000	18.688657
2115.000000	18.654516
2114.000000	18.631908
2113.000000	18.609870
2112.000000	18.591372
2111.000000	18.554947
2110.000000	18.511672
2109.000000	18.489862
2108.000000	18.458462
2107.000000	18.427975
2106.000000	18.392577
2105.000000	18.352156
2104.000000	18.325551
2103.000000	18.289241
2102.000000	18.259096
2101.000000	18.227924
2100.000000	18.186132
2099.000000	18.145825
2098.000000	18.126985
2097.000000	18.122303
2096.000000	18.081197
2095.000000	18.037122
2094.000000	18.013942
2093.000000	17.979801
2092.000000	17.962902
2091.000000	17.956964
2090.000000	17.920311
2089.000000	17.891080
2088.000000	17.856140
2087.000000	17.814006
2086.000000	17.795850
2085.000000	17.772899
2084.000000	17.735218
2083.000000	17.702448
2082.000000	17.679839
2081.000000	17.638619
2080.000000	17.591460
2079.000000	17.553780
2078.000000	17.520209
2077.000000	17.485954
2076.000000	17.441422
2075.000000	17.397119
2074.000000	17.364119
2073.000000	17.308626
2072.000000	17.253361
2071.000000	17.200836
2070.000000	17.154363
2069.000000	17.119993
2068.000000	17.072721
2067.000000	17.029445
2066.000000	16.991194
2065.000000	16.959565
2064.000000	16.912863
2063.000000	16.870387
2062.000000	16.833391
2061.000000	16.808613
2060.000000	16.789087
2059.000000	16.750265
2058.000000	16.751407
2057.000000	16.753690
2056.000000	16.750607
2055.000000	16.746611
2054.000000	16.774129
2053.000000	16.809070
2052.000000	16.832820
2051.000000	16.897220
2050.000000	16.953627
2049.000000	17.019397
2048.000000	17.099326
2047.000000	17.171262
2046.000000	17.267634
2045.000000	17.372683
2044.000000	17.452612
2043.000000	17.562458
2042.000000	17.650950
2041.000000	17.748921
2040.000000	17.810238
2039.000000	17.910720
2038.000000	17.995444
2037.000000	18.073546
2036.000000	18.152448
2035.000000	18.231235
2034.000000	18.296891
2033.000000	18.363004
2032.000000	18.447500
2031.000000	18.493745
2030.000000	18.535650
2029.000000	18.562826
2028.000000	18.618662
2027.000000	18.652118
2026.000000	18.686374
2025.000000	18.720172
2024.000000	18.752258
2023.000000	18.784800
2022.000000	18.820083
2021.000000	18.814032
2020.000000	18.812890
2019.000000	18.853996
2018.000000	18.869411
2017.000000	18.860390
2016.000000	18.865415
2015.000000	18.866899
2014.000000	18.848287
2013.000000	18.858449
2012.000000	18.853083
2011.000000	18.815288
2010.000000	18.798617
2009.000000	18.764818
2008.000000	18.735930
2007.000000	18.717546
2006.000000	18.666163
2005.000000	18.613410
2004.000000	18.583151
2003.000000	18.521948
2002.000000	18.461088
2001.000000	18.423407
2000.000000	18.360720
1999.000000	18.279763
1998.000000	18.219017
1997.000000	18.163410
1996.000000	18.103349
1995.000000	18.015427
1994.000000	17.924536
1993.000000	17.835586
1992.000000	17.770616
1991.000000	17.681209
1990.000000	17.608017
1989.000000	17.508791
1988.000000	17.434914
1987.000000	17.334089
1986.000000	17.241029
1985.000000	17.154591
1984.000000	17.033213
1983.000000	16.957167
1982.000000	16.862736
1981.000000	16.784292
1980.000000	16.683467
1979.000000	16.566771
1978.000000	16.475309
1977.000000	16.377910
1976.000000	16.315793
1975.000000	16.197841
1974.000000	16.119168
1973.000000	15.994251
1972.000000	15.936702
1971.000000	15.850036
1970.000000	15.746014
1969.000000	15.675220
1968.000000	15.572796
1967.000000	15.483847
1966.000000	15.417163
1965.000000	15.323418
1964.000000	15.261758
1963.000000	15.181829
1962.000000	15.101101
1961.000000	15.004044
1960.000000	14.931994
1959.000000	14.874103
1958.000000	14.773849
1957.000000	14.697574
1956.000000	14.641623
1955.000000	14.563864
1954.000000	14.472402
1953.000000	14.391217
1952.000000	14.339948
1951.000000	14.292676
1950.000000	14.236726
1949.000000	14.185800
1948.000000	14.124483
1947.000000	14.079837
1946.000000	14.012925
1945.000000	13.968964
1944.000000	13.925916
1943.000000	13.893374
1942.000000	13.872592
1941.000000	13.875789
1940.000000	13.854437
1939.000000	13.845873
1938.000000	13.814244
1937.000000	13.814016
1936.000000	13.818240
1935.000000	13.840849
1934.000000	13.855693
1933.000000	13.912899
1932.000000	13.980154
1931.000000	14.035647
1930.000000	14.093310
1929.000000	14.150288
1928.000000	14.233985
1927.000000	14.306493
1926.000000	14.390989
1925.000000	14.529152
1924.000000	14.645049
1923.000000	14.789264
1922.000000	14.907673
1921.000000	15.068673
1920.000000	15.200556
1919.000000	15.349223
1918.000000	15.540482
1917.000000	15.733454
1916.000000	15.931449
1915.000000	16.136410
1914.000000	16.356329
1913.000000	16.546788
1912.000000	16.758486
1911.000000	16.999986
1910.000000	17.234064
1909.000000	17.499770
1908.000000	17.773013
1907.000000	18.051851
1906.000000	18.349644
1905.000000	18.669132
1904.000000	18.963841
1903.000000	19.276021
1902.000000	19.639470
1901.000000	19.985677
1900.000000	20.340219
1899.000000	20.710861
1898.000000	21.098517
1897.000000	21.522483
1896.000000	21.925782
1895.000000	22.343240
1894.000000	22.795638
1893.000000	23.253060
1892.000000	23.787899
1891.000000	24.280376
1890.000000	24.752871
1889.000000	25.291935
1888.000000	25.869251
1887.000000	26.426927
1886.000000	27.000246
1885.000000	27.640135
1884.000000	28.300691
1883.000000	28.988080
1882.000000	29.656858
1881.000000	30.334199
1880.000000	30.964154
1879.000000	31.578009
1878.000000	32.191064
1877.000000	32.773975
1876.000000	33.311326
1875.000000	33.831436
1874.000000	34.330763
1873.000000	34.816618
1872.000000	35.241612
1871.000000	35.615337
1870.000000	35.961087
1869.000000	36.304211
1868.000000	36.561011
1867.000000	36.783556
1866.000000	36.963396
1865.000000	37.131932
1864.000000	37.282427
1863.000000	37.444341
1862.000000	37.590040
1861.000000	37.719068
1860.000000	37.843986
1859.000000	37.940700
1858.000000	38.024625
1857.000000	38.088911
1856.000000	38.106838
1855.000000	38.144290
1854.000000	38.171352
1853.000000	38.134356
1852.000000	38.126135
1851.000000	38.127620
1850.000000	38.135612
1849.000000	38.127848
1848.000000	38.087084
1847.000000	38.034788
1846.000000	37.955772
1845.000000	37.880182
1844.000000	37.829599
1843.000000	37.834851
1842.000000	37.852435
1841.000000	37.832225
1840.000000	37.779700
1839.000000	37.738251
1838.000000	37.696688
1837.000000	37.635371
1836.000000	37.571999
1835.000000	37.497322
1834.000000	37.398895
1833.000000	37.315769
1832.000000	37.246802
1831.000000	37.172582
1830.000000	37.094023
1829.000000	37.007814
1828.000000	36.907104
1827.000000	36.824891
1826.000000	36.743478
1825.000000	36.674053
1824.000000	36.619930
1823.000000	36.586132
1822.000000	36.570146
1821.000000	36.549364
1820.000000	36.521161
1819.000000	36.475030
1818.000000	36.424561
1817.000000	36.404350
1816.000000	36.410744
1815.000000	36.393046
1814.000000	36.368382
1813.000000	36.351483
1812.000000	36.324535
1811.000000	36.270869
1810.000000	36.209438
1809.000000	36.166048
1808.000000	36.143553
1807.000000	36.107128
1806.000000	36.047410
1805.000000	35.974446
1804.000000	35.906278
1803.000000	35.863459
1802.000000	35.820526
1801.000000	35.769600
1800.000000	35.699034
1799.000000	35.626527
1798.000000	35.571147
1797.000000	35.521706
1796.000000	35.478430
1795.000000	35.413231
1794.000000	35.363903
1793.000000	35.309323
1792.000000	35.242525
1791.000000	35.181665
1790.000000	35.110071
1789.000000	35.052180
1788.000000	34.978303
1787.000000	34.918813
1786.000000	34.843451
1785.000000	34.757698
1784.000000	34.680510
1783.000000	34.612570
1782.000000	34.513116
1781.000000	34.425993
1780.000000	34.331334
1779.000000	34.255402
1778.000000	34.154006
1777.000000	34.039365
1776.000000	33.948132
1775.000000	33.832463
1774.000000	33.703777
1773.000000	33.562646
1772.000000	33.420372
1771.000000	33.296710
1770.000000	33.150098
1769.000000	33.021184
1768.000000	32.910539
1767.000000	32.797040
1766.000000	32.690849
1765.000000	32.624736
1764.000000	32.591851
1763.000000	32.559879
1762.000000	32.600300
1761.000000	32.633528
1760.000000	32.701354
1759.000000	32.774546
1758.000000	32.843970
1757.000000	32.895467
1756.000000	32.975853
1755.000000	33.014561
1754.000000	33.021641
1753.000000	33.027692
1752.000000	33.014675
1751.000000	32.996292
1750.000000	32.957583
1749.000000	32.887588
1748.000000	32.812569
1747.000000	32.714371
1746.000000	32.589453
1745.000000	32.460196
1744.000000	32.290975
1743.000000	32.111706
1742.000000	31.896469
1741.000000	31.657252
1740.000000	31.419178
1739.000000	31.200515
1738.000000	30.994184
1737.000000	30.773923
1736.000000	30.646607
1735.000000	30.575128
1734.000000	30.509015
1733.000000	30.511070
1732.000000	30.562453
1731.000000	30.659510
1730.000000	30.757480
1729.000000	30.896442
1728.000000	31.003433
1727.000000	31.133032
1726.000000	31.240251
1725.000000	31.342218
1724.000000	31.403877
1723.000000	31.460627
1722.000000	31.504474
1721.000000	31.550833
1720.000000	31.577209
1719.000000	31.651543
1718.000000	31.700414
1717.000000	31.771551
1716.000000	31.854563
1715.000000	31.937803
1714.000000	32.029036
1713.000000	32.094122
1712.000000	32.179303
1711.000000	32.216185
1710.000000	32.230572
1709.000000	32.245530
1708.000000	32.226575
1707.000000	32.199628
1706.000000	32.172909
1705.000000	32.098004
1704.000000	32.021500
1703.000000	31.917250
1702.000000	31.809003
1701.000000	31.637841
1700.000000	31.471589
1699.000000	31.304080
1698.000000	31.125839
1697.000000	31.012111
1696.000000	30.935608
1695.000000	30.903750
1694.000000	30.982423
1693.000000	31.094552
1692.000000	31.249044
1691.000000	31.419407
1690.000000	31.588171
1689.000000	31.749856
1688.000000	31.821335
1687.000000	31.872033
1686.000000	31.909942
1685.000000	31.968519
1684.000000	32.134314
1683.000000	32.371018
1682.000000	32.781397
1681.000000	33.247497
1680.000000	33.794326
1679.000000	34.394935
1678.000000	35.032540
1677.000000	35.557902
1676.000000	36.042158
1675.000000	36.491016
1674.000000	36.876502
1673.000000	37.213118
1672.000000	37.508512
1671.000000	37.777873
1670.000000	38.013435
1669.000000	38.191449
1668.000000	38.392185
1667.000000	38.564032
1666.000000	38.657777
1665.000000	38.775044
1664.000000	38.864337
1663.000000	38.954999
1662.000000	39.029219
1661.000000	39.104580
1660.000000	39.151396
1659.000000	39.206775
1658.000000	39.213398
1657.000000	39.221505
1656.000000	39.224702
1655.000000	39.227328
1654.000000	39.220592
1653.000000	39.221162
1652.000000	39.186450
1651.000000	39.175489
1650.000000	39.094989
1649.000000	39.056395
1648.000000	39.011063
1647.000000	38.951002
1646.000000	38.896194
1645.000000	38.813068
1644.000000	38.739305
1643.000000	38.691804
1642.000000	38.614616
1641.000000	38.544506
1640.000000	38.467089
1639.000000	38.382479
1638.000000	38.302207
1637.000000	38.224905
1636.000000	38.158792
1635.000000	38.061964
1634.000000	37.962737
1633.000000	37.879954
1632.000000	37.780956
1631.000000	37.681958
1630.000000	37.599974
1629.000000	37.479624
1628.000000	37.368066
1627.000000	37.261075
1626.000000	37.174752
1625.000000	37.081235
1624.000000	36.966936
1623.000000	36.867367
1622.000000	36.789380
1621.000000	36.678507
1620.000000	36.584419
1619.000000	36.497639
1618.000000	36.404693
1617.000000	36.328189
1616.000000	36.228849
1615.000000	36.130993
1614.000000	36.029369
1613.000000	35.937565
1612.000000	35.841307
1611.000000	35.765032
1610.000000	35.685560
1609.000000	35.583708
1608.000000	35.495101
1607.000000	35.404781
1606.000000	35.313776
1605.000000	35.222999
1604.000000	35.140673
1603.000000	35.036308
1602.000000	34.940279
1601.000000	34.865260
1600.000000	34.782362
1599.000000	34.701063
1598.000000	34.598640
1597.000000	34.501469
1596.000000	34.427249
1595.000000	34.344351
1594.000000	34.271273
1593.000000	34.212126
1592.000000	34.142359
1591.000000	34.064371
1590.000000	33.996089
1589.000000	33.936028
1588.000000	33.876082
1587.000000	33.817048
1586.000000	33.755960
1585.000000	33.694643
1584.000000	33.640291
1583.000000	33.590963
1582.000000	33.543691
1581.000000	33.505668
1580.000000	33.465703
1579.000000	33.426995
1578.000000	33.400618
1577.000000	33.384632
1576.000000	33.358027
1575.000000	33.331537
1574.000000	33.320118
1573.000000	33.313724
1572.000000	33.300479
1571.000000	33.290430
1570.000000	33.293285
1569.000000	33.289403
1568.000000	33.284949
1567.000000	33.289859
1566.000000	33.288489
1565.000000	33.304132
1564.000000	33.311098
1563.000000	33.313610
1562.000000	33.312240
1561.000000	33.313952
1560.000000	33.298537
1559.000000	33.271019
1558.000000	33.254919
1557.000000	33.234137
1556.000000	33.226030
1555.000000	33.209702
1554.000000	33.182526
1553.000000	33.141420
1552.000000	33.095860
1551.000000	33.061491
1550.000000	33.014104
1549.000000	32.979050
1548.000000	32.946850
1547.000000	32.894553
1546.000000	32.857558
1545.000000	32.822617
1544.000000	32.776944
1543.000000	32.764041
1542.000000	32.737664
1541.000000	32.698727
1540.000000	32.668583
1539.000000	32.631359
1538.000000	32.604982
1537.000000	32.572554
1536.000000	32.527565
1535.000000	32.499818
1534.000000	32.464764
1533.000000	32.426512
1532.000000	32.387347
1531.000000	32.340645
1530.000000	32.287093
1529.000000	32.247699
1528.000000	32.196773
1527.000000	32.145961
1526.000000	32.084416
1525.000000	32.023441
1524.000000	31.967491
1523.000000	31.912911
1522.000000	31.863926
1521.000000	31.805235
1520.000000	31.745974
1519.000000	31.664218
1518.000000	31.616831
1517.000000	31.569673
1516.000000	31.489287
1515.000000	31.417694
1514.000000	31.372020
1513.000000	31.300997
1512.000000	31.227006
1511.000000	31.158610
1510.000000	31.098549
1509.000000	31.052532
1508.000000	30.987676
1507.000000	30.926473
1506.000000	30.848599
1505.000000	30.765245
1504.000000	30.696734
1503.000000	30.633933
1502.000000	30.592941
1501.000000	30.552405
1500.000000	30.476130
1499.000000	30.423605
1498.000000	30.383527
1497.000000	30.343105
1496.000000	30.291152
1495.000000	30.245592
1494.000000	30.203801
1493.000000	30.182791
1492.000000	30.140542
1491.000000	30.120218
1490.000000	30.103889
1489.000000	30.071347
1488.000000	30.060157
1487.000000	30.021448
1486.000000	30.008774
1485.000000	29.971550
1484.000000	29.953394
1483.000000	29.945744
1482.000000	29.925990
1481.000000	29.920509
1480.000000	29.917769
1479.000000	29.911603
1478.000000	29.922793
1477.000000	29.917997
1476.000000	29.906122
1475.000000	29.950311
1474.000000	29.951682
1473.000000	29.961616
1472.000000	29.986051
1471.000000	30.013113
1470.000000	30.000895
1469.000000	29.994729
1468.000000	30.017338
1467.000000	30.056046
1466.000000	30.078312
1465.000000	30.108685
1464.000000	30.149791
1463.000000	30.212707
1462.000000	30.268771
1461.000000	30.318327
1460.000000	30.366056
1459.000000	30.421322
1458.000000	30.514610
1457.000000	30.609041
1456.000000	30.686229
1455.000000	30.798815
1454.000000	30.890962
1453.000000	30.992586
1452.000000	31.139998
1451.000000	31.259777
1450.000000	31.362314
1449.000000	31.446811
1448.000000	31.589427
1447.000000	31.755793
1446.000000	31.902292
1445.000000	32.009168
1444.000000	32.127578
1443.000000	32.283896
1442.000000	32.440100
1441.000000	32.595847
1440.000000	32.759359
1439.000000	32.896723
1438.000000	33.079532
1437.000000	33.224660
1436.000000	33.392169
1435.000000	33.554539
1434.000000	33.756873
1433.000000	33.939340
1432.000000	34.098284
1431.000000	34.288972
1430.000000	34.477833
1429.000000	34.740228
1428.000000	34.955694
1427.000000	35.213751
1426.000000	35.496357
1425.000000	35.770399
1424.000000	36.057801
1423.000000	36.345203
1422.000000	36.635802
1421.000000	36.967279
1420.000000	37.302524
1419.000000	37.649987
1418.000000	37.930652
1417.000000	38.197272
1416.000000	38.579104
1415.000000	38.942439
1414.000000	39.292185
1413.000000	39.621949
1412.000000	39.931389
1411.000000	40.340625
1410.000000	40.778865
1409.000000	41.265290
1408.000000	41.727622
1407.000000	42.196234
1406.000000	42.679005
1405.000000	43.195689
1404.000000	43.680173
1403.000000	44.195944
1402.000000	44.703493
1401.000000	45.298393
1400.000000	45.770545
1399.000000	46.133423
1398.000000	46.469924
1397.000000	46.889780
1396.000000	47.376661
1395.000000	47.725038
1394.000000	47.985149
1393.000000	48.284655
1392.000000	48.687954
1391.000000	49.023884
1390.000000	49.361755
1389.000000	49.823745
1388.000000	50.287105
1387.000000	50.733109
1386.000000	51.196240
1385.000000	51.753802
1384.000000	52.271399
1383.000000	52.727908
1382.000000	53.146850
1381.000000	53.469535
1380.000000	53.646178
1379.000000	53.824877
1378.000000	53.974230
1377.000000	54.147105
1376.000000	54.321007
1375.000000	54.577580
1374.000000	54.908257
1373.000000	55.291802
1372.000000	55.648400
1371.000000	56.045990
1370.000000	56.388771
1369.000000	56.713853
1368.000000	57.031286
1367.000000	57.313892
1366.000000	57.538378
1365.000000	57.804656
1364.000000	57.993174
1363.000000	58.208297
1362.000000	58.413601
1361.000000	58.544456
1360.000000	58.583393
1359.000000	58.674854
1358.000000	58.819298
1357.000000	59.038531
1356.000000	59.387707
1355.000000	59.832797
1354.000000	60.308718
1353.000000	60.771621
1352.000000	61.380565
1351.000000	61.932761
1350.000000	62.434372
1349.000000	62.882317
1348.000000	63.316903
1347.000000	63.716662
1346.000000	64.056132
1345.000000	64.432255
1344.000000	64.765445
1343.000000	65.082649
1342.000000	65.404762
1341.000000	65.705410
1340.000000	65.975227
1339.000000	66.249955
1338.000000	66.513949
1337.000000	66.760358
1336.000000	67.006197
1335.000000	67.234452
1334.000000	67.464076
1333.000000	67.674975
1332.000000	67.880963
1331.000000	68.063087
1330.000000	68.244183
1329.000000	68.419228
1328.000000	68.588449
1327.000000	68.754016
1326.000000	68.884415
1325.000000	69.027830
1324.000000	69.164280
1323.000000	69.299246
1322.000000	69.426562
1321.000000	69.547483
1320.000000	69.660411
1319.000000	69.762720
1318.000000	69.862974
1317.000000	69.961743
1316.000000	70.056174
1315.000000	70.141584
1314.000000	70.238412
1313.000000	70.311604
1312.000000	70.379315
1311.000000	70.469064
1310.000000	70.542371
1309.000000	70.608141
1308.000000	70.669800
1307.000000	70.711249
1306.000000	70.735799
1305.000000	70.782386
1304.000000	70.808648
1303.000000	70.821665
1302.000000	70.847243
1301.000000	70.868024
1300.000000	70.872363
1299.000000	70.874304
1298.000000	70.865284
1297.000000	70.863685
1296.000000	70.859346
1295.000000	70.845187
1294.000000	70.857405
1293.000000	70.843931
1292.000000	70.816299
1291.000000	70.787410
1290.000000	70.756809
1289.000000	70.718100
1288.000000	70.683845
1287.000000	70.649361
1286.000000	70.591470
1285.000000	70.522160
1284.000000	70.460500
1283.000000	70.394273
1282.000000	70.333984
1281.000000	70.275522
1280.000000	70.210208
1279.000000	70.164649
1278.000000	70.111325
1277.000000	70.061426
1276.000000	70.026029
1275.000000	69.991888
1274.000000	69.955463
1273.000000	69.911731
1272.000000	69.881586
1271.000000	69.864230
1270.000000	69.831573
1269.000000	69.792294
1268.000000	69.765118
1267.000000	69.723441
1266.000000	69.683819
1265.000000	69.656529
1264.000000	69.624557
1263.000000	69.590644
1262.000000	69.547597
1261.000000	69.501238
1260.000000	69.447572
1259.000000	69.405209
1258.000000	69.364103
1257.000000	69.304499
1256.000000	69.258026
1255.000000	69.206300
1254.000000	69.140302
1253.000000	69.061743
1252.000000	68.972222
1251.000000	68.897888
1250.000000	68.828122
1249.000000	68.732321
1248.000000	68.613113
1247.000000	68.505209
1246.000000	68.399816
1245.000000	68.265307
1244.000000	68.146670
1243.000000	68.022095
1242.000000	67.875482
1241.000000	67.732866
1240.000000	67.588994
1239.000000	67.420344
1238.000000	67.280696
1237.000000	67.137281
1236.000000	66.970686
1235.000000	66.808658
1234.000000	66.664101
1233.000000	66.500475
1232.000000	66.328171
1231.000000	66.168313
1230.000000	66.007884
1229.000000	65.828729
1228.000000	65.653342
1227.000000	65.491314
1226.000000	65.310104
1225.000000	65.114620
1224.000000	64.950309
1223.000000	64.785313
1222.000000	64.606386
1221.000000	64.439791
1220.000000	64.295005
1219.000000	64.141542
1218.000000	63.988535
1217.000000	63.825365
1216.000000	63.701361
1215.000000	63.567080
1214.000000	63.446388
1213.000000	63.329920
1212.000000	63.190044
1211.000000	63.067753
1210.000000	62.963274
1209.000000	62.859024
1208.000000	62.759112
1207.000000	62.655205
1206.000000	62.611815
1205.000000	62.550269
1204.000000	62.506537
1203.000000	62.478676
1202.000000	62.447960
1201.000000	62.386529
1200.000000	62.319617
1199.000000	62.223816
1198.000000	62.105750
1197.000000	61.937328
1196.000000	61.745613
1195.000000	61.511421
1194.000000	61.159390
1193.000000	60.795371
1192.000000	60.362841
1191.000000	59.893087
1190.000000	59.527012
1189.000000	59.165961
1188.000000	58.920807
1187.000000	58.807080
1186.000000	58.793492
1185.000000	58.927088
1184.000000	59.169843
1183.000000	59.540486
1182.000000	60.018233
1181.000000	60.518017
1180.000000	61.012892
1179.000000	61.477622
1178.000000	61.920429
1177.000000	62.282507
1176.000000	62.637506
1175.000000	62.938039
1174.000000	63.263008
1173.000000	63.592658
1172.000000	63.915114
1171.000000	64.291808
1170.000000	64.638129
1169.000000	65.011740
1168.000000	65.371535
1167.000000	65.739779
1166.000000	66.131774
1165.000000	66.486659
1164.000000	66.876941
1163.000000	67.268478
1162.000000	67.634325
1161.000000	68.012960
1160.000000	68.352658
1159.000000	68.682194
1158.000000	69.046214
1157.000000	69.286572
1156.000000	69.563469
1155.000000	69.728922
1154.000000	69.887980
1153.000000	69.978186
1152.000000	70.027856
1151.000000	70.060627
1150.000000	70.079810
1149.000000	70.113951
1148.000000	70.163393
1147.000000	70.254169
1146.000000	70.391305
1145.000000	70.608597
1144.000000	70.841305
1143.000000	71.148689
1142.000000	71.468291
1141.000000	71.793488
1140.000000	72.126449
1139.000000	72.480306
1138.000000	72.849350
1137.000000	73.228670
1136.000000	73.613700
1135.000000	73.961391
1134.000000	74.278595
1133.000000	74.538592
1132.000000	74.821655
1131.000000	75.047398
1130.000000	75.283531
1129.000000	75.474447
1128.000000	75.618547
1127.000000	75.747005
1126.000000	75.848629
1125.000000	75.915997
1124.000000	76.014995
1123.000000	76.072773
1122.000000	76.124041
1121.000000	76.149619
1120.000000	76.179992
1119.000000	76.212077
1118.000000	76.205226
1117.000000	76.221555
1116.000000	76.207853
1115.000000	76.206482
1114.000000	76.195521
1113.000000	76.182618
1112.000000	76.189355
1111.000000	76.186957
1110.000000	76.162065
1109.000000	76.159438
1108.000000	76.142653
1107.000000	76.140941
1106.000000	76.139342
1105.000000	76.120616
1104.000000	76.106343
1103.000000	76.094353
1102.000000	76.066264
1101.000000	76.070946
1100.000000	76.038175
1099.000000	76.008373
1098.000000	75.983252
1097.000000	75.973661
1096.000000	75.937921
1095.000000	75.924790
1094.000000	75.903666
1093.000000	75.866784
1092.000000	75.840179
1091.000000	75.797360
1090.000000	75.748832
1089.000000	75.714691
1088.000000	75.687286
1087.000000	75.649035
1086.000000	75.597880
1085.000000	75.546155
1084.000000	75.524802
1083.000000	75.484267
1082.000000	75.443046
1081.000000	75.414386
1080.000000	75.377276
1079.000000	75.349872
1078.000000	75.318585
1077.000000	75.277707
1076.000000	75.236715
1075.000000	75.204515
1074.000000	75.166378
1073.000000	75.129039
1072.000000	75.096839
1071.000000	75.086106
1070.000000	75.046598
1069.000000	75.000582
1068.000000	74.969410
1067.000000	74.934583
1066.000000	74.916428
1065.000000	74.891879
1064.000000	74.877948
1063.000000	74.853170
1062.000000	74.834215
1061.000000	74.790711
1060.000000	74.752574
1059.000000	74.731450
1058.000000	74.709298
1057.000000	74.679496
1056.000000	74.659970
1055.000000	74.643642
1054.000000	74.617037
1053.000000	74.591802
1052.000000	74.575588
1051.000000	74.570678
1050.000000	74.559260
1049.000000	74.546585
1048.000000	74.544987
1047.000000	74.556862
1046.000000	74.555948
1045.000000	74.562343
1044.000000	74.564626
1043.000000	74.571135
1042.000000	74.585750
1041.000000	74.585750
1040.000000	74.598767
1039.000000	74.622746
1038.000000	74.641130
1037.000000	74.647867
1036.000000	74.644327
1035.000000	74.669219
1034.000000	74.703360
1033.000000	74.709869
1032.000000	74.726083
1031.000000	74.726311
1030.000000	74.724028
1029.000000	74.749719
1028.000000	74.752802
1027.000000	74.766618
1026.000000	74.789912
1025.000000	74.802130
1024.000000	74.799503
1023.000000	74.802929
1022.000000	74.813548
1021.000000	74.834330
1020.000000	74.867329
1019.000000	74.891993
1018.000000	74.914259
1017.000000	74.935611
1016.000000	74.971922
1015.000000	75.004807
1014.000000	75.052193
1013.000000	75.109057
1012.000000	75.153475
1011.000000	75.217190
1010.000000	75.288897
1009.000000	75.356494
1008.000000	75.437337
1007.000000	75.513726
1006.000000	75.569106
1005.000000	75.642526
1004.000000	75.707154
1003.000000	75.782402
1002.000000	75.859248
1001.000000	75.904693
1000.000000	75.979141
999.000000	76.059299
998.000000	76.119588
997.000000	76.217330
996.000000	76.289723
995.000000	76.356064
994.000000	76.452778
993.000000	76.547208
992.000000	76.639583
991.000000	76.717229
990.000000	76.783341
989.000000	76.904377
988.000000	77.008741
987.000000	77.107168
986.000000	77.200913
985.000000	77.296600
984.000000	77.409756
983.000000	77.518917
982.000000	77.599074
981.000000	77.720223
980.000000	77.850279
979.000000	77.948478
978.000000	78.053642
977.000000	78.136996
976.000000	78.251866
975.000000	78.375070
974.000000	78.504898
973.000000	78.600813
972.000000	78.711571
971.000000	78.837859
970.000000	78.943137
969.000000	79.081300
968.000000	79.180184
967.000000	79.318804
966.000000	79.427507
965.000000	79.566812
964.000000	79.701892
963.000000	79.817675
962.000000	79.965087
961.000000	80.099824
960.000000	80.217776
959.000000	80.334244
958.000000	80.485539
957.000000	80.631466
956.000000	80.735488
955.000000	80.819642
954.000000	80.924806
953.000000	81.050408
952.000000	81.133649
951.000000	81.255027
950.000000	81.316458
949.000000	81.394674
948.000000	81.469236
947.000000	81.577483
946.000000	81.605230
945.000000	81.694979
944.000000	81.744306
943.000000	81.793976
942.000000	81.846615
941.000000	81.950637
940.000000	81.981924
939.000000	82.035020
938.000000	82.082292
937.000000	82.188141
936.000000	82.205725
935.000000	82.264987
934.000000	82.297986
933.000000	82.368552
932.000000	82.452135
931.000000	82.471889
930.000000	82.514365
929.000000	82.597834
928.000000	82.589727
927.000000	82.598519
926.000000	82.618730
925.000000	82.685185
924.000000	82.697517
923.000000	82.725720
922.000000	82.726634
921.000000	82.731087
920.000000	82.728118
919.000000	82.732229
918.000000	82.726634
917.000000	82.812500
916.000000	82.788750
915.000000	82.757692
914.000000	82.716471
913.000000	82.675708
912.000000	82.783840
911.000000	82.740564
910.000000	82.740678
909.000000	82.760432
908.000000	82.764543
907.000000	82.800397
906.000000	82.788065
905.000000	82.778816
904.000000	82.808732
903.000000	82.846756
902.000000	82.820607
901.000000	82.814784
900.000000	82.822777
899.000000	82.746844
898.000000	82.713845
897.000000	82.686441
896.000000	82.649217
895.000000	82.618844
894.000000	82.574312
893.000000	82.523500
892.000000	82.441059
891.000000	82.344002
890.000000	82.159024
889.000000	82.061168
888.000000	81.979183
887.000000	81.819325
886.000000	81.566179
885.000000	81.428358
884.000000	81.272839
883.000000	81.062854
882.000000	80.744166
881.000000	80.485539
880.000000	80.122661
879.000000	79.898517
878.000000	79.603008
877.000000	79.227799
876.000000	78.898720
875.000000	78.476809
874.000000	78.130031
873.000000	77.699556
872.000000	77.382124
871.000000	76.910428
870.000000	76.553717
869.000000	76.104287
868.000000	75.737870
867.000000	75.153475
866.000000	74.599567
865.000000	74.111771
864.000000	73.545646
863.000000	73.224674
862.000000	72.924712
861.000000	72.890685
860.000000	72.885318
859.000000	72.887145
858.000000	74.717633
857.000000	74.766000
856.000000	75.082300
855.000000	74.304600
854.000000	74.777200
853.000000	74.576500
852.000000	74.894800
851.000000	74.786700
850.000000	74.395500
849.000000	74.466000
848.000000	74.509600
847.000000	74.274900
846.000000	73.881000
845.000000	74.060000
844.000000	73.989600
843.000000	73.887000
842.000000	73.798300
841.000000	73.661800
840.000000	73.641300
839.000000	73.423700
838.000000	73.274300
837.000000	73.268200
836.000000	73.074700
835.000000	73.132800
834.000000	72.851400
833.000000	72.700800
832.000000	72.564200
831.000000	72.484000
830.000000	72.426700
829.000000	72.166500
828.000000	71.904900
827.000000	71.868300
826.000000	71.771100
825.000000	71.612400
824.000000	71.288800
823.000000	71.254500
822.000000	71.201700
821.000000	71.075300
820.000000	70.972300
819.000000	70.667800
818.000000	70.494000
817.000000	70.445700
816.000000	70.375400
815.000000	70.272700
814.000000	70.069700
813.000000	69.844700
812.000000	69.678700
811.000000	69.712300
810.000000	69.617400
809.000000	69.419600
808.000000	69.182000
807.000000	68.942800
806.000000	68.905700
805.000000	68.868800
804.000000	68.829600
803.000000	68.591000
802.000000	68.476500
801.000000	68.448300
800.000000	68.356400
799.000000	68.257200
798.000000	68.108500
797.000000	67.950800
796.000000	67.874300
795.000000	67.849600
794.000000	67.800100
793.000000	67.672800
792.000000	67.520400
791.000000	67.449100
790.000000	67.274000
789.000000	67.241400
788.000000	67.106400
787.000000	67.012300
786.000000	66.947900
785.000000	66.823300
784.000000	66.716600
783.000000	66.665000
782.000000	66.592600
781.000000	66.553900
780.000000	66.472400
779.000000	66.318500
778.000000	66.249200
777.000000	66.214100
776.000000	66.137800
775.000000	66.009000
774.000000	65.932900
773.000000	65.878300
772.000000	65.710300
771.000000	65.547400
770.000000	65.473400
769.000000	65.431700
768.000000	65.257800
767.000000	65.177000
766.000000	65.078400
765.000000	64.893900
764.000000	64.786800
763.000000	64.647800
762.000000	64.543000
761.000000	64.470500
760.000000	64.338500
759.000000	64.126200
758.000000	63.949300
757.000000	63.814000
756.000000	63.647100
755.000000	63.531500
754.000000	63.336700
753.000000	63.213800
752.000000	63.135200
751.000000	62.938600
750.000000	62.738800
749.000000	62.551900
748.000000	62.363700
747.000000	62.224800
746.000000	62.074500
745.000000	61.905400
744.000000	61.754300
743.000000	61.551600
742.000000	61.364500
741.000000	61.181500
740.000000	60.993500
739.000000	60.775100
738.000000	60.487300
737.000000	60.292000
736.000000	60.116500
735.000000	59.863500
734.000000	59.642600
733.000000	59.380200
732.000000	59.079500
731.000000	58.810000
730.000000	58.532800
729.000000	58.329100
728.000000	58.112600
727.000000	57.888700
726.000000	57.623500
725.000000	57.410500
724.000000	57.188500
723.000000	56.863100
722.000000	56.606700
721.000000	56.384100
720.000000	56.135200
719.000000	55.881300
718.000000	55.681300
717.000000	55.474800
716.000000	55.241200
715.000000	55.023200
714.000000	54.787400
713.000000	54.521300
712.000000	54.313300
711.000000	54.051100
710.000000	53.800200
709.000000	53.625000
708.000000	53.368000
707.000000	53.201200
706.000000	52.995500
705.000000	52.782800
704.000000	52.626700
703.000000	52.492200
702.000000	52.329700
701.000000	52.187400
700.000000	52.130600
699.000000	52.106300
698.000000	52.070200
697.000000	51.989300
696.000000	51.961700
695.000000	51.958700
694.000000	51.942300
693.000000	51.914900
692.000000	51.918500
691.000000	51.908300
690.000000	51.914600
689.000000	51.895500
688.000000	51.788000
687.000000	51.802600
686.000000	51.746600
685.000000	51.619400
684.000000	51.540900
683.000000	51.410900
682.000000	51.263700
681.000000	51.085400
680.000000	50.879400
679.000000	50.696200
678.000000	50.467600
677.000000	50.282100
676.000000	50.092700
675.000000	49.918900
674.000000	49.720400
673.000000	49.561400
672.000000	49.347500
671.000000	49.146500
670.000000	48.956500
669.000000	48.774400
668.000000	48.542200
667.000000	48.312900
666.000000	48.085900
665.000000	47.785300
664.000000	47.563000
663.000000	47.250100
662.000000	46.948100
661.000000	46.560000
660.000000	46.227900
659.000000	45.793000
658.000000	45.422900
657.000000	45.087700
656.000000	44.666200
655.000000	44.347300
654.000000	43.996900
653.000000	43.742400
652.000000	43.510300
651.000000	43.366200
650.000000	43.336000
649.000000	43.302800
648.000000	43.394800
647.000000	43.565600
646.000000	43.859200
645.000000	44.209800
644.000000	44.621800
643.000000	45.079900
642.000000	45.601100
641.000000	46.177700
640.000000	46.777800
639.000000	47.353400
638.000000	47.932500
637.000000	48.552400
636.000000	49.162900
635.000000	49.848600
634.000000	50.432400
633.000000	51.077800
632.000000	51.692000
631.000000	52.318000
630.000000	52.941800
629.000000	53.490000
628.000000	54.107300
627.000000	54.710400
626.000000	55.332700
625.000000	55.936500
624.000000	56.559700
623.000000	57.229200
622.000000	57.828600
621.000000	58.418100
620.000000	59.035500
619.000000	59.626000
618.000000	60.208100
617.000000	60.721700
616.000000	61.241700
615.000000	61.655500
614.000000	62.096600
613.000000	62.468200
612.000000	62.819000
611.000000	63.127300
610.000000	63.437800
609.000000	63.742700
608.000000	63.977800
607.000000	64.211000
606.000000	64.458400
605.000000	64.685300
604.000000	64.836900
603.000000	65.127500
602.000000	65.370300
601.000000	65.636300
600.000000	65.864400
599.000000	66.112600
598.000000	66.416700
597.000000	66.684300
596.000000	66.986600
595.000000	67.232700
594.000000	67.590700
593.000000	67.810700
592.000000	68.071300
591.000000	68.287800
590.000000	68.515500
589.000000	68.712100
588.000000	68.869200
587.000000	68.932200
586.000000	69.050800
585.000000	69.083100
584.000000	69.150600
583.000000	69.138400
582.000000	69.155400
581.000000	69.113500
580.000000	69.102600
579.000000	69.069200
578.000000	69.057000
577.000000	69.101500
576.000000	69.105200
575.000000	69.087700
574.000000	69.068500
573.000000	69.009900
572.000000	68.981300
571.000000	68.944800
570.000000	68.850600
569.000000	68.770100
568.000000	68.651700
567.000000	68.544000
566.000000	68.448600
565.000000	68.330300
564.000000	68.140400
563.000000	68.010900
562.000000	67.763800
561.000000	67.556600
560.000000	67.356600
559.000000	67.093000
558.000000	66.810500
557.000000	66.499000
556.000000	66.158600
555.000000	65.789900
554.000000	65.372300
553.000000	64.929100
552.000000	64.452400
551.000000	63.863700
550.000000	63.260100
549.000000	62.611100
548.000000	61.881700
547.000000	61.162600
546.000000	60.365500
545.000000	59.518300
544.000000	58.633000
543.000000	57.694500
542.000000	56.739200
541.000000	55.815900
540.000000	54.826500
539.000000	53.843000
538.000000	52.875900
537.000000	51.915100
536.000000	50.927500
535.000000	49.973000
534.000000	49.059900
533.000000	48.135200
532.000000	47.223000
531.000000	46.370100
530.000000	45.540500
529.000000	44.748300
528.000000	43.963500
527.000000	43.220600
526.000000	42.487500
525.000000	41.802400
524.000000	41.107100
523.000000	40.422200
522.000000	39.786900
521.000000	39.152100
520.000000	38.532700
519.000000	37.938400
518.000000	37.348200
517.000000	36.774000
516.000000	36.203800
515.000000	35.647800
514.000000	35.079200
513.000000	34.525600
512.000000	33.970700
511.000000	33.417800
510.000000	32.851500
509.000000	32.309400
508.000000	31.752100
507.000000	31.199000
506.000000	30.620600
505.000000	30.040300
504.000000	29.452800
503.000000	28.839100
502.000000	28.242800
501.000000	27.645900
500.000000	27.069400
499.000000	26.493400
498.000000	25.940500
497.000000	25.368700
496.000000	24.828700
495.000000	24.327700
494.000000	23.858100
493.000000	23.418200
492.000000	23.026400
491.000000	22.668400
490.000000	22.333700
489.000000	22.030500
488.000000	21.793500
487.000000	21.602400
486.000000	21.441000
485.000000	21.309000
484.000000	21.197400
483.000000	21.129600
482.000000	21.075300
481.000000	21.033500
480.000000	21.026700
479.000000	21.025000
478.000000	21.038500
477.000000	21.046100
476.000000	21.066600
475.000000	21.076000
474.000000	21.087600
473.000000	21.111900
472.000000	21.136700
471.000000	21.144700
470.000000	21.131700
469.000000	21.118600
468.000000	21.103800
467.000000	21.072800
466.000000	21.047200
465.000000	21.002500
464.000000	20.976100
463.000000	20.930900
462.000000	20.858100
461.000000	20.792900
460.000000	20.714500
459.000000	20.611700
458.000000	20.512800
457.000000	20.400900
456.000000	20.295300
455.000000	20.171000
454.000000	20.036200
453.000000	19.892400
452.000000	19.740700
451.000000	19.587200
450.000000	19.420200
449.000000	19.230500
448.000000	19.045100
447.000000	18.858100
446.000000	18.656100
445.000000	18.445100
444.000000	18.232300
443.000000	18.022800
442.000000	17.779000
441.000000	17.529300
440.000000	17.279600
439.000000	17.035500
438.000000	16.779000
437.000000	16.516500
436.000000	16.261400
435.000000	15.982000
434.000000	15.689200
433.000000	15.408100
432.000000	15.133800
431.000000	14.850300
430.000000	14.575600
429.000000	14.292700
428.000000	14.003300
427.000000	13.712800
426.000000	13.419000
425.000000	13.121800
424.000000	12.837200
423.000000	12.560800
422.000000	12.282600
421.000000	11.993700
420.000000	11.701300
419.000000	11.399600
418.000000	11.117400
417.000000	10.855600
416.000000	10.593500
415.000000	10.313700
414.000000	10.048800
413.000000	9.803100
412.000000	9.564400
411.000000	9.340000
410.000000	9.117300
409.000000	8.895600
408.000000	8.690800
407.000000	8.489300
406.000000	8.309300
405.000000	8.142600
404.000000	7.991600
403.000000	7.837900
402.000000	7.688000
401.000000	7.545900
400.000000	7.405100
399.000000	7.283200
398.000000	7.195400
397.000000	7.096000
396.000000	7.013500
395.000000	6.926500
394.000000	6.841600
393.000000	6.770600
392.000000	6.712400
391.000000	6.660100
390.000000	6.597100
389.000000	6.543800
388.000000	6.503600
387.000000	6.478500
386.000000	6.435000
385.000000	6.385800
384.000000	6.356000
383.000000	6.343700
382.000000	6.317000
381.000000	6.281200
380.000000	6.269600
379.000000	6.227900
378.000000	6.211500
377.000000	6.194400
376.000000	6.160800
375.000000	6.139800
374.000000	6.158700
373.000000	6.160600
372.000000	6.134200
371.000000	6.100700
370.000000	6.087700
369.000000	6.099300
368.000000	6.082600
367.000000	6.070800
366.000000	6.092200
365.000000	6.093900
364.000000	6.023600
363.000000	5.963300
362.000000	5.994900
361.000000	6.065600
360.000000	6.019400
359.000000	6.007300
358.000000	5.984100
357.000000	5.994700
356.000000	5.958200
355.000000	5.901100
354.000000	5.905800
353.000000	5.910000
352.000000	5.922400
351.000000	5.954000
350.000000	5.893200
349.000000	5.889200
348.000000	5.862700
347.000000	5.860600
346.000000	5.866400
345.000000	5.877600
344.000000	5.862100
343.000000	5.869800
342.000000	5.901900
341.000000	5.852300
340.000000	5.841300
339.000000	5.888500
338.000000	5.875800
337.000000	5.785200
336.000000	5.826000
335.000000	5.805700
334.000000	5.781100
333.000000	5.899700
332.000000	5.742400
331.000000	5.709000
330.000000	5.798000
329.000000	5.845100
328.000000	5.891400
327.000000	5.862200
326.000000	5.849900
325.000000	5.854400
324.000000	5.869000
323.000000	5.700700
322.000000	5.658100
321.000000	5.745800
320.000000	5.787000
319.000000	5.702000
318.000000	5.830700
317.000000	5.954500
316.000000	5.908200
315.000000	5.881600
314.000000	5.857400
313.000000	5.843400
312.000000	5.873900
311.000000	5.880400
310.000000	5.926500
309.000000	5.915500
308.000000	5.926000
307.000000	5.891300
306.000000	5.900400
305.000000	5.964400
304.000000	5.903300
303.000000	5.946200
302.000000	5.911100
301.000000	5.927700
300.000000	5.925900
299.000000	5.964200
298.000000	5.977400
297.000000	5.944300
296.000000	5.985400
295.000000	6.021200
294.000000	6.007600
293.000000	6.023900
292.000000	6.011400
291.000000	6.032700
290.000000	5.989600
289.000000	5.984800
288.000000	6.019600
287.000000	5.995900
286.000000	6.028200
285.000000	6.006400
284.000000	6.044800
283.000000	6.004500
282.000000	6.076400
281.000000	6.088700
280.000000	6.069800
279.000000	6.079000
278.000000	6.067300
277.000000	6.086300
276.000000	6.089000
275.000000	6.123800
274.000000	6.142600
273.000000	6.160200
272.000000	6.208900
271.000000	6.180900
270.000000	6.208800
269.000000	6.214200
268.000000	6.264100
267.000000	6.289100
266.000000	6.328400
265.000000	6.339700
264.000000	6.356400
263.000000	6.402200
262.000000	6.381700
261.000000	6.447400
260.000000	6.458400
259.000000	6.475800
258.000000	6.531000
257.000000	6.570200
256.000000	6.573400
255.000000	6.628100
254.000000	6.614500
253.000000	6.657400
252.000000	6.699300
251.000000	6.701700
250.000000	6.716300
