PE UV       SUBTECH     SPECTRUM    ASCII       PEDS        4.00        
   -1
CICIMAUCR0001-1.Sample.ASC
24/04/11
15:31:38.00
24/04/11
15:31:38.00
Vinicio Soto Monge
C. kalinini
250,000000
1
Lambda 1050
1050L1511233
PerkinElmer UV WinLab 6.3.2.0749 / 2.02.05 Lambda 900 UV/VIS/NIR, Aug  7 2015 09:38:08

0
0
3350/2 860,8/2
0
0
UV/VIS
1
1
1
DoubleDePol,CommonBeamDepol,RBeamAtt,SBeamAtt,60mm sphere, WB InGaAs Detector
0
0
0
0
Program
Program
3350/2 860,8/2
3350/0,2 860,8/0,2
3350/0,2 860,8/0,2
0
15.00
 
 
 
0
 
860,8
319,2
860,8
Front
100
on
S:100 R:100
0
0
0
0
 
0
 
 
 
0
 
 
0
0
0
0
0
 
 
 
 
0
0


0
0
#HDR
-1
-1
#GR
nm
%R
1.0
0.0
2400,000000
-1,000000
2151
8
18,022800
1,427300
#DATA
2400.000000	7.360200
2399.000000	7.872100
2398.000000	6.778700
2397.000000	7.635800
2396.000000	8.190800
2395.000000	6.491800
2394.000000	6.842200
2393.000000	8.480300
2392.000000	6.870600
2391.000000	7.838200
2390.000000	7.035800
2389.000000	7.794800
2388.000000	7.490500
2387.000000	7.563700
2386.000000	7.240200
2385.000000	7.037100
2384.000000	7.135600
2383.000000	6.835400
2382.000000	8.247500
2381.000000	6.011000
2380.000000	6.251200
2379.000000	6.046800
2378.000000	6.805900
2377.000000	7.418700
2376.000000	6.634300
2375.000000	6.899000
2374.000000	7.464400
2373.000000	7.481700
2372.000000	7.093900
2371.000000	7.192200
2370.000000	7.367300
2369.000000	6.967800
2368.000000	7.304400
2367.000000	7.002200
2366.000000	7.341800
2365.000000	6.895300
2364.000000	7.330000
2363.000000	7.428600
2362.000000	6.988200
2361.000000	6.591900
2360.000000	7.421600
2359.000000	6.405700
2358.000000	7.245200
2357.000000	7.355900
2356.000000	7.052800
2355.000000	6.663900
2354.000000	7.169600
2353.000000	7.170300
2352.000000	6.604300
2351.000000	6.578700
2350.000000	6.591200
2349.000000	6.372500
2348.000000	6.680700
2347.000000	7.243400
2346.000000	6.426800
2345.000000	6.744400
2344.000000	7.123700
2343.000000	6.318100
2342.000000	6.584800
2341.000000	7.274800
2340.000000	6.883700
2339.000000	6.910000
2338.000000	6.070600
2337.000000	6.231600
2336.000000	6.408500
2335.000000	6.451200
2334.000000	6.616000
2333.000000	6.150600
2332.000000	6.142200
2331.000000	6.330100
2330.000000	6.341600
2329.000000	6.300300
2328.000000	6.588800
2327.000000	6.219700
2326.000000	6.043000
2325.000000	6.366600
2324.000000	6.493200
2323.000000	6.770600
2322.000000	6.431800
2321.000000	5.909500
2320.000000	6.192600
2319.000000	6.442000
2318.000000	6.342100
2317.000000	6.266000
2316.000000	6.274500
2315.000000	6.240800
2314.000000	5.708300
2313.000000	5.552000
2312.000000	6.138700
2311.000000	6.149700
2310.000000	6.225100
2309.000000	6.063900
2308.000000	6.292500
2307.000000	6.611900
2306.000000	6.430600
2305.000000	6.247400
2304.000000	6.182400
2303.000000	5.778800
2302.000000	5.547400
2301.000000	5.828000
2300.000000	6.205200
2299.000000	5.970500
2298.000000	5.700800
2297.000000	5.854200
2296.000000	6.107700
2295.000000	6.026200
2294.000000	6.010500
2293.000000	6.358600
2292.000000	6.400900
2291.000000	5.988000
2290.000000	5.876800
2289.000000	5.689600
2288.000000	5.644700
2287.000000	5.854000
2286.000000	6.078900
2285.000000	6.071100
2284.000000	5.958600
2283.000000	5.812400
2282.000000	5.712300
2281.000000	5.830300
2280.000000	5.725500
2279.000000	5.378200
2278.000000	5.473600
2277.000000	5.718700
2276.000000	5.611600
2275.000000	5.769900
2274.000000	5.865900
2273.000000	5.581700
2272.000000	5.898800
2271.000000	6.008700
2270.000000	5.593400
2269.000000	5.205900
2268.000000	5.271400
2267.000000	5.420600
2266.000000	5.598300
2265.000000	5.855000
2264.000000	5.723500
2263.000000	6.047300
2262.000000	5.821300
2261.000000	5.703100
2260.000000	5.769400
2259.000000	5.729500
2258.000000	5.912000
2257.000000	6.140200
2256.000000	6.194000
2255.000000	6.019800
2254.000000	5.937100
2253.000000	5.802200
2252.000000	5.797400
2251.000000	5.916700
2250.000000	6.110900
2249.000000	5.908900
2248.000000	6.114900
2247.000000	6.290400
2246.000000	6.176900
2245.000000	6.410000
2244.000000	6.330500
2243.000000	6.157400
2242.000000	6.188400
2241.000000	6.206700
2240.000000	6.450700
2239.000000	6.441500
2238.000000	6.512400
2237.000000	6.804600
2236.000000	6.601700
2235.000000	6.262100
2234.000000	6.287400
2233.000000	6.234000
2232.000000	6.292100
2231.000000	6.213900
2230.000000	6.068800
2229.000000	6.342900
2228.000000	6.639500
2227.000000	6.429700
2226.000000	6.341600
2225.000000	6.327800
2224.000000	6.156000
2223.000000	6.135900
2222.000000	6.049900
2221.000000	6.294700
2220.000000	6.286600
2219.000000	5.640900
2218.000000	6.043800
2217.000000	6.239100
2216.000000	6.083100
2215.000000	5.879800
2214.000000	6.021400
2213.000000	6.219000
2212.000000	5.932800
2211.000000	6.035100
2210.000000	5.732600
2209.000000	6.139600
2208.000000	6.075000
2207.000000	5.928800
2206.000000	5.906900
2205.000000	5.799100
2204.000000	5.927700
2203.000000	5.982600
2202.000000	5.961800
2201.000000	5.752600
2200.000000	5.709800
2199.000000	5.576800
2198.000000	5.695100
2197.000000	5.693800
2196.000000	5.567200
2195.000000	5.655000
2194.000000	5.795600
2193.000000	5.672100
2192.000000	5.790300
2191.000000	5.989900
2190.000000	6.060700
2189.000000	5.822300
2188.000000	5.880300
2187.000000	5.901300
2186.000000	5.893600
2185.000000	5.689500
2184.000000	5.766400
2183.000000	5.580100
2182.000000	5.550600
2181.000000	5.623800
2180.000000	5.525100
2179.000000	5.899700
2178.000000	5.794200
2177.000000	5.271400
2176.000000	5.734100
2175.000000	5.708100
2174.000000	5.579100
2173.000000	5.436200
2172.000000	5.883900
2171.000000	5.439500
2170.000000	5.412400
2169.000000	5.881200
2168.000000	5.895900
2167.000000	5.963200
2166.000000	5.651600
2165.000000	5.522800
2164.000000	6.081800
2163.000000	6.437300
2162.000000	5.643800
2161.000000	6.107800
2160.000000	6.078300
2159.000000	5.900300
2158.000000	5.649500
2157.000000	5.904000
2156.000000	6.406700
2155.000000	6.013300
2154.000000	6.305900
2153.000000	6.080200
2152.000000	6.165400
2151.000000	6.251600
2150.000000	6.615800
2149.000000	6.427400
2148.000000	5.988000
2147.000000	6.844100
2146.000000	6.393700
2145.000000	6.394000
2144.000000	6.308500
2143.000000	6.160600
2142.000000	6.176300
2141.000000	6.699500
2140.000000	6.612900
2139.000000	6.457900
2138.000000	6.289200
2137.000000	7.356700
2136.000000	6.585100
2135.000000	6.090000
2134.000000	6.534200
2133.000000	6.804200
2132.000000	6.171000
2131.000000	6.591000
2130.000000	6.287000
2129.000000	6.239300
2128.000000	6.178400
2127.000000	6.493200
2126.000000	6.218100
2125.000000	6.764600
2124.000000	6.232000
2123.000000	6.439300
2122.000000	6.028200
2121.000000	6.201200
2120.000000	6.317100
2119.000000	6.590500
2118.000000	6.700400
2117.000000	6.044500
2116.000000	6.335100
2115.000000	6.699600
2114.000000	6.513500
2113.000000	6.117200
2112.000000	6.272200
2111.000000	6.269600
2110.000000	6.421400
2109.000000	6.641400
2108.000000	6.293000
2107.000000	6.602100
2106.000000	6.515100
2105.000000	6.616200
2104.000000	6.287200
2103.000000	6.606700
2102.000000	6.601900
2101.000000	6.537900
2100.000000	6.626500
2099.000000	6.413400
2098.000000	6.419200
2097.000000	6.093300
2096.000000	6.178500
2095.000000	6.499100
2094.000000	6.560500
2093.000000	6.337100
2092.000000	6.137100
2091.000000	6.344600
2090.000000	6.328200
2089.000000	6.412700
2088.000000	6.325000
2087.000000	6.196200
2086.000000	6.296300
2085.000000	6.354800
2084.000000	6.601800
2083.000000	6.388600
2082.000000	6.178300
2081.000000	6.414200
2080.000000	6.315800
2079.000000	6.352100
2078.000000	6.262700
2077.000000	6.143700
2076.000000	5.972300
2075.000000	6.009600
2074.000000	6.106000
2073.000000	6.025400
2072.000000	6.043700
2071.000000	5.988300
2070.000000	5.867500
2069.000000	5.957800
2068.000000	6.132200
2067.000000	6.035100
2066.000000	5.794100
2065.000000	5.686900
2064.000000	5.532500
2063.000000	5.632800
2062.000000	5.849700
2061.000000	5.731300
2060.000000	5.590600
2059.000000	5.621500
2058.000000	5.801800
2057.000000	5.793800
2056.000000	5.686900
2055.000000	5.625000
2054.000000	5.561900
2053.000000	5.531300
2052.000000	5.603900
2051.000000	5.782700
2050.000000	5.676000
2049.000000	5.589700
2048.000000	5.570600
2047.000000	5.589100
2046.000000	5.726400
2045.000000	5.740000
2044.000000	5.603400
2043.000000	5.734000
2042.000000	5.855300
2041.000000	5.791300
2040.000000	5.833700
2039.000000	5.859800
2038.000000	5.883400
2037.000000	5.866800
2036.000000	5.946500
2035.000000	6.012800
2034.000000	5.939700
2033.000000	6.096300
2032.000000	6.062200
2031.000000	5.972000
2030.000000	6.154400
2029.000000	6.094400
2028.000000	6.023600
2027.000000	6.067000
2026.000000	6.185200
2025.000000	6.078200
2024.000000	5.956400
2023.000000	6.008400
2022.000000	6.089900
2021.000000	6.063000
2020.000000	6.181900
2019.000000	6.180300
2018.000000	6.151700
2017.000000	6.217100
2016.000000	6.206800
2015.000000	6.163000
2014.000000	6.153700
2013.000000	6.265600
2012.000000	6.209700
2011.000000	6.145100
2010.000000	6.196500
2009.000000	6.172300
2008.000000	6.178000
2007.000000	6.139400
2006.000000	6.084100
2005.000000	6.091500
2004.000000	6.074800
2003.000000	5.974600
2002.000000	6.035400
2001.000000	6.049300
2000.000000	5.877500
1999.000000	5.846500
1998.000000	5.871200
1997.000000	5.840800
1996.000000	5.812600
1995.000000	5.885400
1994.000000	5.866700
1993.000000	5.790700
1992.000000	5.834300
1991.000000	5.768600
1990.000000	5.693500
1989.000000	5.695000
1988.000000	5.713500
1987.000000	5.639300
1986.000000	5.524900
1985.000000	5.484200
1984.000000	5.537700
1983.000000	5.587200
1982.000000	5.493700
1981.000000	5.401300
1980.000000	5.397700
1979.000000	5.399300
1978.000000	5.351600
1977.000000	5.307700
1976.000000	5.234100
1975.000000	5.282600
1974.000000	5.327800
1973.000000	5.295000
1972.000000	5.276500
1971.000000	5.248400
1970.000000	5.170600
1969.000000	5.069400
1968.000000	5.119600
1967.000000	5.093100
1966.000000	5.042700
1965.000000	5.036000
1964.000000	4.976100
1963.000000	4.908400
1962.000000	4.923100
1961.000000	4.947900
1960.000000	4.921100
1959.000000	4.943600
1958.000000	4.929500
1957.000000	4.850100
1956.000000	4.817400
1955.000000	4.778800
1954.000000	4.805300
1953.000000	4.730400
1952.000000	4.751200
1951.000000	4.697900
1950.000000	4.706000
1949.000000	4.652800
1948.000000	4.635900
1947.000000	4.641900
1946.000000	4.673900
1945.000000	4.625200
1944.000000	4.613100
1943.000000	4.587300
1942.000000	4.638000
1941.000000	4.538800
1940.000000	4.635200
1939.000000	4.722100
1938.000000	4.676500
1937.000000	4.632600
1936.000000	4.611400
1935.000000	4.627400
1934.000000	4.572800
1933.000000	4.642200
1932.000000	4.587900
1931.000000	4.581700
1930.000000	4.689400
1929.000000	4.634800
1928.000000	4.681200
1927.000000	4.761400
1926.000000	4.835100
1925.000000	4.749800
1924.000000	4.825800
1923.000000	4.881100
1922.000000	4.777200
1921.000000	4.829300
1920.000000	5.073500
1919.000000	5.206700
1918.000000	5.055500
1917.000000	5.013600
1916.000000	5.095700
1915.000000	5.283000
1914.000000	5.314400
1913.000000	5.441800
1912.000000	5.534700
1911.000000	5.643300
1910.000000	5.657500
1909.000000	5.680700
1908.000000	5.630400
1907.000000	5.810900
1906.000000	6.098500
1905.000000	6.272100
1904.000000	6.395900
1903.000000	6.379300
1902.000000	6.547400
1901.000000	6.395900
1900.000000	6.552600
1899.000000	6.964000
1898.000000	7.083100
1897.000000	7.210200
1896.000000	7.313400
1895.000000	7.296900
1894.000000	7.531500
1893.000000	7.743300
1892.000000	7.920200
1891.000000	7.904000
1890.000000	8.059000
1889.000000	8.449400
1888.000000	8.512400
1887.000000	8.511700
1886.000000	8.766200
1885.000000	8.776700
1884.000000	8.929000
1883.000000	9.266600
1882.000000	9.168900
1881.000000	9.368700
1880.000000	9.459000
1879.000000	9.574900
1878.000000	9.361900
1877.000000	9.705900
1876.000000	9.969900
1875.000000	9.985000
1874.000000	9.770000
1873.000000	10.167800
1872.000000	10.296500
1871.000000	10.241400
1870.000000	10.691200
1869.000000	10.521200
1868.000000	10.292000
1867.000000	10.607900
1866.000000	10.719600
1865.000000	10.251900
1864.000000	10.369500
1863.000000	10.582200
1862.000000	10.419800
1861.000000	10.318500
1860.000000	10.335100
1859.000000	10.854300
1858.000000	10.657900
1857.000000	10.325000
1856.000000	10.753400
1855.000000	10.542000
1854.000000	10.315800
1853.000000	10.799000
1852.000000	10.916100
1851.000000	10.538100
1850.000000	10.518600
1849.000000	10.380800
1848.000000	10.428400
1847.000000	10.975600
1846.000000	11.064100
1845.000000	10.774900
1844.000000	10.553100
1843.000000	10.282000
1842.000000	10.467000
1841.000000	10.789000
1840.000000	10.747900
1839.000000	10.626400
1838.000000	10.474900
1837.000000	10.541900
1836.000000	10.717400
1835.000000	10.707700
1834.000000	10.665500
1833.000000	10.480600
1832.000000	10.441100
1831.000000	10.524100
1830.000000	10.582300
1829.000000	10.493000
1828.000000	10.567500
1827.000000	10.437900
1826.000000	10.483600
1825.000000	10.624200
1824.000000	10.477500
1823.000000	10.321000
1822.000000	10.342300
1821.000000	10.371400
1820.000000	10.666200
1819.000000	10.664500
1818.000000	10.512400
1817.000000	10.438600
1816.000000	10.380300
1815.000000	10.556800
1814.000000	10.530800
1813.000000	10.363700
1812.000000	10.459500
1811.000000	10.430100
1810.000000	10.480500
1809.000000	10.443800
1808.000000	10.385100
1807.000000	10.361700
1806.000000	10.423100
1805.000000	10.424300
1804.000000	10.361800
1803.000000	10.277900
1802.000000	10.292600
1801.000000	10.354800
1800.000000	10.386100
1799.000000	10.392300
1798.000000	10.340100
1797.000000	10.312500
1796.000000	10.304900
1795.000000	10.328700
1794.000000	10.338300
1793.000000	10.304100
1792.000000	10.279500
1791.000000	10.262300
1790.000000	10.274400
1789.000000	10.266600
1788.000000	10.272100
1787.000000	10.318600
1786.000000	10.298200
1785.000000	10.306000
1784.000000	10.338400
1783.000000	10.314700
1782.000000	10.281300
1781.000000	10.281600
1780.000000	10.267500
1779.000000	10.215600
1778.000000	10.225700
1777.000000	10.244400
1776.000000	10.258200
1775.000000	10.284600
1774.000000	10.229400
1773.000000	10.200500
1772.000000	10.188500
1771.000000	10.179200
1770.000000	10.169800
1769.000000	10.169200
1768.000000	10.158300
1767.000000	10.180600
1766.000000	10.165700
1765.000000	10.213500
1764.000000	10.193400
1763.000000	10.122500
1762.000000	10.122000
1761.000000	10.190000
1760.000000	10.174900
1759.000000	10.129200
1758.000000	10.102900
1757.000000	10.082900
1756.000000	10.087200
1755.000000	10.085400
1754.000000	10.132200
1753.000000	10.130100
1752.000000	10.116900
1751.000000	10.127900
1750.000000	10.121400
1749.000000	10.111900
1748.000000	10.099200
1747.000000	10.061800
1746.000000	10.047800
1745.000000	10.053200
1744.000000	10.020700
1743.000000	9.986800
1742.000000	9.957300
1741.000000	9.965400
1740.000000	9.951500
1739.000000	9.923900
1738.000000	9.924200
1737.000000	9.910000
1736.000000	9.889600
1735.000000	9.879600
1734.000000	9.872200
1733.000000	9.864200
1732.000000	9.843000
1731.000000	9.843600
1730.000000	9.852300
1729.000000	9.814600
1728.000000	9.776500
1727.000000	9.761300
1726.000000	9.771600
1725.000000	9.792900
1724.000000	9.794800
1723.000000	9.786200
1722.000000	9.771900
1721.000000	9.812000
1720.000000	9.900000
1719.000000	9.921900
1718.000000	10.000700
1717.000000	10.080100
1716.000000	10.145200
1715.000000	10.192200
1714.000000	10.202500
1713.000000	10.253100
1712.000000	10.295800
1711.000000	10.346900
1710.000000	10.381100
1709.000000	10.423900
1708.000000	10.499700
1707.000000	10.512800
1706.000000	10.505900
1705.000000	10.529500
1704.000000	10.556300
1703.000000	10.547900
1702.000000	10.526600
1701.000000	10.539900
1700.000000	10.540000
1699.000000	10.567400
1698.000000	10.597800
1697.000000	10.577700
1696.000000	10.576800
1695.000000	10.568600
1694.000000	10.560700
1693.000000	10.514100
1692.000000	10.484800
1691.000000	10.440600
1690.000000	10.488300
1689.000000	10.478000
1688.000000	10.467900
1687.000000	10.452900
1686.000000	10.440200
1685.000000	10.521200
1684.000000	10.545300
1683.000000	10.642100
1682.000000	10.684900
1681.000000	10.722300
1680.000000	10.754500
1679.000000	10.801300
1678.000000	10.869700
1677.000000	10.943800
1676.000000	10.967900
1675.000000	11.000500
1674.000000	11.017100
1673.000000	11.089300
1672.000000	11.138300
1671.000000	11.162700
1670.000000	11.224300
1669.000000	11.294100
1668.000000	11.341700
1667.000000	11.369300
1666.000000	11.444300
1665.000000	11.455800
1664.000000	11.484300
1663.000000	11.465500
1662.000000	11.504800
1661.000000	11.579200
1660.000000	11.606400
1659.000000	11.634100
1658.000000	11.644000
1657.000000	11.702700
1656.000000	11.693600
1655.000000	11.698200
1654.000000	11.701600
1653.000000	11.730700
1652.000000	11.730900
1651.000000	11.726600
1650.000000	11.733300
1649.000000	11.789100
1648.000000	11.766300
1647.000000	11.691000
1646.000000	11.677500
1645.000000	11.692100
1644.000000	11.730400
1643.000000	11.673600
1642.000000	11.701500
1641.000000	11.676000
1640.000000	11.680900
1639.000000	11.681000
1638.000000	11.656300
1637.000000	11.668500
1636.000000	11.648400
1635.000000	11.641800
1634.000000	11.646600
1633.000000	11.644000
1632.000000	11.669500
1631.000000	11.668400
1630.000000	11.649000
1629.000000	11.636900
1628.000000	11.614300
1627.000000	11.580600
1626.000000	11.612800
1625.000000	11.567400
1624.000000	11.544100
1623.000000	11.534900
1622.000000	11.549000
1621.000000	11.497300
1620.000000	11.508300
1619.000000	11.535500
1618.000000	11.519200
1617.000000	11.542700
1616.000000	11.505600
1615.000000	11.497900
1614.000000	11.510700
1613.000000	11.470800
1612.000000	11.453300
1611.000000	11.467000
1610.000000	11.430200
1609.000000	11.432300
1608.000000	11.401500
1607.000000	11.399700
1606.000000	11.366100
1605.000000	11.362400
1604.000000	11.360700
1603.000000	11.385600
1602.000000	11.297600
1601.000000	11.300200
1600.000000	11.312000
1599.000000	11.254200
1598.000000	11.230800
1597.000000	11.229000
1596.000000	11.213800
1595.000000	11.136400
1594.000000	11.134700
1593.000000	11.108100
1592.000000	11.117700
1591.000000	11.110100
1590.000000	11.100200
1589.000000	11.082200
1588.000000	11.079200
1587.000000	11.075500
1586.000000	11.063500
1585.000000	11.061300
1584.000000	11.039000
1583.000000	11.019300
1582.000000	10.976000
1581.000000	10.963600
1580.000000	10.958700
1579.000000	10.964300
1578.000000	10.986400
1577.000000	11.013700
1576.000000	10.984700
1575.000000	11.010100
1574.000000	10.991800
1573.000000	10.991100
1572.000000	10.994900
1571.000000	10.953700
1570.000000	10.966900
1569.000000	10.966800
1568.000000	10.967200
1567.000000	10.918700
1566.000000	10.939000
1565.000000	10.979200
1564.000000	11.015600
1563.000000	10.999800
1562.000000	11.003500
1561.000000	11.001200
1560.000000	11.005500
1559.000000	11.020800
1558.000000	10.959500
1557.000000	10.948200
1556.000000	10.950200
1555.000000	10.968900
1554.000000	10.933300
1553.000000	10.898800
1552.000000	10.879000
1551.000000	10.874500
1550.000000	10.870200
1549.000000	10.864100
1548.000000	10.820900
1547.000000	10.813100
1546.000000	10.778800
1545.000000	10.814700
1544.000000	10.757600
1543.000000	10.757800
1542.000000	10.748600
1541.000000	10.732500
1540.000000	10.710300
1539.000000	10.694200
1538.000000	10.714200
1537.000000	10.718400
1536.000000	10.672800
1535.000000	10.690500
1534.000000	10.691000
1533.000000	10.650200
1532.000000	10.633000
1531.000000	10.583100
1530.000000	10.548000
1529.000000	10.567600
1528.000000	10.575100
1527.000000	10.581900
1526.000000	10.553300
1525.000000	10.537500
1524.000000	10.518900
1523.000000	10.486400
1522.000000	10.460500
1521.000000	10.477200
1520.000000	10.464500
1519.000000	10.451800
1518.000000	10.405800
1517.000000	10.391800
1516.000000	10.374300
1515.000000	10.342900
1514.000000	10.302000
1513.000000	10.267600
1512.000000	10.260000
1511.000000	10.245900
1510.000000	10.218600
1509.000000	10.206800
1508.000000	10.200000
1507.000000	10.158000
1506.000000	10.120500
1505.000000	10.121000
1504.000000	10.124600
1503.000000	10.125100
1502.000000	10.101300
1501.000000	10.083100
1500.000000	10.062800
1499.000000	10.050400
1498.000000	10.057200
1497.000000	10.056900
1496.000000	10.034500
1495.000000	10.040300
1494.000000	10.024600
1493.000000	10.020000
1492.000000	10.036800
1491.000000	10.062900
1490.000000	10.060100
1489.000000	10.054900
1488.000000	10.043500
1487.000000	10.035600
1486.000000	10.066500
1485.000000	10.076300
1484.000000	10.085000
1483.000000	10.065300
1482.000000	10.042800
1481.000000	10.084300
1480.000000	10.091100
1479.000000	10.067000
1478.000000	10.077400
1477.000000	10.128900
1476.000000	10.149500
1475.000000	10.129600
1474.000000	10.123200
1473.000000	10.154900
1472.000000	10.182500
1471.000000	10.176800
1470.000000	10.194000
1469.000000	10.227000
1468.000000	10.226000
1467.000000	10.229700
1466.000000	10.266400
1465.000000	10.294600
1464.000000	10.304100
1463.000000	10.329800
1462.000000	10.360800
1461.000000	10.368700
1460.000000	10.388800
1459.000000	10.393700
1458.000000	10.399700
1457.000000	10.450100
1456.000000	10.478600
1455.000000	10.519500
1454.000000	10.561700
1453.000000	10.558200
1452.000000	10.572300
1451.000000	10.618800
1450.000000	10.685600
1449.000000	10.716700
1448.000000	10.710000
1447.000000	10.696700
1446.000000	10.737100
1445.000000	10.811600
1444.000000	10.800100
1443.000000	10.764500
1442.000000	10.810700
1441.000000	10.852900
1440.000000	10.890500
1439.000000	10.931000
1438.000000	10.975900
1437.000000	11.029600
1436.000000	11.059000
1435.000000	11.087900
1434.000000	11.121800
1433.000000	11.109100
1432.000000	11.168900
1431.000000	11.258800
1430.000000	11.292500
1429.000000	11.319100
1428.000000	11.408300
1427.000000	11.478400
1426.000000	11.521200
1425.000000	11.560300
1424.000000	11.622600
1423.000000	11.747500
1422.000000	11.803300
1421.000000	11.789100
1420.000000	11.812800
1419.000000	11.953300
1418.000000	12.075800
1417.000000	12.111800
1416.000000	12.114700
1415.000000	12.141800
1414.000000	12.402000
1413.000000	12.563800
1412.000000	12.588100
1411.000000	12.589000
1410.000000	12.610000
1409.000000	12.891500
1408.000000	12.991200
1407.000000	13.140100
1406.000000	13.197600
1405.000000	13.245200
1404.000000	13.574100
1403.000000	13.547000
1402.000000	13.400100
1401.000000	13.552000
1400.000000	14.047600
1399.000000	14.219000
1398.000000	14.027600
1397.000000	13.902200
1396.000000	14.132600
1395.000000	14.553800
1394.000000	14.595800
1393.000000	14.424400
1392.000000	14.686400
1391.000000	14.836000
1390.000000	14.760600
1389.000000	14.677600
1388.000000	14.914200
1387.000000	15.125600
1386.000000	14.965500
1385.000000	15.108100
1384.000000	15.047200
1383.000000	15.129400
1382.000000	15.549500
1381.000000	15.590800
1380.000000	15.713400
1379.000000	15.657300
1378.000000	15.570000
1377.000000	15.516700
1376.000000	15.599600
1375.000000	15.603700
1374.000000	15.590800
1373.000000	15.552500
1372.000000	15.532400
1371.000000	15.717200
1370.000000	15.799200
1369.000000	15.615000
1368.000000	15.798100
1367.000000	16.045900
1366.000000	15.750200
1365.000000	15.752900
1364.000000	16.108200
1363.000000	15.769200
1362.000000	15.738200
1361.000000	16.201000
1360.000000	16.083700
1359.000000	15.998200
1358.000000	16.003000
1357.000000	16.027400
1356.000000	15.956900
1355.000000	16.040800
1354.000000	16.244700
1353.000000	16.154700
1352.000000	16.239600
1351.000000	16.293600
1350.000000	16.381100
1349.000000	16.285800
1348.000000	16.357800
1347.000000	16.534500
1346.000000	16.521900
1345.000000	16.508300
1344.000000	16.540200
1343.000000	16.594400
1342.000000	16.601900
1341.000000	16.629500
1340.000000	16.636900
1339.000000	16.726600
1338.000000	16.724600
1337.000000	16.732500
1336.000000	16.758500
1335.000000	16.822800
1334.000000	16.856300
1333.000000	16.884500
1332.000000	16.903200
1331.000000	16.972400
1330.000000	16.969400
1329.000000	16.974100
1328.000000	16.993300
1327.000000	17.059800
1326.000000	17.033200
1325.000000	17.078300
1324.000000	17.093500
1323.000000	17.059600
1322.000000	17.061000
1321.000000	17.069400
1320.000000	17.120500
1319.000000	17.156800
1318.000000	17.155600
1317.000000	17.147100
1316.000000	17.154400
1315.000000	17.199700
1314.000000	17.214200
1313.000000	17.219400
1312.000000	17.238700
1311.000000	17.225500
1310.000000	17.202100
1309.000000	17.195800
1308.000000	17.218700
1307.000000	17.195500
1306.000000	17.203200
1305.000000	17.224700
1304.000000	17.227700
1303.000000	17.228400
1302.000000	17.249400
1301.000000	17.253500
1300.000000	17.225000
1299.000000	17.191600
1298.000000	17.202200
1297.000000	17.211600
1296.000000	17.190900
1295.000000	17.172600
1294.000000	17.190800
1293.000000	17.187200
1292.000000	17.169700
1291.000000	17.198600
1290.000000	17.199400
1289.000000	17.201600
1288.000000	17.208600
1287.000000	17.196300
1286.000000	17.179200
1285.000000	17.168300
1284.000000	17.176500
1283.000000	17.181600
1282.000000	17.172200
1281.000000	17.171800
1280.000000	17.177800
1279.000000	17.173900
1278.000000	17.175500
1277.000000	17.198200
1276.000000	17.198600
1275.000000	17.218200
1274.000000	17.219300
1273.000000	17.219600
1272.000000	17.181300
1271.000000	17.137400
1270.000000	17.110300
1269.000000	17.069700
1268.000000	17.090500
1267.000000	17.130700
1266.000000	17.142100
1265.000000	17.100900
1264.000000	17.083100
1263.000000	17.106600
1262.000000	17.141600
1261.000000	17.150500
1260.000000	17.114700
1259.000000	17.101600
1258.000000	17.083200
1257.000000	17.056900
1256.000000	17.055200
1255.000000	17.030000
1254.000000	17.021300
1253.000000	17.006400
1252.000000	17.004800
1251.000000	17.014000
1250.000000	17.016900
1249.000000	17.016700
1248.000000	17.027100
1247.000000	17.000400
1246.000000	16.987800
1245.000000	16.969600
1244.000000	16.971400
1243.000000	16.979600
1242.000000	16.976700
1241.000000	16.985000
1240.000000	16.998900
1239.000000	16.987000
1238.000000	17.001000
1237.000000	17.006700
1236.000000	16.994600
1235.000000	16.975200
1234.000000	16.958500
1233.000000	16.958500
1232.000000	16.964200
1231.000000	16.993400
1230.000000	17.003400
1229.000000	16.992300
1228.000000	16.947700
1227.000000	16.914600
1226.000000	16.894600
1225.000000	16.876400
1224.000000	16.858600
1223.000000	16.847200
1222.000000	16.832200
1221.000000	16.806000
1220.000000	16.780500
1219.000000	16.757500
1218.000000	16.748300
1217.000000	16.718100
1216.000000	16.692900
1215.000000	16.668200
1214.000000	16.643400
1213.000000	16.650200
1212.000000	16.658900
1211.000000	16.650600
1210.000000	16.622800
1209.000000	16.587500
1208.000000	16.574200
1207.000000	16.575700
1206.000000	16.564400
1205.000000	16.549900
1204.000000	16.535400
1203.000000	16.516500
1202.000000	16.491900
1201.000000	16.494100
1200.000000	16.500100
1199.000000	16.512300
1198.000000	16.503200
1197.000000	16.477600
1196.000000	16.475700
1195.000000	16.455400
1194.000000	16.446100
1193.000000	16.428000
1192.000000	16.388300
1191.000000	16.356600
1190.000000	16.327700
1189.000000	16.346600
1188.000000	16.346500
1187.000000	16.279000
1186.000000	16.231200
1185.000000	16.222600
1184.000000	16.237700
1183.000000	16.244700
1182.000000	16.229900
1181.000000	16.228900
1180.000000	16.255900
1179.000000	16.281900
1178.000000	16.273800
1177.000000	16.283900
1176.000000	16.299400
1175.000000	16.257300
1174.000000	16.262900
1173.000000	16.291900
1172.000000	16.344400
1171.000000	16.356400
1170.000000	16.359400
1169.000000	16.390000
1168.000000	16.388300
1167.000000	16.398100
1166.000000	16.391400
1165.000000	16.398300
1164.000000	16.407800
1163.000000	16.450000
1162.000000	16.518800
1161.000000	16.551100
1160.000000	16.564500
1159.000000	16.564000
1158.000000	16.598100
1157.000000	16.651100
1156.000000	16.656200
1155.000000	16.664200
1154.000000	16.644600
1153.000000	16.640600
1152.000000	16.675800
1151.000000	16.673800
1150.000000	16.670700
1149.000000	16.686200
1148.000000	16.723600
1147.000000	16.782600
1146.000000	16.824100
1145.000000	16.841700
1144.000000	16.864000
1143.000000	16.831800
1142.000000	16.784600
1141.000000	16.803700
1140.000000	16.831700
1139.000000	16.852900
1138.000000	16.856900
1137.000000	16.842400
1136.000000	16.803900
1135.000000	16.908300
1134.000000	17.019900
1133.000000	17.001100
1132.000000	16.970800
1131.000000	16.921200
1130.000000	16.928100
1129.000000	16.992300
1128.000000	17.016000
1127.000000	16.998000
1126.000000	17.039200
1125.000000	17.074600
1124.000000	17.000800
1123.000000	16.985200
1122.000000	17.035100
1121.000000	17.047100
1120.000000	17.081900
1119.000000	17.064700
1118.000000	17.032000
1117.000000	16.993600
1116.000000	17.030900
1115.000000	16.965500
1114.000000	16.893200
1113.000000	16.872100
1112.000000	16.848900
1111.000000	16.860900
1110.000000	16.876300
1109.000000	16.798800
1108.000000	16.797300
1107.000000	16.822300
1106.000000	16.853200
1105.000000	16.797300
1104.000000	16.786100
1103.000000	16.738700
1102.000000	16.715700
1101.000000	16.705500
1100.000000	16.682300
1099.000000	16.681900
1098.000000	16.703900
1097.000000	16.739100
1096.000000	16.707200
1095.000000	16.677800
1094.000000	16.647100
1093.000000	16.596000
1092.000000	16.545800
1091.000000	16.557200
1090.000000	16.530600
1089.000000	16.564100
1088.000000	16.554800
1087.000000	16.525600
1086.000000	16.474700
1085.000000	16.488300
1084.000000	16.451700
1083.000000	16.536800
1082.000000	16.424100
1081.000000	16.376300
1080.000000	16.327700
1079.000000	16.369700
1078.000000	16.349400
1077.000000	16.319200
1076.000000	16.399500
1075.000000	16.347600
1074.000000	16.359600
1073.000000	16.292900
1072.000000	16.244700
1071.000000	16.207600
1070.000000	16.263100
1069.000000	16.278900
1068.000000	16.249400
1067.000000	16.211000
1066.000000	16.134400
1065.000000	16.100200
1064.000000	16.111000
1063.000000	16.126400
1062.000000	16.074000
1061.000000	16.065400
1060.000000	16.033100
1059.000000	16.034400
1058.000000	16.016800
1057.000000	16.075900
1056.000000	15.921700
1055.000000	15.906300
1054.000000	15.838900
1053.000000	15.865000
1052.000000	15.847400
1051.000000	15.902700
1050.000000	15.903200
1049.000000	15.886800
1048.000000	15.873000
1047.000000	15.791200
1046.000000	15.713100
1045.000000	15.688900
1044.000000	15.702300
1043.000000	15.656400
1042.000000	15.563900
1041.000000	15.624000
1040.000000	15.653800
1039.000000	15.671500
1038.000000	15.656500
1037.000000	15.622100
1036.000000	15.612500
1035.000000	15.571000
1034.000000	15.530000
1033.000000	15.502300
1032.000000	15.455100
1031.000000	15.463500
1030.000000	15.379800
1029.000000	15.400000
1028.000000	15.379000
1027.000000	15.353400
1026.000000	15.325500
1025.000000	15.228800
1024.000000	15.204700
1023.000000	15.280400
1022.000000	15.318500
1021.000000	15.246600
1020.000000	15.265300
1019.000000	15.210400
1018.000000	15.235000
1017.000000	15.179600
1016.000000	15.107500
1015.000000	15.006600
1014.000000	14.988400
1013.000000	15.043900
1012.000000	15.017100
1011.000000	15.031700
1010.000000	15.044700
1009.000000	15.069300
1008.000000	14.973000
1007.000000	14.957900
1006.000000	14.828600
1005.000000	14.802400
1004.000000	14.881600
1003.000000	14.871800
1002.000000	14.814200
1001.000000	14.764600
1000.000000	14.781400
999.000000	14.796000
998.000000	14.781800
997.000000	14.695900
996.000000	14.752200
995.000000	14.728300
994.000000	14.626800
993.000000	14.596400
992.000000	14.609100
991.000000	14.603200
990.000000	14.581600
989.000000	14.557600
988.000000	14.544300
987.000000	14.545800
986.000000	14.476100
985.000000	14.428800
984.000000	14.395400
983.000000	14.330200
982.000000	14.328700
981.000000	14.335800
980.000000	14.327400
979.000000	14.253700
978.000000	14.238000
977.000000	14.232700
976.000000	14.166300
975.000000	14.143200
974.000000	14.193100
973.000000	14.150300
972.000000	14.152100
971.000000	14.203700
970.000000	14.212900
969.000000	14.144700
968.000000	14.003700
967.000000	14.021800
966.000000	13.944500
965.000000	13.967700
964.000000	13.993600
963.000000	13.884300
962.000000	13.947100
961.000000	13.942200
960.000000	13.920300
959.000000	13.975400
958.000000	13.921000
957.000000	13.801300
956.000000	13.769700
955.000000	13.845200
954.000000	13.885700
953.000000	13.838500
952.000000	13.797300
951.000000	13.769200
950.000000	13.793600
949.000000	13.876500
948.000000	13.821700
947.000000	13.675600
946.000000	13.613400
945.000000	13.649100
944.000000	13.671600
943.000000	13.718800
942.000000	13.785800
941.000000	13.755000
940.000000	13.592800
939.000000	13.626000
938.000000	13.590300
937.000000	13.566900
936.000000	13.554200
935.000000	13.535000
934.000000	13.594100
933.000000	13.589200
932.000000	13.539400
931.000000	13.572100
930.000000	13.500300
929.000000	13.380900
928.000000	13.496500
927.000000	13.401900
926.000000	13.326300
925.000000	13.393600
924.000000	13.562800
923.000000	13.486200
922.000000	13.315600
921.000000	13.261000
920.000000	13.246900
919.000000	13.190300
918.000000	13.302200
917.000000	13.322600
916.000000	13.348400
915.000000	13.213900
914.000000	13.118900
913.000000	13.081500
912.000000	13.287800
911.000000	13.338300
910.000000	13.191000
909.000000	13.333000
908.000000	13.488900
907.000000	13.114000
906.000000	13.145300
905.000000	13.458000
904.000000	13.395800
903.000000	13.175400
902.000000	13.531900
901.000000	13.483200
900.000000	13.306700
899.000000	13.253300
898.000000	13.329300
897.000000	13.408700
896.000000	13.404800
895.000000	13.539500
894.000000	13.513200
893.000000	13.394700
892.000000	13.408700
891.000000	13.249500
890.000000	13.103200
889.000000	13.502100
888.000000	13.865800
887.000000	13.496100
886.000000	13.390000
885.000000	13.881400
884.000000	13.294400
883.000000	13.155000
882.000000	14.036100
881.000000	13.999900
880.000000	14.125700
879.000000	13.811700
878.000000	13.515000
877.000000	13.833600
876.000000	13.605800
875.000000	13.513700
874.000000	13.473200
873.000000	14.055500
872.000000	14.225400
871.000000	14.418400
870.000000	13.556600
869.000000	14.385800
868.000000	14.514500
867.000000	14.125600
866.000000	13.692800
865.000000	13.677700
864.000000	14.070400
863.000000	15.161900
862.000000	15.913600
861.000000	14.424600
860.000000	13.642100
859.000000	14.275800
858.000000	16.227000
857.000000	14.285820
856.000000	14.143002
855.000000	14.123761
854.000000	14.137662
853.000000	14.087824
852.000000	13.989673
851.000000	14.045529
850.000000	14.104775
849.000000	13.987893
848.000000	13.957295
847.000000	14.025102
846.000000	13.936953
845.000000	14.034002
844.000000	13.988741
843.000000	13.947718
842.000000	13.915340
841.000000	13.887285
840.000000	13.964500
839.000000	13.850838
838.000000	13.882962
837.000000	13.899405
836.000000	13.879995
835.000000	13.835158
834.000000	13.804306
833.000000	13.819817
832.000000	13.741246
831.000000	13.768114
830.000000	13.791338
829.000000	13.797186
828.000000	13.732092
827.000000	13.757519
826.000000	13.742432
825.000000	13.720225
824.000000	13.734550
823.000000	13.684627
822.000000	13.670387
821.000000	13.614362
820.000000	13.681914
819.000000	13.664624
818.000000	13.606225
817.000000	13.586307
816.000000	13.620973
815.000000	13.649537
814.000000	13.612751
813.000000	13.607496
812.000000	13.608937
811.000000	13.614192
810.000000	13.616142
809.000000	13.683186
808.000000	13.622922
807.000000	13.586391
806.000000	13.633602
805.000000	13.662505
804.000000	13.681152
803.000000	13.688356
802.000000	13.646570
801.000000	13.672337
800.000000	13.750145
799.000000	13.735482
798.000000	13.764724
797.000000	13.755400
796.000000	13.818206
795.000000	13.756841
794.000000	13.747094
793.000000	13.754637
792.000000	13.803458
791.000000	13.844990
790.000000	13.852873
789.000000	13.840922
788.000000	13.880674
787.000000	13.920171
786.000000	13.886183
785.000000	13.914068
784.000000	13.947972
783.000000	13.994589
782.000000	13.950854
781.000000	13.969924
780.000000	14.040444
779.000000	14.073754
778.000000	14.131898
777.000000	14.129355
776.000000	14.140713
775.000000	14.165547
774.000000	14.145036
773.000000	14.201316
772.000000	14.282684
771.000000	14.296330
770.000000	14.301924
769.000000	14.330064
768.000000	14.421010
767.000000	14.464237
766.000000	14.589171
765.000000	14.572898
764.000000	14.531112
763.000000	14.588493
762.000000	14.596800
761.000000	14.599088
760.000000	14.667997
759.000000	14.771657
758.000000	14.767927
757.000000	14.811409
756.000000	14.820223
755.000000	14.830225
754.000000	14.844973
753.000000	14.917611
752.000000	14.957363
751.000000	14.931766
750.000000	14.992538
749.000000	15.023051
748.000000	15.057039
747.000000	15.064583
746.000000	15.088061
745.000000	15.109166
744.000000	15.134848
743.000000	15.154512
742.000000	15.132051
741.000000	15.144341
740.000000	15.156885
739.000000	15.155953
738.000000	15.207571
737.000000	15.198162
736.000000	15.217996
735.000000	15.198501
734.000000	15.195365
733.000000	15.219013
732.000000	15.248339
731.000000	15.275886
730.000000	15.251730
729.000000	15.221725
728.000000	15.215707
727.000000	15.208672
726.000000	15.184686
725.000000	15.176210
724.000000	15.189008
723.000000	15.167904
722.000000	15.148833
721.000000	15.123490
720.000000	15.087722
719.000000	15.062972
718.000000	15.035002
717.000000	15.017542
716.000000	14.973552
715.000000	14.917865
714.000000	14.894048
713.000000	14.927443
712.000000	14.885064
711.000000	14.880826
710.000000	14.854381
709.000000	14.810307
708.000000	14.774199
707.000000	14.727836
706.000000	14.672743
705.000000	14.624177
704.000000	14.573660
703.000000	14.537129
702.000000	14.508820
701.000000	14.461016
700.000000	14.387022
699.000000	14.310315
698.000000	14.239966
697.000000	14.215216
696.000000	14.174617
695.000000	14.133678
694.000000	14.080365
693.000000	14.010439
692.000000	13.952634
691.000000	13.922205
690.000000	13.891946
689.000000	13.837955
688.000000	13.789304
687.000000	13.755994
686.000000	13.704121
685.000000	13.655300
684.000000	13.594952
683.000000	13.517144
682.000000	13.451032
681.000000	13.360510
680.000000	13.272954
679.000000	13.196586
678.000000	13.143612
677.000000	13.144884
676.000000	13.090807
675.000000	13.002997
674.000000	12.905355
673.000000	12.823563
672.000000	12.764317
671.000000	12.722277
670.000000	12.662861
669.000000	12.576238
668.000000	12.510041
667.000000	12.442149
666.000000	12.383157
665.000000	12.309417
664.000000	12.227879
663.000000	12.148884
662.000000	12.088282
661.000000	12.029375
660.000000	11.962415
659.000000	11.890455
658.000000	11.813664
657.000000	11.756197
656.000000	11.689492
655.000000	11.614227
654.000000	11.546081
653.000000	11.489292
652.000000	11.438268
651.000000	11.391311
650.000000	11.333336
649.000000	11.252561
648.000000	11.191027
647.000000	11.133730
646.000000	11.080925
645.000000	11.032528
644.000000	10.972603
643.000000	10.904966
642.000000	10.839532
641.000000	10.771725
640.000000	10.711632
639.000000	10.666286
638.000000	10.623398
637.000000	10.592630
636.000000	10.554404
635.000000	10.507363
634.000000	10.450490
633.000000	10.398703
632.000000	10.350983
631.000000	10.305383
630.000000	10.280464
629.000000	10.250629
628.000000	10.211555
627.000000	10.169939
626.000000	10.117897
625.000000	10.076281
624.000000	10.048310
623.000000	10.015254
622.000000	9.976265
621.000000	9.931513
620.000000	9.895575
619.000000	9.857095
618.000000	9.813274
617.000000	9.776828
616.000000	9.733262
615.000000	9.699528
614.000000	9.661048
613.000000	9.622652
612.000000	9.597309
611.000000	9.562389
610.000000	9.523654
609.000000	9.487293
608.000000	9.457373
607.000000	9.439658
606.000000	9.424995
605.000000	9.410416
604.000000	9.388633
603.000000	9.366766
602.000000	9.353459
601.000000	9.333540
600.000000	9.309130
599.000000	9.283109
598.000000	9.247595
597.000000	9.226321
596.000000	9.213522
595.000000	9.204283
594.000000	9.185891
593.000000	9.164108
592.000000	9.147834
591.000000	9.136476
590.000000	9.119779
589.000000	9.091470
588.000000	9.061380
587.000000	9.044937
586.000000	9.046378
585.000000	9.048158
584.000000	9.039343
583.000000	9.046039
582.000000	9.060109
581.000000	9.064855
580.000000	9.057142
579.000000	9.062906
578.000000	9.067907
577.000000	9.068839
576.000000	9.062567
575.000000	9.060448
574.000000	9.070704
573.000000	9.067229
572.000000	9.067568
571.000000	9.070534
570.000000	9.088757
569.000000	9.082655
568.000000	9.065025
567.000000	9.060448
566.000000	9.076467
565.000000	9.094351
564.000000	9.086299
563.000000	9.063330
562.000000	9.057736
561.000000	9.073246
560.000000	9.088333
559.000000	9.237593
558.000000	9.309893
557.000000	9.330828
556.000000	9.346085
555.000000	9.381344
554.000000	9.398211
553.000000	9.418638
552.000000	9.444320
551.000000	9.471104
550.000000	9.489835
549.000000	9.523145
548.000000	9.547725
547.000000	9.576967
546.000000	9.586375
545.000000	9.584595
544.000000	9.576459
543.000000	9.580358
542.000000	9.574170
541.000000	9.580866
540.000000	9.584256
539.000000	9.572814
538.000000	9.562897
537.000000	9.558744
536.000000	9.536114
535.000000	9.520518
534.000000	9.491107
533.000000	9.473477
532.000000	9.459407
531.000000	9.419909
530.000000	9.403297
529.000000	9.392617
528.000000	9.343796
527.000000	9.294721
526.000000	9.258614
525.000000	9.197418
524.000000	9.168176
523.000000	9.116473
522.000000	9.074772
521.000000	9.010610
520.000000	8.939921
519.000000	8.873979
518.000000	8.824564
517.000000	8.769895
516.000000	8.677593
515.000000	8.584189
514.000000	8.502566
513.000000	8.422808
512.000000	8.316606
511.000000	8.246934
510.000000	8.170143
509.000000	8.089029
508.000000	8.014017
507.000000	7.934175
506.000000	7.855773
505.000000	7.794747
504.000000	7.704648
503.000000	7.614719
502.000000	7.543098
501.000000	7.453593
500.000000	7.367732
499.000000	7.294501
498.000000	7.215591
497.000000	7.161260
496.000000	7.107608
495.000000	7.032597
494.000000	6.969112
493.000000	6.888253
492.000000	6.829091
491.000000	6.766539
490.000000	6.676695
489.000000	6.609905
488.000000	6.547692
487.000000	6.477851
486.000000	6.388685
485.000000	6.322065
484.000000	6.240188
483.000000	6.170770
482.000000	6.039988
481.000000	5.881489
480.000000	5.751808
479.000000	5.667982
478.000000	5.608481
477.000000	5.524740
476.000000	5.462442
475.000000	5.373446
474.000000	5.306571
473.000000	5.230797
472.000000	5.159430
471.000000	5.076960
470.000000	4.994829
469.000000	4.938464
468.000000	4.876929
467.000000	4.812343
466.000000	4.741485
465.000000	4.679103
464.000000	4.636469
463.000000	4.583919
462.000000	4.522214
461.000000	4.473478
460.000000	4.419063
459.000000	4.385498
458.000000	4.338542
457.000000	4.287602
456.000000	4.247511
455.000000	4.206912
454.000000	4.166736
453.000000	4.144699
452.000000	4.114864
451.000000	4.078926
450.000000	4.054940
449.000000	4.037903
448.000000	4.011289
447.000000	3.973487
446.000000	3.948737
445.000000	3.935430
444.000000	3.919834
443.000000	3.873980
442.000000	3.816768
441.000000	3.782017
440.000000	3.758369
439.000000	3.724974
438.000000	3.678696
437.000000	3.646233
436.000000	3.603854
435.000000	3.571137
434.000000	3.531894
433.000000	3.479852
432.000000	3.449000
431.000000	3.407638
430.000000	3.366530
429.000000	3.328982
428.000000	3.284483
427.000000	3.241511
426.000000	3.199555
425.000000	3.152345
424.000000	3.107338
423.000000	3.065552
422.000000	3.015459
421.000000	2.969181
420.000000	2.924768
419.000000	2.880947
418.000000	2.830346
417.000000	2.785255
416.000000	2.744571
415.000000	2.703971
414.000000	2.656506
413.000000	2.612347
412.000000	2.561238
411.000000	2.505297
410.000000	2.469783
409.000000	2.418080
408.000000	2.375192
407.000000	2.331711
406.000000	2.282297
405.000000	2.242036
404.000000	2.197369
403.000000	2.155498
402.000000	2.112779
401.000000	2.067942
400.000000	2.027936
399.000000	1.996575
398.000000	1.958773
397.000000	1.931057
396.000000	1.894187
395.000000	1.858588
394.000000	1.831889
393.000000	1.798325
392.000000	1.766795
391.000000	1.740774
390.000000	1.718482
389.000000	1.694156
388.000000	1.674323
387.000000	1.650845
386.000000	1.633723
385.000000	1.615924
384.000000	1.599820
383.000000	1.580495
382.000000	1.564476
381.000000	1.552525
380.000000	1.542862
379.000000	1.529046
378.000000	1.516926
377.000000	1.507009
376.000000	1.534895
375.000000	1.580919
374.000000	1.551508
373.000000	1.535234
372.000000	1.537861
371.000000	1.525232
370.000000	1.530911
369.000000	1.503110
368.000000	1.481158
367.000000	1.500483
366.000000	1.491498
365.000000	1.461070
364.000000	1.445644
363.000000	1.425810
362.000000	1.426488
361.000000	1.433862
360.000000	1.409791
359.000000	1.400637
358.000000	1.403604
357.000000	1.386143
356.000000	1.374531
355.000000	1.377328
354.000000	1.370548
353.000000	1.341645
352.000000	1.341984
351.000000	1.356139
350.000000	1.341815
349.000000	1.307233
348.000000	1.309691
347.000000	1.295536
346.000000	1.306555
345.000000	1.324524
344.000000	1.293333
343.000000	1.299096
342.000000	1.305453
341.000000	1.322744
340.000000	1.321727
339.000000	1.304182
338.000000	1.300622
337.000000	1.315200
336.000000	1.324863
335.000000	1.299689
334.000000	1.302147
333.000000	1.322405
332.000000	1.278669
331.000000	1.248834
330.000000	1.269939
329.000000	1.275872
328.000000	1.275364
327.000000	1.223152
326.000000	1.219932
325.000000	1.304012
324.000000	1.331135
323.000000	1.235103
322.000000	1.209761
321.000000	1.257395
320.000000	1.265617
319.000000	1.232900
318.000000	1.239341
317.000000	1.249173
316.000000	1.238409
315.000000	1.252225
314.000000	1.240358
313.000000	1.237985
312.000000	1.260446
311.000000	1.267396
310.000000	1.253242
309.000000	1.241121
308.000000	1.242647
307.000000	1.237477
306.000000	1.230611
305.000000	1.244003
304.000000	1.259260
303.000000	1.256886
302.000000	1.264091
301.000000	1.260870
300.000000	1.256039
299.000000	1.254005
298.000000	1.263498
297.000000	1.264769
296.000000	1.259090
295.000000	1.254174
294.000000	1.255784
293.000000	1.252055
292.000000	1.259514
291.000000	1.257480
290.000000	1.247309
289.000000	1.243579
288.000000	1.239172
287.000000	1.239257
286.000000	1.248241
285.000000	1.250529
284.000000	1.236205
283.000000	1.235527
282.000000	1.252055
281.000000	1.240189
280.000000	1.242138
279.000000	1.252225
278.000000	1.236460
277.000000	1.236799
276.000000	1.234510
275.000000	1.227645
274.000000	1.233917
273.000000	1.246631
272.000000	1.238578
271.000000	1.236205
270.000000	1.238494
269.000000	1.270448
268.000000	1.270617
267.000000	1.269515
266.000000	1.263413
265.000000	1.266464
264.000000	1.249428
263.000000	1.255445
262.000000	1.268075
261.000000	1.276381
260.000000	1.250614
259.000000	1.275703
258.000000	1.285959
257.000000	1.291129
256.000000	1.301469
255.000000	1.309352
254.000000	1.295791
253.000000	1.296469
252.000000	1.276211
251.000000	1.296638
250.000000	1.282399
