PE UV       SUBTECH     SPECTRUM    ASCII       PEDS        4.00        
   -1
CICIMAUCR0019-1.Sample.ASC
24/04/17
11:27:54.00
24/04/17
11:27:54.00
Vinicio Soto Monge
C. cupreomarginata
250,000000
1
Lambda 1050
1050L1511233
PerkinElmer UV WinLab 6.3.2.0749 / 2.02.05 Lambda 900 UV/VIS/NIR, Aug  7 2015 09:38:08

0
0
3350/servo 860,8/2
0
0
UV/VIS
1
1
1
DoubleDePol,CommonBeamDepol,RBeamAtt,SBeamAtt,60mm sphere, WB InGaAs Detector
0
0
0
0
Program
Program
3350/servo 860,8/2
3350/0,2 860,8/0,2
3350/0,2 860,8/0,2
0
15.00
 
 
 
0
 
860,8
319,2
860,8
Front
100
on
S:100 R:100
0
0
0
0
 
0
 
 
 
0
 
 
0
0
0
0
0
 
 
 
 
0
0


0
0
#HDR
-1
-1
#GR
nm
%R
1.0
0.0
2500,000000
-1,000000
2251
8
46,208200
3,615000
#DATA
2500.000000	5.206100
2499.000000	5.335200
2498.000000	5.310100
2497.000000	5.241100
2496.000000	5.310100
2495.000000	5.244900
2494.000000	5.220200
2493.000000	5.178100
2492.000000	5.139700
2491.000000	5.128700
2490.000000	5.174800
2489.000000	5.110500
2488.000000	5.095000
2487.000000	5.073000
2486.000000	5.226900
2485.000000	5.165500
2484.000000	5.115700
2483.000000	5.049000
2482.000000	5.140900
2481.000000	5.077400
2480.000000	5.102400
2479.000000	5.095200
2478.000000	5.061200
2477.000000	5.049200
2476.000000	5.040400
2475.000000	5.078100
2474.000000	4.999000
2473.000000	5.052100
2472.000000	5.005100
2471.000000	5.016300
2470.000000	5.022700
2469.000000	5.033600
2468.000000	5.049900
2467.000000	5.045700
2466.000000	5.026100
2465.000000	5.048000
2464.000000	5.046700
2463.000000	5.053100
2462.000000	5.048500
2461.000000	5.074500
2460.000000	5.109400
2459.000000	5.107900
2458.000000	5.126600
2457.000000	5.124100
2456.000000	5.149000
2455.000000	5.169500
2454.000000	5.178200
2453.000000	5.216400
2452.000000	5.237500
2451.000000	5.274600
2450.000000	5.328700
2449.000000	5.327400
2448.000000	5.347300
2447.000000	5.367800
2446.000000	5.384300
2445.000000	5.413200
2444.000000	5.438700
2443.000000	5.461600
2442.000000	5.480000
2441.000000	5.505600
2440.000000	5.527000
2439.000000	5.560200
2438.000000	5.571400
2437.000000	5.595900
2436.000000	5.602000
2435.000000	5.641900
2434.000000	5.645800
2433.000000	5.655400
2432.000000	5.684300
2431.000000	5.733700
2430.000000	5.742400
2429.000000	5.738500
2428.000000	5.735000
2427.000000	5.746800
2426.000000	5.760800
2425.000000	5.778600
2424.000000	5.788100
2423.000000	5.784000
2422.000000	5.792400
2421.000000	5.813700
2420.000000	5.857900
2419.000000	5.899900
2418.000000	5.922000
2417.000000	5.945000
2416.000000	5.968000
2415.000000	5.977900
2414.000000	5.986300
2413.000000	6.006200
2412.000000	6.018900
2411.000000	6.054800
2410.000000	6.069800
2409.000000	6.078700
2408.000000	6.080600
2407.000000	6.111800
2406.000000	6.142500
2405.000000	6.155900
2404.000000	6.152600
2403.000000	6.168600
2402.000000	6.189700
2401.000000	6.223700
2400.000000	6.239700
2399.000000	6.247500
2398.000000	6.259000
2397.000000	6.272900
2396.000000	6.299000
2395.000000	6.317200
2394.000000	6.328000
2393.000000	6.344100
2392.000000	6.357200
2391.000000	6.371700
2390.000000	6.389300
2389.000000	6.383300
2388.000000	6.386100
2387.000000	6.403100
2386.000000	6.406100
2385.000000	6.410100
2384.000000	6.412400
2383.000000	6.396400
2382.000000	6.397000
2381.000000	6.401800
2380.000000	6.407100
2379.000000	6.406600
2378.000000	6.383100
2377.000000	6.379500
2376.000000	6.393000
2375.000000	6.395900
2374.000000	6.378800
2373.000000	6.365800
2372.000000	6.360900
2371.000000	6.341600
2370.000000	6.325100
2369.000000	6.307900
2368.000000	6.296600
2367.000000	6.277600
2366.000000	6.242200
2365.000000	6.192700
2364.000000	6.163800
2363.000000	6.154100
2362.000000	6.126500
2361.000000	6.103700
2360.000000	6.079400
2359.000000	6.064300
2358.000000	6.045100
2357.000000	6.027700
2356.000000	6.014000
2355.000000	6.001200
2354.000000	6.019200
2353.000000	6.027200
2352.000000	6.028200
2351.000000	6.039000
2350.000000	6.066700
2349.000000	6.094300
2348.000000	6.118100
2347.000000	6.138600
2346.000000	6.165200
2345.000000	6.182800
2344.000000	6.207100
2343.000000	6.233400
2342.000000	6.258200
2341.000000	6.293400
2340.000000	6.288900
2339.000000	6.278000
2338.000000	6.294200
2337.000000	6.296400
2336.000000	6.291800
2335.000000	6.284100
2334.000000	6.266900
2333.000000	6.251500
2332.000000	6.225100
2331.000000	6.207400
2330.000000	6.189800
2329.000000	6.151700
2328.000000	6.125700
2327.000000	6.095400
2326.000000	6.066900
2325.000000	6.035500
2324.000000	5.984300
2323.000000	5.943200
2322.000000	5.901600
2321.000000	5.853800
2320.000000	5.815100
2319.000000	5.763400
2318.000000	5.702600
2317.000000	5.654500
2316.000000	5.595300
2315.000000	5.540700
2314.000000	5.494200
2313.000000	5.465000
2312.000000	5.438200
2311.000000	5.384600
2310.000000	5.384400
2309.000000	5.388500
2308.000000	5.363100
2307.000000	5.373200
2306.000000	5.376000
2305.000000	5.378000
2304.000000	5.413100
2303.000000	5.455100
2302.000000	5.503400
2301.000000	5.540900
2300.000000	5.577500
2299.000000	5.627000
2298.000000	5.661900
2297.000000	5.683500
2296.000000	5.745700
2295.000000	5.775000
2294.000000	5.796600
2293.000000	5.814400
2292.000000	5.826600
2291.000000	5.853300
2290.000000	5.849100
2289.000000	5.856600
2288.000000	5.833400
2287.000000	5.829600
2286.000000	5.815500
2285.000000	5.811800
2284.000000	5.788900
2283.000000	5.767900
2282.000000	5.758500
2281.000000	5.743700
2280.000000	5.729400
2279.000000	5.687500
2278.000000	5.686900
2277.000000	5.667400
2276.000000	5.643800
2275.000000	5.637000
2274.000000	5.616000
2273.000000	5.634800
2272.000000	5.636600
2271.000000	5.634300
2270.000000	5.679200
2269.000000	5.691700
2268.000000	5.734400
2267.000000	5.778600
2266.000000	5.840200
2265.000000	5.898200
2264.000000	5.989800
2263.000000	6.056500
2262.000000	6.157500
2261.000000	6.243100
2260.000000	6.371000
2259.000000	6.482200
2258.000000	6.611400
2257.000000	6.711500
2256.000000	6.852800
2255.000000	6.949800
2254.000000	7.086100
2253.000000	7.197200
2252.000000	7.306100
2251.000000	7.420700
2250.000000	7.509200
2249.000000	7.594600
2248.000000	7.691600
2247.000000	7.783500
2246.000000	7.862200
2245.000000	7.930100
2244.000000	8.002600
2243.000000	8.095000
2242.000000	8.154800
2241.000000	8.188300
2240.000000	8.257200
2239.000000	8.311700
2238.000000	8.347100
2237.000000	8.390100
2236.000000	8.452800
2235.000000	8.494500
2234.000000	8.511600
2233.000000	8.546600
2232.000000	8.572100
2231.000000	8.571800
2230.000000	8.613500
2229.000000	8.613400
2228.000000	8.639500
2227.000000	8.687700
2226.000000	8.674400
2225.000000	8.665400
2224.000000	8.679900
2223.000000	8.678200
2222.000000	8.653000
2221.000000	8.672300
2220.000000	8.677600
2219.000000	8.672400
2218.000000	8.653700
2217.000000	8.648600
2216.000000	8.637600
2215.000000	8.642200
2214.000000	8.613400
2213.000000	8.613200
2212.000000	8.583700
2211.000000	8.606800
2210.000000	8.574500
2209.000000	8.573300
2208.000000	8.590600
2207.000000	8.591000
2206.000000	8.572400
2205.000000	8.572200
2204.000000	8.570300
2203.000000	8.545500
2202.000000	8.563300
2201.000000	8.560500
2200.000000	8.556000
2199.000000	8.558000
2198.000000	8.535400
2197.000000	8.535800
2196.000000	8.525300
2195.000000	8.527500
2194.000000	8.541800
2193.000000	8.515100
2192.000000	8.516300
2191.000000	8.521100
2190.000000	8.495700
2189.000000	8.484100
2188.000000	8.481800
2187.000000	8.464400
2186.000000	8.459400
2185.000000	8.447600
2184.000000	8.441800
2183.000000	8.431000
2182.000000	8.422500
2181.000000	8.427200
2180.000000	8.422600
2179.000000	8.420400
2178.000000	8.419300
2177.000000	8.404900
2176.000000	8.404700
2175.000000	8.388000
2174.000000	8.403000
2173.000000	8.402100
2172.000000	8.404100
2171.000000	8.399300
2170.000000	8.420400
2169.000000	8.440500
2168.000000	8.437700
2167.000000	8.436500
2166.000000	8.433900
2165.000000	8.452800
2164.000000	8.452500
2163.000000	8.471500
2162.000000	8.503200
2161.000000	8.509400
2160.000000	8.517700
2159.000000	8.535000
2158.000000	8.563100
2157.000000	8.595900
2156.000000	8.611000
2155.000000	8.611700
2154.000000	8.644300
2153.000000	8.680900
2152.000000	8.706100
2151.000000	8.724500
2150.000000	8.733300
2149.000000	8.765800
2148.000000	8.780400
2147.000000	8.789800
2146.000000	8.806200
2145.000000	8.820100
2144.000000	8.842300
2143.000000	8.861700
2142.000000	8.862600
2141.000000	8.885200
2140.000000	8.913200
2139.000000	8.926300
2138.000000	8.937900
2137.000000	8.965600
2136.000000	8.977100
2135.000000	8.979300
2134.000000	9.001000
2133.000000	9.005200
2132.000000	9.018700
2131.000000	9.022700
2130.000000	9.031900
2129.000000	9.036800
2128.000000	9.035400
2127.000000	9.038800
2126.000000	9.051600
2125.000000	9.051900
2124.000000	9.040100
2123.000000	9.038400
2122.000000	9.031100
2121.000000	9.027200
2120.000000	9.044700
2119.000000	9.033400
2118.000000	9.009900
2117.000000	8.999800
2116.000000	8.995400
2115.000000	8.992100
2114.000000	8.990900
2113.000000	8.987200
2112.000000	8.960200
2111.000000	8.952500
2110.000000	8.950000
2109.000000	8.939600
2108.000000	8.918200
2107.000000	8.909300
2106.000000	8.919200
2105.000000	8.899500
2104.000000	8.876200
2103.000000	8.870900
2102.000000	8.866100
2101.000000	8.867300
2100.000000	8.861200
2099.000000	8.859300
2098.000000	8.860100
2097.000000	8.861000
2096.000000	8.860500
2095.000000	8.835100
2094.000000	8.821200
2093.000000	8.834400
2092.000000	8.822200
2091.000000	8.817000
2090.000000	8.820200
2089.000000	8.810000
2088.000000	8.815000
2087.000000	8.828200
2086.000000	8.834500
2085.000000	8.840400
2084.000000	8.841400
2083.000000	8.838400
2082.000000	8.824000
2081.000000	8.824500
2080.000000	8.839900
2079.000000	8.839800
2078.000000	8.836200
2077.000000	8.825700
2076.000000	8.812100
2075.000000	8.806800
2074.000000	8.805100
2073.000000	8.796700
2072.000000	8.796200
2071.000000	8.785100
2070.000000	8.791700
2069.000000	8.807000
2068.000000	8.796400
2067.000000	8.769500
2066.000000	8.765200
2065.000000	8.773300
2064.000000	8.774400
2063.000000	8.767500
2062.000000	8.771400
2061.000000	8.770200
2060.000000	8.770700
2059.000000	8.754100
2058.000000	8.773600
2057.000000	8.810500
2056.000000	8.820100
2055.000000	8.837600
2054.000000	8.858500
2053.000000	8.898900
2052.000000	8.957000
2051.000000	9.006900
2050.000000	9.037800
2049.000000	9.081300
2048.000000	9.144300
2047.000000	9.193500
2046.000000	9.271000
2045.000000	9.337200
2044.000000	9.423400
2043.000000	9.482000
2042.000000	9.550100
2041.000000	9.637200
2040.000000	9.701800
2039.000000	9.765000
2038.000000	9.835000
2037.000000	9.898500
2036.000000	9.964000
2035.000000	10.018700
2034.000000	10.081100
2033.000000	10.132800
2032.000000	10.205000
2031.000000	10.254400
2030.000000	10.302700
2029.000000	10.351800
2028.000000	10.404100
2027.000000	10.444100
2026.000000	10.486000
2025.000000	10.533900
2024.000000	10.584300
2023.000000	10.608400
2022.000000	10.641700
2021.000000	10.685800
2020.000000	10.699600
2019.000000	10.722700
2018.000000	10.771800
2017.000000	10.805300
2016.000000	10.839000
2015.000000	10.840200
2014.000000	10.892000
2013.000000	10.906500
2012.000000	10.917700
2011.000000	10.924300
2010.000000	10.939100
2009.000000	10.933900
2008.000000	10.954600
2007.000000	10.972500
2006.000000	10.956200
2005.000000	10.965400
2004.000000	10.965500
2003.000000	10.952700
2002.000000	10.961600
2001.000000	10.959400
2000.000000	10.948100
1999.000000	10.954000
1998.000000	10.907300
1997.000000	10.907400
1996.000000	10.907300
1995.000000	10.902600
1994.000000	10.874700
1993.000000	10.855900
1992.000000	10.817100
1991.000000	10.783800
1990.000000	10.747500
1989.000000	10.718800
1988.000000	10.699100
1987.000000	10.655000
1986.000000	10.626800
1985.000000	10.591600
1984.000000	10.581000
1983.000000	10.531000
1982.000000	10.487400
1981.000000	10.438900
1980.000000	10.406200
1979.000000	10.347100
1978.000000	10.327000
1977.000000	10.296600
1976.000000	10.274500
1975.000000	10.219400
1974.000000	10.201000
1973.000000	10.145000
1972.000000	10.109000
1971.000000	10.053300
1970.000000	10.063800
1969.000000	9.997700
1968.000000	9.957700
1967.000000	9.903200
1966.000000	9.861200
1965.000000	9.851800
1964.000000	9.810000
1963.000000	9.769500
1962.000000	9.741200
1961.000000	9.697100
1960.000000	9.659600
1959.000000	9.615800
1958.000000	9.590900
1957.000000	9.549400
1956.000000	9.503900
1955.000000	9.473000
1954.000000	9.437600
1953.000000	9.392400
1952.000000	9.367500
1951.000000	9.332300
1950.000000	9.306700
1949.000000	9.268600
1948.000000	9.232200
1947.000000	9.195300
1946.000000	9.184200
1945.000000	9.136800
1944.000000	9.138700
1943.000000	9.120300
1942.000000	9.089500
1941.000000	9.057300
1940.000000	9.019300
1939.000000	9.029800
1938.000000	9.026000
1937.000000	9.067100
1936.000000	9.098900
1935.000000	9.086200
1934.000000	9.098800
1933.000000	9.117600
1932.000000	9.116800
1931.000000	9.133700
1930.000000	9.149000
1929.000000	9.196900
1928.000000	9.259600
1927.000000	9.331500
1926.000000	9.377700
1925.000000	9.467300
1924.000000	9.479800
1923.000000	9.490400
1922.000000	9.558700
1921.000000	9.701800
1920.000000	9.850800
1919.000000	9.991900
1918.000000	10.082300
1917.000000	10.143900
1916.000000	10.156600
1915.000000	10.198200
1914.000000	10.341300
1913.000000	10.553300
1912.000000	10.768500
1911.000000	10.942100
1910.000000	11.029900
1909.000000	11.024900
1908.000000	11.062400
1907.000000	11.173100
1906.000000	11.331800
1905.000000	11.603200
1904.000000	11.821200
1903.000000	11.957300
1902.000000	12.048100
1901.000000	12.138100
1900.000000	12.335900
1899.000000	12.628300
1898.000000	12.894000
1897.000000	13.101500
1896.000000	13.181000
1895.000000	13.191400
1894.000000	13.292300
1893.000000	13.419200
1892.000000	13.638200
1891.000000	13.906700
1890.000000	14.141300
1889.000000	14.319300
1888.000000	14.493000
1887.000000	14.621000
1886.000000	14.790200
1885.000000	15.051300
1884.000000	15.406000
1883.000000	15.742800
1882.000000	16.051400
1881.000000	16.357100
1880.000000	16.580300
1879.000000	16.777200
1878.000000	17.022100
1877.000000	17.256500
1876.000000	17.450100
1875.000000	17.693800
1874.000000	17.874300
1873.000000	18.128200
1872.000000	18.387900
1871.000000	18.637700
1870.000000	18.968100
1869.000000	19.234400
1868.000000	19.432400
1867.000000	19.556500
1866.000000	19.569100
1865.000000	19.573800
1864.000000	19.534200
1863.000000	19.431600
1862.000000	19.388000
1861.000000	19.409700
1860.000000	19.454300
1859.000000	19.513800
1858.000000	19.602400
1857.000000	19.594400
1856.000000	19.483400
1855.000000	19.443400
1854.000000	19.497200
1853.000000	19.494500
1852.000000	19.443400
1851.000000	19.327000
1850.000000	19.075700
1849.000000	18.948000
1848.000000	19.102600
1847.000000	19.339500
1846.000000	19.423600
1845.000000	19.262200
1844.000000	18.949600
1843.000000	18.725400
1842.000000	18.768500
1841.000000	18.935100
1840.000000	18.977400
1839.000000	18.914200
1838.000000	18.828900
1837.000000	18.843100
1836.000000	18.936300
1835.000000	19.000300
1834.000000	18.920000
1833.000000	18.727500
1832.000000	18.575200
1831.000000	18.511700
1830.000000	18.539800
1829.000000	18.516000
1828.000000	18.428400
1827.000000	18.394600
1826.000000	18.425400
1825.000000	18.403600
1824.000000	18.292800
1823.000000	18.090500
1822.000000	17.995900
1821.000000	18.098200
1820.000000	18.256400
1819.000000	18.316300
1818.000000	18.236700
1817.000000	18.139800
1816.000000	18.167400
1815.000000	18.218000
1814.000000	18.225300
1813.000000	18.201200
1812.000000	18.165400
1811.000000	18.180000
1810.000000	18.181700
1809.000000	18.125200
1808.000000	18.054400
1807.000000	18.035300
1806.000000	18.049400
1805.000000	18.035500
1804.000000	17.990400
1803.000000	17.918900
1802.000000	17.872400
1801.000000	17.901400
1800.000000	17.911500
1799.000000	17.857300
1798.000000	17.787800
1797.000000	17.753800
1796.000000	17.745000
1795.000000	17.714500
1794.000000	17.688300
1793.000000	17.673900
1792.000000	17.644700
1791.000000	17.611700
1790.000000	17.562700
1789.000000	17.493400
1788.000000	17.448100
1787.000000	17.407300
1786.000000	17.352700
1785.000000	17.305000
1784.000000	17.253500
1783.000000	17.189500
1782.000000	17.127800
1781.000000	17.078500
1780.000000	17.011600
1779.000000	16.959400
1778.000000	16.894100
1777.000000	16.811200
1776.000000	16.743000
1775.000000	16.663800
1774.000000	16.580800
1773.000000	16.502100
1772.000000	16.395700
1771.000000	16.295400
1770.000000	16.218600
1769.000000	16.118700
1768.000000	16.033900
1767.000000	15.975900
1766.000000	15.909000
1765.000000	15.865200
1764.000000	15.844400
1763.000000	15.809500
1762.000000	15.843800
1761.000000	15.893400
1760.000000	15.935300
1759.000000	15.977400
1758.000000	16.013400
1757.000000	16.056200
1756.000000	16.116200
1755.000000	16.143600
1754.000000	16.163500
1753.000000	16.152600
1752.000000	16.140200
1751.000000	16.140600
1750.000000	16.093000
1749.000000	16.037800
1748.000000	15.988900
1747.000000	15.920700
1746.000000	15.837700
1745.000000	15.743900
1744.000000	15.626400
1743.000000	15.466300
1742.000000	15.304400
1741.000000	15.142200
1740.000000	14.957400
1739.000000	14.821500
1738.000000	14.657000
1737.000000	14.546900
1736.000000	14.442200
1735.000000	14.354500
1734.000000	14.344200
1733.000000	14.344800
1732.000000	14.379900
1731.000000	14.429900
1730.000000	14.492900
1729.000000	14.573200
1728.000000	14.638300
1727.000000	14.703600
1726.000000	14.756400
1725.000000	14.828500
1724.000000	14.856100
1723.000000	14.879400
1722.000000	14.894300
1721.000000	14.869700
1720.000000	14.872900
1719.000000	14.858900
1718.000000	14.882300
1717.000000	14.903200
1716.000000	14.938000
1715.000000	14.961000
1714.000000	15.011300
1713.000000	15.043500
1712.000000	15.055300
1711.000000	15.080300
1710.000000	15.068500
1709.000000	15.054400
1708.000000	15.037600
1707.000000	15.018900
1706.000000	15.018700
1705.000000	14.993500
1704.000000	14.928800
1703.000000	14.846500
1702.000000	14.795700
1701.000000	14.680300
1700.000000	14.582700
1699.000000	14.460300
1698.000000	14.345400
1697.000000	14.267700
1696.000000	14.206900
1695.000000	14.218700
1694.000000	14.226000
1693.000000	14.321100
1692.000000	14.380200
1691.000000	14.521300
1690.000000	14.646100
1689.000000	14.720400
1688.000000	14.748200
1687.000000	14.754700
1686.000000	14.765800
1685.000000	14.768000
1684.000000	14.813500
1683.000000	14.948900
1682.000000	15.157600
1681.000000	15.460400
1680.000000	15.826100
1679.000000	16.252500
1678.000000	16.668300
1677.000000	17.068000
1676.000000	17.375400
1675.000000	17.683600
1674.000000	17.963000
1673.000000	18.178000
1672.000000	18.361600
1671.000000	18.522800
1670.000000	18.694100
1669.000000	18.801200
1668.000000	18.915600
1667.000000	19.033100
1666.000000	19.088500
1665.000000	19.156400
1664.000000	19.215200
1663.000000	19.247700
1662.000000	19.304400
1661.000000	19.334000
1660.000000	19.381000
1659.000000	19.399300
1658.000000	19.418600
1657.000000	19.420100
1656.000000	19.398500
1655.000000	19.394700
1654.000000	19.420700
1653.000000	19.404400
1652.000000	19.384400
1651.000000	19.365200
1650.000000	19.369400
1649.000000	19.335300
1648.000000	19.321200
1647.000000	19.291800
1646.000000	19.243400
1645.000000	19.194900
1644.000000	19.170700
1643.000000	19.123900
1642.000000	19.082800
1641.000000	19.059300
1640.000000	19.000100
1639.000000	18.969900
1638.000000	18.924800
1637.000000	18.886700
1636.000000	18.844100
1635.000000	18.805900
1634.000000	18.760800
1633.000000	18.703500
1632.000000	18.643900
1631.000000	18.578400
1630.000000	18.535100
1629.000000	18.485100
1628.000000	18.422900
1627.000000	18.363100
1626.000000	18.312500
1625.000000	18.254300
1624.000000	18.207100
1623.000000	18.144400
1622.000000	18.097000
1621.000000	18.044900
1620.000000	17.984400
1619.000000	17.923600
1618.000000	17.903800
1617.000000	17.850700
1616.000000	17.801500
1615.000000	17.734600
1614.000000	17.699000
1613.000000	17.656100
1612.000000	17.607500
1611.000000	17.571300
1610.000000	17.530500
1609.000000	17.516100
1608.000000	17.480300
1607.000000	17.430200
1606.000000	17.397200
1605.000000	17.362000
1604.000000	17.316000
1603.000000	17.281700
1602.000000	17.245300
1601.000000	17.184300
1600.000000	17.140300
1599.000000	17.127800
1598.000000	17.104400
1597.000000	17.065700
1596.000000	17.032100
1595.000000	17.004800
1594.000000	16.982800
1593.000000	16.969600
1592.000000	16.956200
1591.000000	16.925400
1590.000000	16.906400
1589.000000	16.893700
1588.000000	16.872200
1587.000000	16.866200
1586.000000	16.865400
1585.000000	16.859500
1584.000000	16.853900
1583.000000	16.847900
1582.000000	16.835600
1581.000000	16.818900
1580.000000	16.826000
1579.000000	16.831400
1578.000000	16.823800
1577.000000	16.827000
1576.000000	16.834800
1575.000000	16.851200
1574.000000	16.872700
1573.000000	16.883000
1572.000000	16.904300
1571.000000	16.935500
1570.000000	16.962700
1569.000000	16.993900
1568.000000	17.025900
1567.000000	17.065400
1566.000000	17.102500
1565.000000	17.119800
1564.000000	17.141800
1563.000000	17.177500
1562.000000	17.202200
1561.000000	17.213000
1560.000000	17.224000
1559.000000	17.230700
1558.000000	17.252900
1557.000000	17.283900
1556.000000	17.283400
1555.000000	17.277300
1554.000000	17.290000
1553.000000	17.314800
1552.000000	17.314800
1551.000000	17.285400
1550.000000	17.288300
1549.000000	17.318000
1548.000000	17.319100
1547.000000	17.317800
1546.000000	17.327500
1545.000000	17.324100
1544.000000	17.323200
1543.000000	17.313500
1542.000000	17.333400
1541.000000	17.325400
1540.000000	17.324800
1539.000000	17.329800
1538.000000	17.333400
1537.000000	17.359000
1536.000000	17.365000
1535.000000	17.341300
1534.000000	17.337400
1533.000000	17.343700
1532.000000	17.318000
1531.000000	17.304900
1530.000000	17.290400
1529.000000	17.273600
1528.000000	17.261000
1527.000000	17.244500
1526.000000	17.234600
1525.000000	17.222900
1524.000000	17.208100
1523.000000	17.204500
1522.000000	17.183700
1521.000000	17.145800
1520.000000	17.102300
1519.000000	17.090800
1518.000000	17.074600
1517.000000	17.047100
1516.000000	17.026500
1515.000000	17.006200
1514.000000	16.970500
1513.000000	16.951900
1512.000000	16.923300
1511.000000	16.885100
1510.000000	16.866100
1509.000000	16.836400
1508.000000	16.815400
1507.000000	16.782400
1506.000000	16.759300
1505.000000	16.728900
1504.000000	16.709300
1503.000000	16.695500
1502.000000	16.698200
1501.000000	16.675900
1500.000000	16.654500
1499.000000	16.624400
1498.000000	16.608400
1497.000000	16.592200
1496.000000	16.602300
1495.000000	16.610400
1494.000000	16.594100
1493.000000	16.591700
1492.000000	16.561400
1491.000000	16.555600
1490.000000	16.549900
1489.000000	16.572800
1488.000000	16.572700
1487.000000	16.608700
1486.000000	16.615600
1485.000000	16.599400
1484.000000	16.596800
1483.000000	16.610300
1482.000000	16.606200
1481.000000	16.636900
1480.000000	16.656600
1479.000000	16.680000
1478.000000	16.714700
1477.000000	16.732900
1476.000000	16.770700
1475.000000	16.796700
1474.000000	16.807200
1473.000000	16.855300
1472.000000	16.886300
1471.000000	16.910500
1470.000000	16.940000
1469.000000	16.983900
1468.000000	17.000300
1467.000000	17.017300
1466.000000	17.046000
1465.000000	17.095200
1464.000000	17.131500
1463.000000	17.188200
1462.000000	17.247900
1461.000000	17.292900
1460.000000	17.360600
1459.000000	17.429800
1458.000000	17.480600
1457.000000	17.551400
1456.000000	17.624600
1455.000000	17.704000
1454.000000	17.787100
1453.000000	17.851200
1452.000000	17.921600
1451.000000	18.023700
1450.000000	18.170500
1449.000000	18.245500
1448.000000	18.344800
1447.000000	18.405400
1446.000000	18.528800
1445.000000	18.695800
1444.000000	18.793700
1443.000000	18.847000
1442.000000	18.941300
1441.000000	19.077300
1440.000000	19.195100
1439.000000	19.272300
1438.000000	19.386800
1437.000000	19.516900
1436.000000	19.651200
1435.000000	19.734800
1434.000000	19.852600
1433.000000	19.966200
1432.000000	20.086700
1431.000000	20.230500
1430.000000	20.351400
1429.000000	20.468300
1428.000000	20.651300
1427.000000	20.834300
1426.000000	20.985500
1425.000000	21.117800
1424.000000	21.326200
1423.000000	21.562500
1422.000000	21.740800
1421.000000	21.855500
1420.000000	22.016900
1419.000000	22.303000
1418.000000	22.509800
1417.000000	22.649900
1416.000000	22.704000
1415.000000	22.860900
1414.000000	23.188200
1413.000000	23.403300
1412.000000	23.498900
1411.000000	23.601700
1410.000000	23.819200
1409.000000	24.169600
1408.000000	24.435600
1407.000000	24.708000
1406.000000	24.923600
1405.000000	25.266600
1404.000000	25.607400
1403.000000	25.897600
1402.000000	25.925700
1401.000000	26.262000
1400.000000	26.805400
1399.000000	27.082800
1398.000000	27.042300
1397.000000	27.055700
1396.000000	27.356700
1395.000000	27.739100
1394.000000	27.792700
1393.000000	27.776700
1392.000000	27.949600
1391.000000	28.155100
1390.000000	28.239900
1389.000000	28.299100
1388.000000	28.607900
1387.000000	28.882200
1386.000000	29.026900
1385.000000	29.198900
1384.000000	29.469600
1383.000000	29.787200
1382.000000	30.120200
1381.000000	30.438400
1380.000000	30.529500
1379.000000	30.602600
1378.000000	30.599600
1377.000000	30.613100
1376.000000	30.683700
1375.000000	30.847900
1374.000000	31.015100
1373.000000	31.233500
1372.000000	31.475200
1371.000000	31.850300
1370.000000	32.141400
1369.000000	32.330600
1368.000000	32.629500
1367.000000	32.908600
1366.000000	32.984700
1365.000000	33.126600
1364.000000	33.337900
1363.000000	33.369500
1362.000000	33.454800
1361.000000	33.727800
1360.000000	33.821500
1359.000000	33.808100
1358.000000	33.832700
1357.000000	33.930700
1356.000000	34.129400
1355.000000	34.494600
1354.000000	34.966000
1353.000000	35.393100
1352.000000	35.868200
1351.000000	36.327500
1350.000000	36.748600
1349.000000	37.086700
1348.000000	37.452800
1347.000000	37.815700
1346.000000	38.085700
1345.000000	38.327400
1344.000000	38.599800
1343.000000	38.846300
1342.000000	39.061600
1341.000000	39.292800
1340.000000	39.497700
1339.000000	39.695100
1338.000000	39.896200
1337.000000	40.078700
1336.000000	40.235600
1335.000000	40.407900
1334.000000	40.560700
1333.000000	40.716200
1332.000000	40.885000
1331.000000	41.041700
1330.000000	41.185900
1329.000000	41.316100
1328.000000	41.419700
1327.000000	41.524400
1326.000000	41.632900
1325.000000	41.738800
1324.000000	41.835300
1323.000000	41.911000
1322.000000	41.981500
1321.000000	42.077200
1320.000000	42.156600
1319.000000	42.235600
1318.000000	42.307500
1317.000000	42.356400
1316.000000	42.425400
1315.000000	42.482600
1314.000000	42.517800
1313.000000	42.565000
1312.000000	42.617000
1311.000000	42.676500
1310.000000	42.721900
1309.000000	42.753700
1308.000000	42.785800
1307.000000	42.809600
1306.000000	42.842000
1305.000000	42.868300
1304.000000	42.883100
1303.000000	42.887900
1302.000000	42.900100
1301.000000	42.917800
1300.000000	42.923000
1299.000000	42.918400
1298.000000	42.917600
1297.000000	42.912100
1296.000000	42.914700
1295.000000	42.921600
1294.000000	42.886800
1293.000000	42.854200
1292.000000	42.853900
1291.000000	42.847900
1290.000000	42.837500
1289.000000	42.819100
1288.000000	42.782000
1287.000000	42.729900
1286.000000	42.685900
1285.000000	42.642500
1284.000000	42.603500
1283.000000	42.574000
1282.000000	42.527800
1281.000000	42.477300
1280.000000	42.421900
1279.000000	42.370900
1278.000000	42.341300
1277.000000	42.311500
1276.000000	42.267800
1275.000000	42.229100
1274.000000	42.198200
1273.000000	42.148400
1272.000000	42.100300
1271.000000	42.051600
1270.000000	42.023900
1269.000000	41.980300
1268.000000	41.949300
1267.000000	41.917200
1266.000000	41.886000
1265.000000	41.842500
1264.000000	41.793800
1263.000000	41.742300
1262.000000	41.705500
1261.000000	41.677800
1260.000000	41.647800
1259.000000	41.587200
1258.000000	41.525300
1257.000000	41.491800
1256.000000	41.454600
1255.000000	41.400300
1254.000000	41.347700
1253.000000	41.290600
1252.000000	41.245900
1251.000000	41.178500
1250.000000	41.121400
1249.000000	41.072600
1248.000000	40.990300
1247.000000	40.923800
1246.000000	40.846100
1245.000000	40.728000
1244.000000	40.635700
1243.000000	40.527300
1242.000000	40.418200
1241.000000	40.274700
1240.000000	40.146200
1239.000000	40.028400
1238.000000	39.901000
1237.000000	39.747000
1236.000000	39.609900
1235.000000	39.449900
1234.000000	39.282100
1233.000000	39.141600
1232.000000	39.006600
1231.000000	38.851400
1230.000000	38.694100
1229.000000	38.516400
1228.000000	38.323000
1227.000000	38.159200
1226.000000	38.008100
1225.000000	37.850600
1224.000000	37.682300
1223.000000	37.533100
1222.000000	37.369500
1221.000000	37.212400
1220.000000	37.061200
1219.000000	36.913400
1218.000000	36.789000
1217.000000	36.690900
1216.000000	36.562000
1215.000000	36.446600
1214.000000	36.331600
1213.000000	36.226200
1212.000000	36.130100
1211.000000	36.041800
1210.000000	35.955800
1209.000000	35.896700
1208.000000	35.846600
1207.000000	35.792500
1206.000000	35.734700
1205.000000	35.716000
1204.000000	35.742200
1203.000000	35.710200
1202.000000	35.680900
1201.000000	35.686400
1200.000000	35.666100
1199.000000	35.595000
1198.000000	35.544200
1197.000000	35.477500
1196.000000	35.330600
1195.000000	35.088200
1194.000000	34.816300
1193.000000	34.524800
1192.000000	34.119700
1191.000000	33.730700
1190.000000	33.348300
1189.000000	33.007600
1188.000000	32.748500
1187.000000	32.588800
1186.000000	32.561800
1185.000000	32.641000
1184.000000	32.827000
1183.000000	33.109300
1182.000000	33.529000
1181.000000	33.946400
1180.000000	34.368100
1179.000000	34.799700
1178.000000	35.174100
1177.000000	35.497800
1176.000000	35.776700
1175.000000	36.012400
1174.000000	36.320900
1173.000000	36.603300
1172.000000	36.828500
1171.000000	37.109100
1170.000000	37.425300
1169.000000	37.714200
1168.000000	38.033100
1167.000000	38.318900
1166.000000	38.618000
1165.000000	38.959500
1164.000000	39.261300
1163.000000	39.574800
1162.000000	39.890400
1161.000000	40.190300
1160.000000	40.434000
1159.000000	40.733300
1158.000000	41.015500
1157.000000	41.241400
1156.000000	41.425000
1155.000000	41.617900
1154.000000	41.720000
1153.000000	41.772300
1152.000000	41.821200
1151.000000	41.822200
1150.000000	41.793200
1149.000000	41.762700
1148.000000	41.718500
1147.000000	41.712900
1146.000000	41.818900
1145.000000	42.036700
1144.000000	42.225900
1143.000000	42.447400
1142.000000	42.683400
1141.000000	42.951200
1140.000000	43.218800
1139.000000	43.476000
1138.000000	43.766600
1137.000000	44.007300
1136.000000	44.282600
1135.000000	44.593600
1134.000000	44.896800
1133.000000	45.136400
1132.000000	45.272000
1131.000000	45.407400
1130.000000	45.629900
1129.000000	45.756100
1128.000000	45.868600
1127.000000	45.927500
1126.000000	45.975400
1125.000000	46.021500
1124.000000	46.078800
1123.000000	46.117600
1122.000000	46.173100
1121.000000	46.194800
1120.000000	46.208200
1119.000000	46.192500
1118.000000	46.203000
1117.000000	46.205600
1116.000000	46.172800
1115.000000	46.149100
1114.000000	46.109300
1113.000000	46.100900
1112.000000	46.066600
1111.000000	46.063500
1110.000000	46.064600
1109.000000	46.049000
1108.000000	46.030500
1107.000000	45.998000
1106.000000	45.973300
1105.000000	45.946000
1104.000000	45.922800
1103.000000	45.908000
1102.000000	45.879400
1101.000000	45.853800
1100.000000	45.820900
1099.000000	45.786500
1098.000000	45.786800
1097.000000	45.748000
1096.000000	45.722400
1095.000000	45.675700
1094.000000	45.626600
1093.000000	45.598200
1092.000000	45.554200
1091.000000	45.515900
1090.000000	45.471800
1089.000000	45.450600
1088.000000	45.421900
1087.000000	45.373700
1086.000000	45.298400
1085.000000	45.241500
1084.000000	45.225200
1083.000000	45.186400
1082.000000	45.157200
1081.000000	45.116300
1080.000000	45.077100
1079.000000	45.061800
1078.000000	45.028500
1077.000000	44.976900
1076.000000	44.943900
1075.000000	44.912600
1074.000000	44.879800
1073.000000	44.837100
1072.000000	44.775500
1071.000000	44.736600
1070.000000	44.725800
1069.000000	44.704200
1068.000000	44.679200
1067.000000	44.649700
1066.000000	44.610000
1065.000000	44.567800
1064.000000	44.527200
1063.000000	44.483700
1062.000000	44.424700
1061.000000	44.347400
1060.000000	44.328600
1059.000000	44.292600
1058.000000	44.233100
1057.000000	44.158600
1056.000000	44.096700
1055.000000	44.053300
1054.000000	44.014900
1053.000000	43.946800
1052.000000	43.901900
1051.000000	43.881900
1050.000000	43.840400
1049.000000	43.782400
1048.000000	43.739000
1047.000000	43.699600
1046.000000	43.656500
1045.000000	43.620900
1044.000000	43.578300
1043.000000	43.529600
1042.000000	43.484900
1041.000000	43.430500
1040.000000	43.376500
1039.000000	43.333400
1038.000000	43.291200
1037.000000	43.245500
1036.000000	43.186500
1035.000000	43.132400
1034.000000	43.075100
1033.000000	43.016700
1032.000000	42.970600
1031.000000	42.902800
1030.000000	42.831500
1029.000000	42.785300
1028.000000	42.718900
1027.000000	42.632700
1026.000000	42.557900
1025.000000	42.487200
1024.000000	42.396900
1023.000000	42.322000
1022.000000	42.253100
1021.000000	42.188900
1020.000000	42.152800
1019.000000	42.098600
1018.000000	42.007000
1017.000000	41.935700
1016.000000	41.884000
1015.000000	41.840300
1014.000000	41.810900
1013.000000	41.787300
1012.000000	41.737300
1011.000000	41.678900
1010.000000	41.644000
1009.000000	41.617100
1008.000000	41.605400
1007.000000	41.602400
1006.000000	41.582900
1005.000000	41.561300
1004.000000	41.562400
1003.000000	41.524900
1002.000000	41.497100
1001.000000	41.487500
1000.000000	41.459300
999.000000	41.442200
998.000000	41.436900
997.000000	41.426800
996.000000	41.401600
995.000000	41.372300
994.000000	41.348400
993.000000	41.330500
992.000000	41.317600
991.000000	41.306300
990.000000	41.275100
989.000000	41.262500
988.000000	41.268300
987.000000	41.256800
986.000000	41.218600
985.000000	41.214000
984.000000	41.211900
983.000000	41.189500
982.000000	41.147600
981.000000	41.128200
980.000000	41.097500
979.000000	41.062800
978.000000	41.065900
977.000000	41.055300
976.000000	41.026200
975.000000	40.992700
974.000000	40.991500
973.000000	40.955500
972.000000	40.888200
971.000000	40.818900
970.000000	40.786400
969.000000	40.764800
968.000000	40.720500
967.000000	40.669700
966.000000	40.608100
965.000000	40.589200
964.000000	40.551100
963.000000	40.517900
962.000000	40.449600
961.000000	40.443100
960.000000	40.395800
959.000000	40.333000
958.000000	40.331600
957.000000	40.278000
956.000000	40.251100
955.000000	40.237300
954.000000	40.163000
953.000000	40.102600
952.000000	40.057300
951.000000	39.975600
950.000000	39.934500
949.000000	39.893600
948.000000	39.807900
947.000000	39.748500
946.000000	39.667300
945.000000	39.643100
944.000000	39.597600
943.000000	39.531700
942.000000	39.461900
941.000000	39.438600
940.000000	39.371200
939.000000	39.285200
938.000000	39.186700
937.000000	39.145600
936.000000	39.113000
935.000000	39.081800
934.000000	39.079700
933.000000	39.045500
932.000000	39.031600
931.000000	38.991800
930.000000	38.939700
929.000000	38.908000
928.000000	38.845000
927.000000	38.776400
926.000000	38.726700
925.000000	38.706500
924.000000	38.656300
923.000000	38.604200
922.000000	38.590100
921.000000	38.588600
920.000000	38.597300
919.000000	38.516900
918.000000	38.465900
917.000000	38.408700
916.000000	38.348900
915.000000	38.368400
914.000000	38.310500
913.000000	38.282700
912.000000	38.224000
911.000000	38.190800
910.000000	38.183600
909.000000	38.128500
908.000000	38.068200
907.000000	38.084800
906.000000	38.095900
905.000000	38.092800
904.000000	38.119300
903.000000	38.140400
902.000000	38.159500
901.000000	38.167400
900.000000	38.203100
899.000000	38.205200
898.000000	38.217800
897.000000	38.240600
896.000000	38.249800
895.000000	38.265100
894.000000	38.261600
893.000000	38.243900
892.000000	38.228000
891.000000	38.191800
890.000000	38.208000
889.000000	38.170500
888.000000	38.150100
887.000000	38.147300
886.000000	38.096100
885.000000	37.995400
884.000000	37.974300
883.000000	37.937800
882.000000	37.873900
881.000000	37.787100
880.000000	37.722400
879.000000	37.679100
878.000000	37.632600
877.000000	37.515700
876.000000	37.409300
875.000000	37.297000
874.000000	37.261700
873.000000	37.175200
872.000000	37.027900
871.000000	36.946800
870.000000	36.841000
869.000000	36.750500
868.000000	36.606300
867.000000	36.486400
866.000000	36.382700
865.000000	36.299200
864.000000	36.171400
863.000000	36.071400
862.000000	35.931400
861.000000	35.764500
860.000000	35.632100
859.000000	35.496600
858.000000	36.620800
857.000000	35.802740
856.000000	35.470005
855.000000	35.688416
854.000000	35.677768
853.000000	35.791679
852.000000	35.772694
851.000000	35.838482
850.000000	35.707402
849.000000	35.674879
848.000000	35.782352
847.000000	35.987639
846.000000	35.849708
845.000000	35.889246
844.000000	36.063579
843.000000	35.894529
842.000000	36.080088
841.000000	36.189541
840.000000	36.179554
839.000000	35.915495
838.000000	35.885697
837.000000	35.998039
836.000000	35.973606
835.000000	35.996058
834.000000	35.974844
833.000000	35.932087
832.000000	35.819662
831.000000	35.856806
830.000000	35.886770
829.000000	35.964609
828.000000	35.835840
827.000000	35.748426
826.000000	35.678346
825.000000	35.653831
824.000000	35.721104
823.000000	35.687674
822.000000	35.594399
821.000000	35.560391
820.000000	35.486761
819.000000	35.486266
818.000000	35.475370
817.000000	35.532408
816.000000	35.419240
815.000000	35.402401
814.000000	35.394147
813.000000	35.407602
812.000000	35.294929
811.000000	35.310447
810.000000	35.351059
809.000000	35.207762
808.000000	35.176808
807.000000	35.329928
806.000000	35.330258
805.000000	35.311273
804.000000	35.214201
803.000000	35.174827
802.000000	35.207350
801.000000	35.122577
800.000000	35.070244
799.000000	35.033760
798.000000	34.966569
797.000000	34.943209
796.000000	34.936770
795.000000	34.878082
794.000000	34.834333
793.000000	34.820961
792.000000	34.790255
791.000000	34.787861
790.000000	34.700447
789.000000	34.602137
788.000000	34.558636
787.000000	34.542292
786.000000	34.454218
785.000000	34.361603
784.000000	34.303740
783.000000	34.282526
782.000000	34.195690
781.000000	34.117933
780.000000	34.064280
779.000000	34.074515
778.000000	34.004270
777.000000	33.954083
776.000000	33.900265
775.000000	33.841246
774.000000	33.806495
773.000000	33.728656
772.000000	33.738643
771.000000	33.700426
770.000000	33.642562
769.000000	33.645451
768.000000	33.625476
767.000000	33.583543
766.000000	33.520892
765.000000	33.471613
764.000000	33.420684
763.000000	33.428856
762.000000	33.374211
761.000000	33.334673
760.000000	33.347880
759.000000	33.333682
758.000000	33.304379
757.000000	33.309745
756.000000	33.290264
755.000000	33.214406
754.000000	33.182874
753.000000	33.186424
752.000000	33.155140
751.000000	33.099257
750.000000	33.081675
749.000000	33.054106
748.000000	32.982540
747.000000	32.929547
746.000000	32.928556
745.000000	32.908498
744.000000	32.845764
743.000000	32.807794
742.000000	32.781545
741.000000	32.735816
740.000000	32.688023
739.000000	32.664167
738.000000	32.634452
737.000000	32.650960
736.000000	32.607955
735.000000	32.568416
734.000000	32.582862
733.000000	32.555705
732.000000	32.547120
731.000000	32.524585
730.000000	32.506343
729.000000	32.479186
728.000000	32.469859
727.000000	32.467135
726.000000	32.465484
725.000000	32.449470
724.000000	32.412738
723.000000	32.375841
722.000000	32.323343
721.000000	32.303285
720.000000	32.270763
719.000000	32.271010
718.000000	32.267213
717.000000	32.192181
716.000000	32.163620
715.000000	32.144635
714.000000	32.159741
713.000000	32.158338
712.000000	32.122266
711.000000	32.087267
710.000000	32.000513
709.000000	31.929030
708.000000	31.919125
707.000000	31.897581
706.000000	31.836416
705.000000	31.822961
704.000000	31.773600
703.000000	31.701456
702.000000	31.646647
701.000000	31.620976
700.000000	31.558572
699.000000	31.521345
698.000000	31.500874
697.000000	31.442268
696.000000	31.367565
695.000000	31.311023
694.000000	31.266779
693.000000	31.188858
692.000000	31.109946
691.000000	31.077753
690.000000	31.006105
689.000000	30.947499
688.000000	30.881629
687.000000	30.859259
686.000000	30.799828
685.000000	30.718769
684.000000	30.677002
683.000000	30.626155
682.000000	30.559294
681.000000	30.495240
680.000000	30.399406
679.000000	30.323796
678.000000	30.253881
677.000000	30.208069
676.000000	30.124039
675.000000	30.026060
674.000000	29.985943
673.000000	29.963409
672.000000	29.899767
671.000000	29.827128
670.000000	29.763404
669.000000	29.753747
668.000000	29.733358
667.000000	29.671368
666.000000	29.563978
665.000000	29.548212
664.000000	29.506857
663.000000	29.482342
662.000000	29.424313
661.000000	29.359186
660.000000	29.308669
659.000000	29.213991
658.000000	29.144076
657.000000	29.047417
656.000000	28.971477
655.000000	28.958600
654.000000	28.880513
653.000000	28.786578
652.000000	28.716416
651.000000	28.633624
650.000000	28.538120
649.000000	28.439976
648.000000	28.342078
647.000000	28.267871
646.000000	28.182521
645.000000	28.074883
644.000000	27.957010
643.000000	27.864066
642.000000	27.748009
641.000000	27.604712
640.000000	27.490224
639.000000	27.354934
638.000000	27.216177
637.000000	27.075522
636.000000	26.936518
635.000000	26.795781
634.000000	26.695324
633.000000	26.564657
632.000000	26.458175
631.000000	26.348557
630.000000	26.273937
629.000000	26.192879
628.000000	26.084333
627.000000	26.003770
626.000000	25.977109
625.000000	25.940129
624.000000	25.932783
623.000000	25.901333
622.000000	25.879294
621.000000	25.865427
620.000000	25.868893
619.000000	25.879377
618.000000	25.892253
617.000000	25.933938
616.000000	25.973477
615.000000	26.021352
614.000000	26.106455
613.000000	26.212524
612.000000	26.318346
611.000000	26.440016
610.000000	26.580753
609.000000	26.743035
608.000000	26.944030
607.000000	27.123233
606.000000	27.318037
605.000000	27.517793
604.000000	27.779045
603.000000	28.013058
602.000000	28.257058
601.000000	28.481413
600.000000	28.696440
599.000000	28.953812
598.000000	29.213661
597.000000	29.467154
596.000000	29.755233
595.000000	30.050245
594.000000	30.319504
593.000000	30.600153
592.000000	30.872962
591.000000	31.131490
590.000000	31.363356
589.000000	31.596708
588.000000	31.845826
587.000000	32.078683
586.000000	32.250539
585.000000	32.464411
584.000000	32.643944
583.000000	32.832145
582.000000	33.038422
581.000000	33.229264
580.000000	33.382218
579.000000	33.530220
578.000000	33.670049
577.000000	33.799809
576.000000	33.940876
575.000000	34.073607
574.000000	34.205760
573.000000	34.338904
572.000000	34.497801
571.000000	34.627725
570.000000	34.801398
569.000000	34.937431
568.000000	35.071482
567.000000	35.222620
566.000000	35.319362
565.000000	35.426834
564.000000	35.483955
563.000000	35.566416
562.000000	35.601663
561.000000	35.643100
560.000000	35.719536
559.000000	35.934728
558.000000	35.940506
557.000000	35.928702
556.000000	35.899234
555.000000	35.851854
554.000000	35.800264
553.000000	35.759404
552.000000	35.685445
551.000000	35.605212
550.000000	35.505746
549.000000	35.427825
548.000000	35.382838
547.000000	35.299882
546.000000	35.232856
545.000000	35.120431
544.000000	35.002310
543.000000	34.878577
542.000000	34.723724
541.000000	34.564744
540.000000	34.415257
539.000000	34.205100
538.000000	33.992219
537.000000	33.758041
536.000000	33.473842
535.000000	33.166696
534.000000	32.850222
533.000000	32.529703
532.000000	32.192428
531.000000	31.815697
530.000000	31.434096
529.000000	31.031694
528.000000	30.603290
527.000000	30.158130
526.000000	29.711979
525.000000	29.259060
524.000000	28.793016
523.000000	28.321525
522.000000	27.849786
521.000000	27.347588
520.000000	26.862394
519.000000	26.352436
518.000000	25.848670
517.000000	25.366035
516.000000	24.885051
515.000000	24.409597
514.000000	23.922174
513.000000	23.428148
512.000000	22.940478
511.000000	22.428457
510.000000	21.924031
509.000000	21.458317
508.000000	20.995575
507.000000	20.549837
506.000000	20.123827
505.000000	19.691874
504.000000	19.256289
503.000000	18.853722
502.000000	18.472781
501.000000	18.114705
500.000000	17.757207
499.000000	17.417621
498.000000	17.102715
497.000000	16.800356
496.000000	16.520449
495.000000	16.243266
494.000000	15.955023
493.000000	15.691047
492.000000	15.432436
491.000000	15.162269
490.000000	14.896643
489.000000	14.650744
488.000000	14.398242
487.000000	14.146565
486.000000	13.886881
485.000000	13.636360
484.000000	13.387077
483.000000	13.143820
482.000000	12.864491
481.000000	12.588463
480.000000	12.321846
479.000000	12.091218
478.000000	11.914821
477.000000	11.742469
476.000000	11.568466
475.000000	11.399581
474.000000	11.238951
473.000000	11.084428
472.000000	10.921899
471.000000	10.768284
470.000000	10.621769
469.000000	10.479628
468.000000	10.344586
467.000000	10.203435
466.000000	10.059231
465.000000	9.918741
464.000000	9.787826
463.000000	9.641310
462.000000	9.498509
461.000000	9.357194
460.000000	9.228838
459.000000	9.098666
458.000000	8.960900
457.000000	8.841706
456.000000	8.726145
455.000000	8.602246
454.000000	8.480328
453.000000	8.381688
452.000000	8.276857
451.000000	8.176566
450.000000	8.087831
449.000000	7.995877
448.000000	7.903180
447.000000	7.815106
446.000000	7.736276
445.000000	7.664711
444.000000	7.597355
443.000000	7.518443
442.000000	7.443080
441.000000	7.377210
440.000000	7.316127
439.000000	7.271223
438.000000	7.227887
437.000000	7.182736
436.000000	7.141051
435.000000	7.097633
434.000000	7.064450
433.000000	7.030442
432.000000	7.003615
431.000000	6.979182
430.000000	6.948228
429.000000	6.919833
428.000000	6.892759
427.000000	6.857265
426.000000	6.834648
425.000000	6.808729
424.000000	6.784543
423.000000	6.761761
422.000000	6.740630
421.000000	6.722718
420.000000	6.700926
419.000000	6.684170
418.000000	6.653546
417.000000	6.623913
416.000000	6.599397
415.000000	6.561592
414.000000	6.523622
413.000000	6.494071
412.000000	6.465180
411.000000	6.423083
410.000000	6.380243
409.000000	6.326094
408.000000	6.278053
407.000000	6.223244
406.000000	6.158117
405.000000	6.106114
404.000000	6.050727
403.000000	5.994762
402.000000	5.924434
401.000000	5.858564
400.000000	5.789145
399.000000	5.714690
398.000000	5.625625
397.000000	5.534909
396.000000	5.468461
395.000000	5.383028
394.000000	5.291982
393.000000	5.195818
392.000000	5.112531
391.000000	5.023136
390.000000	4.936052
389.000000	4.842942
388.000000	4.756518
387.000000	4.667701
386.000000	4.577150
385.000000	4.497743
384.000000	4.404716
383.000000	4.320851
382.000000	4.236491
381.000000	4.160633
380.000000	4.095258
379.000000	4.020391
378.000000	3.959968
377.000000	3.896575
376.000000	4.011724
375.000000	3.935370
374.000000	3.707218
373.000000	3.665534
372.000000	3.642256
371.000000	3.527520
370.000000	3.549064
369.000000	3.514726
368.000000	3.454551
367.000000	3.474444
366.000000	3.486331
365.000000	3.392230
364.000000	3.355251
363.000000	3.346171
362.000000	3.272872
361.000000	3.322728
360.000000	3.285171
359.000000	3.283850
358.000000	3.234901
357.000000	3.190245
356.000000	3.200481
355.000000	3.197261
354.000000	3.143030
353.000000	3.131144
352.000000	3.157640
351.000000	3.216164
350.000000	3.104317
349.000000	3.051241
348.000000	3.083185
347.000000	3.111333
346.000000	3.171755
345.000000	3.237213
344.000000	3.135518
343.000000	3.081287
342.000000	3.095567
341.000000	3.142947
340.000000	3.131061
339.000000	3.083763
338.000000	3.098374
337.000000	3.140801
336.000000	3.031183
335.000000	3.204690
334.000000	3.104812
333.000000	3.142287
332.000000	3.116863
331.000000	3.176130
330.000000	3.197757
329.000000	3.158135
328.000000	3.182651
327.000000	3.125448
326.000000	3.263131
325.000000	3.047361
324.000000	3.228958
323.000000	3.225409
322.000000	3.408739
321.000000	3.108196
320.000000	3.167380
319.000000	3.391405
318.000000	3.252813
317.000000	3.471473
316.000000	3.100767
315.000000	3.056359
314.000000	3.004686
313.000000	3.014261
312.000000	3.006997
311.000000	3.038694
310.000000	3.046784
309.000000	3.129823
308.000000	2.996597
307.000000	2.986196
306.000000	3.041171
305.000000	3.050663
304.000000	3.008896
303.000000	3.014179
302.000000	3.023258
301.000000	3.079719
300.000000	3.039107
299.000000	3.024662
298.000000	3.069813
297.000000	3.037291
296.000000	3.012363
295.000000	3.023093
294.000000	3.024909
293.000000	3.056854
292.000000	3.077242
291.000000	3.052479
290.000000	3.077738
289.000000	3.034154
288.000000	3.104564
287.000000	3.098043
286.000000	2.983968
285.000000	3.053305
284.000000	3.044637
283.000000	3.052974
282.000000	3.082855
281.000000	3.107041
280.000000	3.095980
279.000000	3.085249
278.000000	3.057927
277.000000	3.055781
276.000000	3.052066
275.000000	3.067007
274.000000	3.089624
273.000000	3.101510
272.000000	3.110508
271.000000	3.102336
270.000000	3.125200
269.000000	3.071134
268.000000	3.134198
267.000000	3.197344
266.000000	3.153018
265.000000	3.155081
264.000000	3.186366
263.000000	3.194290
262.000000	3.199077
261.000000	3.177863
260.000000	3.245550
259.000000	3.202792
258.000000	3.232425
257.000000	3.251080
256.000000	3.252483
255.000000	3.285749
254.000000	3.260820
253.000000	3.298378
252.000000	3.325370
251.000000	3.309686
250.000000	3.289215
