PE UV       SUBTECH     SPECTRUM    ASCII       PEDS        4.00        
   -1
CICIMAUCR0097-2.Sample.ASC
24/04/18
12:01:15.00
24/04/18
12:01:15.00
Vinicio Soto Monge
C. kalinini
250,000000
1
Lambda 1050
1050L1511233
PerkinElmer UV WinLab 6.3.2.0749 / 2.02.05 Lambda 900 UV/VIS/NIR, Aug  7 2015 09:38:08

0
0
3350/servo 860,8/2
0
0
UV/VIS
1
1
1
DoubleDePol,CommonBeamDepol,RBeamAtt,SBeamAtt,60mm sphere, WB InGaAs Detector
0
0
0
0
Program
Program
3350/servo 860,8/2
3350/0,2 860,8/0,2
3350/0,2 860,8/0,2
0
15.00
 
 
 
0
 
860,8
319,2
860,8
Front
100
on
S:100 R:100
0
0
0
0
 
0
 
 
 
0
 
 
0
0
0
0
0
 
 
 
 
0
0


0
0
#HDR
-1
-1
#GR
nm
%R
1.0
0.0
2500,000000
-1,000000
2251
8
91,681900
5,245000
#DATA
2500.000000	19.454721
2499.000000	19.452543
2498.000000	19.358671
2497.000000	19.483604
2496.000000	19.477186
2495.000000	19.373801
2494.000000	19.310303
2493.000000	19.339301
2492.000000	19.263883
2491.000000	19.347439
2490.000000	19.257005
2489.000000	19.275459
2488.000000	19.292766
2487.000000	19.269155
2486.000000	19.326005
2485.000000	19.332997
2484.000000	19.317409
2483.000000	19.349502
2482.000000	19.313741
2481.000000	19.324859
2480.000000	19.335633
2479.000000	19.326005
2478.000000	19.381939
2477.000000	19.384460
2476.000000	19.389503
2475.000000	19.419648
2474.000000	19.454835
2473.000000	19.505726
2472.000000	19.540569
2471.000000	19.626647
2470.000000	19.590084
2469.000000	19.674213
2468.000000	19.695188
2467.000000	19.756394
2466.000000	19.782756
2465.000000	19.832500
2464.000000	19.889350
2463.000000	19.992506
2462.000000	20.026089
2461.000000	20.094287
2460.000000	20.146094
2459.000000	20.215666
2458.000000	20.277216
2457.000000	20.362835
2456.000000	20.463240
2455.000000	20.584506
2454.000000	20.653964
2453.000000	20.743709
2452.000000	20.836550
2451.000000	20.950250
2450.000000	21.071516
2449.000000	21.190718
2448.000000	21.288487
2447.000000	21.398634
2446.000000	21.506718
2445.000000	21.624545
2444.000000	21.753719
2443.000000	21.856989
2442.000000	21.976306
2441.000000	22.099176
2440.000000	22.181586
2439.000000	22.303883
2438.000000	22.428243
2437.000000	22.544695
2436.000000	22.661031
2435.000000	22.769001
2434.000000	22.857142
2433.000000	22.950555
2432.000000	23.058296
2431.000000	23.156867
2430.000000	23.244435
2429.000000	23.328449
2428.000000	23.444786
2427.000000	23.533959
2426.000000	23.613388
2425.000000	23.714710
2424.000000	23.842280
2423.000000	23.960909
2422.000000	24.088478
2421.000000	24.209973
2420.000000	24.265333
2419.000000	24.334104
2418.000000	24.410210
2417.000000	24.523566
2416.000000	24.611249
2415.000000	24.689532
2414.000000	24.757501
2413.000000	24.846215
2412.000000	24.904440
2411.000000	24.982380
2410.000000	25.031551
2409.000000	25.101353
2408.000000	25.139979
2407.000000	25.190984
2406.000000	25.252878
2405.000000	25.312249
2404.000000	25.369214
2403.000000	25.391909
2402.000000	25.421480
2401.000000	25.481883
2400.000000	25.519593
2399.000000	25.566471
2398.000000	25.587905
2397.000000	25.617705
2396.000000	25.669856
2395.000000	25.696218
2394.000000	25.715130
2393.000000	25.746306
2392.000000	25.759258
2391.000000	25.792612
2390.000000	25.821954
2389.000000	25.833301
2388.000000	25.858631
2387.000000	25.856224
2386.000000	25.865852
2385.000000	25.878460
2384.000000	25.887859
2383.000000	25.885566
2382.000000	25.887515
2381.000000	25.886369
2380.000000	25.852442
2379.000000	25.862070
2378.000000	25.867801
2377.000000	25.865508
2376.000000	25.860121
2375.000000	25.832498
2374.000000	25.807053
2373.000000	25.800520
2372.000000	25.799832
2371.000000	25.772897
2370.000000	25.750662
2369.000000	25.757653
2368.000000	25.776450
2367.000000	25.759716
2366.000000	25.753069
2365.000000	25.763040
2364.000000	25.750776
2363.000000	25.740919
2362.000000	25.753298
2361.000000	25.755819
2360.000000	25.738741
2359.000000	25.719715
2358.000000	25.696562
2357.000000	25.691060
2356.000000	25.677306
2355.000000	25.662062
2354.000000	25.663781
2353.000000	25.653695
2352.000000	25.646130
2351.000000	25.626645
2350.000000	25.630199
2349.000000	25.651632
2348.000000	25.644755
2347.000000	25.629969
2346.000000	25.612318
2345.000000	25.624124
2344.000000	25.669283
2343.000000	25.695531
2342.000000	25.679255
2341.000000	25.661260
2340.000000	25.641202
2339.000000	25.666418
2338.000000	25.699313
2337.000000	25.707565
2336.000000	25.701032
2335.000000	25.707909
2334.000000	25.723268
2333.000000	25.752266
2332.000000	25.794789
2331.000000	25.795935
2330.000000	25.803271
2329.000000	25.833415
2328.000000	25.881440
2327.000000	25.910553
2326.000000	25.912043
2325.000000	25.912158
2324.000000	25.923161
2323.000000	25.945626
2322.000000	25.957890
2321.000000	25.939551
2320.000000	25.911126
2319.000000	25.904707
2318.000000	25.880867
2317.000000	25.844419
2316.000000	25.810377
2315.000000	25.784932
2314.000000	25.760862
2313.000000	25.724643
2312.000000	25.674326
2311.000000	25.632491
2310.000000	25.598449
2309.000000	25.530596
2308.000000	25.508016
2307.000000	25.486583
2306.000000	25.445206
2305.000000	25.423543
2304.000000	25.417812
2303.000000	25.408299
2302.000000	25.385261
2301.000000	25.375175
2300.000000	25.369673
2299.000000	25.397410
2298.000000	25.409674
2297.000000	25.420678
2296.000000	25.456094
2295.000000	25.473746
2294.000000	25.474433
2293.000000	25.521770
2292.000000	25.544923
2291.000000	25.555353
2290.000000	25.580684
2289.000000	25.636388
2288.000000	25.650600
2287.000000	25.722351
2286.000000	25.733125
2285.000000	25.777597
2284.000000	25.819432
2283.000000	25.825736
2282.000000	25.851754
2281.000000	25.870666
2280.000000	25.904822
2279.000000	25.937030
2278.000000	25.942531
2277.000000	25.973707
2276.000000	26.014970
2275.000000	26.027119
2274.000000	26.051762
2273.000000	26.076405
2272.000000	26.122595
2271.000000	26.151021
2270.000000	26.185979
2269.000000	26.238588
2268.000000	26.317560
2267.000000	26.370742
2266.000000	26.454413
2265.000000	26.551953
2264.000000	26.667602
2263.000000	26.791389
2262.000000	26.912769
2261.000000	27.035868
2260.000000	27.203553
2259.000000	27.376282
2258.000000	27.539383
2257.000000	27.694002
2256.000000	27.882548
2255.000000	28.066165
2254.000000	28.283250
2253.000000	28.440620
2252.000000	28.612661
2251.000000	28.773126
2250.000000	28.953534
2249.000000	29.136005
2248.000000	29.279964
2247.000000	29.398364
2246.000000	29.538771
2245.000000	29.645594
2244.000000	29.755856
2243.000000	29.853281
2242.000000	29.940505
2241.000000	30.004347
2240.000000	30.096729
2239.000000	30.137189
2238.000000	30.177420
2237.000000	30.192778
2236.000000	30.187621
2235.000000	30.267624
2234.000000	30.242866
2233.000000	30.218567
2232.000000	30.216390
2231.000000	30.166187
2230.000000	30.142805
2229.000000	30.114036
2228.000000	30.074837
2227.000000	30.014663
2226.000000	29.961824
2225.000000	29.872079
2224.000000	29.794597
2223.000000	29.741644
2222.000000	29.675051
2221.000000	29.582899
2220.000000	29.486047
2219.000000	29.410628
2218.000000	29.305066
2217.000000	29.228616
2216.000000	29.156980
2215.000000	29.080645
2214.000000	28.972446
2213.000000	28.887973
2212.000000	28.790662
2211.000000	28.735531
2210.000000	28.673523
2209.000000	28.598105
2208.000000	28.541484
2207.000000	28.501024
2206.000000	28.444173
2205.000000	28.406923
2204.000000	28.365660
2203.000000	28.324742
2202.000000	28.270986
2201.000000	28.229151
2200.000000	28.208176
2199.000000	28.146282
2198.000000	28.129892
2197.000000	28.119233
2196.000000	28.077856
2195.000000	28.062039
2194.000000	28.048055
2193.000000	28.009200
2192.000000	27.977565
2191.000000	27.966218
2190.000000	27.945473
2189.000000	27.932177
2188.000000	27.903523
2187.000000	27.894697
2186.000000	27.888164
2185.000000	27.886101
2184.000000	27.864553
2183.000000	27.841629
2182.000000	27.836930
2181.000000	27.825583
2180.000000	27.810568
2179.000000	27.782716
2178.000000	27.772744
2177.000000	27.754978
2176.000000	27.767930
2175.000000	27.764377
2174.000000	27.783060
2173.000000	27.787988
2172.000000	27.784779
2171.000000	27.806785
2170.000000	27.834523
2169.000000	27.876931
2168.000000	27.922205
2167.000000	27.955788
2166.000000	28.012065
2165.000000	28.039230
2164.000000	28.074303
2163.000000	28.160380
2162.000000	28.240498
2161.000000	28.291961
2160.000000	28.379185
2159.000000	28.468816
2158.000000	28.559937
2157.000000	28.660342
2156.000000	28.753412
2155.000000	28.879491
2154.000000	28.990670
2153.000000	29.104256
2152.000000	29.220936
2151.000000	29.337502
2150.000000	29.451203
2149.000000	29.565247
2148.000000	29.673217
2147.000000	29.776258
2146.000000	29.908412
2145.000000	30.044349
2144.000000	30.151631
2143.000000	30.249629
2142.000000	30.357713
2141.000000	30.473018
2140.000000	30.581332
2139.000000	30.687353
2138.000000	30.807243
2137.000000	30.921631
2136.000000	31.021005
2135.000000	31.108572
2134.000000	31.177458
2133.000000	31.267089
2132.000000	31.358897
2131.000000	31.442339
2130.000000	31.508473
2129.000000	31.576670
2128.000000	31.655298
2127.000000	31.734613
2126.000000	31.770833
2125.000000	31.833758
2124.000000	31.894046
2123.000000	31.930036
2122.000000	31.978061
2121.000000	32.027690
2120.000000	32.066202
2119.000000	32.098066
2118.000000	32.135431
2117.000000	32.166148
2116.000000	32.182310
2115.000000	32.202711
2114.000000	32.222426
2113.000000	32.249819
2112.000000	32.269648
2111.000000	32.278588
2110.000000	32.279734
2109.000000	32.297844
2108.000000	32.309879
2107.000000	32.321799
2106.000000	32.325811
2105.000000	32.318704
2104.000000	32.320080
2103.000000	32.328218
2102.000000	32.353319
2101.000000	32.365354
2100.000000	32.363291
2099.000000	32.354350
2098.000000	32.364437
2097.000000	32.397217
2096.000000	32.404897
2095.000000	32.417161
2094.000000	32.433551
2093.000000	32.454985
2092.000000	32.474240
2091.000000	32.486848
2090.000000	32.488224
2089.000000	32.498425
2088.000000	32.521807
2087.000000	32.528569
2086.000000	32.517451
2085.000000	32.515044
2084.000000	32.506792
2083.000000	32.489714
2082.000000	32.477450
2081.000000	32.445127
2080.000000	32.378764
2079.000000	32.320309
2078.000000	32.261854
2077.000000	32.195949
2076.000000	32.130388
2075.000000	32.045800
2074.000000	31.956857
2073.000000	31.872957
2072.000000	31.783441
2071.000000	31.660685
2070.000000	31.534835
2069.000000	31.437869
2068.000000	31.323251
2067.000000	31.203247
2066.000000	31.079116
2065.000000	30.958882
2064.000000	30.832344
2063.000000	30.699159
2062.000000	30.589584
2061.000000	30.500412
2060.000000	30.404706
2059.000000	30.324016
2058.000000	30.265217
2057.000000	30.215702
2056.000000	30.165843
2055.000000	30.147734
2054.000000	30.145327
2053.000000	30.146817
2052.000000	30.168021
2051.000000	30.242064
2050.000000	30.358745
2049.000000	30.427744
2048.000000	30.533078
2047.000000	30.666951
2046.000000	30.795323
2045.000000	30.960945
2044.000000	31.131840
2043.000000	31.284167
2042.000000	31.412309
2041.000000	31.579651
2040.000000	31.752952
2039.000000	31.894046
2038.000000	32.040871
2037.000000	32.190333
2036.000000	32.315839
2035.000000	32.460142
2034.000000	32.576135
2033.000000	32.703475
2032.000000	32.834139
2031.000000	32.931450
2030.000000	33.045265
2029.000000	33.134552
2028.000000	33.206188
2027.000000	33.306478
2026.000000	33.390607
2025.000000	33.455596
2024.000000	33.506257
2023.000000	33.575715
2022.000000	33.640015
2021.000000	33.682997
2020.000000	33.754174
2019.000000	33.798417
2018.000000	33.848505
2017.000000	33.896988
2016.000000	33.910742
2015.000000	33.954870
2014.000000	33.982951
2013.000000	33.985129
2012.000000	33.991891
2011.000000	34.003467
2010.000000	34.024099
2009.000000	34.004728
2008.000000	33.993954
2007.000000	33.990859
2006.000000	33.973208
2005.000000	33.952577
2004.000000	33.903979
2003.000000	33.885526
2002.000000	33.830624
2001.000000	33.786726
2000.000000	33.742713
1999.000000	33.675088
1998.000000	33.610559
1997.000000	33.540756
1996.000000	33.477258
1995.000000	33.430953
1994.000000	33.355764
1993.000000	33.275761
1992.000000	33.216503
1991.000000	33.126643
1990.000000	33.058217
1989.000000	32.977870
1988.000000	32.892021
1987.000000	32.802046
1986.000000	32.704736
1985.000000	32.636997
1984.000000	32.549659
1983.000000	32.465529
1982.000000	32.374294
1981.000000	32.271482
1980.000000	32.186780
1979.000000	32.101619
1978.000000	32.012217
1977.000000	31.926025
1976.000000	31.832841
1975.000000	31.755818
1974.000000	31.648421
1973.000000	31.576900
1972.000000	31.492656
1971.000000	31.409329
1970.000000	31.325200
1969.000000	31.254251
1968.000000	31.153159
1967.000000	31.096194
1966.000000	31.000717
1965.000000	30.929884
1964.000000	30.842545
1963.000000	30.736524
1962.000000	30.678871
1961.000000	30.580300
1960.000000	30.486429
1959.000000	30.392557
1958.000000	30.318858
1957.000000	30.211003
1956.000000	30.125383
1955.000000	30.027729
1954.000000	29.955520
1953.000000	29.880102
1952.000000	29.769611
1951.000000	29.707373
1950.000000	29.595736
1949.000000	29.523985
1948.000000	29.460487
1947.000000	29.387132
1946.000000	29.333949
1945.000000	29.259792
1944.000000	29.206838
1943.000000	29.174058
1942.000000	29.127523
1941.000000	29.091648
1940.000000	29.077435
1939.000000	29.062650
1938.000000	29.072621
1937.000000	29.064025
1936.000000	29.071131
1935.000000	29.104256
1934.000000	29.125689
1933.000000	29.160418
1932.000000	29.240078
1931.000000	29.315840
1930.000000	29.370512
1929.000000	29.447650
1928.000000	29.606166
1927.000000	29.740612
1926.000000	29.871162
1925.000000	30.011797
1924.000000	30.135126
1923.000000	30.260632
1922.000000	30.464307
1921.000000	30.732054
1920.000000	31.005875
1919.000000	31.208404
1918.000000	31.454144
1917.000000	31.654840
1916.000000	31.851982
1915.000000	32.104026
1914.000000	32.458309
1913.000000	32.839641
1912.000000	33.232091
1911.000000	33.550957
1910.000000	33.862373
1909.000000	34.087711
1908.000000	34.405775
1907.000000	34.818398
1906.000000	35.301396
1905.000000	35.859354
1904.000000	36.325619
1903.000000	36.751079
1902.000000	37.181238
1901.000000	37.624579
1900.000000	38.172795
1899.000000	38.794824
1898.000000	39.366536
1897.000000	39.830164
1896.000000	40.208058
1895.000000	40.573000
1894.000000	41.026427
1893.000000	41.529484
1892.000000	42.098445
1891.000000	42.667292
1890.000000	43.188228
1889.000000	43.617471
1888.000000	44.056456
1887.000000	44.421398
1886.000000	44.816485
1885.000000	45.258450
1884.000000	45.685286
1883.000000	46.050457
1882.000000	46.404052
1881.000000	46.694608
1880.000000	46.917768
1879.000000	47.149410
1878.000000	47.410394
1877.000000	47.632638
1876.000000	47.856715
1875.000000	48.077239
1874.000000	48.280571
1873.000000	48.550724
1872.000000	48.785232
1871.000000	48.993721
1870.000000	49.196250
1869.000000	49.377919
1868.000000	49.477063
1867.000000	49.539759
1866.000000	49.526463
1865.000000	49.544573
1864.000000	49.548126
1863.000000	49.551679
1862.000000	49.603830
1861.000000	49.688532
1860.000000	49.785040
1859.000000	49.881319
1858.000000	49.943098
1857.000000	49.952840
1856.000000	49.936908
1855.000000	49.978973
1854.000000	50.044190
1853.000000	50.037084
1852.000000	50.033760
1851.000000	50.013817
1850.000000	49.980463
1849.000000	50.025966
1848.000000	50.140125
1847.000000	50.251534
1846.000000	50.218982
1845.000000	50.068719
1844.000000	49.923957
1843.000000	49.883153
1842.000000	49.962124
1841.000000	50.044764
1840.000000	50.044076
1839.000000	49.983099
1838.000000	49.926364
1837.000000	49.952267
1836.000000	49.983329
1835.000000	49.948256
1834.000000	49.836847
1833.000000	49.722688
1832.000000	49.650365
1831.000000	49.636381
1830.000000	49.668933
1829.000000	49.667901
1828.000000	49.606810
1827.000000	49.581136
1826.000000	49.598787
1825.000000	49.565204
1824.000000	49.504686
1823.000000	49.440500
1822.000000	49.478094
1821.000000	49.599245
1820.000000	49.679821
1819.000000	49.649448
1818.000000	49.565891
1817.000000	49.524056
1816.000000	49.551908
1815.000000	49.562682
1814.000000	49.548240
1813.000000	49.527953
1812.000000	49.526578
1811.000000	49.540790
1810.000000	49.496892
1809.000000	49.472593
1808.000000	49.476146
1807.000000	49.473166
1806.000000	49.468123
1805.000000	49.453108
1804.000000	49.427090
1803.000000	49.406229
1802.000000	49.423537
1801.000000	49.433508
1800.000000	49.402218
1799.000000	49.385254
1798.000000	49.379294
1797.000000	49.374366
1796.000000	49.371729
1795.000000	49.361070
1794.000000	49.372532
1793.000000	49.364852
1792.000000	49.343533
1791.000000	49.352130
1790.000000	49.355683
1789.000000	49.357975
1788.000000	49.378033
1787.000000	49.410126
1786.000000	49.420556
1785.000000	49.429038
1784.000000	49.439239
1783.000000	49.455056
1782.000000	49.447606
1781.000000	49.441761
1780.000000	49.433623
1779.000000	49.421244
1778.000000	49.402218
1777.000000	49.384108
1776.000000	49.342158
1775.000000	49.317171
1774.000000	49.304220
1773.000000	49.265937
1772.000000	49.240607
1771.000000	49.204846
1770.000000	49.162782
1769.000000	49.144099
1768.000000	49.127136
1767.000000	49.088166
1766.000000	49.061460
1765.000000	49.048164
1764.000000	49.046559
1763.000000	49.039568
1762.000000	49.013893
1761.000000	49.025355
1760.000000	49.038307
1759.000000	49.028794
1758.000000	49.022375
1757.000000	49.037849
1756.000000	49.022604
1755.000000	49.016759
1754.000000	49.023178
1753.000000	49.009194
1752.000000	48.990168
1751.000000	48.994294
1750.000000	48.947301
1749.000000	48.928962
1748.000000	48.904434
1747.000000	48.838185
1746.000000	48.800705
1745.000000	48.742708
1744.000000	48.682305
1743.000000	48.622245
1742.000000	48.540867
1741.000000	48.463385
1740.000000	48.382695
1739.000000	48.320687
1738.000000	48.259366
1737.000000	48.199077
1736.000000	48.153001
1735.000000	48.124118
1734.000000	48.084231
1733.000000	48.023598
1732.000000	48.000331
1731.000000	47.994944
1730.000000	47.947950
1729.000000	47.923766
1728.000000	47.901645
1727.000000	47.864967
1726.000000	47.859924
1725.000000	47.842273
1724.000000	47.847316
1723.000000	47.860727
1722.000000	47.931331
1721.000000	48.042510
1720.000000	48.176498
1719.000000	48.325615
1718.000000	48.483100
1717.000000	48.684597
1716.000000	48.852054
1715.000000	49.048508
1714.000000	49.186049
1713.000000	49.353964
1712.000000	49.500560
1711.000000	49.612655
1710.000000	49.713404
1709.000000	49.800514
1708.000000	49.886935
1707.000000	49.960749
1706.000000	50.011639
1705.000000	50.052787
1704.000000	50.058632
1703.000000	50.098863
1702.000000	50.129580
1701.000000	50.100238
1700.000000	50.128090
1699.000000	50.104135
1698.000000	50.125110
1697.000000	50.116858
1696.000000	50.087172
1695.000000	50.082473
1694.000000	50.052558
1693.000000	50.031353
1692.000000	49.958113
1691.000000	49.942639
1690.000000	49.944932
1689.000000	49.961207
1688.000000	49.979202
1687.000000	50.069292
1686.000000	50.208552
1685.000000	50.361223
1684.000000	50.596074
1683.000000	50.778660
1682.000000	51.010989
1681.000000	51.232774
1680.000000	51.466250
1679.000000	51.672332
1678.000000	51.874862
1677.000000	52.102377
1676.000000	52.275221
1675.000000	52.426172
1674.000000	52.614603
1673.000000	52.777933
1672.000000	52.941492
1671.000000	53.119723
1670.000000	53.271247
1669.000000	53.448216
1668.000000	53.580600
1667.000000	53.777283
1666.000000	53.893276
1665.000000	54.014427
1664.000000	54.138558
1663.000000	54.241370
1662.000000	54.321487
1661.000000	54.399886
1660.000000	54.506136
1659.000000	54.581784
1658.000000	54.642760
1657.000000	54.699267
1656.000000	54.755544
1655.000000	54.812738
1654.000000	54.831191
1653.000000	54.871651
1652.000000	54.892053
1651.000000	54.920364
1650.000000	54.940078
1649.000000	54.933316
1648.000000	54.963116
1647.000000	54.959105
1646.000000	54.939620
1645.000000	54.949935
1644.000000	54.939047
1643.000000	54.929189
1642.000000	54.932055
1641.000000	54.924146
1640.000000	54.923573
1639.000000	54.915321
1638.000000	54.934920
1637.000000	54.899160
1636.000000	54.902942
1635.000000	54.886781
1634.000000	54.858585
1633.000000	54.844029
1632.000000	54.818354
1631.000000	54.785803
1630.000000	54.753137
1629.000000	54.732277
1628.000000	54.715886
1627.000000	54.663621
1626.000000	54.620524
1625.000000	54.591297
1624.000000	54.556797
1623.000000	54.536281
1622.000000	54.512784
1621.000000	54.477596
1620.000000	54.446420
1619.000000	54.442753
1618.000000	54.425789
1617.000000	54.400917
1616.000000	54.401834
1615.000000	54.369054
1614.000000	54.325843
1613.000000	54.299595
1612.000000	54.271973
1611.000000	54.222343
1610.000000	54.187729
1609.000000	54.151051
1608.000000	54.093169
1607.000000	54.032766
1606.000000	53.973394
1605.000000	53.933278
1604.000000	53.886628
1603.000000	53.812127
1602.000000	53.745420
1601.000000	53.679400
1600.000000	53.612807
1599.000000	53.559510
1598.000000	53.506442
1597.000000	53.450280
1596.000000	53.395148
1595.000000	53.356981
1594.000000	53.306205
1593.000000	53.264255
1592.000000	53.225515
1591.000000	53.185742
1590.000000	53.143678
1589.000000	53.110782
1588.000000	53.083847
1587.000000	53.064477
1586.000000	53.022298
1585.000000	52.980118
1584.000000	52.946421
1583.000000	52.914443
1582.000000	52.890831
1581.000000	52.878223
1580.000000	52.851059
1579.000000	52.828250
1578.000000	52.829855
1577.000000	52.831574
1576.000000	52.835013
1575.000000	52.851861
1574.000000	52.856102
1573.000000	52.843494
1572.000000	52.853351
1571.000000	52.891978
1570.000000	52.919600
1569.000000	52.959373
1568.000000	53.003042
1567.000000	53.039720
1566.000000	53.071812
1565.000000	53.102071
1564.000000	53.128090
1563.000000	53.145053
1562.000000	53.166028
1561.000000	53.189754
1560.000000	53.202820
1559.000000	53.218523
1558.000000	53.219554
1557.000000	53.204540
1556.000000	53.184596
1555.000000	53.162933
1554.000000	53.133133
1553.000000	53.104708
1552.000000	53.072615
1551.000000	53.031467
1550.000000	52.987798
1549.000000	52.938856
1548.000000	52.894958
1547.000000	52.849798
1546.000000	52.800513
1545.000000	52.752259
1544.000000	52.720624
1543.000000	52.704807
1542.000000	52.682686
1541.000000	52.663774
1540.000000	52.662628
1539.000000	52.654719
1538.000000	52.626753
1537.000000	52.602339
1536.000000	52.587553
1535.000000	52.561077
1534.000000	52.532995
1533.000000	52.523253
1532.000000	52.493796
1531.000000	52.449095
1530.000000	52.405541
1529.000000	52.371499
1528.000000	52.327601
1527.000000	52.269031
1526.000000	52.236938
1525.000000	52.202897
1524.000000	52.152351
1523.000000	52.083007
1522.000000	52.029710
1521.000000	51.983748
1520.000000	51.938474
1519.000000	51.880249
1518.000000	51.812280
1517.000000	51.760588
1516.000000	51.698809
1515.000000	51.646658
1514.000000	51.587057
1513.000000	51.526195
1512.000000	51.470606
1511.000000	51.391290
1510.000000	51.311746
1509.000000	51.258907
1508.000000	51.209392
1507.000000	51.143029
1506.000000	51.076436
1505.000000	51.015689
1504.000000	50.970644
1503.000000	50.922275
1502.000000	50.854078
1501.000000	50.812472
1500.000000	50.768802
1499.000000	50.732813
1498.000000	50.690748
1497.000000	50.682725
1496.000000	50.664730
1495.000000	50.650976
1494.000000	50.656363
1493.000000	50.655904
1492.000000	50.672065
1491.000000	50.675160
1490.000000	50.682610
1489.000000	50.714703
1488.000000	50.740148
1487.000000	50.761467
1486.000000	50.781181
1485.000000	50.811211
1484.000000	50.845940
1483.000000	50.868520
1482.000000	50.904968
1481.000000	50.943136
1480.000000	50.967320
1479.000000	50.995287
1478.000000	51.024056
1477.000000	51.080677
1476.000000	51.124804
1475.000000	51.172142
1474.000000	51.254895
1473.000000	51.343266
1472.000000	51.404127
1471.000000	51.471293
1470.000000	51.541668
1469.000000	51.570323
1468.000000	51.664424
1467.000000	51.758066
1466.000000	51.816292
1465.000000	51.876466
1464.000000	51.968963
1463.000000	52.043235
1462.000000	52.127364
1461.000000	52.206221
1460.000000	52.295393
1459.000000	52.389609
1458.000000	52.481876
1457.000000	52.581020
1456.000000	52.699535
1455.000000	52.783435
1454.000000	52.850830
1453.000000	52.951464
1452.000000	53.055995
1451.000000	53.144480
1450.000000	53.259900
1449.000000	53.276519
1448.000000	53.339330
1447.000000	53.447299
1446.000000	53.592864
1445.000000	53.666563
1444.000000	53.714473
1443.000000	53.785421
1442.000000	53.908864
1441.000000	54.001131
1440.000000	54.074143
1439.000000	54.162742
1438.000000	54.286185
1437.000000	54.371919
1436.000000	54.460518
1435.000000	54.592787
1434.000000	54.719898
1433.000000	54.881509
1432.000000	54.980309
1431.000000	55.104210
1430.000000	55.197394
1429.000000	55.359120
1428.000000	55.506403
1427.000000	55.617124
1426.000000	55.804065
1425.000000	55.953985
1424.000000	56.162359
1423.000000	56.336005
1422.000000	56.498647
1421.000000	56.653152
1420.000000	56.874707
1419.000000	57.152884
1418.000000	57.333178
1417.000000	57.435875
1416.000000	57.639206
1415.000000	57.942943
1414.000000	58.270520
1413.000000	58.453908
1412.000000	58.621593
1411.000000	58.873179
1410.000000	59.179207
1409.000000	59.511942
1408.000000	59.774416
1407.000000	60.007548
1406.000000	60.255008
1405.000000	60.524817
1404.000000	60.742820
1403.000000	60.961739
1402.000000	61.135499
1401.000000	61.593740
1400.000000	61.879367
1399.000000	61.976104
1398.000000	61.993297
1397.000000	62.181614
1396.000000	62.549765
1395.000000	62.824045
1394.000000	62.886397
1393.000000	62.969838
1392.000000	63.201136
1391.000000	63.314035
1390.000000	63.377533
1389.000000	63.576050
1388.000000	63.883684
1387.000000	63.981109
1386.000000	64.109137
1385.000000	64.242322
1384.000000	64.394420
1383.000000	64.629271
1382.000000	64.787672
1381.000000	64.907562
1380.000000	64.943323
1379.000000	64.929340
1378.000000	64.913408
1377.000000	64.968653
1376.000000	65.012437
1375.000000	65.086480
1374.000000	65.122241
1373.000000	65.182759
1372.000000	65.298866
1371.000000	65.419673
1370.000000	65.457956
1369.000000	65.503000
1368.000000	65.622776
1367.000000	65.653837
1366.000000	65.685701
1365.000000	65.807654
1364.000000	65.853730
1363.000000	65.852469
1362.000000	65.990583
1361.000000	66.089269
1360.000000	66.059354
1359.000000	66.019811
1358.000000	66.023364
1357.000000	66.027605
1356.000000	66.056603
1355.000000	66.145546
1354.000000	66.229790
1353.000000	66.237240
1352.000000	66.279878
1351.000000	66.375010
1350.000000	66.462693
1349.000000	66.538799
1348.000000	66.623043
1347.000000	66.683332
1346.000000	66.729637
1345.000000	66.824082
1344.000000	66.891935
1343.000000	66.960362
1342.000000	67.012972
1341.000000	67.085639
1340.000000	67.148335
1339.000000	67.194182
1338.000000	67.246333
1337.000000	67.295618
1336.000000	67.343185
1335.000000	67.372183
1334.000000	67.410580
1333.000000	67.434649
1332.000000	67.464565
1331.000000	67.494824
1330.000000	67.499981
1329.000000	67.514538
1328.000000	67.534940
1327.000000	67.538034
1326.000000	67.559468
1325.000000	67.574827
1324.000000	67.573337
1323.000000	67.592822
1322.000000	67.595687
1321.000000	67.598323
1320.000000	67.611504
1319.000000	67.612994
1318.000000	67.612880
1317.000000	67.608524
1316.000000	67.599240
1315.000000	67.611046
1314.000000	67.622164
1313.000000	67.611963
1312.000000	67.599240
1311.000000	67.592707
1310.000000	67.593624
1309.000000	67.585715
1308.000000	67.579641
1307.000000	67.573222
1306.000000	67.556603
1305.000000	67.545828
1304.000000	67.545026
1303.000000	67.527260
1302.000000	67.508692
1301.000000	67.519237
1300.000000	67.532991
1299.000000	67.517518
1298.000000	67.481872
1297.000000	67.458261
1296.000000	67.457344
1295.000000	67.449091
1294.000000	67.439463
1293.000000	67.432357
1292.000000	67.421010
1291.000000	67.404849
1290.000000	67.382613
1289.000000	67.379404
1288.000000	67.373444
1287.000000	67.353386
1286.000000	67.338600
1285.000000	67.333671
1284.000000	67.320147
1283.000000	67.290461
1282.000000	67.266620
1281.000000	67.252408
1280.000000	67.249428
1279.000000	67.242321
1278.000000	67.218137
1277.000000	67.194297
1276.000000	67.189712
1275.000000	67.175270
1274.000000	67.164725
1273.000000	67.159911
1272.000000	67.151659
1271.000000	67.142948
1270.000000	67.128048
1269.000000	67.105583
1268.000000	67.093204
1267.000000	67.067300
1266.000000	67.042199
1265.000000	67.021453
1264.000000	67.006668
1263.000000	66.989360
1262.000000	66.970449
1261.000000	66.933656
1260.000000	66.912223
1259.000000	66.891248
1258.000000	66.873711
1257.000000	66.832449
1256.000000	66.799554
1255.000000	66.787404
1254.000000	66.750039
1253.000000	66.738233
1252.000000	66.689636
1251.000000	66.630493
1250.000000	66.615822
1249.000000	66.581551
1248.000000	66.543957
1247.000000	66.488711
1246.000000	66.465214
1245.000000	66.416846
1244.000000	66.371343
1243.000000	66.340854
1242.000000	66.289850
1241.000000	66.253516
1240.000000	66.227727
1239.000000	66.198614
1238.000000	66.151277
1237.000000	66.132938
1236.000000	66.105545
1235.000000	66.075286
1234.000000	66.063480
1233.000000	66.043995
1232.000000	66.015684
1231.000000	65.992876
1230.000000	65.965367
1229.000000	65.944049
1228.000000	65.922615
1227.000000	65.896826
1226.000000	65.879290
1225.000000	65.851781
1224.000000	65.833901
1223.000000	65.807768
1222.000000	65.808112
1221.000000	65.782667
1220.000000	65.753554
1219.000000	65.724900
1218.000000	65.701059
1217.000000	65.688910
1216.000000	65.660370
1215.000000	65.625641
1214.000000	65.590683
1213.000000	65.567301
1212.000000	65.521683
1211.000000	65.497957
1210.000000	65.437439
1209.000000	65.404773
1208.000000	65.371419
1207.000000	65.322363
1206.000000	65.281330
1205.000000	65.254166
1204.000000	65.229179
1203.000000	65.172902
1202.000000	65.135193
1201.000000	65.099432
1200.000000	65.040060
1199.000000	65.009801
1198.000000	64.950315
1197.000000	64.883607
1196.000000	64.833634
1195.000000	64.771855
1194.000000	64.708930
1193.000000	64.623769
1192.000000	64.563022
1191.000000	64.479122
1190.000000	64.417687
1189.000000	64.373674
1188.000000	64.314531
1187.000000	64.273383
1186.000000	64.247136
1185.000000	64.194412
1184.000000	64.191890
1183.000000	64.161631
1182.000000	64.133435
1181.000000	64.114867
1180.000000	64.106959
1179.000000	64.089193
1178.000000	64.065696
1177.000000	64.048389
1176.000000	64.062258
1175.000000	64.048848
1174.000000	64.055725
1173.000000	64.042429
1172.000000	64.054922
1171.000000	64.067301
1170.000000	64.080941
1169.000000	64.080711
1168.000000	64.090912
1167.000000	64.127819
1166.000000	64.157849
1165.000000	64.178251
1164.000000	64.223066
1163.000000	64.265131
1162.000000	64.289201
1161.000000	64.319689
1160.000000	64.345134
1159.000000	64.376081
1158.000000	64.405308
1157.000000	64.436370
1156.000000	64.438547
1155.000000	64.454594
1154.000000	64.459178
1153.000000	64.469609
1152.000000	64.460554
1151.000000	64.459866
1150.000000	64.450009
1149.000000	64.470411
1148.000000	64.450468
1147.000000	64.467202
1146.000000	64.451499
1145.000000	64.438203
1144.000000	64.430180
1143.000000	64.397285
1142.000000	64.374935
1141.000000	64.384104
1140.000000	64.361524
1139.000000	64.368516
1138.000000	64.374476
1137.000000	64.393961
1136.000000	64.411039
1135.000000	64.411154
1134.000000	64.411727
1133.000000	64.346624
1132.000000	64.311551
1131.000000	64.313270
1130.000000	64.301923
1129.000000	64.323586
1128.000000	64.276593
1127.000000	64.240030
1126.000000	64.219628
1125.000000	64.195329
1124.000000	64.186847
1123.000000	64.165872
1122.000000	64.123808
1121.000000	64.067301
1120.000000	64.019276
1119.000000	63.974002
1118.000000	63.919559
1117.000000	63.904659
1116.000000	63.844599
1115.000000	63.808151
1114.000000	63.790844
1113.000000	63.756688
1112.000000	63.709694
1111.000000	63.660409
1110.000000	63.615823
1109.000000	63.590492
1108.000000	63.550949
1107.000000	63.519544
1106.000000	63.473468
1105.000000	63.435185
1104.000000	63.423151
1103.000000	63.378106
1102.000000	63.338563
1101.000000	63.316098
1100.000000	63.277472
1099.000000	63.256611
1098.000000	63.210650
1097.000000	63.162281
1096.000000	63.132022
1095.000000	63.108182
1094.000000	63.068180
1093.000000	63.021875
1092.000000	62.986114
1091.000000	62.950239
1090.000000	62.905882
1089.000000	62.873560
1088.000000	62.850292
1087.000000	62.807655
1086.000000	62.767882
1085.000000	62.743125
1084.000000	62.691547
1083.000000	62.668394
1082.000000	62.642032
1081.000000	62.616472
1080.000000	62.578649
1079.000000	62.527415
1078.000000	62.505637
1077.000000	62.466209
1076.000000	62.424603
1075.000000	62.389644
1074.000000	62.354801
1073.000000	62.323510
1072.000000	62.302077
1071.000000	62.274912
1070.000000	62.242705
1069.000000	62.214394
1068.000000	62.177143
1067.000000	62.133703
1066.000000	62.106195
1065.000000	62.084074
1064.000000	62.063214
1063.000000	62.047626
1062.000000	62.020805
1061.000000	61.988942
1060.000000	61.966362
1059.000000	61.957995
1058.000000	61.948138
1057.000000	61.920515
1056.000000	61.893924
1055.000000	61.875126
1054.000000	61.867332
1053.000000	61.865613
1052.000000	61.862977
1051.000000	61.855985
1050.000000	61.856673
1049.000000	61.860570
1048.000000	61.871344
1047.000000	61.877648
1046.000000	61.897018
1045.000000	61.932320
1044.000000	61.954556
1043.000000	61.961663
1042.000000	61.991348
1041.000000	62.029975
1040.000000	62.060807
1039.000000	62.103559
1038.000000	62.155022
1037.000000	62.202589
1036.000000	62.242246
1035.000000	62.287864
1034.000000	62.332336
1033.000000	62.395719
1032.000000	62.469418
1031.000000	62.538991
1030.000000	62.607418
1029.000000	62.672291
1028.000000	62.748512
1027.000000	62.842384
1026.000000	62.951958
1025.000000	63.045600
1024.000000	63.137638
1023.000000	63.244233
1022.000000	63.347732
1021.000000	63.449398
1020.000000	63.549345
1019.000000	63.668088
1018.000000	63.790614
1017.000000	63.906264
1016.000000	64.035781
1015.000000	64.162663
1014.000000	64.297912
1013.000000	64.426512
1012.000000	64.553279
1011.000000	64.696093
1010.000000	64.864810
1009.000000	65.022294
1008.000000	65.158116
1007.000000	65.315486
1006.000000	65.479962
1005.000000	65.650972
1004.000000	65.809602
1003.000000	65.965138
1002.000000	66.161707
1001.000000	66.362403
1000.000000	66.550604
999.000000	66.727918
998.000000	66.902480
997.000000	67.090338
996.000000	67.291148
995.000000	67.474422
994.000000	67.664916
993.000000	67.860797
992.000000	68.064473
991.000000	68.277547
990.000000	68.475147
989.000000	68.668278
988.000000	68.875850
987.000000	69.075858
986.000000	69.269218
985.000000	69.471518
984.000000	69.678402
983.000000	69.892393
982.000000	70.088045
981.000000	70.276133
980.000000	70.488748
979.000000	70.714545
978.000000	70.930599
977.000000	71.108370
976.000000	71.294739
975.000000	71.530392
974.000000	71.756074
973.000000	71.930637
972.000000	72.109898
971.000000	72.303487
970.000000	72.499140
969.000000	72.740868
968.000000	72.917837
967.000000	73.089764
966.000000	73.299055
965.000000	73.539752
964.000000	73.747210
963.000000	73.932890
962.000000	74.100461
961.000000	74.302532
960.000000	74.535205
959.000000	74.709080
958.000000	74.909202
957.000000	75.097060
956.000000	75.313000
955.000000	75.494439
954.000000	75.692499
953.000000	75.848035
952.000000	76.032913
951.000000	76.248164
950.000000	76.430062
949.000000	76.582618
948.000000	76.778156
947.000000	76.946070
946.000000	77.098512
945.000000	77.299092
944.000000	77.430788
943.000000	77.594118
942.000000	77.751602
941.000000	77.932927
940.000000	78.109553
939.000000	78.235861
938.000000	78.387271
937.000000	78.555186
936.000000	78.725966
935.000000	78.886201
934.000000	79.119333
933.000000	79.278537
932.000000	79.410118
931.000000	79.605197
930.000000	79.733110
929.000000	79.865952
928.000000	79.986988
927.000000	80.189173
926.000000	80.308146
925.000000	80.462995
924.000000	80.523398
923.000000	80.727073
922.000000	80.859686
921.000000	80.972355
920.000000	81.122733
919.000000	81.220846
918.000000	81.324231
917.000000	81.436327
916.000000	81.528594
915.000000	81.730665
914.000000	81.800123
913.000000	81.846428
912.000000	81.942134
911.000000	82.017438
910.000000	82.239337
909.000000	82.267762
908.000000	82.378941
907.000000	82.443586
906.000000	82.525881
905.000000	82.578261
904.000000	82.644281
903.000000	82.736433
902.000000	82.818729
901.000000	82.920394
900.000000	83.004982
899.000000	83.069168
898.000000	83.158684
897.000000	83.162925
896.000000	83.245335
895.000000	83.339895
894.000000	83.403278
893.000000	83.486720
892.000000	83.567525
891.000000	83.674578
890.000000	83.715382
889.000000	83.746214
888.000000	83.736242
887.000000	83.840773
886.000000	83.930404
885.000000	84.053847
884.000000	84.136716
883.000000	84.176144
882.000000	84.141186
881.000000	84.182104
880.000000	84.259815
879.000000	84.209498
878.000000	84.308183
877.000000	84.441942
876.000000	84.473806
875.000000	84.415007
874.000000	84.452487
873.000000	84.352540
872.000000	84.398158
871.000000	84.310132
870.000000	84.377986
869.000000	84.381997
868.000000	84.286635
867.000000	84.270474
866.000000	84.136372
865.000000	84.119752
864.000000	83.959058
863.000000	83.861634
862.000000	83.555376
861.000000	83.248201
860.000000	82.982976
859.000000	82.652533
858.000000	84.642867
857.000000	84.363200
856.000000	84.826800
855.000000	84.738600
854.000000	85.462200
853.000000	85.917100
852.000000	85.890300
851.000000	86.432500
850.000000	86.570900
849.000000	87.012400
848.000000	87.416100
847.000000	87.544900
846.000000	87.802400
845.000000	87.958500
844.000000	88.526100
843.000000	88.639500
842.000000	88.846200
841.000000	89.208700
840.000000	89.217700
839.000000	89.449600
838.000000	89.831200
837.000000	90.036100
836.000000	89.911200
835.000000	90.172500
834.000000	90.349200
833.000000	90.774100
832.000000	90.723100
831.000000	90.982200
830.000000	90.972800
829.000000	91.048000
828.000000	91.061900
827.000000	91.270000
826.000000	91.285800
825.000000	91.606700
824.000000	91.640300
823.000000	91.557100
822.000000	91.552800
821.000000	91.499400
820.000000	91.502900
819.000000	91.569100
818.000000	91.643500
817.000000	91.593100
816.000000	91.532400
815.000000	91.659100
814.000000	91.681900
813.000000	91.587600
812.000000	91.600100
811.000000	91.572400
810.000000	91.543600
809.000000	91.656600
808.000000	91.569300
807.000000	91.481000
806.000000	91.555100
805.000000	91.544500
804.000000	91.604200
803.000000	91.601800
802.000000	91.526300
801.000000	91.319800
800.000000	91.342000
799.000000	91.237100
798.000000	91.227900
797.000000	91.149000
796.000000	91.129200
795.000000	91.061500
794.000000	90.980800
793.000000	90.865400
792.000000	90.888500
791.000000	90.906000
790.000000	90.848000
789.000000	90.876500
788.000000	90.806700
787.000000	90.736500
786.000000	90.607300
785.000000	90.444600
784.000000	90.422200
783.000000	90.465000
782.000000	90.472300
781.000000	90.498400
780.000000	90.420100
779.000000	90.280300
778.000000	90.240600
777.000000	90.231100
776.000000	90.216200
775.000000	90.173300
774.000000	90.241600
773.000000	90.255400
772.000000	90.283100
771.000000	90.356500
770.000000	90.359600
769.000000	90.282800
768.000000	90.243400
767.000000	90.193500
766.000000	90.183600
765.000000	90.164800
764.000000	90.156500
763.000000	90.175400
762.000000	90.095100
761.000000	90.025900
760.000000	89.939400
759.000000	89.861500
758.000000	89.692500
757.000000	89.546400
756.000000	89.476000
755.000000	89.310200
754.000000	89.098000
753.000000	88.916800
752.000000	88.758700
751.000000	88.567400
750.000000	88.396800
749.000000	88.267100
748.000000	87.995100
747.000000	87.744000
746.000000	87.569700
745.000000	87.284900
744.000000	86.953300
743.000000	86.731700
742.000000	86.464100
741.000000	86.139200
740.000000	85.812500
739.000000	85.434200
738.000000	85.079100
737.000000	84.687900
736.000000	84.257000
735.000000	83.824100
734.000000	83.386400
733.000000	82.957400
732.000000	82.444400
731.000000	81.936600
730.000000	81.468200
729.000000	80.982600
728.000000	80.413800
727.000000	79.886600
726.000000	79.435100
725.000000	78.853900
724.000000	78.323400
723.000000	77.797100
722.000000	77.291000
721.000000	76.766800
720.000000	76.270300
719.000000	75.786200
718.000000	75.276100
717.000000	74.819900
716.000000	74.439100
715.000000	74.086100
714.000000	73.723900
713.000000	73.341600
712.000000	72.974600
711.000000	72.657900
710.000000	72.411300
709.000000	72.072800
708.000000	71.784100
707.000000	71.484200
706.000000	71.245900
705.000000	70.956000
704.000000	70.639300
703.000000	70.407600
702.000000	70.114900
701.000000	69.790000
700.000000	69.503900
699.000000	69.233400
698.000000	68.927600
697.000000	68.662900
696.000000	68.351400
695.000000	68.076600
694.000000	67.719300
693.000000	67.392700
692.000000	67.096000
691.000000	66.808600
690.000000	66.509500
689.000000	66.205900
688.000000	65.984900
687.000000	65.757500
686.000000	65.472000
685.000000	65.262700
684.000000	64.996500
683.000000	64.704600
682.000000	64.500900
681.000000	64.264600
680.000000	64.046400
679.000000	63.827500
678.000000	63.658000
677.000000	63.481500
676.000000	63.281300
675.000000	63.063900
674.000000	62.864400
673.000000	62.702700
672.000000	62.529800
671.000000	62.320400
670.000000	62.100200
669.000000	61.898400
668.000000	61.693100
667.000000	61.529600
666.000000	61.306000
665.000000	61.060700
664.000000	60.863300
663.000000	60.684900
662.000000	60.439400
661.000000	60.172200
660.000000	59.986400
659.000000	59.783100
658.000000	59.563200
657.000000	59.323500
656.000000	59.054400
655.000000	58.839200
654.000000	58.649800
653.000000	58.417900
652.000000	58.261400
651.000000	58.108100
650.000000	57.935700
649.000000	57.810700
648.000000	57.686000
647.000000	57.525900
646.000000	57.517800
645.000000	57.474100
644.000000	57.459800
643.000000	57.477700
642.000000	57.504800
641.000000	57.613200
640.000000	57.688500
639.000000	57.820500
638.000000	58.060400
637.000000	58.259400
636.000000	58.543400
635.000000	58.787500
634.000000	59.050300
633.000000	59.369600
632.000000	59.733600
631.000000	60.059900
630.000000	60.401600
629.000000	60.807600
628.000000	61.187200
627.000000	61.545400
626.000000	61.912600
625.000000	62.318100
624.000000	62.688300
623.000000	63.079100
622.000000	63.516300
621.000000	63.843800
620.000000	64.242400
619.000000	64.606400
618.000000	64.926800
617.000000	65.212700
616.000000	65.536500
615.000000	65.830700
614.000000	66.107700
613.000000	66.472400
612.000000	66.669800
611.000000	66.948400
610.000000	67.174600
609.000000	67.358500
608.000000	67.531000
607.000000	67.720100
606.000000	67.936200
605.000000	68.067800
604.000000	68.225700
603.000000	68.315500
602.000000	68.447300
601.000000	68.545500
600.000000	68.645500
599.000000	68.628900
598.000000	68.697200
597.000000	68.751400
596.000000	68.803900
595.000000	68.816900
594.000000	68.758400
593.000000	68.749900
592.000000	68.803500
591.000000	68.689200
590.000000	68.620000
589.000000	68.548900
588.000000	68.470700
587.000000	68.394100
586.000000	68.244300
585.000000	68.143700
584.000000	68.076800
583.000000	67.914500
582.000000	67.751200
581.000000	67.551700
580.000000	67.385100
579.000000	67.192200
578.000000	66.996400
577.000000	66.793000
576.000000	66.586500
575.000000	66.379700
574.000000	66.116600
573.000000	65.921700
572.000000	65.619600
571.000000	65.358400
570.000000	65.087900
569.000000	64.756100
568.000000	64.517200
567.000000	64.183300
566.000000	63.905400
565.000000	63.540500
564.000000	63.234100
563.000000	62.913800
562.000000	62.555500
561.000000	62.196700
560.000000	61.856900
559.000000	61.528200
558.000000	61.157700
557.000000	60.767100
556.000000	60.340400
555.000000	59.915100
554.000000	59.418500
553.000000	58.952800
552.000000	58.473100
551.000000	58.016500
550.000000	57.504500
549.000000	57.007100
548.000000	56.483200
547.000000	55.939900
546.000000	55.361100
545.000000	54.787200
544.000000	54.205100
543.000000	53.567600
542.000000	52.935700
541.000000	52.283300
540.000000	51.613700
539.000000	50.913200
538.000000	50.224900
537.000000	49.494400
536.000000	48.760000
535.000000	48.014300
534.000000	47.247200
533.000000	46.480000
532.000000	45.678900
531.000000	44.878800
530.000000	44.087600
529.000000	43.273700
528.000000	42.457700
527.000000	41.641700
526.000000	40.827400
525.000000	40.026400
524.000000	39.216900
523.000000	38.412800
522.000000	37.643600
521.000000	36.879600
520.000000	36.141300
519.000000	35.415000
518.000000	34.729000
517.000000	34.053900
516.000000	33.397400
515.000000	32.785900
514.000000	32.199600
513.000000	31.651000
512.000000	31.118500
511.000000	30.629800
510.000000	30.182100
509.000000	29.762500
508.000000	29.373300
507.000000	29.041700
506.000000	28.741800
505.000000	28.480500
504.000000	28.240300
503.000000	28.026200
502.000000	27.881600
501.000000	27.736800
500.000000	27.640700
499.000000	27.567000
498.000000	27.520700
497.000000	27.496400
496.000000	27.485300
495.000000	27.472400
494.000000	27.478800
493.000000	27.491200
492.000000	27.511500
491.000000	27.536600
490.000000	27.564000
489.000000	27.589000
488.000000	27.603100
487.000000	27.631600
486.000000	27.638700
485.000000	27.646900
484.000000	27.682900
483.000000	27.679200
482.000000	27.655700
481.000000	27.587300
480.000000	27.511700
479.000000	27.450800
478.000000	27.421600
477.000000	27.384800
476.000000	27.338100
475.000000	27.293400
474.000000	27.216500
473.000000	27.123300
472.000000	27.037100
471.000000	26.948200
470.000000	26.839000
469.000000	26.704100
468.000000	26.581300
467.000000	26.442600
466.000000	26.293900
465.000000	26.148100
464.000000	25.965700
463.000000	25.803500
462.000000	25.633500
461.000000	25.439800
460.000000	25.232600
459.000000	25.026100
458.000000	24.810500
457.000000	24.585100
456.000000	24.350300
455.000000	24.111500
454.000000	23.859700
453.000000	23.602600
452.000000	23.323700
451.000000	23.013600
450.000000	22.708400
449.000000	22.406000
448.000000	22.095800
447.000000	21.776500
446.000000	21.451400
445.000000	21.091800
444.000000	20.746400
443.000000	20.383500
442.000000	19.984500
441.000000	19.583400
440.000000	19.188000
439.000000	18.784500
438.000000	18.380700
437.000000	17.966700
436.000000	17.541200
435.000000	17.132200
434.000000	16.715400
433.000000	16.293700
432.000000	15.861700
431.000000	15.430700
430.000000	15.000100
429.000000	14.596200
428.000000	14.199200
427.000000	13.797700
426.000000	13.419500
425.000000	13.045200
424.000000	12.665700
423.000000	12.294600
422.000000	11.947800
421.000000	11.603700
420.000000	11.271300
419.000000	10.966800
418.000000	10.680300
417.000000	10.391900
416.000000	10.112000
415.000000	9.856000
414.000000	9.616200
413.000000	9.379900
412.000000	9.159100
411.000000	8.952500
410.000000	8.754400
409.000000	8.563900
408.000000	8.391900
407.000000	8.231200
406.000000	8.080200
405.000000	7.937600
404.000000	7.806300
403.000000	7.680000
402.000000	7.558300
401.000000	7.453700
400.000000	7.352300
399.000000	7.239700
398.000000	7.165000
397.000000	7.094100
396.000000	7.010100
395.000000	6.925300
394.000000	6.850700
393.000000	6.783400
392.000000	6.720300
391.000000	6.668400
390.000000	6.607300
389.000000	6.553400
388.000000	6.509100
387.000000	6.458100
386.000000	6.423600
385.000000	6.377900
384.000000	6.339600
383.000000	6.288500
382.000000	6.246800
381.000000	6.230500
380.000000	6.175900
379.000000	6.143600
378.000000	6.115600
377.000000	6.088800
376.000000	6.207300
375.000000	6.199200
374.000000	6.155400
373.000000	6.162300
372.000000	6.077800
371.000000	6.076200
370.000000	6.050000
369.000000	6.029500
368.000000	5.985700
367.000000	5.961600
366.000000	5.945700
365.000000	5.932100
364.000000	5.888100
363.000000	5.849600
362.000000	5.845800
361.000000	5.864700
360.000000	5.829800
359.000000	5.778900
358.000000	5.773700
357.000000	5.756600
356.000000	5.668800
355.000000	5.708300
354.000000	5.638400
353.000000	5.639700
352.000000	5.599600
351.000000	5.555800
350.000000	5.570000
349.000000	5.530200
348.000000	5.495900
347.000000	5.514000
346.000000	5.451400
345.000000	5.427600
344.000000	5.482700
343.000000	5.449800
342.000000	5.465900
341.000000	5.496800
340.000000	5.496800
339.000000	5.426100
338.000000	5.502700
337.000000	5.470900
336.000000	5.454800
335.000000	5.490800
334.000000	5.445400
333.000000	5.414700
332.000000	5.447600
331.000000	5.410600
330.000000	5.345900
329.000000	5.315500
328.000000	5.318900
327.000000	5.443500
326.000000	5.342600
325.000000	5.334000
324.000000	5.245000
323.000000	5.419500
322.000000	5.392300
321.000000	5.362600
320.000000	5.317700
319.000000	5.441000
318.000000	5.355700
317.000000	5.347400
316.000000	5.352300
315.000000	5.370100
314.000000	5.298600
313.000000	5.319700
312.000000	5.289800
311.000000	5.348200
310.000000	5.339900
309.000000	5.347200
308.000000	5.346300
307.000000	5.302700
306.000000	5.373300
305.000000	5.333100
304.000000	5.371800
303.000000	5.345500
302.000000	5.374500
301.000000	5.346400
300.000000	5.351600
299.000000	5.371700
298.000000	5.391100
297.000000	5.385100
296.000000	5.390800
295.000000	5.368400
294.000000	5.398000
293.000000	5.384900
292.000000	5.370400
291.000000	5.428900
290.000000	5.400200
289.000000	5.362200
288.000000	5.415900
287.000000	5.399000
286.000000	5.368500
285.000000	5.404300
284.000000	5.416100
283.000000	5.422200
282.000000	5.414600
281.000000	5.452000
280.000000	5.457600
279.000000	5.466700
278.000000	5.437500
277.000000	5.455300
276.000000	5.535500
275.000000	5.500200
274.000000	5.506900
273.000000	5.500100
272.000000	5.573000
271.000000	5.583400
270.000000	5.598200
269.000000	5.607300
268.000000	5.620300
267.000000	5.634900
266.000000	5.693900
265.000000	5.739500
264.000000	5.724300
263.000000	5.723100
262.000000	5.759200
261.000000	5.806600
260.000000	5.807900
259.000000	5.804500
258.000000	5.832400
257.000000	5.865200
256.000000	5.856400
255.000000	5.893400
254.000000	5.905400
253.000000	5.926600
252.000000	5.959300
251.000000	5.914000
250.000000	5.942800
