PE UV       SUBTECH     SPECTRUM    ASCII       PEDS        4.00        
   -1
CICIMAUCR0020-6.Sample.ASC
24/04/25
16:11:31.00
24/04/25
16:11:31.00
Vinicio Soto Monge
C. resplendens
250,000000
1
Lambda 1050
1050L1511233
PerkinElmer UV WinLab 6.3.2.0749 / 2.02.05 Lambda 900 UV/VIS/NIR, Aug  7 2015 09:38:08

0
0
3350/servo 860,8/2
0
0
UV/VIS
1
1
1
DoubleDePol,CommonBeamDepol,RBeamAtt,SBeamAtt,60mm sphere, WB InGaAs Detector
0
0
0
0
Program
Program
3350/servo 860,8/2
3350/0,2 860,8/0,2
3350/0,2 860,8/0,2
0
15.00
 
 
 
0
 
860,8
319,2
860,8
Front
100
on
S:100 R:100
0
0
0
0
 
0
 
 
 
0
 
 
0
0
0
0
0
 
 
 
 
0
0


0
0
#HDR
-1
-1
#GR
nm
%R
1.0
0.0
2500,000000
-1,000000
2251
8
83,086600
5,660700
#DATA
2500.000000	7.676800
2499.000000	7.599900
2498.000000	7.684500
2497.000000	7.516000
2496.000000	7.481600
2495.000000	7.572500
2494.000000	7.426700
2493.000000	7.508300
2492.000000	7.477700
2491.000000	7.459000
2490.000000	7.448500
2489.000000	7.434900
2488.000000	7.448600
2487.000000	7.432100
2486.000000	7.463300
2485.000000	7.461500
2484.000000	7.387900
2483.000000	7.377500
2482.000000	7.397800
2481.000000	7.412700
2480.000000	7.370800
2479.000000	7.339600
2478.000000	7.391300
2477.000000	7.344800
2476.000000	7.338600
2475.000000	7.354600
2474.000000	7.326100
2473.000000	7.311700
2472.000000	7.323200
2471.000000	7.270300
2470.000000	7.325200
2469.000000	7.326900
2468.000000	7.333600
2467.000000	7.309100
2466.000000	7.319000
2465.000000	7.327900
2464.000000	7.359700
2463.000000	7.336600
2462.000000	7.389700
2461.000000	7.402200
2460.000000	7.442400
2459.000000	7.495900
2458.000000	7.526400
2457.000000	7.573200
2456.000000	7.592800
2455.000000	7.628300
2454.000000	7.686000
2453.000000	7.738500
2452.000000	7.776100
2451.000000	7.828100
2450.000000	7.902500
2449.000000	7.940000
2448.000000	8.004700
2447.000000	8.058600
2446.000000	8.113000
2445.000000	8.154600
2444.000000	8.194000
2443.000000	8.248400
2442.000000	8.308600
2441.000000	8.340800
2440.000000	8.402500
2439.000000	8.437500
2438.000000	8.471700
2437.000000	8.528900
2436.000000	8.563700
2435.000000	8.602400
2434.000000	8.643300
2433.000000	8.673500
2432.000000	8.691400
2431.000000	8.728000
2430.000000	8.748000
2429.000000	8.779800
2428.000000	8.820800
2427.000000	8.837200
2426.000000	8.857800
2425.000000	8.883700
2424.000000	8.890600
2423.000000	8.901200
2422.000000	8.928400
2421.000000	8.942200
2420.000000	8.953200
2419.000000	8.985300
2418.000000	8.995100
2417.000000	8.983800
2416.000000	9.022300
2415.000000	9.047700
2414.000000	9.061800
2413.000000	9.090900
2412.000000	9.106200
2411.000000	9.134700
2410.000000	9.192700
2409.000000	9.274900
2408.000000	9.336100
2407.000000	9.371600
2406.000000	9.399900
2405.000000	9.428300
2404.000000	9.441000
2403.000000	9.465100
2402.000000	9.524100
2401.000000	9.570700
2400.000000	9.592000
2399.000000	9.615800
2398.000000	9.652100
2397.000000	9.706000
2396.000000	9.741000
2395.000000	9.760600
2394.000000	9.789300
2393.000000	9.824900
2392.000000	9.863600
2391.000000	9.873400
2390.000000	9.890700
2389.000000	9.911000
2388.000000	9.933600
2387.000000	9.958100
2386.000000	9.969900
2385.000000	9.967200
2384.000000	9.977400
2383.000000	9.995300
2382.000000	9.998000
2381.000000	10.005400
2380.000000	10.004100
2379.000000	9.987200
2378.000000	9.982900
2377.000000	9.986600
2376.000000	9.974000
2375.000000	9.959200
2374.000000	9.965100
2373.000000	9.950300
2372.000000	9.913100
2371.000000	9.873200
2370.000000	9.847100
2369.000000	9.834700
2368.000000	9.794700
2367.000000	9.753800
2366.000000	9.724700
2365.000000	9.669100
2364.000000	9.594500
2363.000000	9.549300
2362.000000	9.511300
2361.000000	9.450900
2360.000000	9.412700
2359.000000	9.377200
2358.000000	9.320900
2357.000000	9.285800
2356.000000	9.272400
2355.000000	9.259000
2354.000000	9.261600
2353.000000	9.262100
2352.000000	9.293300
2351.000000	9.321300
2350.000000	9.345300
2349.000000	9.420200
2348.000000	9.468500
2347.000000	9.511800
2346.000000	9.583600
2345.000000	9.646200
2344.000000	9.690000
2343.000000	9.754200
2342.000000	9.808700
2341.000000	9.856000
2340.000000	9.885100
2339.000000	9.902000
2338.000000	9.933700
2337.000000	9.947900
2336.000000	9.930500
2335.000000	9.923000
2334.000000	9.926100
2333.000000	9.920300
2332.000000	9.870700
2331.000000	9.813800
2330.000000	9.784200
2329.000000	9.761400
2328.000000	9.714100
2327.000000	9.654700
2326.000000	9.576300
2325.000000	9.496700
2324.000000	9.449500
2323.000000	9.383200
2322.000000	9.281900
2321.000000	9.187100
2320.000000	9.097200
2319.000000	8.996100
2318.000000	8.914100
2317.000000	8.811600
2316.000000	8.713400
2315.000000	8.615400
2314.000000	8.539200
2313.000000	8.464300
2312.000000	8.393800
2311.000000	8.341400
2310.000000	8.297000
2309.000000	8.256400
2308.000000	8.249300
2307.000000	8.252700
2306.000000	8.273400
2305.000000	8.305200
2304.000000	8.365200
2303.000000	8.410200
2302.000000	8.495800
2301.000000	8.589100
2300.000000	8.681900
2299.000000	8.761700
2298.000000	8.887900
2297.000000	8.972100
2296.000000	9.048800
2295.000000	9.093900
2294.000000	9.197900
2293.000000	9.260900
2292.000000	9.326000
2291.000000	9.357100
2290.000000	9.351700
2289.000000	9.366100
2288.000000	9.358400
2287.000000	9.353200
2286.000000	9.323100
2285.000000	9.292800
2284.000000	9.283000
2283.000000	9.246700
2282.000000	9.199300
2281.000000	9.141900
2280.000000	9.127800
2279.000000	9.079200
2278.000000	9.030800
2277.000000	9.009300
2276.000000	8.985700
2275.000000	8.967100
2274.000000	8.957900
2273.000000	8.948800
2272.000000	8.988300
2271.000000	9.009400
2270.000000	9.035700
2269.000000	9.095300
2268.000000	9.171500
2267.000000	9.251500
2266.000000	9.355700
2265.000000	9.491200
2264.000000	9.639400
2263.000000	9.841000
2262.000000	10.024000
2261.000000	10.232300
2260.000000	10.440200
2259.000000	10.683800
2258.000000	10.905900
2257.000000	11.163700
2256.000000	11.413100
2255.000000	11.679000
2254.000000	11.901800
2253.000000	12.099900
2252.000000	12.342100
2251.000000	12.533100
2250.000000	12.777900
2249.000000	12.961000
2248.000000	13.155400
2247.000000	13.313200
2246.000000	13.479400
2245.000000	13.641900
2244.000000	13.775800
2243.000000	13.886300
2242.000000	14.031100
2241.000000	14.142900
2240.000000	14.234500
2239.000000	14.354000
2238.000000	14.443700
2237.000000	14.554100
2236.000000	14.631100
2235.000000	14.704200
2234.000000	14.784700
2233.000000	14.822900
2232.000000	14.874500
2231.000000	14.946800
2230.000000	14.963700
2229.000000	14.998200
2228.000000	15.018300
2227.000000	15.030000
2226.000000	15.045800
2225.000000	15.088300
2224.000000	15.080200
2223.000000	15.101800
2222.000000	15.067300
2221.000000	15.077400
2220.000000	15.059000
2219.000000	15.026700
2218.000000	15.019800
2217.000000	15.005800
2216.000000	14.990700
2215.000000	14.985200
2214.000000	14.967700
2213.000000	14.932100
2212.000000	14.911700
2211.000000	14.878900
2210.000000	14.875000
2209.000000	14.846400
2208.000000	14.843100
2207.000000	14.847100
2206.000000	14.831500
2205.000000	14.814500
2204.000000	14.808700
2203.000000	14.796700
2202.000000	14.788000
2201.000000	14.770200
2200.000000	14.765600
2199.000000	14.747900
2198.000000	14.775700
2197.000000	14.765900
2196.000000	14.757900
2195.000000	14.725200
2194.000000	14.703500
2193.000000	14.697500
2192.000000	14.706500
2191.000000	14.683300
2190.000000	14.663900
2189.000000	14.663300
2188.000000	14.640100
2187.000000	14.632200
2186.000000	14.619900
2185.000000	14.568700
2184.000000	14.565700
2183.000000	14.552700
2182.000000	14.518300
2181.000000	14.486200
2180.000000	14.470500
2179.000000	14.465200
2178.000000	14.459600
2177.000000	14.459100
2176.000000	14.428700
2175.000000	14.433400
2174.000000	14.432100
2173.000000	14.407400
2172.000000	14.407100
2171.000000	14.401600
2170.000000	14.416900
2169.000000	14.423400
2168.000000	14.422400
2167.000000	14.426200
2166.000000	14.430800
2165.000000	14.447000
2164.000000	14.463300
2163.000000	14.482100
2162.000000	14.483600
2161.000000	14.505000
2160.000000	14.521900
2159.000000	14.545600
2158.000000	14.550400
2157.000000	14.585200
2156.000000	14.607300
2155.000000	14.648100
2154.000000	14.686000
2153.000000	14.718600
2152.000000	14.757500
2151.000000	14.780900
2150.000000	14.783800
2149.000000	14.814000
2148.000000	14.836800
2147.000000	14.879800
2146.000000	14.901300
2145.000000	14.934000
2144.000000	14.966300
2143.000000	14.985700
2142.000000	15.018700
2141.000000	15.055900
2140.000000	15.071400
2139.000000	15.096200
2138.000000	15.137700
2137.000000	15.146400
2136.000000	15.169900
2135.000000	15.172800
2134.000000	15.181900
2133.000000	15.199100
2132.000000	15.229800
2131.000000	15.247100
2130.000000	15.254600
2129.000000	15.249800
2128.000000	15.262500
2127.000000	15.271700
2126.000000	15.276100
2125.000000	15.277700
2124.000000	15.263000
2123.000000	15.263900
2122.000000	15.274900
2121.000000	15.246200
2120.000000	15.234800
2119.000000	15.255500
2118.000000	15.233900
2117.000000	15.194900
2116.000000	15.176300
2115.000000	15.158800
2114.000000	15.157400
2113.000000	15.142500
2112.000000	15.105000
2111.000000	15.084800
2110.000000	15.077900
2109.000000	15.066500
2108.000000	15.044200
2107.000000	15.008700
2106.000000	14.974000
2105.000000	14.965500
2104.000000	14.964000
2103.000000	14.946700
2102.000000	14.929000
2101.000000	14.911400
2100.000000	14.890800
2099.000000	14.873600
2098.000000	14.852300
2097.000000	14.838200
2096.000000	14.827700
2095.000000	14.811300
2094.000000	14.800600
2093.000000	14.793000
2092.000000	14.779200
2091.000000	14.760900
2090.000000	14.770800
2089.000000	14.781600
2088.000000	14.771200
2087.000000	14.751900
2086.000000	14.730100
2085.000000	14.715900
2084.000000	14.721500
2083.000000	14.717900
2082.000000	14.693100
2081.000000	14.678000
2080.000000	14.674500
2079.000000	14.657600
2078.000000	14.643100
2077.000000	14.625800
2076.000000	14.607300
2075.000000	14.599400
2074.000000	14.565000
2073.000000	14.562200
2072.000000	14.563700
2071.000000	14.546100
2070.000000	14.522000
2069.000000	14.518100
2068.000000	14.501600
2067.000000	14.505700
2066.000000	14.501000
2065.000000	14.481800
2064.000000	14.474000
2063.000000	14.473500
2062.000000	14.474000
2061.000000	14.485500
2060.000000	14.495100
2059.000000	14.496100
2058.000000	14.513000
2057.000000	14.563300
2056.000000	14.582600
2055.000000	14.624000
2054.000000	14.683000
2053.000000	14.749700
2052.000000	14.839800
2051.000000	14.913300
2050.000000	14.986600
2049.000000	15.088200
2048.000000	15.199900
2047.000000	15.305800
2046.000000	15.423900
2045.000000	15.549300
2044.000000	15.664000
2043.000000	15.795000
2042.000000	15.912300
2041.000000	16.022200
2040.000000	16.173600
2039.000000	16.301000
2038.000000	16.413800
2037.000000	16.516000
2036.000000	16.601700
2035.000000	16.726400
2034.000000	16.816800
2033.000000	16.926100
2032.000000	17.019400
2031.000000	17.121300
2030.000000	17.186800
2029.000000	17.259400
2028.000000	17.327100
2027.000000	17.411400
2026.000000	17.485200
2025.000000	17.554200
2024.000000	17.612000
2023.000000	17.672900
2022.000000	17.727400
2021.000000	17.788400
2020.000000	17.845000
2019.000000	17.876500
2018.000000	17.914600
2017.000000	17.963300
2016.000000	18.007700
2015.000000	18.035400
2014.000000	18.063300
2013.000000	18.091000
2012.000000	18.121900
2011.000000	18.148000
2010.000000	18.140000
2009.000000	18.140900
2008.000000	18.135900
2007.000000	18.131300
2006.000000	18.126800
2005.000000	18.118800
2004.000000	18.091100
2003.000000	18.100100
2002.000000	18.041900
2001.000000	17.994700
2000.000000	17.981600
1999.000000	17.958200
1998.000000	17.908900
1997.000000	17.887600
1996.000000	17.834100
1995.000000	17.774700
1994.000000	17.725600
1993.000000	17.672000
1992.000000	17.621400
1991.000000	17.535000
1990.000000	17.515500
1989.000000	17.424000
1988.000000	17.364800
1987.000000	17.302100
1986.000000	17.209900
1985.000000	17.158700
1984.000000	17.059000
1983.000000	16.977100
1982.000000	16.897000
1981.000000	16.825300
1980.000000	16.727300
1979.000000	16.655500
1978.000000	16.585500
1977.000000	16.526200
1976.000000	16.437400
1975.000000	16.380600
1974.000000	16.290100
1973.000000	16.221000
1972.000000	16.143700
1971.000000	16.057400
1970.000000	15.993700
1969.000000	15.917100
1968.000000	15.835800
1967.000000	15.768700
1966.000000	15.690100
1965.000000	15.641900
1964.000000	15.562900
1963.000000	15.497300
1962.000000	15.416600
1961.000000	15.377800
1960.000000	15.290000
1959.000000	15.212400
1958.000000	15.150400
1957.000000	15.078800
1956.000000	15.016200
1955.000000	14.955800
1954.000000	14.895100
1953.000000	14.819000
1952.000000	14.760700
1951.000000	14.704100
1950.000000	14.638100
1949.000000	14.590300
1948.000000	14.546400
1947.000000	14.491300
1946.000000	14.464600
1945.000000	14.431800
1944.000000	14.404800
1943.000000	14.360000
1942.000000	14.322000
1941.000000	14.305700
1940.000000	14.302000
1939.000000	14.310800
1938.000000	14.338100
1937.000000	14.341800
1936.000000	14.380900
1935.000000	14.390300
1934.000000	14.422800
1933.000000	14.471300
1932.000000	14.522900
1931.000000	14.580600
1930.000000	14.660700
1929.000000	14.740100
1928.000000	14.829600
1927.000000	14.941800
1926.000000	15.039900
1925.000000	15.164600
1924.000000	15.274500
1923.000000	15.382500
1922.000000	15.542100
1921.000000	15.729500
1920.000000	15.933200
1919.000000	16.085900
1918.000000	16.250600
1917.000000	16.402500
1916.000000	16.560900
1915.000000	16.738500
1914.000000	16.978500
1913.000000	17.235000
1912.000000	17.483300
1911.000000	17.690700
1910.000000	17.876700
1909.000000	18.042900
1908.000000	18.259500
1907.000000	18.513600
1906.000000	18.814200
1905.000000	19.107200
1904.000000	19.377100
1903.000000	19.640100
1902.000000	19.886100
1901.000000	20.141800
1900.000000	20.447000
1899.000000	20.806200
1898.000000	21.132800
1897.000000	21.419400
1896.000000	21.634400
1895.000000	21.852900
1894.000000	22.102700
1893.000000	22.400500
1892.000000	22.757900
1891.000000	23.085300
1890.000000	23.393000
1889.000000	23.686300
1888.000000	24.024700
1887.000000	24.338600
1886.000000	24.718700
1885.000000	25.154400
1884.000000	25.650100
1883.000000	26.135900
1882.000000	26.596400
1881.000000	27.076400
1880.000000	27.488400
1879.000000	27.902400
1878.000000	28.322200
1877.000000	28.696100
1876.000000	29.053200
1875.000000	29.390200
1874.000000	29.723000
1873.000000	30.032500
1872.000000	30.315400
1871.000000	30.628000
1870.000000	30.905600
1869.000000	31.156900
1868.000000	31.315800
1867.000000	31.429200
1866.000000	31.489600
1865.000000	31.558500
1864.000000	31.585100
1863.000000	31.610100
1862.000000	31.675100
1861.000000	31.736500
1860.000000	31.785200
1859.000000	31.848100
1858.000000	31.883500
1857.000000	31.864100
1856.000000	31.840800
1855.000000	31.853600
1854.000000	31.846900
1853.000000	31.789200
1852.000000	31.727200
1851.000000	31.649500
1850.000000	31.571900
1849.000000	31.557400
1848.000000	31.578600
1847.000000	31.588600
1846.000000	31.541200
1845.000000	31.418800
1844.000000	31.295700
1843.000000	31.258000
1842.000000	31.286100
1841.000000	31.300200
1840.000000	31.261200
1839.000000	31.200000
1838.000000	31.155200
1837.000000	31.133300
1836.000000	31.114500
1835.000000	31.053600
1834.000000	30.952800
1833.000000	30.844300
1832.000000	30.769300
1831.000000	30.718000
1830.000000	30.657400
1829.000000	30.578200
1828.000000	30.477500
1827.000000	30.420400
1826.000000	30.390500
1825.000000	30.315000
1824.000000	30.213700
1823.000000	30.169500
1822.000000	30.170400
1821.000000	30.187800
1820.000000	30.179200
1819.000000	30.138800
1818.000000	30.097400
1817.000000	30.079400
1816.000000	30.084300
1815.000000	30.068600
1814.000000	30.056700
1813.000000	30.047900
1812.000000	30.041700
1811.000000	30.015800
1810.000000	29.969000
1809.000000	29.917800
1808.000000	29.861000
1807.000000	29.830400
1806.000000	29.780400
1805.000000	29.723100
1804.000000	29.659300
1803.000000	29.600300
1802.000000	29.567600
1801.000000	29.526000
1800.000000	29.444300
1799.000000	29.383000
1798.000000	29.342100
1797.000000	29.283100
1796.000000	29.235300
1795.000000	29.196700
1794.000000	29.136700
1793.000000	29.071300
1792.000000	28.999300
1791.000000	28.943400
1790.000000	28.883700
1789.000000	28.816200
1788.000000	28.745300
1787.000000	28.667700
1786.000000	28.595400
1785.000000	28.510700
1784.000000	28.426100
1783.000000	28.352900
1782.000000	28.262600
1781.000000	28.152500
1780.000000	28.072100
1779.000000	27.983000
1778.000000	27.877900
1777.000000	27.761200
1776.000000	27.655700
1775.000000	27.525300
1774.000000	27.381200
1773.000000	27.243000
1772.000000	27.098500
1771.000000	26.943100
1770.000000	26.804100
1769.000000	26.674700
1768.000000	26.561100
1767.000000	26.431200
1766.000000	26.324600
1765.000000	26.260300
1764.000000	26.207800
1763.000000	26.196900
1762.000000	26.216700
1761.000000	26.243600
1760.000000	26.302100
1759.000000	26.357400
1758.000000	26.412600
1757.000000	26.478900
1756.000000	26.530600
1755.000000	26.553500
1754.000000	26.554600
1753.000000	26.548000
1752.000000	26.527500
1751.000000	26.484600
1750.000000	26.416900
1749.000000	26.352800
1748.000000	26.270500
1747.000000	26.173600
1746.000000	26.038200
1745.000000	25.870600
1744.000000	25.713600
1743.000000	25.518600
1742.000000	25.280300
1741.000000	25.034800
1740.000000	24.806600
1739.000000	24.567300
1738.000000	24.339700
1737.000000	24.161300
1736.000000	24.012400
1735.000000	23.941600
1734.000000	23.908000
1733.000000	23.929800
1732.000000	23.992600
1731.000000	24.088300
1730.000000	24.243000
1729.000000	24.355000
1728.000000	24.480900
1727.000000	24.601000
1726.000000	24.709400
1725.000000	24.796600
1724.000000	24.867000
1723.000000	24.914700
1722.000000	24.931100
1721.000000	24.954100
1720.000000	24.970000
1719.000000	25.017100
1718.000000	25.040000
1717.000000	25.111100
1716.000000	25.172300
1715.000000	25.249200
1714.000000	25.311500
1713.000000	25.390500
1712.000000	25.441100
1711.000000	25.474600
1710.000000	25.496200
1709.000000	25.507900
1708.000000	25.483900
1707.000000	25.465600
1706.000000	25.425300
1705.000000	25.369800
1704.000000	25.297100
1703.000000	25.229700
1702.000000	25.107000
1701.000000	24.965000
1700.000000	24.800600
1699.000000	24.652000
1698.000000	24.510900
1697.000000	24.387200
1696.000000	24.337200
1695.000000	24.378200
1694.000000	24.424600
1693.000000	24.562300
1692.000000	24.766700
1691.000000	24.957200
1690.000000	25.117600
1689.000000	25.241100
1688.000000	25.304900
1687.000000	25.342500
1686.000000	25.367700
1685.000000	25.424700
1684.000000	25.532000
1683.000000	25.795400
1682.000000	26.184300
1681.000000	26.677000
1680.000000	27.203900
1679.000000	27.788200
1678.000000	28.372100
1677.000000	28.877000
1676.000000	29.338200
1675.000000	29.736100
1674.000000	30.078200
1673.000000	30.401600
1672.000000	30.634100
1671.000000	30.850900
1670.000000	31.053000
1669.000000	31.220700
1668.000000	31.381500
1667.000000	31.516600
1666.000000	31.613300
1665.000000	31.710900
1664.000000	31.811200
1663.000000	31.889900
1662.000000	31.968600
1661.000000	32.012900
1660.000000	32.041200
1659.000000	32.068700
1658.000000	32.094400
1657.000000	32.108000
1656.000000	32.116200
1655.000000	32.130500
1654.000000	32.109900
1653.000000	32.102200
1652.000000	32.076200
1651.000000	32.063800
1650.000000	32.017000
1649.000000	31.966600
1648.000000	31.936300
1647.000000	31.898200
1646.000000	31.834400
1645.000000	31.798500
1644.000000	31.735600
1643.000000	31.668700
1642.000000	31.606200
1641.000000	31.542600
1640.000000	31.483600
1639.000000	31.416900
1638.000000	31.337700
1637.000000	31.258100
1636.000000	31.203300
1635.000000	31.121600
1634.000000	31.033100
1633.000000	30.963200
1632.000000	30.885300
1631.000000	30.789700
1630.000000	30.709600
1629.000000	30.610000
1628.000000	30.536200
1627.000000	30.450200
1626.000000	30.338700
1625.000000	30.237800
1624.000000	30.175800
1623.000000	30.107100
1622.000000	30.020500
1621.000000	29.926200
1620.000000	29.828900
1619.000000	29.762400
1618.000000	29.665800
1617.000000	29.591600
1616.000000	29.512900
1615.000000	29.430500
1614.000000	29.360700
1613.000000	29.291600
1612.000000	29.202100
1611.000000	29.128900
1610.000000	29.064800
1609.000000	28.998300
1608.000000	28.923600
1607.000000	28.843100
1606.000000	28.775100
1605.000000	28.702400
1604.000000	28.631300
1603.000000	28.571800
1602.000000	28.486600
1601.000000	28.409900
1600.000000	28.352300
1599.000000	28.291900
1598.000000	28.224800
1597.000000	28.164800
1596.000000	28.121200
1595.000000	28.064200
1594.000000	28.006600
1593.000000	27.970500
1592.000000	27.921500
1591.000000	27.869800
1590.000000	27.830900
1589.000000	27.799700
1588.000000	27.763000
1587.000000	27.727800
1586.000000	27.699500
1585.000000	27.676100
1584.000000	27.647200
1583.000000	27.623100
1582.000000	27.611100
1581.000000	27.597300
1580.000000	27.577800
1579.000000	27.573300
1578.000000	27.573100
1577.000000	27.565600
1576.000000	27.560000
1575.000000	27.577300
1574.000000	27.601000
1573.000000	27.618000
1572.000000	27.631900
1571.000000	27.654800
1570.000000	27.685600
1569.000000	27.717600
1568.000000	27.747000
1567.000000	27.767400
1566.000000	27.800900
1565.000000	27.832900
1564.000000	27.861600
1563.000000	27.904000
1562.000000	27.939200
1561.000000	27.958800
1560.000000	27.977000
1559.000000	28.003100
1558.000000	28.026500
1557.000000	28.039100
1556.000000	28.050500
1555.000000	28.066000
1554.000000	28.065700
1553.000000	28.064600
1552.000000	28.055700
1551.000000	28.052700
1550.000000	28.062800
1549.000000	28.059100
1548.000000	28.050100
1547.000000	28.037100
1546.000000	28.016300
1545.000000	28.010500
1544.000000	28.013100
1543.000000	28.016400
1542.000000	28.018600
1541.000000	28.014900
1540.000000	28.008600
1539.000000	28.019400
1538.000000	28.007000
1537.000000	28.005800
1536.000000	28.011700
1535.000000	27.987300
1534.000000	27.978300
1533.000000	27.968000
1532.000000	27.954800
1531.000000	27.932600
1530.000000	27.905900
1529.000000	27.895500
1528.000000	27.873700
1527.000000	27.844400
1526.000000	27.830300
1525.000000	27.803000
1524.000000	27.763100
1523.000000	27.718800
1522.000000	27.685600
1521.000000	27.650400
1520.000000	27.632500
1519.000000	27.605900
1518.000000	27.566600
1517.000000	27.534000
1516.000000	27.508800
1515.000000	27.472400
1514.000000	27.434700
1513.000000	27.391600
1512.000000	27.358900
1511.000000	27.312100
1510.000000	27.266000
1509.000000	27.212900
1508.000000	27.197400
1507.000000	27.166900
1506.000000	27.125300
1505.000000	27.094100
1504.000000	27.066000
1503.000000	27.042800
1502.000000	27.011900
1501.000000	26.982200
1500.000000	26.966800
1499.000000	26.937200
1498.000000	26.904500
1497.000000	26.891200
1496.000000	26.877700
1495.000000	26.858300
1494.000000	26.856200
1493.000000	26.856900
1492.000000	26.855800
1491.000000	26.855800
1490.000000	26.856100
1489.000000	26.857000
1488.000000	26.872300
1487.000000	26.868500
1486.000000	26.871200
1485.000000	26.880300
1484.000000	26.898100
1483.000000	26.912100
1482.000000	26.934700
1481.000000	26.975800
1480.000000	26.978500
1479.000000	27.031400
1478.000000	27.057200
1477.000000	27.077700
1476.000000	27.091900
1475.000000	27.143500
1474.000000	27.179000
1473.000000	27.215600
1472.000000	27.265600
1471.000000	27.300600
1470.000000	27.327800
1469.000000	27.362900
1468.000000	27.414100
1467.000000	27.465500
1466.000000	27.526700
1465.000000	27.551000
1464.000000	27.599700
1463.000000	27.665300
1462.000000	27.728200
1461.000000	27.823700
1460.000000	27.918400
1459.000000	28.014500
1458.000000	28.078200
1457.000000	28.180400
1456.000000	28.289000
1455.000000	28.375900
1454.000000	28.486400
1453.000000	28.602500
1452.000000	28.730400
1451.000000	28.856300
1450.000000	29.001600
1449.000000	29.070500
1448.000000	29.211700
1447.000000	29.345200
1446.000000	29.506700
1445.000000	29.650800
1444.000000	29.750700
1443.000000	29.879900
1442.000000	30.026700
1441.000000	30.172300
1440.000000	30.298200
1439.000000	30.439800
1438.000000	30.586500
1437.000000	30.717500
1436.000000	30.854000
1435.000000	30.973500
1434.000000	31.139700
1433.000000	31.268600
1432.000000	31.423000
1431.000000	31.586500
1430.000000	31.711700
1429.000000	31.881500
1428.000000	32.113400
1427.000000	32.264200
1426.000000	32.503300
1425.000000	32.696600
1424.000000	32.913500
1423.000000	33.128800
1422.000000	33.361300
1421.000000	33.563400
1420.000000	33.825900
1419.000000	34.047900
1418.000000	34.295400
1417.000000	34.461200
1416.000000	34.674000
1415.000000	34.946200
1414.000000	35.201500
1413.000000	35.397200
1412.000000	35.559200
1411.000000	35.833600
1410.000000	36.143500
1409.000000	36.464100
1408.000000	36.797300
1407.000000	37.100400
1406.000000	37.451700
1405.000000	37.795200
1404.000000	38.128800
1403.000000	38.408600
1402.000000	38.688100
1401.000000	39.110800
1400.000000	39.423600
1399.000000	39.617500
1398.000000	39.740500
1397.000000	39.925600
1396.000000	40.246100
1395.000000	40.419300
1394.000000	40.494600
1393.000000	40.606400
1392.000000	40.804000
1391.000000	40.991200
1390.000000	41.098600
1389.000000	41.357800
1388.000000	41.658900
1387.000000	41.925400
1386.000000	42.216700
1385.000000	42.561400
1384.000000	42.910600
1383.000000	43.267600
1382.000000	43.615100
1381.000000	43.801100
1380.000000	43.835100
1379.000000	43.973400
1378.000000	43.987400
1377.000000	44.101000
1376.000000	44.202600
1375.000000	44.365400
1374.000000	44.593200
1373.000000	44.841100
1372.000000	45.139300
1371.000000	45.467100
1370.000000	45.696800
1369.000000	45.935900
1368.000000	46.180900
1367.000000	46.361200
1366.000000	46.517100
1365.000000	46.700100
1364.000000	46.852100
1363.000000	46.983400
1362.000000	47.142700
1361.000000	47.284100
1360.000000	47.301700
1359.000000	47.321900
1358.000000	47.399700
1357.000000	47.538300
1356.000000	47.788500
1355.000000	48.146900
1354.000000	48.505300
1353.000000	48.851100
1352.000000	49.286500
1351.000000	49.667100
1350.000000	50.024200
1349.000000	50.342200
1348.000000	50.639900
1347.000000	50.911700
1346.000000	51.152500
1345.000000	51.406700
1344.000000	51.664000
1343.000000	51.881500
1342.000000	52.092400
1341.000000	52.307200
1340.000000	52.514800
1339.000000	52.687800
1338.000000	52.872700
1337.000000	53.053600
1336.000000	53.235500
1335.000000	53.394900
1334.000000	53.534600
1333.000000	53.682200
1332.000000	53.841100
1331.000000	53.956100
1330.000000	54.072700
1329.000000	54.202400
1328.000000	54.316500
1327.000000	54.416900
1326.000000	54.504200
1325.000000	54.596700
1324.000000	54.679100
1323.000000	54.757700
1322.000000	54.837000
1321.000000	54.917600
1320.000000	54.996800
1319.000000	55.062900
1318.000000	55.127600
1317.000000	55.184700
1316.000000	55.243800
1315.000000	55.309300
1314.000000	55.359400
1313.000000	55.395600
1312.000000	55.440500
1311.000000	55.482100
1310.000000	55.513700
1309.000000	55.535700
1308.000000	55.571800
1307.000000	55.599100
1306.000000	55.616200
1305.000000	55.646900
1304.000000	55.667300
1303.000000	55.668400
1302.000000	55.660600
1301.000000	55.656800
1300.000000	55.664600
1299.000000	55.663600
1298.000000	55.665100
1297.000000	55.656100
1296.000000	55.642800
1295.000000	55.640800
1294.000000	55.619900
1293.000000	55.596700
1292.000000	55.577600
1291.000000	55.554100
1290.000000	55.528000
1289.000000	55.504500
1288.000000	55.464900
1287.000000	55.427800
1286.000000	55.396700
1285.000000	55.341100
1284.000000	55.284900
1283.000000	55.243800
1282.000000	55.200400
1281.000000	55.156000
1280.000000	55.115400
1279.000000	55.081500
1278.000000	55.041800
1277.000000	54.995900
1276.000000	54.956500
1275.000000	54.929700
1274.000000	54.888400
1273.000000	54.858300
1272.000000	54.836700
1271.000000	54.805300
1270.000000	54.786000
1269.000000	54.768900
1268.000000	54.727800
1267.000000	54.696500
1266.000000	54.664500
1265.000000	54.642300
1264.000000	54.602600
1263.000000	54.565400
1262.000000	54.535900
1261.000000	54.503500
1260.000000	54.479600
1259.000000	54.448400
1258.000000	54.401700
1257.000000	54.354900
1256.000000	54.310300
1255.000000	54.274500
1254.000000	54.223700
1253.000000	54.173400
1252.000000	54.117500
1251.000000	54.042400
1250.000000	53.983200
1249.000000	53.929100
1248.000000	53.852400
1247.000000	53.779500
1246.000000	53.681300
1245.000000	53.610900
1244.000000	53.519400
1243.000000	53.418700
1242.000000	53.317000
1241.000000	53.213200
1240.000000	53.114100
1239.000000	53.000900
1238.000000	52.884100
1237.000000	52.777500
1236.000000	52.667700
1235.000000	52.552000
1234.000000	52.421100
1233.000000	52.298000
1232.000000	52.184700
1231.000000	52.048100
1230.000000	51.916100
1229.000000	51.778600
1228.000000	51.651700
1227.000000	51.529100
1226.000000	51.402400
1225.000000	51.262200
1224.000000	51.133900
1223.000000	50.977500
1222.000000	50.844700
1221.000000	50.715700
1220.000000	50.608600
1219.000000	50.494900
1218.000000	50.362400
1217.000000	50.271500
1216.000000	50.168800
1215.000000	50.060200
1214.000000	49.978000
1213.000000	49.880800
1212.000000	49.778400
1211.000000	49.693200
1210.000000	49.605500
1209.000000	49.536000
1208.000000	49.471800
1207.000000	49.414500
1206.000000	49.379100
1205.000000	49.356300
1204.000000	49.331100
1203.000000	49.318000
1202.000000	49.304800
1201.000000	49.264000
1200.000000	49.214300
1199.000000	49.148000
1198.000000	49.071200
1197.000000	48.949500
1196.000000	48.815500
1195.000000	48.619300
1194.000000	48.383000
1193.000000	48.098600
1192.000000	47.760800
1191.000000	47.411200
1190.000000	47.087500
1189.000000	46.836000
1188.000000	46.645000
1187.000000	46.551800
1186.000000	46.573700
1185.000000	46.681700
1184.000000	46.896700
1183.000000	47.187300
1182.000000	47.560200
1181.000000	47.948400
1180.000000	48.357500
1179.000000	48.710200
1178.000000	49.017800
1177.000000	49.303800
1176.000000	49.546100
1175.000000	49.762500
1174.000000	49.997300
1173.000000	50.227000
1172.000000	50.475700
1171.000000	50.706400
1170.000000	50.969200
1169.000000	51.224400
1168.000000	51.492500
1167.000000	51.754900
1166.000000	52.003800
1165.000000	52.266700
1164.000000	52.528800
1163.000000	52.799200
1162.000000	53.028500
1161.000000	53.269800
1160.000000	53.494500
1159.000000	53.706400
1158.000000	53.916800
1157.000000	54.103900
1156.000000	54.269700
1155.000000	54.352200
1154.000000	54.437100
1153.000000	54.495000
1152.000000	54.531000
1151.000000	54.514700
1150.000000	54.507500
1149.000000	54.509900
1148.000000	54.530200
1147.000000	54.548400
1146.000000	54.631800
1145.000000	54.759300
1144.000000	54.905300
1143.000000	55.084200
1142.000000	55.257900
1141.000000	55.440200
1140.000000	55.647000
1139.000000	55.855400
1138.000000	56.069500
1137.000000	56.284800
1136.000000	56.541900
1135.000000	56.793500
1134.000000	56.998500
1133.000000	57.149900
1132.000000	57.298800
1131.000000	57.462300
1130.000000	57.603300
1129.000000	57.727600
1128.000000	57.837300
1127.000000	57.907300
1126.000000	57.972900
1125.000000	58.041800
1124.000000	58.104700
1123.000000	58.156200
1122.000000	58.202800
1121.000000	58.222400
1120.000000	58.234200
1119.000000	58.262100
1118.000000	58.288300
1117.000000	58.298100
1116.000000	58.306800
1115.000000	58.332800
1114.000000	58.340000
1113.000000	58.343900
1112.000000	58.350800
1111.000000	58.360200
1110.000000	58.365400
1109.000000	58.358900
1108.000000	58.364400
1107.000000	58.382100
1106.000000	58.387600
1105.000000	58.384100
1104.000000	58.380100
1103.000000	58.402200
1102.000000	58.400000
1101.000000	58.388100
1100.000000	58.385900
1099.000000	58.379200
1098.000000	58.366000
1097.000000	58.368000
1096.000000	58.362600
1095.000000	58.365300
1094.000000	58.350400
1093.000000	58.340400
1092.000000	58.321000
1091.000000	58.309200
1090.000000	58.287900
1089.000000	58.272600
1088.000000	58.290800
1087.000000	58.285100
1086.000000	58.269800
1085.000000	58.241400
1084.000000	58.244100
1083.000000	58.238200
1082.000000	58.237200
1081.000000	58.236600
1080.000000	58.245900
1079.000000	58.240000
1078.000000	58.250400
1077.000000	58.253900
1076.000000	58.253200
1075.000000	58.272000
1074.000000	58.276100
1073.000000	58.282100
1072.000000	58.305500
1071.000000	58.334300
1070.000000	58.353000
1069.000000	58.362200
1068.000000	58.379300
1067.000000	58.406900
1066.000000	58.428800
1065.000000	58.448400
1064.000000	58.454200
1063.000000	58.474400
1062.000000	58.493000
1061.000000	58.512300
1060.000000	58.510500
1059.000000	58.524200
1058.000000	58.562300
1057.000000	58.560500
1056.000000	58.553800
1055.000000	58.554700
1054.000000	58.548100
1053.000000	58.536600
1052.000000	58.536100
1051.000000	58.525200
1050.000000	58.511800
1049.000000	58.498200
1048.000000	58.490500
1047.000000	58.479900
1046.000000	58.460200
1045.000000	58.449300
1044.000000	58.422700
1043.000000	58.398400
1042.000000	58.386700
1041.000000	58.365000
1040.000000	58.339800
1039.000000	58.308900
1038.000000	58.283900
1037.000000	58.261900
1036.000000	58.241800
1035.000000	58.217100
1034.000000	58.184500
1033.000000	58.165800
1032.000000	58.156100
1031.000000	58.133300
1030.000000	58.117200
1029.000000	58.125800
1028.000000	58.134800
1027.000000	58.129800
1026.000000	58.146500
1025.000000	58.163600
1024.000000	58.185500
1023.000000	58.225500
1022.000000	58.262600
1021.000000	58.309400
1020.000000	58.358300
1019.000000	58.407900
1018.000000	58.466900
1017.000000	58.540800
1016.000000	58.613000
1015.000000	58.681400
1014.000000	58.765300
1013.000000	58.861800
1012.000000	58.954600
1011.000000	59.037500
1010.000000	59.126400
1009.000000	59.227900
1008.000000	59.334100
1007.000000	59.434600
1006.000000	59.527600
1005.000000	59.625400
1004.000000	59.706500
1003.000000	59.786200
1002.000000	59.874500
1001.000000	59.944400
1000.000000	60.004500
999.000000	60.074400
998.000000	60.146200
997.000000	60.206900
996.000000	60.267800
995.000000	60.301500
994.000000	60.336500
993.000000	60.385100
992.000000	60.433800
991.000000	60.462400
990.000000	60.485600
989.000000	60.522600
988.000000	60.544300
987.000000	60.572100
986.000000	60.618500
985.000000	60.636700
984.000000	60.644000
983.000000	60.691000
982.000000	60.736800
981.000000	60.755200
980.000000	60.789700
979.000000	60.848900
978.000000	60.885800
977.000000	60.923800
976.000000	60.946600
975.000000	61.016500
974.000000	61.077100
973.000000	61.110300
972.000000	61.149900
971.000000	61.223900
970.000000	61.276100
969.000000	61.334800
968.000000	61.390800
967.000000	61.449300
966.000000	61.554900
965.000000	61.615600
964.000000	61.692200
963.000000	61.738400
962.000000	61.779900
961.000000	61.875000
960.000000	61.932700
959.000000	61.999200
958.000000	62.097900
957.000000	62.172700
956.000000	62.233000
955.000000	62.297100
954.000000	62.344100
953.000000	62.377700
952.000000	62.456500
951.000000	62.556200
950.000000	62.602000
949.000000	62.641800
948.000000	62.711000
947.000000	62.793100
946.000000	62.857400
945.000000	62.916700
944.000000	63.006400
943.000000	63.061100
942.000000	63.121100
941.000000	63.205900
940.000000	63.241800
939.000000	63.314700
938.000000	63.388900
937.000000	63.435700
936.000000	63.502400
935.000000	63.652300
934.000000	63.726200
933.000000	63.810100
932.000000	63.872400
931.000000	64.008700
930.000000	64.070300
929.000000	64.116200
928.000000	64.244900
927.000000	64.293100
926.000000	64.362400
925.000000	64.401700
924.000000	64.439600
923.000000	64.549700
922.000000	64.598300
921.000000	64.630900
920.000000	64.665200
919.000000	64.691000
918.000000	64.718600
917.000000	64.740000
916.000000	64.727400
915.000000	64.728300
914.000000	64.741500
913.000000	64.732500
912.000000	64.724300
911.000000	64.833200
910.000000	64.813200
909.000000	64.721100
908.000000	64.680900
907.000000	64.655600
906.000000	64.633300
905.000000	64.614400
904.000000	64.603000
903.000000	64.556800
902.000000	64.544300
901.000000	64.483600
900.000000	64.420200
899.000000	64.374300
898.000000	64.337600
897.000000	64.184500
896.000000	64.118200
895.000000	64.026700
894.000000	63.987700
893.000000	63.930000
892.000000	63.876500
891.000000	63.741200
890.000000	63.559100
889.000000	63.479000
888.000000	63.427300
887.000000	63.218300
886.000000	63.160800
885.000000	63.040500
884.000000	62.918700
883.000000	62.725500
882.000000	62.597600
881.000000	62.371600
880.000000	62.320200
879.000000	62.152000
878.000000	61.909100
877.000000	61.759600
876.000000	61.526600
875.000000	61.349000
874.000000	61.087200
873.000000	60.933800
872.000000	60.640500
871.000000	60.421100
870.000000	60.016900
869.000000	59.579600
868.000000	59.186200
867.000000	58.871900
866.000000	58.504500
865.000000	58.364200
864.000000	58.489300
863.000000	58.638200
862.000000	58.845700
861.000000	59.026500
860.000000	59.184000
859.000000	59.346200
858.000000	61.828800
857.000000	59.745400
856.000000	59.449131
855.000000	59.620956
854.000000	59.699845
853.000000	59.899765
852.000000	60.043971
851.000000	60.388256
850.000000	60.392145
849.000000	60.396828
848.000000	60.286510
847.000000	60.898970
846.000000	60.669605
845.000000	60.985637
844.000000	60.874526
843.000000	61.168970
842.000000	61.086351
841.000000	61.458572
840.000000	61.410319
839.000000	61.408017
838.000000	61.655398
837.000000	61.679683
836.000000	61.772382
835.000000	61.856905
834.000000	61.825318
833.000000	61.962143
832.000000	62.080080
831.000000	62.181825
830.000000	62.111191
829.000000	62.480714
828.000000	62.424365
827.000000	62.408809
826.000000	62.635555
825.000000	62.735237
824.000000	62.742460
823.000000	62.908412
822.000000	63.056507
821.000000	63.132380
820.000000	63.196031
819.000000	63.317856
818.000000	63.288491
817.000000	63.303808
816.000000	63.558728
815.000000	63.699443
814.000000	63.836665
813.000000	63.968728
812.000000	64.099680
811.000000	64.253648
810.000000	64.217299
809.000000	64.441108
808.000000	64.514442
807.000000	64.452219
806.000000	64.526505
805.000000	64.718568
804.000000	64.768727
803.000000	64.900632
802.000000	64.941108
801.000000	65.121504
800.000000	65.201345
799.000000	65.210393
798.000000	65.276345
797.000000	65.363647
796.000000	65.444282
795.000000	65.545710
794.000000	65.582218
793.000000	65.633488
792.000000	65.633408
791.000000	65.622932
790.000000	65.708884
789.000000	65.758726
788.000000	65.808329
787.000000	65.824122
786.000000	65.874757
785.000000	65.860948
784.000000	65.920551
783.000000	65.894995
782.000000	65.894360
781.000000	65.896424
780.000000	65.846027
779.000000	65.872297
778.000000	65.900868
777.000000	65.940551
776.000000	65.931344
775.000000	65.930313
774.000000	65.915075
773.000000	65.941662
772.000000	65.919122
771.000000	65.863170
770.000000	65.891583
769.000000	65.892614
768.000000	65.799202
767.000000	65.763011
766.000000	65.738011
765.000000	65.673011
764.000000	65.580551
763.000000	65.616821
762.000000	65.573647
761.000000	65.441345
760.000000	65.351583
759.000000	65.206345
758.000000	65.154361
757.000000	65.058250
756.000000	64.940949
755.000000	64.918251
754.000000	64.824203
753.000000	64.655870
752.000000	64.469203
751.000000	64.315394
750.000000	64.267616
749.000000	64.118569
748.000000	63.964680
747.000000	63.863252
746.000000	63.686824
745.000000	63.545792
744.000000	63.369046
743.000000	63.185158
742.000000	63.095713
741.000000	62.965475
740.000000	62.825079
739.000000	62.708095
738.000000	62.540079
737.000000	62.338174
736.000000	62.219206
735.000000	62.096349
734.000000	61.984207
733.000000	61.960477
732.000000	61.871826
731.000000	61.796429
730.000000	61.729286
729.000000	61.628890
728.000000	61.578017
727.000000	61.561668
726.000000	61.524287
725.000000	61.520080
724.000000	61.439525
723.000000	61.383652
722.000000	61.338969
721.000000	61.306430
720.000000	61.325319
719.000000	61.277462
718.000000	61.258731
717.000000	61.277462
716.000000	61.300954
715.000000	61.293255
714.000000	61.343096
713.000000	61.347223
712.000000	61.360795
711.000000	61.358731
710.000000	61.359207
709.000000	61.443096
708.000000	61.485398
707.000000	61.433572
706.000000	61.442699
705.000000	61.473176
704.000000	61.498969
703.000000	61.519842
702.000000	61.489763
701.000000	61.470239
700.000000	61.381509
699.000000	61.411112
698.000000	61.333414
697.000000	61.225874
696.000000	61.136906
695.000000	61.078494
694.000000	60.986668
693.000000	60.886510
692.000000	60.780002
691.000000	60.568018
690.000000	60.353098
689.000000	60.193574
688.000000	60.040796
687.000000	59.886114
686.000000	59.691829
685.000000	59.485638
684.000000	59.248496
683.000000	59.049290
682.000000	58.716354
681.000000	58.456592
680.000000	58.156989
679.000000	57.853260
678.000000	57.555482
677.000000	57.202229
676.000000	56.925800
675.000000	56.480642
674.000000	56.142389
673.000000	55.744135
672.000000	55.316041
671.000000	54.908263
670.000000	54.424375
669.000000	53.929455
668.000000	53.453583
667.000000	52.977869
666.000000	52.507076
665.000000	52.015410
664.000000	51.553347
663.000000	51.058983
662.000000	50.573666
661.000000	50.120095
660.000000	49.662159
659.000000	49.241525
658.000000	48.816446
657.000000	48.413430
656.000000	48.021526
655.000000	47.656685
654.000000	47.342321
653.000000	47.055416
652.000000	46.760258
651.000000	46.529147
650.000000	46.327243
649.000000	46.188671
648.000000	46.029465
647.000000	45.970735
646.000000	45.900973
645.000000	45.927322
644.000000	45.958910
643.000000	46.018592
642.000000	46.158354
641.000000	46.273512
640.000000	46.482480
639.000000	46.703115
638.000000	46.998908
637.000000	47.281130
636.000000	47.558749
635.000000	47.931288
634.000000	48.278113
633.000000	48.702874
632.000000	49.121366
631.000000	49.580492
630.000000	50.038508
629.000000	50.475650
628.000000	50.894538
627.000000	51.386601
626.000000	51.828109
625.000000	52.284695
624.000000	52.716996
623.000000	53.162393
622.000000	53.617233
621.000000	54.081756
620.000000	54.501280
619.000000	54.986517
618.000000	55.417310
617.000000	55.795961
616.000000	56.211198
615.000000	56.629134
614.000000	57.032308
613.000000	57.479609
612.000000	57.871990
611.000000	58.284132
610.000000	58.649766
609.000000	59.004925
608.000000	59.417781
607.000000	59.769606
606.000000	60.165717
605.000000	60.534050
604.000000	60.864843
603.000000	61.234446
602.000000	61.592302
601.000000	61.932302
600.000000	62.300794
599.000000	62.608571
598.000000	62.906031
597.000000	63.207062
596.000000	63.465951
595.000000	63.655316
594.000000	63.957855
593.000000	64.184204
592.000000	64.353410
591.000000	64.549521
590.000000	64.691187
589.000000	64.864044
588.000000	64.958885
587.000000	65.075473
586.000000	65.112695
585.000000	65.161584
584.000000	65.144917
583.000000	65.220155
582.000000	65.207457
581.000000	65.230076
580.000000	65.205869
579.000000	65.190552
578.000000	65.103647
577.000000	65.081822
576.000000	65.018012
575.000000	64.950711
574.000000	64.913806
573.000000	64.797536
572.000000	64.699362
571.000000	64.584997
570.000000	64.515156
569.000000	64.380473
568.000000	64.310156
567.000000	64.178966
566.000000	64.001188
565.000000	63.880950
564.000000	63.775633
563.000000	63.579363
562.000000	63.395951
561.000000	63.161745
560.000000	62.957777
559.000000	62.769444
558.000000	62.526349
557.000000	62.252143
556.000000	61.999365
555.000000	61.707858
554.000000	61.370239
553.000000	61.061192
552.000000	60.670875
551.000000	60.335479
550.000000	59.924130
549.000000	59.479845
548.000000	59.051274
547.000000	58.574211
546.000000	58.072783
545.000000	57.557069
544.000000	57.009213
543.000000	56.465484
542.000000	55.827151
541.000000	55.261199
540.000000	54.627708
539.000000	53.957709
538.000000	53.305249
537.000000	52.649139
536.000000	51.964378
535.000000	51.251681
534.000000	50.569062
533.000000	49.860809
532.000000	49.146921
531.000000	48.444065
530.000000	47.744066
529.000000	47.039226
528.000000	46.335576
527.000000	45.656926
526.000000	44.993435
525.000000	44.324467
524.000000	43.664865
523.000000	42.993993
522.000000	42.339946
521.000000	41.731058
520.000000	41.099154
519.000000	40.485425
518.000000	39.860743
517.000000	39.226061
516.000000	38.633760
515.000000	38.041063
514.000000	37.460587
513.000000	36.847175
512.000000	36.265430
511.000000	35.698129
510.000000	35.121304
509.000000	34.561781
508.000000	33.982734
507.000000	33.433449
506.000000	32.879323
505.000000	32.330832
504.000000	31.769801
503.000000	31.218294
502.000000	30.659564
501.000000	30.094882
500.000000	29.538692
499.000000	28.969963
498.000000	28.408535
497.000000	27.861711
496.000000	27.327346
495.000000	26.773061
494.000000	26.228776
493.000000	25.693459
492.000000	25.174254
491.000000	24.639730
490.000000	24.151001
489.000000	23.650763
488.000000	23.192510
487.000000	22.761320
486.000000	22.343146
485.000000	21.956559
484.000000	21.583544
483.000000	21.236798
482.000000	20.951402
481.000000	20.680609
480.000000	20.431164
479.000000	20.204816
478.000000	19.992990
477.000000	19.811245
476.000000	19.659499
475.000000	19.528864
474.000000	19.407039
473.000000	19.310610
472.000000	19.229420
471.000000	19.163547
470.000000	19.124499
469.000000	19.104023
468.000000	19.093706
467.000000	19.084499
466.000000	19.096484
465.000000	19.115214
464.000000	19.122595
463.000000	19.135690
462.000000	19.182198
461.000000	19.227991
460.000000	19.255214
459.000000	19.273706
458.000000	19.298785
457.000000	19.337118
456.000000	19.369658
455.000000	19.387118
454.000000	19.384023
453.000000	19.386721
452.000000	19.403626
451.000000	19.416324
450.000000	19.398944
449.000000	19.359737
448.000000	19.317594
447.000000	19.271404
446.000000	19.226642
445.000000	19.179023
444.000000	19.104579
443.000000	19.016722
442.000000	18.908785
441.000000	18.781722
440.000000	18.666405
439.000000	18.536326
438.000000	18.380135
437.000000	18.237913
436.000000	18.079977
435.000000	17.896961
434.000000	17.712200
433.000000	17.523390
432.000000	17.333708
431.000000	17.129343
430.000000	16.908153
429.000000	16.668868
428.000000	16.431963
427.000000	16.194741
426.000000	15.951567
425.000000	15.685377
424.000000	15.422917
423.000000	15.164663
422.000000	14.893552
421.000000	14.625696
420.000000	14.348315
419.000000	14.071807
418.000000	13.779109
417.000000	13.486094
416.000000	13.201332
415.000000	12.915380
414.000000	12.628555
413.000000	12.327286
412.000000	12.043159
411.000000	11.772763
410.000000	11.502128
409.000000	11.222763
408.000000	10.941573
407.000000	10.676177
406.000000	10.435066
405.000000	10.174114
404.000000	9.903400
403.000000	9.669908
402.000000	9.438321
401.000000	9.223639
400.000000	9.011417
399.000000	8.782767
398.000000	8.584195
397.000000	8.390148
396.000000	8.191180
395.000000	8.017688
394.000000	7.847133
393.000000	7.672212
392.000000	7.511102
391.000000	7.356102
390.000000	7.207213
389.000000	7.071102
388.000000	6.946817
387.000000	6.819833
386.000000	6.707214
385.000000	6.582611
384.000000	6.471976
383.000000	6.386103
382.000000	6.299595
381.000000	6.195944
380.000000	6.115706
379.000000	6.040389
378.000000	5.956659
377.000000	5.887373
376.000000	5.729199
375.000000	5.437930
374.000000	5.413961
373.000000	5.437850
372.000000	5.342136
371.000000	5.365231
370.000000	5.303406
369.000000	5.285946
368.000000	5.314914
367.000000	5.316739
366.000000	5.249200
365.000000	5.252692
364.000000	5.215390
363.000000	5.303644
362.000000	5.269914
361.000000	5.176343
360.000000	5.203009
359.000000	5.177136
358.000000	5.115946
357.000000	5.026978
356.000000	4.918406
355.000000	5.024517
354.000000	5.111660
353.000000	5.121263
352.000000	4.935391
351.000000	5.065470
350.000000	4.997295
349.000000	4.882295
348.000000	4.976025
347.000000	4.798248
346.000000	4.787137
345.000000	4.886819
344.000000	4.943406
343.000000	4.748486
342.000000	4.882692
341.000000	4.798010
340.000000	4.982930
339.000000	4.976740
338.000000	4.772137
337.000000	4.813645
336.000000	4.823010
335.000000	4.847295
334.000000	4.785073
333.000000	4.744280
332.000000	4.604835
331.000000	4.808407
330.000000	4.751264
329.000000	4.803803
328.000000	5.111422
327.000000	4.739915
326.000000	4.729438
325.000000	4.910629
324.000000	5.294279
323.000000	5.019438
322.000000	5.254120
321.000000	5.013406
320.000000	5.208803
319.000000	5.114914
318.000000	5.375946
317.000000	5.183406
316.000000	4.612375
315.000000	4.615629
314.000000	4.504836
313.000000	4.564042
312.000000	4.528407
311.000000	4.545391
310.000000	4.558804
309.000000	4.582931
308.000000	4.558248
307.000000	4.546740
306.000000	4.492613
305.000000	4.544756
304.000000	4.611185
303.000000	4.559359
302.000000	4.589439
301.000000	4.593883
300.000000	4.601661
299.000000	4.605708
298.000000	4.535867
297.000000	4.544359
296.000000	4.612693
295.000000	4.559439
294.000000	4.568169
293.000000	4.593804
292.000000	4.569201
291.000000	4.551899
290.000000	4.613566
289.000000	4.578248
288.000000	4.595470
287.000000	4.667534
286.000000	4.613566
285.000000	4.586820
284.000000	4.577851
283.000000	4.556423
282.000000	4.607137
281.000000	4.636264
280.000000	4.633962
279.000000	4.613010
278.000000	4.574280
277.000000	4.602454
276.000000	4.541899
275.000000	4.620788
274.000000	4.670073
273.000000	4.626978
272.000000	4.644200
271.000000	4.637375
270.000000	4.629042
269.000000	4.648724
268.000000	4.736502
267.000000	4.666026
266.000000	4.734042
265.000000	4.700867
264.000000	4.777851
263.000000	4.751978
262.000000	4.788327
261.000000	4.818486
260.000000	4.838565
259.000000	4.867137
258.000000	4.858724
257.000000	4.852375
256.000000	4.849359
255.000000	4.792057
254.000000	4.891978
253.000000	4.939359
252.000000	4.951819
251.000000	4.929200
250.000000	4.927375
