PE UV       SUBTECH     SPECTRUM    ASCII       PEDS        4.00        
   -1
CICIMAUCR0070-1.Sample.ASC
24/04/17
15:12:00.00
24/04/17
15:12:00.00
Vinicio Soto Monge
C. resplendens
250,000000
1
Lambda 1050
1050L1511233
PerkinElmer UV WinLab 6.3.2.0749 / 2.02.05 Lambda 900 UV/VIS/NIR, Aug  7 2015 09:38:08

0
0
3350/servo 860,8/2
0
0
UV/VIS
1
1
1
DoubleDePol,CommonBeamDepol,RBeamAtt,SBeamAtt,60mm sphere, WB InGaAs Detector
0
0
0
0
Program
Program
3350/servo 860,8/2
3350/0,2 860,8/0,2
3350/0,2 860,8/0,2
0
15.00
 
 
 
0
 
860,8
319,2
860,8
Front
100
on
S:100 R:100
0
0
0
0
 
0
 
 
 
0
 
 
0
0
0
0
0
 
 
 
 
0
0


0
0
#HDR
-1
-1
#GR
nm
%R
1.0
0.0
2500,000000
-1,000000
2251
8
86,954100
5,179600
#DATA
2500.000000	20.454000
2499.000000	20.337300
2498.000000	20.406700
2497.000000	20.444600
2496.000000	20.393800
2495.000000	20.238900
2494.000000	20.326700
2493.000000	20.323500
2492.000000	20.357200
2491.000000	20.386500
2490.000000	20.419000
2489.000000	20.328200
2488.000000	20.365800
2487.000000	20.282000
2486.000000	20.327000
2485.000000	20.391000
2484.000000	20.424500
2483.000000	20.407600
2482.000000	20.401600
2481.000000	20.508600
2480.000000	20.468300
2479.000000	20.486000
2478.000000	20.525500
2477.000000	20.532100
2476.000000	20.574700
2475.000000	20.636800
2474.000000	20.680000
2473.000000	20.736900
2472.000000	20.799900
2471.000000	20.822200
2470.000000	20.869300
2469.000000	20.908900
2468.000000	20.988600
2467.000000	21.083700
2466.000000	21.132700
2465.000000	21.182300
2464.000000	21.256800
2463.000000	21.315300
2462.000000	21.371900
2461.000000	21.480500
2460.000000	21.548100
2459.000000	21.622700
2458.000000	21.735200
2457.000000	21.787900
2456.000000	21.910000
2455.000000	22.010800
2454.000000	22.110600
2453.000000	22.214100
2452.000000	22.313500
2451.000000	22.459700
2450.000000	22.566200
2449.000000	22.690000
2448.000000	22.818800
2447.000000	22.954000
2446.000000	23.088200
2445.000000	23.205500
2444.000000	23.327500
2443.000000	23.451400
2442.000000	23.599600
2441.000000	23.723500
2440.000000	23.855000
2439.000000	23.990500
2438.000000	24.111200
2437.000000	24.235600
2436.000000	24.356200
2435.000000	24.464000
2434.000000	24.603800
2433.000000	24.742900
2432.000000	24.837600
2431.000000	24.970100
2430.000000	25.083200
2429.000000	25.172100
2428.000000	25.288500
2427.000000	25.416100
2426.000000	25.522000
2425.000000	25.606500
2424.000000	25.719300
2423.000000	25.821700
2422.000000	25.903900
2421.000000	26.011200
2420.000000	26.189800
2419.000000	26.373000
2418.000000	26.573700
2417.000000	26.735000
2416.000000	26.800300
2415.000000	26.894600
2414.000000	26.966100
2413.000000	27.055300
2412.000000	27.179900
2411.000000	27.272000
2410.000000	27.331200
2409.000000	27.412000
2408.000000	27.510000
2407.000000	27.577900
2406.000000	27.668000
2405.000000	27.724100
2404.000000	27.785300
2403.000000	27.866500
2402.000000	27.923300
2401.000000	28.000300
2400.000000	28.022100
2399.000000	28.086600
2398.000000	28.168400
2397.000000	28.192600
2396.000000	28.245500
2395.000000	28.324300
2394.000000	28.350600
2393.000000	28.397800
2392.000000	28.448000
2391.000000	28.473300
2390.000000	28.517000
2389.000000	28.566100
2388.000000	28.584700
2387.000000	28.599400
2386.000000	28.636200
2385.000000	28.684900
2384.000000	28.692100
2383.000000	28.714700
2382.000000	28.746100
2381.000000	28.760900
2380.000000	28.774600
2379.000000	28.791100
2378.000000	28.784300
2377.000000	28.768400
2376.000000	28.796800
2375.000000	28.821500
2374.000000	28.805400
2373.000000	28.790700
2372.000000	28.813700
2371.000000	28.838100
2370.000000	28.834700
2369.000000	28.856500
2368.000000	28.876600
2367.000000	28.879500
2366.000000	28.885700
2365.000000	28.892600
2364.000000	28.917700
2363.000000	28.946000
2362.000000	28.958100
2361.000000	28.988700
2360.000000	29.006000
2359.000000	29.001100
2358.000000	28.984600
2357.000000	29.003200
2356.000000	29.024300
2355.000000	28.997900
2354.000000	28.984100
2353.000000	29.003200
2352.000000	29.004200
2351.000000	28.996900
2350.000000	29.019400
2349.000000	29.017400
2348.000000	29.008500
2347.000000	28.995000
2346.000000	29.008800
2345.000000	29.013500
2344.000000	28.992300
2343.000000	29.011800
2342.000000	29.022700
2341.000000	29.011000
2340.000000	29.050400
2339.000000	29.054900
2338.000000	29.065600
2337.000000	29.083900
2336.000000	29.083900
2335.000000	29.116600
2334.000000	29.139400
2333.000000	29.158600
2332.000000	29.191800
2331.000000	29.221500
2330.000000	29.260000
2329.000000	29.285600
2328.000000	29.348000
2327.000000	29.375400
2326.000000	29.393800
2325.000000	29.452900
2324.000000	29.484200
2323.000000	29.486400
2322.000000	29.536500
2321.000000	29.546900
2320.000000	29.540800
2319.000000	29.573500
2318.000000	29.577600
2317.000000	29.561500
2316.000000	29.547700
2315.000000	29.535200
2314.000000	29.512900
2313.000000	29.494300
2312.000000	29.461200
2311.000000	29.418500
2310.000000	29.388400
2309.000000	29.367800
2308.000000	29.326600
2307.000000	29.282800
2306.000000	29.266600
2305.000000	29.251700
2304.000000	29.237400
2303.000000	29.214300
2302.000000	29.202700
2301.000000	29.200000
2300.000000	29.190900
2299.000000	29.182000
2298.000000	29.199200
2297.000000	29.223700
2296.000000	29.215700
2295.000000	29.251200
2294.000000	29.251800
2293.000000	29.287700
2292.000000	29.332900
2291.000000	29.350000
2290.000000	29.360700
2289.000000	29.395000
2288.000000	29.452200
2287.000000	29.495900
2286.000000	29.529700
2285.000000	29.573000
2284.000000	29.650400
2283.000000	29.701800
2282.000000	29.749700
2281.000000	29.799400
2280.000000	29.850100
2279.000000	29.895600
2278.000000	29.947200
2277.000000	30.013000
2276.000000	30.044300
2275.000000	30.092000
2274.000000	30.126100
2273.000000	30.158900
2272.000000	30.222300
2271.000000	30.278700
2270.000000	30.341600
2269.000000	30.399800
2268.000000	30.448300
2267.000000	30.494000
2266.000000	30.580900
2265.000000	30.645700
2264.000000	30.765300
2263.000000	30.853500
2262.000000	30.977100
2261.000000	31.090100
2260.000000	31.246300
2259.000000	31.380900
2258.000000	31.550600
2257.000000	31.694700
2256.000000	31.885600
2255.000000	32.069000
2254.000000	32.241400
2253.000000	32.424600
2252.000000	32.636100
2251.000000	32.806100
2250.000000	32.958800
2249.000000	33.134600
2248.000000	33.321900
2247.000000	33.496200
2246.000000	33.615400
2245.000000	33.759300
2244.000000	33.881400
2243.000000	34.007300
2242.000000	34.098600
2241.000000	34.192200
2240.000000	34.272900
2239.000000	34.360200
2238.000000	34.418200
2237.000000	34.460300
2236.000000	34.473400
2235.000000	34.519800
2234.000000	34.528900
2233.000000	34.536100
2232.000000	34.520700
2231.000000	34.504400
2230.000000	34.487300
2229.000000	34.436300
2228.000000	34.411000
2227.000000	34.363800
2226.000000	34.279700
2225.000000	34.229600
2224.000000	34.152100
2223.000000	34.087900
2222.000000	34.005200
2221.000000	33.921600
2220.000000	33.829500
2219.000000	33.727900
2218.000000	33.653800
2217.000000	33.535300
2216.000000	33.447300
2215.000000	33.358600
2214.000000	33.261200
2213.000000	33.160700
2212.000000	33.076300
2211.000000	32.996300
2210.000000	32.921100
2209.000000	32.846800
2208.000000	32.775300
2207.000000	32.705800
2206.000000	32.632800
2205.000000	32.577800
2204.000000	32.527000
2203.000000	32.472000
2202.000000	32.430700
2201.000000	32.379900
2200.000000	32.344100
2199.000000	32.294500
2198.000000	32.249900
2197.000000	32.216700
2196.000000	32.175200
2195.000000	32.147800
2194.000000	32.116400
2193.000000	32.088500
2192.000000	32.063500
2191.000000	32.047000
2190.000000	32.009700
2189.000000	31.989400
2188.000000	31.979900
2187.000000	31.957400
2186.000000	31.943100
2185.000000	31.888700
2184.000000	31.867100
2183.000000	31.848300
2182.000000	31.824100
2181.000000	31.818900
2180.000000	31.773500
2179.000000	31.760800
2178.000000	31.734800
2177.000000	31.731900
2176.000000	31.717900
2175.000000	31.720200
2174.000000	31.718400
2173.000000	31.731900
2172.000000	31.700000
2171.000000	31.724500
2170.000000	31.743800
2169.000000	31.777200
2168.000000	31.804300
2167.000000	31.835200
2166.000000	31.876700
2165.000000	31.927600
2164.000000	31.966300
2163.000000	31.999500
2162.000000	32.068900
2161.000000	32.148800
2160.000000	32.227400
2159.000000	32.306000
2158.000000	32.396400
2157.000000	32.482700
2156.000000	32.575700
2155.000000	32.691900
2154.000000	32.804600
2153.000000	32.911000
2152.000000	33.026300
2151.000000	33.150800
2150.000000	33.278800
2149.000000	33.398800
2148.000000	33.523700
2147.000000	33.643300
2146.000000	33.773000
2145.000000	33.896200
2144.000000	34.013000
2143.000000	34.118600
2142.000000	34.244200
2141.000000	34.360200
2140.000000	34.472300
2139.000000	34.586900
2138.000000	34.683200
2137.000000	34.791800
2136.000000	34.901600
2135.000000	35.012900
2134.000000	35.113100
2133.000000	35.197000
2132.000000	35.278200
2131.000000	35.361700
2130.000000	35.449600
2129.000000	35.508100
2128.000000	35.580300
2127.000000	35.656300
2126.000000	35.716600
2125.000000	35.765400
2124.000000	35.815700
2123.000000	35.877600
2122.000000	35.926000
2121.000000	35.955000
2120.000000	35.980800
2119.000000	36.007400
2118.000000	36.039600
2117.000000	36.055500
2116.000000	36.080200
2115.000000	36.114100
2114.000000	36.118800
2113.000000	36.117200
2112.000000	36.130000
2111.000000	36.136500
2110.000000	36.135300
2109.000000	36.144400
2108.000000	36.148800
2107.000000	36.131100
2106.000000	36.138900
2105.000000	36.149500
2104.000000	36.135900
2103.000000	36.124200
2102.000000	36.117800
2101.000000	36.108500
2100.000000	36.107000
2099.000000	36.113400
2098.000000	36.106000
2097.000000	36.096800
2096.000000	36.098300
2095.000000	36.112700
2094.000000	36.129800
2093.000000	36.133900
2092.000000	36.144000
2091.000000	36.155600
2090.000000	36.162300
2089.000000	36.183000
2088.000000	36.181600
2087.000000	36.171500
2086.000000	36.173300
2085.000000	36.161500
2084.000000	36.137100
2083.000000	36.104800
2082.000000	36.078300
2081.000000	36.046300
2080.000000	35.999200
2079.000000	35.948000
2078.000000	35.878800
2077.000000	35.810200
2076.000000	35.739800
2075.000000	35.650500
2074.000000	35.562000
2073.000000	35.455000
2072.000000	35.340700
2071.000000	35.231000
2070.000000	35.119700
2069.000000	35.001900
2068.000000	34.866900
2067.000000	34.740000
2066.000000	34.610000
2065.000000	34.473900
2064.000000	34.330200
2063.000000	34.202100
2062.000000	34.087000
2061.000000	33.954300
2060.000000	33.847400
2059.000000	33.734700
2058.000000	33.644200
2057.000000	33.577600
2056.000000	33.526500
2055.000000	33.483700
2054.000000	33.475700
2053.000000	33.469800
2052.000000	33.496400
2051.000000	33.533000
2050.000000	33.589000
2049.000000	33.670400
2048.000000	33.777200
2047.000000	33.892400
2046.000000	34.013800
2045.000000	34.173100
2044.000000	34.309600
2043.000000	34.470400
2042.000000	34.621100
2041.000000	34.758400
2040.000000	34.893900
2039.000000	35.037700
2038.000000	35.194500
2037.000000	35.340100
2036.000000	35.477000
2035.000000	35.572800
2034.000000	35.682800
2033.000000	35.784000
2032.000000	35.897400
2031.000000	35.987700
2030.000000	36.078200
2029.000000	36.167400
2028.000000	36.237600
2027.000000	36.292400
2026.000000	36.364700
2025.000000	36.411600
2024.000000	36.446700
2023.000000	36.522400
2022.000000	36.570400
2021.000000	36.602000
2020.000000	36.623400
2019.000000	36.648600
2018.000000	36.666300
2017.000000	36.680300
2016.000000	36.682900
2015.000000	36.705000
2014.000000	36.690300
2013.000000	36.690000
2012.000000	36.661800
2011.000000	36.646600
2010.000000	36.621800
2009.000000	36.589300
2008.000000	36.537300
2007.000000	36.501000
2006.000000	36.435900
2005.000000	36.390800
2004.000000	36.318300
2003.000000	36.265200
2002.000000	36.185800
2001.000000	36.114500
2000.000000	36.042200
1999.000000	35.941100
1998.000000	35.854200
1997.000000	35.767600
1996.000000	35.663900
1995.000000	35.545600
1994.000000	35.454300
1993.000000	35.337200
1992.000000	35.217700
1991.000000	35.128100
1990.000000	34.988200
1989.000000	34.865500
1988.000000	34.741700
1987.000000	34.624300
1986.000000	34.500400
1985.000000	34.383800
1984.000000	34.264400
1983.000000	34.144500
1982.000000	34.010300
1981.000000	33.894800
1980.000000	33.752500
1979.000000	33.633900
1978.000000	33.491900
1977.000000	33.373300
1976.000000	33.245800
1975.000000	33.128300
1974.000000	33.025000
1973.000000	32.910400
1972.000000	32.774900
1971.000000	32.645500
1970.000000	32.526500
1969.000000	32.429300
1968.000000	32.302900
1967.000000	32.187500
1966.000000	32.092800
1965.000000	31.978500
1964.000000	31.852500
1963.000000	31.761800
1962.000000	31.630200
1961.000000	31.498900
1960.000000	31.397400
1959.000000	31.278200
1958.000000	31.164900
1957.000000	31.047200
1956.000000	30.940700
1955.000000	30.815000
1954.000000	30.732500
1953.000000	30.620300
1952.000000	30.496200
1951.000000	30.377800
1950.000000	30.271000
1949.000000	30.191000
1948.000000	30.101800
1947.000000	30.020500
1946.000000	29.917600
1945.000000	29.855500
1944.000000	29.801400
1943.000000	29.715600
1942.000000	29.688100
1941.000000	29.632400
1940.000000	29.591600
1939.000000	29.568300
1938.000000	29.541500
1937.000000	29.518400
1936.000000	29.517500
1935.000000	29.518700
1934.000000	29.531500
1933.000000	29.576000
1932.000000	29.634500
1931.000000	29.688600
1930.000000	29.757700
1929.000000	29.852400
1928.000000	29.981300
1927.000000	30.095400
1926.000000	30.215300
1925.000000	30.359400
1924.000000	30.493200
1923.000000	30.664800
1922.000000	30.859000
1921.000000	31.089800
1920.000000	31.353000
1919.000000	31.567500
1918.000000	31.792200
1917.000000	32.061900
1916.000000	32.326900
1915.000000	32.601500
1914.000000	32.962600
1913.000000	33.341400
1912.000000	33.744200
1911.000000	34.109800
1910.000000	34.508700
1909.000000	34.849300
1908.000000	35.219200
1907.000000	35.692500
1906.000000	36.226900
1905.000000	36.839200
1904.000000	37.412900
1903.000000	37.940700
1902.000000	38.479100
1901.000000	39.066500
1900.000000	39.723100
1899.000000	40.430500
1898.000000	41.080900
1897.000000	41.764400
1896.000000	42.357600
1895.000000	42.926200
1894.000000	43.546800
1893.000000	44.214200
1892.000000	44.919200
1891.000000	45.660900
1890.000000	46.334400
1889.000000	46.927700
1888.000000	47.555800
1887.000000	48.114500
1886.000000	48.664800
1885.000000	49.223200
1884.000000	49.797300
1883.000000	50.342800
1882.000000	50.821500
1881.000000	51.258900
1880.000000	51.663200
1879.000000	52.042500
1878.000000	52.449500
1877.000000	52.812800
1876.000000	53.159100
1875.000000	53.508400
1874.000000	53.860600
1873.000000	54.196400
1872.000000	54.495200
1871.000000	54.764700
1870.000000	55.009400
1869.000000	55.203800
1868.000000	55.398700
1867.000000	55.538000
1866.000000	55.614200
1865.000000	55.705500
1864.000000	55.793600
1863.000000	55.879900
1862.000000	56.002500
1861.000000	56.145900
1860.000000	56.272500
1859.000000	56.393000
1858.000000	56.490400
1857.000000	56.555600
1856.000000	56.600000
1855.000000	56.657300
1854.000000	56.732700
1853.000000	56.752900
1852.000000	56.755800
1851.000000	56.798400
1850.000000	56.847400
1849.000000	56.905600
1848.000000	56.971600
1847.000000	57.013800
1846.000000	56.947500
1845.000000	56.862800
1844.000000	56.846300
1843.000000	56.854700
1842.000000	56.935300
1841.000000	56.971100
1840.000000	56.937000
1839.000000	56.906300
1838.000000	56.860300
1837.000000	56.838200
1836.000000	56.818800
1835.000000	56.764700
1834.000000	56.672600
1833.000000	56.605200
1832.000000	56.551100
1831.000000	56.531400
1830.000000	56.523200
1829.000000	56.493000
1828.000000	56.447600
1827.000000	56.402500
1826.000000	56.389800
1825.000000	56.355300
1824.000000	56.310100
1823.000000	56.288500
1822.000000	56.363600
1821.000000	56.430000
1820.000000	56.413800
1819.000000	56.365900
1818.000000	56.314600
1817.000000	56.292700
1816.000000	56.285500
1815.000000	56.281100
1814.000000	56.255200
1813.000000	56.243400
1812.000000	56.233300
1811.000000	56.201500
1810.000000	56.147700
1809.000000	56.109100
1808.000000	56.085500
1807.000000	56.075300
1806.000000	56.052200
1805.000000	56.012800
1804.000000	55.983900
1803.000000	55.972300
1802.000000	55.960200
1801.000000	55.938600
1800.000000	55.909200
1799.000000	55.885100
1798.000000	55.854200
1797.000000	55.814800
1796.000000	55.798500
1795.000000	55.790300
1794.000000	55.765000
1793.000000	55.744400
1792.000000	55.722900
1791.000000	55.722300
1790.000000	55.704600
1789.000000	55.703300
1788.000000	55.710700
1787.000000	55.714400
1786.000000	55.728000
1785.000000	55.738400
1784.000000	55.733800
1783.000000	55.734500
1782.000000	55.724900
1781.000000	55.726800
1780.000000	55.721600
1779.000000	55.713300
1778.000000	55.699400
1777.000000	55.678400
1776.000000	55.647500
1775.000000	55.622100
1774.000000	55.593700
1773.000000	55.564300
1772.000000	55.542300
1771.000000	55.518500
1770.000000	55.480900
1769.000000	55.470000
1768.000000	55.437400
1767.000000	55.411300
1766.000000	55.380900
1765.000000	55.368900
1764.000000	55.362600
1763.000000	55.351900
1762.000000	55.339800
1761.000000	55.341300
1760.000000	55.354000
1759.000000	55.373400
1758.000000	55.370800
1757.000000	55.389000
1756.000000	55.406200
1755.000000	55.402200
1754.000000	55.411700
1753.000000	55.410000
1752.000000	55.415200
1751.000000	55.417300
1750.000000	55.415200
1749.000000	55.380500
1748.000000	55.360600
1747.000000	55.339800
1746.000000	55.307200
1745.000000	55.261800
1744.000000	55.202200
1743.000000	55.150700
1742.000000	55.100800
1741.000000	55.020600
1740.000000	54.967000
1739.000000	54.915200
1738.000000	54.873200
1737.000000	54.830000
1736.000000	54.790400
1735.000000	54.726600
1734.000000	54.702600
1733.000000	54.669600
1732.000000	54.638500
1731.000000	54.611500
1730.000000	54.596300
1729.000000	54.564600
1728.000000	54.546300
1727.000000	54.522500
1726.000000	54.504300
1725.000000	54.500900
1724.000000	54.514500
1723.000000	54.558100
1722.000000	54.632200
1721.000000	54.758100
1720.000000	54.918800
1719.000000	55.120900
1718.000000	55.322800
1717.000000	55.523100
1716.000000	55.758000
1715.000000	55.977100
1714.000000	56.169300
1713.000000	56.350400
1712.000000	56.517500
1711.000000	56.666300
1710.000000	56.817800
1709.000000	56.942400
1708.000000	57.041000
1707.000000	57.153300
1706.000000	57.217400
1705.000000	57.281600
1704.000000	57.314200
1703.000000	57.374300
1702.000000	57.395300
1701.000000	57.403400
1700.000000	57.429900
1699.000000	57.432600
1698.000000	57.441900
1697.000000	57.448400
1696.000000	57.437200
1695.000000	57.405600
1694.000000	57.363500
1693.000000	57.354200
1692.000000	57.272600
1691.000000	57.223800
1690.000000	57.198100
1689.000000	57.155500
1688.000000	57.172000
1687.000000	57.234400
1686.000000	57.344700
1685.000000	57.475500
1684.000000	57.645200
1683.000000	57.839500
1682.000000	58.068400
1681.000000	58.243900
1680.000000	58.459300
1679.000000	58.661100
1678.000000	58.853600
1677.000000	59.042200
1676.000000	59.206100
1675.000000	59.379600
1674.000000	59.566600
1673.000000	59.707700
1672.000000	59.875300
1671.000000	60.033000
1670.000000	60.185600
1669.000000	60.355600
1668.000000	60.502100
1667.000000	60.678500
1666.000000	60.813900
1665.000000	60.931100
1664.000000	61.062900
1663.000000	61.180000
1662.000000	61.298600
1661.000000	61.415500
1660.000000	61.502900
1659.000000	61.602300
1658.000000	61.673300
1657.000000	61.742700
1656.000000	61.800700
1655.000000	61.854000
1654.000000	61.894000
1653.000000	61.924700
1652.000000	61.944900
1651.000000	61.968000
1650.000000	61.979600
1649.000000	61.968600
1648.000000	61.973100
1647.000000	61.966400
1646.000000	61.956800
1645.000000	61.940900
1644.000000	61.932200
1643.000000	61.920500
1642.000000	61.903800
1641.000000	61.910300
1640.000000	61.894300
1639.000000	61.884100
1638.000000	61.864800
1637.000000	61.846600
1636.000000	61.815100
1635.000000	61.798100
1634.000000	61.760700
1633.000000	61.742100
1632.000000	61.715900
1631.000000	61.679400
1630.000000	61.624500
1629.000000	61.593200
1628.000000	61.553900
1627.000000	61.505900
1626.000000	61.463700
1625.000000	61.420100
1624.000000	61.368400
1623.000000	61.321500
1622.000000	61.284400
1621.000000	61.238000
1620.000000	61.207100
1619.000000	61.178100
1618.000000	61.141200
1617.000000	61.101200
1616.000000	61.058200
1615.000000	61.026100
1614.000000	60.995600
1613.000000	60.951200
1612.000000	60.912800
1611.000000	60.860500
1610.000000	60.831900
1609.000000	60.786500
1608.000000	60.725700
1607.000000	60.671300
1606.000000	60.614600
1605.000000	60.558500
1604.000000	60.483200
1603.000000	60.412600
1602.000000	60.346700
1601.000000	60.275000
1600.000000	60.212900
1599.000000	60.146500
1598.000000	60.080400
1597.000000	60.027800
1596.000000	59.965400
1595.000000	59.903200
1594.000000	59.852900
1593.000000	59.801900
1592.000000	59.749800
1591.000000	59.697600
1590.000000	59.645800
1589.000000	59.608000
1588.000000	59.567600
1587.000000	59.513300
1586.000000	59.466200
1585.000000	59.414000
1584.000000	59.374400
1583.000000	59.339900
1582.000000	59.295000
1581.000000	59.248800
1580.000000	59.213600
1579.000000	59.190000
1578.000000	59.164000
1577.000000	59.143100
1576.000000	59.120900
1575.000000	59.103600
1574.000000	59.089700
1573.000000	59.082800
1572.000000	59.084500
1571.000000	59.084800
1570.000000	59.093800
1569.000000	59.101100
1568.000000	59.109800
1567.000000	59.124100
1566.000000	59.130700
1565.000000	59.134100
1564.000000	59.152400
1563.000000	59.166800
1562.000000	59.171100
1561.000000	59.157600
1560.000000	59.143900
1559.000000	59.126700
1558.000000	59.102900
1557.000000	59.074300
1556.000000	59.030900
1555.000000	58.985600
1554.000000	58.928200
1553.000000	58.872200
1552.000000	58.805600
1551.000000	58.738600
1550.000000	58.670800
1549.000000	58.591900
1548.000000	58.515300
1547.000000	58.441900
1546.000000	58.378900
1545.000000	58.313800
1544.000000	58.256400
1543.000000	58.203500
1542.000000	58.155400
1541.000000	58.122100
1540.000000	58.082600
1539.000000	58.049000
1538.000000	58.010600
1537.000000	57.969300
1536.000000	57.917000
1535.000000	57.883200
1534.000000	57.847600
1533.000000	57.791800
1532.000000	57.741100
1531.000000	57.687700
1530.000000	57.623500
1529.000000	57.565900
1528.000000	57.533500
1527.000000	57.492300
1526.000000	57.436300
1525.000000	57.376100
1524.000000	57.308100
1523.000000	57.246600
1522.000000	57.189700
1521.000000	57.126500
1520.000000	57.066400
1519.000000	57.008200
1518.000000	56.949900
1517.000000	56.887500
1516.000000	56.820000
1515.000000	56.763200
1514.000000	56.687300
1513.000000	56.613100
1512.000000	56.554400
1511.000000	56.480500
1510.000000	56.409100
1509.000000	56.356400
1508.000000	56.274600
1507.000000	56.201500
1506.000000	56.136100
1505.000000	56.092000
1504.000000	56.028500
1503.000000	55.974800
1502.000000	55.918300
1501.000000	55.854600
1500.000000	55.813300
1499.000000	55.786000
1498.000000	55.745000
1497.000000	55.720200
1496.000000	55.706500
1495.000000	55.693100
1494.000000	55.666000
1493.000000	55.660200
1492.000000	55.670100
1491.000000	55.681600
1490.000000	55.686900
1489.000000	55.697500
1488.000000	55.703900
1487.000000	55.726500
1486.000000	55.732100
1485.000000	55.740900
1484.000000	55.758000
1483.000000	55.771200
1482.000000	55.792700
1481.000000	55.812200
1480.000000	55.818200
1479.000000	55.834300
1478.000000	55.859100
1477.000000	55.883000
1476.000000	55.893500
1475.000000	55.929300
1474.000000	55.986600
1473.000000	56.042800
1472.000000	56.108600
1471.000000	56.166300
1470.000000	56.210800
1469.000000	56.219900
1468.000000	56.273500
1467.000000	56.353000
1466.000000	56.423100
1465.000000	56.481600
1464.000000	56.526100
1463.000000	56.608600
1462.000000	56.670100
1461.000000	56.749900
1460.000000	56.839400
1459.000000	56.892000
1458.000000	56.984500
1457.000000	57.069200
1456.000000	57.153100
1455.000000	57.255100
1454.000000	57.316900
1453.000000	57.386200
1452.000000	57.506400
1451.000000	57.608300
1450.000000	57.674100
1449.000000	57.716600
1448.000000	57.766000
1447.000000	57.881800
1446.000000	58.013200
1445.000000	58.110500
1444.000000	58.146900
1443.000000	58.228900
1442.000000	58.339000
1441.000000	58.440000
1440.000000	58.537400
1439.000000	58.652500
1438.000000	58.771000
1437.000000	58.877200
1436.000000	59.011300
1435.000000	59.127300
1434.000000	59.300900
1433.000000	59.448500
1432.000000	59.596700
1431.000000	59.718000
1430.000000	59.845400
1429.000000	60.059500
1428.000000	60.247500
1427.000000	60.426900
1426.000000	60.602100
1425.000000	60.844600
1424.000000	61.102300
1423.000000	61.332600
1422.000000	61.540400
1421.000000	61.799500
1420.000000	62.130900
1419.000000	62.455000
1418.000000	62.711200
1417.000000	62.955400
1416.000000	63.226400
1415.000000	63.617500
1414.000000	64.044300
1413.000000	64.342800
1412.000000	64.643400
1411.000000	64.999500
1410.000000	65.442500
1409.000000	65.953300
1408.000000	66.319300
1407.000000	66.703900
1406.000000	67.094500
1405.000000	67.523700
1404.000000	67.877500
1403.000000	68.314500
1402.000000	68.661200
1401.000000	69.172200
1400.000000	69.658100
1399.000000	69.974100
1398.000000	70.191000
1397.000000	70.526700
1396.000000	71.008600
1395.000000	71.446100
1394.000000	71.682100
1393.000000	71.914100
1392.000000	72.257100
1391.000000	72.546700
1390.000000	72.791700
1389.000000	73.081800
1388.000000	73.473500
1387.000000	73.734500
1386.000000	73.969100
1385.000000	74.238000
1384.000000	74.572200
1383.000000	74.761800
1382.000000	75.003900
1381.000000	75.160800
1380.000000	75.211900
1379.000000	75.337800
1378.000000	75.449200
1377.000000	75.545200
1376.000000	75.646600
1375.000000	75.762800
1374.000000	75.848000
1373.000000	76.006400
1372.000000	76.149500
1371.000000	76.266400
1370.000000	76.382400
1369.000000	76.474700
1368.000000	76.646200
1367.000000	76.730400
1366.000000	76.803500
1365.000000	76.942800
1364.000000	77.025800
1363.000000	77.104100
1362.000000	77.281500
1361.000000	77.308400
1360.000000	77.307200
1359.000000	77.270700
1358.000000	77.371300
1357.000000	77.427800
1356.000000	77.502900
1355.000000	77.640200
1354.000000	77.724400
1353.000000	77.775500
1352.000000	77.864500
1351.000000	78.013500
1350.000000	78.133900
1349.000000	78.259100
1348.000000	78.411100
1347.000000	78.529000
1346.000000	78.624900
1345.000000	78.760000
1344.000000	78.904000
1343.000000	79.012700
1342.000000	79.110700
1341.000000	79.245000
1340.000000	79.360500
1339.000000	79.449300
1338.000000	79.564100
1337.000000	79.666800
1336.000000	79.762100
1335.000000	79.844500
1334.000000	79.924200
1333.000000	80.015400
1332.000000	80.095200
1331.000000	80.162400
1330.000000	80.224900
1329.000000	80.296600
1328.000000	80.361200
1327.000000	80.428300
1326.000000	80.485800
1325.000000	80.532700
1324.000000	80.598400
1323.000000	80.638700
1322.000000	80.679100
1321.000000	80.733800
1320.000000	80.762700
1319.000000	80.802600
1318.000000	80.856700
1317.000000	80.896600
1316.000000	80.926900
1315.000000	80.967900
1314.000000	81.011900
1313.000000	81.044900
1312.000000	81.072500
1311.000000	81.094900
1310.000000	81.121700
1309.000000	81.150500
1308.000000	81.173100
1307.000000	81.190700
1306.000000	81.205400
1305.000000	81.228800
1304.000000	81.251100
1303.000000	81.256300
1302.000000	81.271300
1301.000000	81.280500
1300.000000	81.282800
1299.000000	81.284700
1298.000000	81.286800
1297.000000	81.283800
1296.000000	81.283200
1295.000000	81.290300
1294.000000	81.284800
1293.000000	81.276500
1292.000000	81.267000
1291.000000	81.262700
1290.000000	81.255300
1289.000000	81.244300
1288.000000	81.235300
1287.000000	81.219200
1286.000000	81.190700
1285.000000	81.162700
1284.000000	81.147500
1283.000000	81.139400
1282.000000	81.126000
1281.000000	81.107000
1280.000000	81.090500
1279.000000	81.075800
1278.000000	81.058500
1277.000000	81.050200
1276.000000	81.048600
1275.000000	81.050400
1274.000000	81.052200
1273.000000	81.039600
1272.000000	81.039900
1271.000000	81.042800
1270.000000	81.045100
1269.000000	81.057700
1268.000000	81.069000
1267.000000	81.077700
1266.000000	81.084400
1265.000000	81.099100
1264.000000	81.106100
1263.000000	81.096300
1262.000000	81.097200
1261.000000	81.106700
1260.000000	81.109400
1259.000000	81.122000
1258.000000	81.117600
1257.000000	81.121300
1256.000000	81.120700
1255.000000	81.126700
1254.000000	81.115300
1253.000000	81.110900
1252.000000	81.100900
1251.000000	81.075900
1250.000000	81.067600
1249.000000	81.047800
1248.000000	81.027300
1247.000000	80.998800
1246.000000	80.979900
1245.000000	80.968600
1244.000000	80.933000
1243.000000	80.897000
1242.000000	80.870200
1241.000000	80.859500
1240.000000	80.835500
1239.000000	80.813600
1238.000000	80.786800
1237.000000	80.764800
1236.000000	80.735700
1235.000000	80.726400
1234.000000	80.713500
1233.000000	80.706600
1232.000000	80.677600
1231.000000	80.667300
1230.000000	80.655100
1229.000000	80.630500
1228.000000	80.620100
1227.000000	80.595900
1226.000000	80.575800
1225.000000	80.569300
1224.000000	80.547000
1223.000000	80.531600
1222.000000	80.513900
1221.000000	80.497200
1220.000000	80.469900
1219.000000	80.461700
1218.000000	80.428100
1217.000000	80.419900
1216.000000	80.404400
1215.000000	80.391200
1214.000000	80.358000
1213.000000	80.345700
1212.000000	80.295900
1211.000000	80.265400
1210.000000	80.244700
1209.000000	80.199600
1208.000000	80.167400
1207.000000	80.139100
1206.000000	80.094400
1205.000000	80.057500
1204.000000	80.026100
1203.000000	79.986000
1202.000000	79.947200
1201.000000	79.909200
1200.000000	79.859600
1199.000000	79.831000
1198.000000	79.778900
1197.000000	79.720800
1196.000000	79.677800
1195.000000	79.641000
1194.000000	79.573600
1193.000000	79.523100
1192.000000	79.459000
1191.000000	79.413400
1190.000000	79.378900
1189.000000	79.329800
1188.000000	79.299500
1187.000000	79.292600
1186.000000	79.286000
1185.000000	79.287700
1184.000000	79.297900
1183.000000	79.311100
1182.000000	79.337200
1181.000000	79.374100
1180.000000	79.393800
1179.000000	79.446600
1178.000000	79.486300
1177.000000	79.533000
1176.000000	79.565700
1175.000000	79.608200
1174.000000	79.641900
1173.000000	79.689300
1172.000000	79.748100
1171.000000	79.809400
1170.000000	79.872100
1169.000000	79.940100
1168.000000	80.021200
1167.000000	80.102000
1166.000000	80.178100
1165.000000	80.262900
1164.000000	80.358700
1163.000000	80.446700
1162.000000	80.530000
1161.000000	80.636200
1160.000000	80.742300
1159.000000	80.838500
1158.000000	80.900800
1157.000000	80.994900
1156.000000	81.076100
1155.000000	81.132200
1154.000000	81.208100
1153.000000	81.286800
1152.000000	81.337500
1151.000000	81.375100
1150.000000	81.437000
1149.000000	81.488900
1148.000000	81.532100
1147.000000	81.590700
1146.000000	81.645600
1145.000000	81.704700
1144.000000	81.731600
1143.000000	81.761600
1142.000000	81.828400
1141.000000	81.902400
1140.000000	81.937700
1139.000000	82.009000
1138.000000	82.096300
1137.000000	82.177000
1136.000000	82.313100
1135.000000	82.398700
1134.000000	82.469200
1133.000000	82.485900
1132.000000	82.505900
1131.000000	82.569700
1130.000000	82.644500
1129.000000	82.725800
1128.000000	82.766100
1127.000000	82.776900
1126.000000	82.830100
1125.000000	82.860700
1124.000000	82.904100
1123.000000	82.929600
1122.000000	82.937100
1121.000000	82.932000
1120.000000	82.939300
1119.000000	82.956200
1118.000000	82.937900
1117.000000	82.929200
1116.000000	82.933900
1115.000000	82.929000
1114.000000	82.930000
1113.000000	82.923800
1112.000000	82.924600
1111.000000	82.927300
1110.000000	82.924700
1109.000000	82.927000
1108.000000	82.918700
1107.000000	82.892800
1106.000000	82.893300
1105.000000	82.893200
1104.000000	82.876500
1103.000000	82.880800
1102.000000	82.885000
1101.000000	82.874400
1100.000000	82.845200
1099.000000	82.845300
1098.000000	82.847500
1097.000000	82.824000
1096.000000	82.812200
1095.000000	82.798600
1094.000000	82.793900
1093.000000	82.771400
1092.000000	82.748000
1091.000000	82.726900
1090.000000	82.702600
1089.000000	82.690300
1088.000000	82.674800
1087.000000	82.659000
1086.000000	82.630300
1085.000000	82.613000
1084.000000	82.575900
1083.000000	82.565200
1082.000000	82.535900
1081.000000	82.501200
1080.000000	82.477000
1079.000000	82.446600
1078.000000	82.422000
1077.000000	82.384500
1076.000000	82.355500
1075.000000	82.327900
1074.000000	82.292300
1073.000000	82.260100
1072.000000	82.226100
1071.000000	82.188500
1070.000000	82.160800
1069.000000	82.118100
1068.000000	82.076800
1067.000000	82.036900
1066.000000	82.005100
1065.000000	81.979900
1064.000000	81.953900
1063.000000	81.908800
1062.000000	81.868000
1061.000000	81.836500
1060.000000	81.805600
1059.000000	81.764100
1058.000000	81.732400
1057.000000	81.701700
1056.000000	81.676400
1055.000000	81.640800
1054.000000	81.610500
1053.000000	81.589600
1052.000000	81.565400
1051.000000	81.531600
1050.000000	81.496100
1049.000000	81.481200
1048.000000	81.464900
1047.000000	81.430700
1046.000000	81.418800
1045.000000	81.393800
1044.000000	81.377500
1043.000000	81.371700
1042.000000	81.358200
1041.000000	81.333900
1040.000000	81.319800
1039.000000	81.314000
1038.000000	81.296600
1037.000000	81.280700
1036.000000	81.272100
1035.000000	81.254600
1034.000000	81.232300
1033.000000	81.224800
1032.000000	81.225500
1031.000000	81.209500
1030.000000	81.191900
1029.000000	81.178100
1028.000000	81.180000
1027.000000	81.169400
1026.000000	81.150800
1025.000000	81.153100
1024.000000	81.145700
1023.000000	81.137600
1022.000000	81.142700
1021.000000	81.121800
1020.000000	81.114700
1019.000000	81.115800
1018.000000	81.098100
1017.000000	81.096100
1016.000000	81.102600
1015.000000	81.095200
1014.000000	81.091300
1013.000000	81.094100
1012.000000	81.081000
1011.000000	81.068000
1010.000000	81.062000
1009.000000	81.080800
1008.000000	81.090700
1007.000000	81.063800
1006.000000	81.069600
1005.000000	81.066100
1004.000000	81.039100
1003.000000	81.042100
1002.000000	81.045900
1001.000000	81.027300
1000.000000	81.028500
999.000000	81.026000
998.000000	81.000000
997.000000	80.991800
996.000000	80.971800
995.000000	80.970300
994.000000	80.973900
993.000000	80.962300
992.000000	80.968100
991.000000	80.954700
990.000000	80.950500
989.000000	80.946200
988.000000	80.956900
987.000000	80.946900
986.000000	80.940200
985.000000	80.925500
984.000000	80.942100
983.000000	80.959100
982.000000	80.960600
981.000000	80.967100
980.000000	80.990000
979.000000	81.000500
978.000000	80.996700
977.000000	81.006900
976.000000	81.021900
975.000000	81.045700
974.000000	81.065800
973.000000	81.081900
972.000000	81.116800
971.000000	81.128400
970.000000	81.158400
969.000000	81.178100
968.000000	81.215400
967.000000	81.236700
966.000000	81.269400
965.000000	81.309300
964.000000	81.341900
963.000000	81.366800
962.000000	81.400400
961.000000	81.444000
960.000000	81.496400
959.000000	81.549300
958.000000	81.573100
957.000000	81.614100
956.000000	81.635000
955.000000	81.674300
954.000000	81.734800
953.000000	81.773400
952.000000	81.816900
951.000000	81.853700
950.000000	81.886500
949.000000	81.940800
948.000000	81.951300
947.000000	81.986200
946.000000	82.047300
945.000000	82.082400
944.000000	82.144100
943.000000	82.155000
942.000000	82.182600
941.000000	82.224500
940.000000	82.298100
939.000000	82.320900
938.000000	82.353800
937.000000	82.406500
936.000000	82.499300
935.000000	82.517000
934.000000	82.556800
933.000000	82.596900
932.000000	82.675200
931.000000	82.694100
930.000000	82.739300
929.000000	82.765800
928.000000	82.842500
927.000000	82.847400
926.000000	82.869400
925.000000	82.964300
924.000000	82.995700
923.000000	83.034600
922.000000	83.082100
921.000000	83.103700
920.000000	83.144900
919.000000	83.212100
918.000000	83.249700
917.000000	83.247200
916.000000	83.286700
915.000000	83.379700
914.000000	83.393600
913.000000	83.421700
912.000000	83.429300
911.000000	83.457500
910.000000	83.488700
909.000000	83.481600
908.000000	83.502900
907.000000	83.526000
906.000000	83.523100
905.000000	83.538900
904.000000	83.543600
903.000000	83.545100
902.000000	83.534200
901.000000	83.537000
900.000000	83.540900
899.000000	83.515500
898.000000	83.503400
897.000000	83.492700
896.000000	83.458400
895.000000	83.448200
894.000000	83.405500
893.000000	83.365800
892.000000	83.252200
891.000000	83.225300
890.000000	83.193100
889.000000	83.160300
888.000000	83.092500
887.000000	83.026100
886.000000	82.912800
885.000000	82.780000
884.000000	82.691800
883.000000	82.595800
882.000000	82.454500
881.000000	82.259200
880.000000	82.143800
879.000000	82.025500
878.000000	81.879500
877.000000	81.631700
876.000000	81.457800
875.000000	81.316000
874.000000	81.063000
873.000000	80.802500
872.000000	80.483400
871.000000	80.333700
870.000000	80.068800
869.000000	79.723200
868.000000	79.466400
867.000000	79.110900
866.000000	78.825900
865.000000	78.444400
864.000000	78.138100
863.000000	77.705700
862.000000	77.355100
861.000000	76.830300
860.000000	76.314800
859.000000	75.870300
858.000000	77.241700
857.000000	76.411280
856.000000	76.131990
855.000000	76.314549
854.000000	75.805917
853.000000	76.149754
852.000000	76.465362
851.000000	76.182466
850.000000	75.978275
849.000000	76.172881
848.000000	75.903089
847.000000	75.997446
846.000000	76.271635
845.000000	75.975373
844.000000	75.738381
843.000000	75.639100
842.000000	75.589855
841.000000	75.205743
840.000000	75.287613
839.000000	75.109188
838.000000	74.952923
837.000000	74.968136
836.000000	74.920737
835.000000	74.804308
834.000000	74.653935
833.000000	74.610406
832.000000	74.568547
831.000000	74.452118
830.000000	74.381064
829.000000	74.299634
828.000000	74.172916
827.000000	73.865046
826.000000	73.851152
825.000000	73.761280
824.000000	73.683103
823.000000	73.489289
822.000000	73.420170
821.000000	73.246669
820.000000	73.112300
819.000000	72.984879
818.000000	72.829229
817.000000	72.694948
816.000000	72.503596
815.000000	72.343022
814.000000	72.218415
813.000000	72.138567
812.000000	72.010002
811.000000	71.888121
810.000000	71.743815
809.000000	71.596080
808.000000	71.476925
807.000000	71.241516
806.000000	71.100991
805.000000	70.971107
804.000000	70.788285
803.000000	70.661831
802.000000	70.592536
801.000000	70.414198
800.000000	70.230497
799.000000	70.002475
798.000000	69.785005
797.000000	69.604821
796.000000	69.499296
795.000000	69.367301
794.000000	69.261248
793.000000	69.115360
792.000000	68.900704
791.000000	68.673122
790.000000	68.551680
789.000000	68.439823
788.000000	68.273797
787.000000	68.080862
786.000000	68.028979
785.000000	67.940777
784.000000	67.788821
783.000000	67.647769
782.000000	67.470927
781.000000	67.248796
780.000000	67.083737
779.000000	66.922899
778.000000	66.871632
777.000000	66.792576
776.000000	66.607555
775.000000	66.432119
774.000000	66.286759
773.000000	66.124777
772.000000	66.015119
771.000000	65.829395
770.000000	65.703117
769.000000	65.557932
768.000000	65.404920
767.000000	65.181735
766.000000	65.051235
765.000000	64.897432
764.000000	64.745300
763.000000	64.570040
762.000000	64.445345
761.000000	64.383613
760.000000	64.182939
759.000000	63.938473
758.000000	63.814744
757.000000	63.673341
756.000000	63.471788
755.000000	63.257484
754.000000	63.105352
753.000000	62.999651
752.000000	62.850332
751.000000	62.670324
750.000000	62.538857
749.000000	62.351111
748.000000	62.157824
747.000000	62.042010
746.000000	61.852680
745.000000	61.640223
744.000000	61.512274
743.000000	61.303334
742.000000	61.060890
741.000000	60.843860
740.000000	60.558063
739.000000	60.375064
738.000000	60.208247
737.000000	59.984094
736.000000	59.776825
735.000000	59.548539
734.000000	59.332124
733.000000	59.030586
732.000000	58.817777
731.000000	58.606903
730.000000	58.347399
729.000000	58.087016
728.000000	57.802625
727.000000	57.593949
726.000000	57.342448
725.000000	57.102378
724.000000	56.873125
723.000000	56.611247
722.000000	56.390787
721.000000	56.169448
720.000000	55.910384
719.000000	55.688517
718.000000	55.469992
717.000000	55.252523
716.000000	55.036636
715.000000	54.843701
714.000000	54.655514
713.000000	54.421952
712.000000	54.139584
711.000000	53.885532
710.000000	53.703677
709.000000	53.457716
708.000000	53.176052
707.000000	52.919713
706.000000	52.674719
705.000000	52.407125
704.000000	52.123790
703.000000	51.845204
702.000000	51.587459
701.000000	51.312214
700.000000	51.091051
699.000000	50.822138
698.000000	50.567734
697.000000	50.286070
696.000000	50.088562
695.000000	49.877424
694.000000	49.640344
693.000000	49.441869
692.000000	49.270390
691.000000	49.170317
690.000000	49.050195
689.000000	48.950913
688.000000	48.872297
687.000000	48.749008
686.000000	48.686573
685.000000	48.649815
684.000000	48.634514
683.000000	48.553259
682.000000	48.491703
681.000000	48.447910
680.000000	48.367623
679.000000	48.253040
678.000000	48.104601
677.000000	48.013322
676.000000	47.845625
675.000000	47.682589
674.000000	47.459315
673.000000	47.237624
672.000000	47.015846
671.000000	46.787472
670.000000	46.497805
669.000000	46.253251
668.000000	45.998232
667.000000	45.741718
666.000000	45.486171
665.000000	45.212773
664.000000	44.957138
663.000000	44.706604
662.000000	44.523166
661.000000	44.312116
660.000000	44.120940
659.000000	43.961333
658.000000	43.824854
657.000000	43.658915
656.000000	43.550312
655.000000	43.442501
654.000000	43.326599
653.000000	43.215622
652.000000	43.162332
651.000000	43.083364
650.000000	43.028139
649.000000	42.936068
648.000000	42.848306
647.000000	42.822101
646.000000	42.785519
645.000000	42.750608
644.000000	42.764062
643.000000	42.739088
642.000000	42.787717
641.000000	42.826938
640.000000	42.872929
639.000000	42.967814
638.000000	43.032360
637.000000	43.175698
636.000000	43.303032
635.000000	43.446634
634.000000	43.634557
633.000000	43.809025
632.000000	43.971709
631.000000	44.210108
630.000000	44.449299
629.000000	44.721026
628.000000	45.000931
627.000000	45.282859
626.000000	45.562853
625.000000	45.848914
624.000000	46.190551
623.000000	46.563495
622.000000	46.885610
621.000000	47.293729
620.000000	47.621648
619.000000	47.984391
618.000000	48.393389
617.000000	48.786470
616.000000	49.209713
615.000000	49.631902
614.000000	50.015662
613.000000	50.402675
612.000000	50.821434
611.000000	51.165094
610.000000	51.518340
609.000000	51.840983
608.000000	52.138476
607.000000	52.429901
606.000000	52.755622
605.000000	53.035967
604.000000	53.302594
603.000000	53.593579
602.000000	53.859239
601.000000	54.105376
600.000000	54.451411
599.000000	54.683302
598.000000	54.995305
597.000000	55.261404
596.000000	55.536033
595.000000	55.803452
594.000000	56.053019
593.000000	56.327384
592.000000	56.571235
591.000000	56.742450
590.000000	56.928789
589.000000	57.117679
588.000000	57.250113
587.000000	57.336468
586.000000	57.410072
585.000000	57.523511
584.000000	57.539340
583.000000	57.539692
582.000000	57.572317
581.000000	57.585947
580.000000	57.585244
579.000000	57.547782
578.000000	57.541011
577.000000	57.514894
576.000000	57.494756
575.000000	57.471452
574.000000	57.480158
573.000000	57.451842
572.000000	57.455184
571.000000	57.434607
570.000000	57.436805
569.000000	57.409193
568.000000	57.404972
567.000000	57.397233
566.000000	57.368741
565.000000	57.266558
564.000000	57.159098
563.000000	57.040030
562.000000	56.894142
561.000000	56.722136
560.000000	56.545469
559.000000	56.358162
558.000000	56.159247
557.000000	55.918122
556.000000	55.651144
555.000000	55.386891
554.000000	55.114988
553.000000	54.799380
552.000000	54.501887
551.000000	54.144245
550.000000	53.760661
549.000000	53.356939
548.000000	52.920329
547.000000	52.431396
546.000000	51.875630
545.000000	51.323294
544.000000	50.711512
543.000000	50.065434
542.000000	49.347600
541.000000	48.649199
540.000000	47.923626
539.000000	47.138431
538.000000	46.369065
537.000000	45.575428
536.000000	44.769743
535.000000	43.943481
534.000000	43.104557
533.000000	42.257893
532.000000	41.414484
531.000000	40.542846
530.000000	39.719486
529.000000	38.927432
528.000000	38.142853
527.000000	37.375685
526.000000	36.620916
525.000000	35.879338
524.000000	35.163614
523.000000	34.459234
522.000000	33.784752
521.000000	33.127067
520.000000	32.515813
519.000000	31.930851
518.000000	31.376757
517.000000	30.832687
516.000000	30.319659
515.000000	29.842245
514.000000	29.357973
513.000000	28.886100
512.000000	28.446587
511.000000	28.021145
510.000000	27.614610
509.000000	27.227508
508.000000	26.851927
507.000000	26.488832
506.000000	26.130135
505.000000	25.790432
504.000000	25.430503
503.000000	25.094757
502.000000	24.769212
501.000000	24.450087
500.000000	24.154176
499.000000	23.871105
498.000000	23.578097
497.000000	23.311031
496.000000	23.037720
495.000000	22.758606
494.000000	22.495145
493.000000	22.211635
492.000000	21.942370
491.000000	21.684185
490.000000	21.431716
489.000000	21.186898
488.000000	20.931703
487.000000	20.679497
486.000000	20.435471
485.000000	20.180979
484.000000	19.930093
483.000000	19.677800
482.000000	19.435708
481.000000	19.173830
480.000000	18.925142
479.000000	18.671442
478.000000	18.433483
477.000000	18.193853
476.000000	17.950090
475.000000	17.720573
474.000000	17.487186
473.000000	17.250634
472.000000	17.020677
471.000000	16.798107
470.000000	16.570085
469.000000	16.333621
468.000000	16.103488
467.000000	15.868518
466.000000	15.649554
465.000000	15.416343
464.000000	15.174427
463.000000	14.940513
462.000000	14.710380
461.000000	14.454833
460.000000	14.180292
459.000000	13.923251
458.000000	13.675530
457.000000	13.420247
456.000000	13.155907
455.000000	12.893413
454.000000	12.613244
453.000000	12.341253
452.000000	12.066360
451.000000	11.785223
450.000000	11.497579
449.000000	11.215300
448.000000	10.941989
447.000000	10.668328
446.000000	10.384817
445.000000	10.110451
444.000000	9.837757
443.000000	9.578693
442.000000	9.326048
441.000000	9.061268
440.000000	8.810821
439.000000	8.572598
438.000000	8.344136
437.000000	8.122006
436.000000	7.907702
435.000000	7.706853
434.000000	7.506443
433.000000	7.316058
432.000000	7.146514
431.000000	6.980488
430.000000	6.823519
429.000000	6.683962
428.000000	6.545900
427.000000	6.427976
426.000000	6.319197
425.000000	6.195645
424.000000	6.082381
423.000000	5.990222
422.000000	5.901757
421.000000	5.820767
420.000000	5.744173
419.000000	5.669954
418.000000	5.608309
417.000000	5.546489
416.000000	5.491088
415.000000	5.446064
414.000000	5.410450
413.000000	5.360061
412.000000	5.311168
411.000000	5.283732
410.000000	5.257350
409.000000	5.229650
408.000000	5.212150
407.000000	5.187528
406.000000	5.161234
405.000000	5.135908
404.000000	5.109263
403.000000	5.087279
402.000000	5.071098
401.000000	5.067405
400.000000	5.060986
399.000000	5.044190
398.000000	5.030735
397.000000	5.017456
396.000000	5.014818
395.000000	5.015082
394.000000	5.003211
393.000000	5.000309
392.000000	4.997583
391.000000	4.989932
390.000000	4.977093
389.000000	4.971025
388.000000	4.971641
387.000000	4.951767
386.000000	4.946315
385.000000	4.942446
384.000000	4.933564
383.000000	4.928024
382.000000	4.916240
381.000000	4.933388
380.000000	4.918966
379.000000	4.905776
378.000000	4.908590
377.000000	4.903138
376.000000	4.819245
375.000000	4.610833
374.000000	4.554817
373.000000	4.648822
372.000000	4.677402
371.000000	4.726647
370.000000	4.906391
369.000000	4.871744
368.000000	4.792600
367.000000	4.806758
366.000000	4.757249
365.000000	4.729373
364.000000	4.782663
363.000000	4.780816
362.000000	4.806406
361.000000	4.772638
360.000000	4.838328
359.000000	4.869018
358.000000	4.823906
357.000000	4.792424
356.000000	4.806054
355.000000	4.818805
354.000000	4.827335
353.000000	4.762437
352.000000	4.744762
351.000000	4.818278
350.000000	4.777299
349.000000	4.808341
348.000000	4.916328
347.000000	4.839910
346.000000	4.805527
345.000000	4.819157
344.000000	4.892673
343.000000	4.813705
342.000000	4.826720
341.000000	4.693055
340.000000	4.788643
339.000000	4.865588
338.000000	4.789083
337.000000	4.800339
336.000000	4.728318
335.000000	4.798844
334.000000	4.838943
333.000000	4.838943
332.000000	4.879043
331.000000	4.903313
330.000000	4.872887
329.000000	4.780289
328.000000	4.911755
327.000000	4.880010
326.000000	4.940951
325.000000	4.982897
324.000000	5.052719
323.000000	5.001452
322.000000	5.041727
321.000000	5.118321
320.000000	5.159827
319.000000	4.975774
318.000000	5.412384
317.000000	5.507973
316.000000	4.930662
315.000000	4.925386
314.000000	4.904896
313.000000	4.868226
312.000000	4.926441
311.000000	4.970762
310.000000	4.916328
309.000000	4.912723
308.000000	4.901203
307.000000	4.919494
306.000000	4.928200
305.000000	4.928552
304.000000	4.891090
303.000000	4.882560
302.000000	4.895047
301.000000	4.951415
300.000000	4.945963
299.000000	4.899092
298.000000	4.971729
297.000000	4.893992
296.000000	4.932773
295.000000	4.959769
294.000000	4.953438
293.000000	4.980259
292.000000	4.962232
291.000000	5.001716
290.000000	4.981754
289.000000	4.979819
288.000000	5.061161
287.000000	5.056149
286.000000	5.063536
285.000000	5.089302
284.000000	5.086839
283.000000	5.109175
282.000000	5.106273
281.000000	5.089126
280.000000	5.110231
279.000000	5.120256
278.000000	5.154112
277.000000	5.105394
276.000000	5.164224
275.000000	5.174513
274.000000	5.197904
273.000000	5.203532
272.000000	5.197641
271.000000	5.154639
270.000000	5.225693
269.000000	5.255767
268.000000	5.294724
267.000000	5.270717
266.000000	5.326997
265.000000	5.305188
264.000000	5.377649
263.000000	5.406493
262.000000	5.409131
261.000000	5.456705
260.000000	5.438238
259.000000	5.472094
258.000000	5.501025
257.000000	5.527846
256.000000	5.519141
255.000000	5.525120
254.000000	5.585270
253.000000	5.613937
252.000000	5.558273
251.000000	5.570232
250.000000	5.625457
