PE UV       SUBTECH     SPECTRUM    ASCII       PEDS        4.00        
   -1
CICIMAUCR0018-7.Sample.ASC
24/04/25
15:44:01.00
24/04/25
15:44:01.00
Vinicio Soto Monge
C. cupreomarginata
250,000000
1
Lambda 1050
1050L1511233
PerkinElmer UV WinLab 6.3.2.0749 / 2.02.05 Lambda 900 UV/VIS/NIR, Aug  7 2015 09:38:08

0
0
3350/servo 860,8/2
0
0
UV/VIS
1
1
1
DoubleDePol,CommonBeamDepol,RBeamAtt,SBeamAtt,60mm sphere, WB InGaAs Detector
0
0
0
0
Program
Program
3350/servo 860,8/2
3350/0,2 860,8/0,2
3350/0,2 860,8/0,2
0
15.00
 
 
 
0
 
860,8
319,2
860,8
Front
100
on
S:100 R:100
0
0
0
0
 
0
 
 
 
0
 
 
0
0
0
0
0
 
 
 
 
0
0


0
0
#HDR
-1
-1
#GR
nm
%R
1.0
0.0
2500,000000
-1,000000
2251
8
71,516000
5,467700
#DATA
2500.000000	7.168900
2499.000000	7.205200
2498.000000	7.247500
2497.000000	7.313200
2496.000000	7.216400
2495.000000	7.169200
2494.000000	7.075200
2493.000000	7.089100
2492.000000	7.086700
2491.000000	7.093200
2490.000000	7.113100
2489.000000	7.063600
2488.000000	7.046100
2487.000000	7.097900
2486.000000	7.034700
2485.000000	6.967000
2484.000000	7.020400
2483.000000	7.000200
2482.000000	6.970400
2481.000000	7.029100
2480.000000	6.954400
2479.000000	6.918100
2478.000000	6.973700
2477.000000	6.964400
2476.000000	7.021500
2475.000000	6.919100
2474.000000	6.998200
2473.000000	6.996800
2472.000000	6.987600
2471.000000	7.014700
2470.000000	6.996500
2469.000000	6.993900
2468.000000	7.006100
2467.000000	6.982800
2466.000000	7.011900
2465.000000	6.980700
2464.000000	7.025700
2463.000000	7.069300
2462.000000	7.069200
2461.000000	7.091400
2460.000000	7.121700
2459.000000	7.157400
2458.000000	7.204900
2457.000000	7.212600
2456.000000	7.260800
2455.000000	7.297400
2454.000000	7.331200
2453.000000	7.408600
2452.000000	7.466100
2451.000000	7.515800
2450.000000	7.569400
2449.000000	7.598900
2448.000000	7.653000
2447.000000	7.745400
2446.000000	7.798500
2445.000000	7.839500
2444.000000	7.904800
2443.000000	7.933700
2442.000000	8.028800
2441.000000	8.071700
2440.000000	8.115600
2439.000000	8.179100
2438.000000	8.230400
2437.000000	8.266200
2436.000000	8.319200
2435.000000	8.361700
2434.000000	8.424900
2433.000000	8.462000
2432.000000	8.494000
2431.000000	8.529200
2430.000000	8.586300
2429.000000	8.613100
2428.000000	8.640600
2427.000000	8.686300
2426.000000	8.717300
2425.000000	8.742200
2424.000000	8.796200
2423.000000	8.816900
2422.000000	8.841000
2421.000000	8.854100
2420.000000	8.865900
2419.000000	8.910100
2418.000000	8.934200
2417.000000	8.939900
2416.000000	8.967400
2415.000000	8.995300
2414.000000	9.021900
2413.000000	9.037300
2412.000000	9.057100
2411.000000	9.098800
2410.000000	9.158500
2409.000000	9.231200
2408.000000	9.296300
2407.000000	9.359700
2406.000000	9.384600
2405.000000	9.411600
2404.000000	9.427700
2403.000000	9.432800
2402.000000	9.467900
2401.000000	9.528400
2400.000000	9.551800
2399.000000	9.581500
2398.000000	9.613900
2397.000000	9.632000
2396.000000	9.686000
2395.000000	9.734500
2394.000000	9.751600
2393.000000	9.769100
2392.000000	9.801000
2391.000000	9.831900
2390.000000	9.838700
2389.000000	9.861500
2388.000000	9.899500
2387.000000	9.904400
2386.000000	9.929000
2385.000000	9.948500
2384.000000	9.939000
2383.000000	9.952000
2382.000000	9.974500
2381.000000	9.960300
2380.000000	9.945800
2379.000000	9.945700
2378.000000	9.948900
2377.000000	9.938100
2376.000000	9.929700
2375.000000	9.926200
2374.000000	9.910700
2373.000000	9.892100
2372.000000	9.878400
2371.000000	9.857300
2370.000000	9.835600
2369.000000	9.813900
2368.000000	9.778300
2367.000000	9.740200
2366.000000	9.707500
2365.000000	9.655600
2364.000000	9.619700
2363.000000	9.575400
2362.000000	9.518200
2361.000000	9.488600
2360.000000	9.442500
2359.000000	9.384800
2358.000000	9.349400
2357.000000	9.322300
2356.000000	9.286200
2355.000000	9.263900
2354.000000	9.247800
2353.000000	9.235700
2352.000000	9.242100
2351.000000	9.247800
2350.000000	9.278800
2349.000000	9.304600
2348.000000	9.334200
2347.000000	9.360300
2346.000000	9.385900
2345.000000	9.437300
2344.000000	9.478700
2343.000000	9.505300
2342.000000	9.550300
2341.000000	9.573200
2340.000000	9.609400
2339.000000	9.640800
2338.000000	9.642600
2337.000000	9.652500
2336.000000	9.649700
2335.000000	9.665300
2334.000000	9.662100
2333.000000	9.632800
2332.000000	9.607600
2331.000000	9.585700
2330.000000	9.553300
2329.000000	9.512200
2328.000000	9.470600
2327.000000	9.421400
2326.000000	9.375900
2325.000000	9.318400
2324.000000	9.259500
2323.000000	9.185500
2322.000000	9.134600
2321.000000	9.063300
2320.000000	8.971000
2319.000000	8.896500
2318.000000	8.820200
2317.000000	8.746600
2316.000000	8.662700
2315.000000	8.581700
2314.000000	8.486800
2313.000000	8.411400
2312.000000	8.347600
2311.000000	8.303100
2310.000000	8.233000
2309.000000	8.197200
2308.000000	8.183000
2307.000000	8.145500
2306.000000	8.150000
2305.000000	8.158700
2304.000000	8.170900
2303.000000	8.211100
2302.000000	8.258500
2301.000000	8.321900
2300.000000	8.395900
2299.000000	8.446100
2298.000000	8.531300
2297.000000	8.611200
2296.000000	8.680500
2295.000000	8.735100
2294.000000	8.812700
2293.000000	8.863700
2292.000000	8.916600
2291.000000	8.965400
2290.000000	8.970500
2289.000000	8.997800
2288.000000	9.003800
2287.000000	9.001200
2286.000000	9.002000
2285.000000	8.987500
2284.000000	8.954200
2283.000000	8.937500
2282.000000	8.909800
2281.000000	8.862000
2280.000000	8.835200
2279.000000	8.804600
2278.000000	8.771400
2277.000000	8.737300
2276.000000	8.697300
2275.000000	8.694500
2274.000000	8.685000
2273.000000	8.678500
2272.000000	8.682400
2271.000000	8.688300
2270.000000	8.723900
2269.000000	8.749400
2268.000000	8.802900
2267.000000	8.894500
2266.000000	8.962400
2265.000000	9.058400
2264.000000	9.177100
2263.000000	9.308200
2262.000000	9.472700
2261.000000	9.655200
2260.000000	9.848900
2259.000000	10.036900
2258.000000	10.245400
2257.000000	10.495700
2256.000000	10.691000
2255.000000	10.906000
2254.000000	11.138200
2253.000000	11.367100
2252.000000	11.560600
2251.000000	11.751800
2250.000000	11.959000
2249.000000	12.144900
2248.000000	12.333300
2247.000000	12.474800
2246.000000	12.613200
2245.000000	12.769500
2244.000000	12.932200
2243.000000	13.043000
2242.000000	13.166500
2241.000000	13.272400
2240.000000	13.397400
2239.000000	13.477100
2238.000000	13.559900
2237.000000	13.658300
2236.000000	13.732500
2235.000000	13.827700
2234.000000	13.870100
2233.000000	13.921300
2232.000000	13.980100
2231.000000	14.028600
2230.000000	14.051400
2229.000000	14.092000
2228.000000	14.104800
2227.000000	14.111400
2226.000000	14.137300
2225.000000	14.117300
2224.000000	14.117100
2223.000000	14.117400
2222.000000	14.091100
2221.000000	14.083300
2220.000000	14.080600
2219.000000	14.077100
2218.000000	14.055500
2217.000000	14.020500
2216.000000	13.991600
2215.000000	13.969800
2214.000000	13.935300
2213.000000	13.914100
2212.000000	13.890100
2211.000000	13.882000
2210.000000	13.860700
2209.000000	13.811500
2208.000000	13.797000
2207.000000	13.788000
2206.000000	13.781300
2205.000000	13.752700
2204.000000	13.756800
2203.000000	13.740000
2202.000000	13.728000
2201.000000	13.716100
2200.000000	13.697700
2199.000000	13.667700
2198.000000	13.683200
2197.000000	13.659400
2196.000000	13.657600
2195.000000	13.667300
2194.000000	13.668600
2193.000000	13.651700
2192.000000	13.638100
2191.000000	13.617700
2190.000000	13.599800
2189.000000	13.599000
2188.000000	13.601300
2187.000000	13.586900
2186.000000	13.548800
2185.000000	13.551100
2184.000000	13.526900
2183.000000	13.499900
2182.000000	13.480200
2181.000000	13.477300
2180.000000	13.464500
2179.000000	13.468900
2178.000000	13.446500
2177.000000	13.440700
2176.000000	13.421900
2175.000000	13.425700
2174.000000	13.437600
2173.000000	13.428100
2172.000000	13.431900
2171.000000	13.447700
2170.000000	13.451900
2169.000000	13.454100
2168.000000	13.467600
2167.000000	13.482900
2166.000000	13.491000
2165.000000	13.505400
2164.000000	13.520300
2163.000000	13.540700
2162.000000	13.561200
2161.000000	13.614700
2160.000000	13.640200
2159.000000	13.635100
2158.000000	13.671600
2157.000000	13.684600
2156.000000	13.719000
2155.000000	13.763700
2154.000000	13.803400
2153.000000	13.834200
2152.000000	13.867900
2151.000000	13.898500
2150.000000	13.930100
2149.000000	13.979300
2148.000000	14.012000
2147.000000	14.047200
2146.000000	14.084100
2145.000000	14.121400
2144.000000	14.153000
2143.000000	14.176300
2142.000000	14.203800
2141.000000	14.237800
2140.000000	14.257500
2139.000000	14.295800
2138.000000	14.314500
2137.000000	14.339600
2136.000000	14.365200
2135.000000	14.379100
2134.000000	14.389700
2133.000000	14.399600
2132.000000	14.407200
2131.000000	14.418100
2130.000000	14.423500
2129.000000	14.429100
2128.000000	14.427900
2127.000000	14.436700
2126.000000	14.432400
2125.000000	14.428800
2124.000000	14.420500
2123.000000	14.409500
2122.000000	14.391100
2121.000000	14.384700
2120.000000	14.373300
2119.000000	14.340600
2118.000000	14.324300
2117.000000	14.299600
2116.000000	14.262000
2115.000000	14.249100
2114.000000	14.231000
2113.000000	14.195700
2112.000000	14.167000
2111.000000	14.144800
2110.000000	14.121300
2109.000000	14.092400
2108.000000	14.070500
2107.000000	14.054200
2106.000000	14.011900
2105.000000	13.980700
2104.000000	13.957800
2103.000000	13.922200
2102.000000	13.902600
2101.000000	13.882600
2100.000000	13.851400
2099.000000	13.816200
2098.000000	13.792700
2097.000000	13.781100
2096.000000	13.752800
2095.000000	13.722100
2094.000000	13.712600
2093.000000	13.689600
2092.000000	13.663200
2091.000000	13.663300
2090.000000	13.663000
2089.000000	13.637900
2088.000000	13.621000
2087.000000	13.606300
2086.000000	13.587400
2085.000000	13.572600
2084.000000	13.559600
2083.000000	13.535900
2082.000000	13.496700
2081.000000	13.473100
2080.000000	13.458200
2079.000000	13.444800
2078.000000	13.420900
2077.000000	13.387600
2076.000000	13.360200
2075.000000	13.332600
2074.000000	13.298900
2073.000000	13.259000
2072.000000	13.236400
2071.000000	13.205100
2070.000000	13.163500
2069.000000	13.128200
2068.000000	13.112200
2067.000000	13.085400
2066.000000	13.056400
2065.000000	13.030100
2064.000000	12.999700
2063.000000	12.969700
2062.000000	12.946100
2061.000000	12.937000
2060.000000	12.929400
2059.000000	12.921200
2058.000000	12.930900
2057.000000	12.931000
2056.000000	12.950000
2055.000000	12.964000
2054.000000	13.001700
2053.000000	13.054300
2052.000000	13.116200
2051.000000	13.185900
2050.000000	13.243400
2049.000000	13.317000
2048.000000	13.393700
2047.000000	13.524000
2046.000000	13.625700
2045.000000	13.731800
2044.000000	13.838200
2043.000000	13.951500
2042.000000	14.046000
2041.000000	14.167300
2040.000000	14.283900
2039.000000	14.391500
2038.000000	14.494500
2037.000000	14.596800
2036.000000	14.700300
2035.000000	14.782300
2034.000000	14.897900
2033.000000	14.968400
2032.000000	15.057100
2031.000000	15.131900
2030.000000	15.201400
2029.000000	15.262900
2028.000000	15.332600
2027.000000	15.396000
2026.000000	15.461000
2025.000000	15.520200
2024.000000	15.557600
2023.000000	15.599800
2022.000000	15.650300
2021.000000	15.721100
2020.000000	15.746600
2019.000000	15.793100
2018.000000	15.844500
2017.000000	15.869400
2016.000000	15.926700
2015.000000	15.938600
2014.000000	15.940100
2013.000000	15.967300
2012.000000	15.972600
2011.000000	15.988300
2010.000000	15.999400
2009.000000	16.010000
2008.000000	16.006100
2007.000000	15.999000
2006.000000	15.968300
2005.000000	15.967600
2004.000000	15.953800
2003.000000	15.953400
2002.000000	15.919700
2001.000000	15.881400
2000.000000	15.865000
1999.000000	15.846800
1998.000000	15.799300
1997.000000	15.744800
1996.000000	15.695300
1995.000000	15.677100
1994.000000	15.629700
1993.000000	15.569700
1992.000000	15.531300
1991.000000	15.477500
1990.000000	15.421900
1989.000000	15.371700
1988.000000	15.290600
1987.000000	15.235000
1986.000000	15.180800
1985.000000	15.118400
1984.000000	15.040900
1983.000000	14.984700
1982.000000	14.911900
1981.000000	14.854200
1980.000000	14.789400
1979.000000	14.713300
1978.000000	14.651400
1977.000000	14.594600
1976.000000	14.533100
1975.000000	14.470700
1974.000000	14.402800
1973.000000	14.318100
1972.000000	14.289700
1971.000000	14.214200
1970.000000	14.166900
1969.000000	14.107200
1968.000000	14.071900
1967.000000	14.020200
1966.000000	13.965900
1965.000000	13.894800
1964.000000	13.834300
1963.000000	13.796500
1962.000000	13.738200
1961.000000	13.669900
1960.000000	13.629500
1959.000000	13.589900
1958.000000	13.526400
1957.000000	13.481400
1956.000000	13.419100
1955.000000	13.374800
1954.000000	13.325900
1953.000000	13.257500
1952.000000	13.216600
1951.000000	13.169700
1950.000000	13.144100
1949.000000	13.093100
1948.000000	13.079400
1947.000000	13.029900
1946.000000	12.982700
1945.000000	12.958400
1944.000000	12.938700
1943.000000	12.907000
1942.000000	12.921900
1941.000000	12.916400
1940.000000	12.907900
1939.000000	12.898900
1938.000000	12.887900
1937.000000	12.907500
1936.000000	12.945700
1935.000000	12.955100
1934.000000	13.002900
1933.000000	13.022600
1932.000000	13.082000
1931.000000	13.138700
1930.000000	13.197800
1929.000000	13.266900
1928.000000	13.355100
1927.000000	13.434900
1926.000000	13.527400
1925.000000	13.648900
1924.000000	13.729900
1923.000000	13.853800
1922.000000	13.968100
1921.000000	14.121600
1920.000000	14.276800
1919.000000	14.388400
1918.000000	14.560800
1917.000000	14.737300
1916.000000	14.882800
1915.000000	15.059300
1914.000000	15.270600
1913.000000	15.440800
1912.000000	15.634200
1911.000000	15.820500
1910.000000	16.021900
1909.000000	16.235600
1908.000000	16.455100
1907.000000	16.691700
1906.000000	16.921800
1905.000000	17.164300
1904.000000	17.411200
1903.000000	17.654800
1902.000000	17.900900
1901.000000	18.175700
1900.000000	18.465100
1899.000000	18.736700
1898.000000	19.004000
1897.000000	19.297900
1896.000000	19.576400
1895.000000	19.869300
1894.000000	20.157600
1893.000000	20.456400
1892.000000	20.787700
1891.000000	21.111700
1890.000000	21.446800
1889.000000	21.769700
1888.000000	22.135600
1887.000000	22.527000
1886.000000	22.954800
1885.000000	23.408500
1884.000000	23.894600
1883.000000	24.410100
1882.000000	24.919200
1881.000000	25.448300
1880.000000	25.924400
1879.000000	26.411900
1878.000000	26.906800
1877.000000	27.353300
1876.000000	27.755300
1875.000000	28.149200
1874.000000	28.515700
1873.000000	28.851900
1872.000000	29.151700
1871.000000	29.425700
1870.000000	29.653200
1869.000000	29.872900
1868.000000	30.034500
1867.000000	30.162400
1866.000000	30.268800
1865.000000	30.371000
1864.000000	30.464400
1863.000000	30.551200
1862.000000	30.636200
1861.000000	30.711200
1860.000000	30.757800
1859.000000	30.780700
1858.000000	30.797800
1857.000000	30.786300
1856.000000	30.771900
1855.000000	30.763200
1854.000000	30.734200
1853.000000	30.660800
1852.000000	30.614500
1851.000000	30.595200
1850.000000	30.574600
1849.000000	30.536700
1848.000000	30.452600
1847.000000	30.357400
1846.000000	30.252800
1845.000000	30.175200
1844.000000	30.157300
1843.000000	30.166400
1842.000000	30.141500
1841.000000	30.092300
1840.000000	30.033800
1839.000000	29.967000
1838.000000	29.917400
1837.000000	29.854200
1836.000000	29.766900
1835.000000	29.670500
1834.000000	29.575800
1833.000000	29.498900
1832.000000	29.445700
1831.000000	29.371400
1830.000000	29.271100
1829.000000	29.166100
1828.000000	29.058500
1827.000000	28.977000
1826.000000	28.902400
1825.000000	28.830100
1824.000000	28.774300
1823.000000	28.766600
1822.000000	28.762800
1821.000000	28.723500
1820.000000	28.672300
1819.000000	28.622300
1818.000000	28.591900
1817.000000	28.592400
1816.000000	28.598300
1815.000000	28.575100
1814.000000	28.572600
1813.000000	28.570600
1812.000000	28.541200
1811.000000	28.490400
1810.000000	28.439100
1809.000000	28.402700
1808.000000	28.374100
1807.000000	28.335300
1806.000000	28.255000
1805.000000	28.188500
1804.000000	28.136000
1803.000000	28.111600
1802.000000	28.078900
1801.000000	27.999600
1800.000000	27.926800
1799.000000	27.867400
1798.000000	27.819300
1797.000000	27.765400
1796.000000	27.740100
1795.000000	27.677900
1794.000000	27.615700
1793.000000	27.558700
1792.000000	27.501400
1791.000000	27.441100
1790.000000	27.398200
1789.000000	27.332500
1788.000000	27.251100
1787.000000	27.184300
1786.000000	27.106300
1785.000000	27.029000
1784.000000	26.939100
1783.000000	26.852900
1782.000000	26.772800
1781.000000	26.693200
1780.000000	26.593900
1779.000000	26.501100
1778.000000	26.406200
1777.000000	26.293200
1776.000000	26.186400
1775.000000	26.044400
1774.000000	25.906600
1773.000000	25.780300
1772.000000	25.632100
1771.000000	25.487700
1770.000000	25.359100
1769.000000	25.214000
1768.000000	25.076200
1767.000000	24.964300
1766.000000	24.873100
1765.000000	24.805300
1764.000000	24.777400
1763.000000	24.772600
1762.000000	24.786600
1761.000000	24.813800
1760.000000	24.882400
1759.000000	24.954900
1758.000000	25.028200
1757.000000	25.091200
1756.000000	25.125000
1755.000000	25.175000
1754.000000	25.196800
1753.000000	25.183100
1752.000000	25.184900
1751.000000	25.135600
1750.000000	25.083200
1749.000000	25.011000
1748.000000	24.928900
1747.000000	24.818400
1746.000000	24.695800
1745.000000	24.537000
1744.000000	24.378800
1743.000000	24.180400
1742.000000	23.964100
1741.000000	23.726100
1740.000000	23.494600
1739.000000	23.246200
1738.000000	23.012200
1737.000000	22.842400
1736.000000	22.708300
1735.000000	22.610300
1734.000000	22.592700
1733.000000	22.624300
1732.000000	22.678000
1731.000000	22.783200
1730.000000	22.890500
1729.000000	23.006200
1728.000000	23.135400
1727.000000	23.263800
1726.000000	23.358600
1725.000000	23.430100
1724.000000	23.482700
1723.000000	23.551400
1722.000000	23.576200
1721.000000	23.593500
1720.000000	23.639000
1719.000000	23.652700
1718.000000	23.729600
1717.000000	23.799200
1716.000000	23.856600
1715.000000	23.939900
1714.000000	24.029800
1713.000000	24.098700
1712.000000	24.141900
1711.000000	24.184000
1710.000000	24.209200
1709.000000	24.187200
1708.000000	24.183700
1707.000000	24.154500
1706.000000	24.117700
1705.000000	24.054800
1704.000000	23.974100
1703.000000	23.899100
1702.000000	23.774300
1701.000000	23.616600
1700.000000	23.439000
1699.000000	23.276500
1698.000000	23.126600
1697.000000	23.018400
1696.000000	22.951200
1695.000000	22.953300
1694.000000	23.025800
1693.000000	23.148500
1692.000000	23.309200
1691.000000	23.474000
1690.000000	23.632600
1689.000000	23.765300
1688.000000	23.842600
1687.000000	23.864400
1686.000000	23.869000
1685.000000	23.917700
1684.000000	24.063300
1683.000000	24.335100
1682.000000	24.717300
1681.000000	25.209400
1680.000000	25.786500
1679.000000	26.378700
1678.000000	26.960800
1677.000000	27.520400
1676.000000	28.008500
1675.000000	28.438000
1674.000000	28.825500
1673.000000	29.125200
1672.000000	29.403400
1671.000000	29.639200
1670.000000	29.866600
1669.000000	30.051200
1668.000000	30.216800
1667.000000	30.359000
1666.000000	30.484700
1665.000000	30.581000
1664.000000	30.667900
1663.000000	30.718100
1662.000000	30.813700
1661.000000	30.872900
1660.000000	30.884300
1659.000000	30.929100
1658.000000	30.963700
1657.000000	30.978400
1656.000000	30.995300
1655.000000	30.993000
1654.000000	30.975300
1653.000000	30.951300
1652.000000	30.921200
1651.000000	30.902200
1650.000000	30.869800
1649.000000	30.812100
1648.000000	30.762000
1647.000000	30.706500
1646.000000	30.633600
1645.000000	30.583100
1644.000000	30.498300
1643.000000	30.439100
1642.000000	30.361000
1641.000000	30.300700
1640.000000	30.249900
1639.000000	30.160700
1638.000000	30.083100
1637.000000	30.000000
1636.000000	29.913900
1635.000000	29.840000
1634.000000	29.752700
1633.000000	29.669600
1632.000000	29.578500
1631.000000	29.484300
1630.000000	29.397700
1629.000000	29.305900
1628.000000	29.200700
1627.000000	29.116400
1626.000000	29.009300
1625.000000	28.913500
1624.000000	28.824400
1623.000000	28.729800
1622.000000	28.632200
1621.000000	28.550300
1620.000000	28.457800
1619.000000	28.368800
1618.000000	28.274400
1617.000000	28.204000
1616.000000	28.117500
1615.000000	28.026900
1614.000000	27.943200
1613.000000	27.861400
1612.000000	27.778900
1611.000000	27.707000
1610.000000	27.633700
1609.000000	27.539400
1608.000000	27.471000
1607.000000	27.405600
1606.000000	27.318400
1605.000000	27.234800
1604.000000	27.154100
1603.000000	27.071500
1602.000000	26.994200
1601.000000	26.926100
1600.000000	26.870800
1599.000000	26.795700
1598.000000	26.718800
1597.000000	26.647200
1596.000000	26.587400
1595.000000	26.537900
1594.000000	26.487200
1593.000000	26.419700
1592.000000	26.382700
1591.000000	26.344200
1590.000000	26.286700
1589.000000	26.243500
1588.000000	26.210100
1587.000000	26.173400
1586.000000	26.138400
1585.000000	26.116800
1584.000000	26.075000
1583.000000	26.035100
1582.000000	26.021400
1581.000000	25.997500
1580.000000	25.986200
1579.000000	25.990400
1578.000000	25.970900
1577.000000	25.963400
1576.000000	25.971400
1575.000000	25.986700
1574.000000	26.010100
1573.000000	26.023900
1572.000000	26.051600
1571.000000	26.075800
1570.000000	26.091900
1569.000000	26.123100
1568.000000	26.162800
1567.000000	26.206300
1566.000000	26.225200
1565.000000	26.257300
1564.000000	26.300500
1563.000000	26.320300
1562.000000	26.351600
1561.000000	26.388200
1560.000000	26.419000
1559.000000	26.432100
1558.000000	26.441600
1557.000000	26.460500
1556.000000	26.468500
1555.000000	26.468200
1554.000000	26.469100
1553.000000	26.465500
1552.000000	26.458900
1551.000000	26.453200
1550.000000	26.442800
1549.000000	26.430900
1548.000000	26.413800
1547.000000	26.410800
1546.000000	26.398200
1545.000000	26.388300
1544.000000	26.382300
1543.000000	26.381900
1542.000000	26.389600
1541.000000	26.379800
1540.000000	26.373900
1539.000000	26.383200
1538.000000	26.368400
1537.000000	26.381700
1536.000000	26.381700
1535.000000	26.359200
1534.000000	26.347400
1533.000000	26.335300
1532.000000	26.322000
1531.000000	26.307000
1530.000000	26.296000
1529.000000	26.282700
1528.000000	26.245800
1527.000000	26.230100
1526.000000	26.210300
1525.000000	26.176400
1524.000000	26.139900
1523.000000	26.118100
1522.000000	26.098200
1521.000000	26.059100
1520.000000	26.029300
1519.000000	25.984400
1518.000000	25.940700
1517.000000	25.917500
1516.000000	25.880300
1515.000000	25.836400
1514.000000	25.800600
1513.000000	25.767500
1512.000000	25.719700
1511.000000	25.689600
1510.000000	25.636400
1509.000000	25.615300
1508.000000	25.577800
1507.000000	25.531700
1506.000000	25.482100
1505.000000	25.431600
1504.000000	25.412000
1503.000000	25.363300
1502.000000	25.327300
1501.000000	25.288000
1500.000000	25.258500
1499.000000	25.229900
1498.000000	25.202300
1497.000000	25.177000
1496.000000	25.147700
1495.000000	25.128600
1494.000000	25.107400
1493.000000	25.107700
1492.000000	25.090600
1491.000000	25.072000
1490.000000	25.084300
1489.000000	25.084000
1488.000000	25.074800
1487.000000	25.059900
1486.000000	25.048000
1485.000000	25.042000
1484.000000	25.052000
1483.000000	25.053200
1482.000000	25.067700
1481.000000	25.064300
1480.000000	25.077900
1479.000000	25.092800
1478.000000	25.102200
1477.000000	25.117100
1476.000000	25.127500
1475.000000	25.155000
1474.000000	25.190600
1473.000000	25.228300
1472.000000	25.258800
1471.000000	25.288600
1470.000000	25.302100
1469.000000	25.308900
1468.000000	25.323200
1467.000000	25.374400
1466.000000	25.419200
1465.000000	25.454400
1464.000000	25.489300
1463.000000	25.552600
1462.000000	25.607700
1461.000000	25.675700
1460.000000	25.732200
1459.000000	25.794900
1458.000000	25.892300
1457.000000	25.987800
1456.000000	26.085600
1455.000000	26.176400
1454.000000	26.253000
1453.000000	26.378200
1452.000000	26.502900
1451.000000	26.610500
1450.000000	26.721900
1449.000000	26.803600
1448.000000	26.936700
1447.000000	27.084200
1446.000000	27.243300
1445.000000	27.349700
1444.000000	27.468600
1443.000000	27.607200
1442.000000	27.756400
1441.000000	27.906000
1440.000000	28.052600
1439.000000	28.189000
1438.000000	28.317000
1437.000000	28.471100
1436.000000	28.595400
1435.000000	28.762800
1434.000000	28.935100
1433.000000	29.114000
1432.000000	29.262500
1431.000000	29.419600
1430.000000	29.572300
1429.000000	29.800400
1428.000000	30.010600
1427.000000	30.222700
1426.000000	30.451800
1425.000000	30.687300
1424.000000	30.956200
1423.000000	31.208800
1422.000000	31.442900
1421.000000	31.734600
1420.000000	32.021000
1419.000000	32.283200
1418.000000	32.524400
1417.000000	32.755700
1416.000000	33.056600
1415.000000	33.409600
1414.000000	33.661400
1413.000000	33.876900
1412.000000	34.141400
1411.000000	34.482100
1410.000000	34.886800
1409.000000	35.238800
1408.000000	35.665700
1407.000000	36.050700
1406.000000	36.484200
1405.000000	36.903000
1404.000000	37.280000
1403.000000	37.654600
1402.000000	38.064900
1401.000000	38.527200
1400.000000	38.901900
1399.000000	39.116900
1398.000000	39.335300
1397.000000	39.648100
1396.000000	39.972100
1395.000000	40.183300
1394.000000	40.334100
1393.000000	40.528300
1392.000000	40.761000
1391.000000	40.958700
1390.000000	41.172200
1389.000000	41.493600
1388.000000	41.859400
1387.000000	42.192100
1386.000000	42.575000
1385.000000	42.999600
1384.000000	43.452400
1383.000000	43.880000
1382.000000	44.228800
1381.000000	44.487800
1380.000000	44.612400
1379.000000	44.725100
1378.000000	44.812300
1377.000000	44.935400
1376.000000	45.080900
1375.000000	45.282000
1374.000000	45.538700
1373.000000	45.854900
1372.000000	46.241800
1371.000000	46.573000
1370.000000	46.867200
1369.000000	47.165500
1368.000000	47.453400
1367.000000	47.671400
1366.000000	47.854100
1365.000000	48.055000
1364.000000	48.226300
1363.000000	48.393200
1362.000000	48.545800
1361.000000	48.658000
1360.000000	48.658200
1359.000000	48.754600
1358.000000	48.863900
1357.000000	49.031000
1356.000000	49.321800
1355.000000	49.729600
1354.000000	50.159000
1353.000000	50.579500
1352.000000	51.085000
1351.000000	51.558700
1350.000000	51.977100
1349.000000	52.365800
1348.000000	52.724800
1347.000000	53.039800
1346.000000	53.333100
1345.000000	53.642200
1344.000000	53.937000
1343.000000	54.192900
1342.000000	54.448100
1341.000000	54.698000
1340.000000	54.920100
1339.000000	55.126600
1338.000000	55.329300
1337.000000	55.529600
1336.000000	55.722700
1335.000000	55.908700
1334.000000	56.068400
1333.000000	56.218400
1332.000000	56.371900
1331.000000	56.530700
1330.000000	56.676700
1329.000000	56.799100
1328.000000	56.910400
1327.000000	57.023600
1326.000000	57.131500
1325.000000	57.240100
1324.000000	57.334900
1323.000000	57.419600
1322.000000	57.510100
1321.000000	57.592700
1320.000000	57.671000
1319.000000	57.750100
1318.000000	57.829700
1317.000000	57.902700
1316.000000	57.952600
1315.000000	58.025300
1314.000000	58.098000
1313.000000	58.158000
1312.000000	58.212300
1311.000000	58.266800
1310.000000	58.313800
1309.000000	58.365300
1308.000000	58.394600
1307.000000	58.421300
1306.000000	58.454800
1305.000000	58.479500
1304.000000	58.500500
1303.000000	58.523100
1302.000000	58.528900
1301.000000	58.534700
1300.000000	58.550000
1299.000000	58.554800
1298.000000	58.564000
1297.000000	58.572200
1296.000000	58.564400
1295.000000	58.566400
1294.000000	58.571200
1293.000000	58.564100
1292.000000	58.546300
1291.000000	58.520300
1290.000000	58.492600
1289.000000	58.476100
1288.000000	58.442800
1287.000000	58.404300
1286.000000	58.371700
1285.000000	58.325700
1284.000000	58.285000
1283.000000	58.247400
1282.000000	58.202900
1281.000000	58.156800
1280.000000	58.119100
1279.000000	58.085000
1278.000000	58.047900
1277.000000	58.023400
1276.000000	57.989000
1275.000000	57.972200
1274.000000	57.958600
1273.000000	57.943600
1272.000000	57.927100
1271.000000	57.912300
1270.000000	57.902600
1269.000000	57.876500
1268.000000	57.861900
1267.000000	57.841200
1266.000000	57.813100
1265.000000	57.788900
1264.000000	57.753600
1263.000000	57.733500
1262.000000	57.713100
1261.000000	57.690500
1260.000000	57.660400
1259.000000	57.630500
1258.000000	57.604800
1257.000000	57.569500
1256.000000	57.517000
1255.000000	57.469900
1254.000000	57.433000
1253.000000	57.381800
1252.000000	57.309500
1251.000000	57.244100
1250.000000	57.183600
1249.000000	57.103600
1248.000000	57.031600
1247.000000	56.915600
1246.000000	56.815300
1245.000000	56.714500
1244.000000	56.602500
1243.000000	56.490200
1242.000000	56.350900
1241.000000	56.244800
1240.000000	56.122400
1239.000000	55.977400
1238.000000	55.852300
1237.000000	55.711700
1236.000000	55.566500
1235.000000	55.423300
1234.000000	55.284000
1233.000000	55.134100
1232.000000	54.972700
1231.000000	54.810500
1230.000000	54.668700
1229.000000	54.506900
1228.000000	54.338200
1227.000000	54.177400
1226.000000	54.017500
1225.000000	53.837400
1224.000000	53.685200
1223.000000	53.520400
1222.000000	53.357000
1221.000000	53.210800
1220.000000	53.063200
1219.000000	52.912200
1218.000000	52.767500
1217.000000	52.629300
1216.000000	52.509500
1215.000000	52.372900
1214.000000	52.257400
1213.000000	52.157500
1212.000000	52.019800
1211.000000	51.930900
1210.000000	51.815800
1209.000000	51.712000
1208.000000	51.638900
1207.000000	51.551400
1206.000000	51.498600
1205.000000	51.451800
1204.000000	51.416300
1203.000000	51.370200
1202.000000	51.330700
1201.000000	51.291800
1200.000000	51.234500
1199.000000	51.150000
1198.000000	51.039400
1197.000000	50.892000
1196.000000	50.704700
1195.000000	50.460900
1194.000000	50.133400
1193.000000	49.790200
1192.000000	49.390500
1191.000000	48.965200
1190.000000	48.579600
1189.000000	48.255200
1188.000000	48.025100
1187.000000	47.928700
1186.000000	47.927100
1185.000000	48.067900
1184.000000	48.334200
1183.000000	48.732600
1182.000000	49.154500
1181.000000	49.645700
1180.000000	50.132800
1179.000000	50.584100
1178.000000	50.987500
1177.000000	51.324000
1176.000000	51.668500
1175.000000	51.956600
1174.000000	52.241800
1173.000000	52.567000
1172.000000	52.889700
1171.000000	53.224300
1170.000000	53.562400
1169.000000	53.910700
1168.000000	54.231800
1167.000000	54.553200
1166.000000	54.925800
1165.000000	55.268200
1164.000000	55.627800
1163.000000	55.958900
1162.000000	56.287900
1161.000000	56.621300
1160.000000	56.935200
1159.000000	57.247200
1158.000000	57.516700
1157.000000	57.773500
1156.000000	57.988300
1155.000000	58.136900
1154.000000	58.262500
1153.000000	58.347600
1152.000000	58.403800
1151.000000	58.411100
1150.000000	58.430500
1149.000000	58.453800
1148.000000	58.474500
1147.000000	58.544900
1146.000000	58.661200
1145.000000	58.835000
1144.000000	59.049300
1143.000000	59.288500
1142.000000	59.559600
1141.000000	59.843800
1140.000000	60.099000
1139.000000	60.383200
1138.000000	60.685900
1137.000000	61.004700
1136.000000	61.332700
1135.000000	61.643500
1134.000000	61.927800
1133.000000	62.122300
1132.000000	62.315700
1131.000000	62.534300
1130.000000	62.739700
1129.000000	62.911300
1128.000000	63.033200
1127.000000	63.132400
1126.000000	63.219400
1125.000000	63.300600
1124.000000	63.381600
1123.000000	63.438900
1122.000000	63.488500
1121.000000	63.515300
1120.000000	63.560700
1119.000000	63.578700
1118.000000	63.585400
1117.000000	63.595900
1116.000000	63.606900
1115.000000	63.593800
1114.000000	63.587800
1113.000000	63.580100
1112.000000	63.595100
1111.000000	63.604600
1110.000000	63.605800
1109.000000	63.599800
1108.000000	63.596500
1107.000000	63.613700
1106.000000	63.620600
1105.000000	63.615900
1104.000000	63.611000
1103.000000	63.595500
1102.000000	63.608700
1101.000000	63.592200
1100.000000	63.577000
1099.000000	63.567400
1098.000000	63.568600
1097.000000	63.545200
1096.000000	63.525200
1095.000000	63.506400
1094.000000	63.499200
1093.000000	63.477500
1092.000000	63.466200
1091.000000	63.427100
1090.000000	63.398200
1089.000000	63.373000
1088.000000	63.365000
1087.000000	63.333200
1086.000000	63.300300
1085.000000	63.259000
1084.000000	63.218800
1083.000000	63.199600
1082.000000	63.156700
1081.000000	63.115400
1080.000000	63.080900
1079.000000	63.041300
1078.000000	63.011000
1077.000000	62.981200
1076.000000	62.953600
1075.000000	62.911900
1074.000000	62.862700
1073.000000	62.824400
1072.000000	62.793600
1071.000000	62.752500
1070.000000	62.718700
1069.000000	62.690000
1068.000000	62.634500
1067.000000	62.596400
1066.000000	62.555400
1065.000000	62.513900
1064.000000	62.481600
1063.000000	62.438800
1062.000000	62.390500
1061.000000	62.356500
1060.000000	62.299700
1059.000000	62.255700
1058.000000	62.206000
1057.000000	62.150000
1056.000000	62.116500
1055.000000	62.071000
1054.000000	62.017000
1053.000000	61.973400
1052.000000	61.925300
1051.000000	61.900900
1050.000000	61.884900
1049.000000	61.847600
1048.000000	61.820000
1047.000000	61.793200
1046.000000	61.765800
1045.000000	61.737900
1044.000000	61.713800
1043.000000	61.704600
1042.000000	61.684900
1041.000000	61.666000
1040.000000	61.642900
1039.000000	61.616700
1038.000000	61.595500
1037.000000	61.578000
1036.000000	61.570700
1035.000000	61.560400
1034.000000	61.544400
1033.000000	61.507000
1032.000000	61.477100
1031.000000	61.465100
1030.000000	61.450400
1029.000000	61.425800
1028.000000	61.401900
1027.000000	61.394400
1026.000000	61.377200
1025.000000	61.342000
1024.000000	61.326500
1023.000000	61.315500
1022.000000	61.315000
1021.000000	61.304800
1020.000000	61.283600
1019.000000	61.287800
1018.000000	61.288800
1017.000000	61.295300
1016.000000	61.307600
1015.000000	61.324200
1014.000000	61.352300
1013.000000	61.382400
1012.000000	61.417500
1011.000000	61.452400
1010.000000	61.487600
1009.000000	61.536000
1008.000000	61.590900
1007.000000	61.635500
1006.000000	61.680000
1005.000000	61.722100
1004.000000	61.757600
1003.000000	61.802300
1002.000000	61.832400
1001.000000	61.864000
1000.000000	61.905900
999.000000	61.920000
998.000000	61.947200
997.000000	61.966300
996.000000	61.996400
995.000000	62.032500
994.000000	62.045900
993.000000	62.051900
992.000000	62.081400
991.000000	62.102600
990.000000	62.131200
989.000000	62.150000
988.000000	62.153900
987.000000	62.179400
986.000000	62.193100
985.000000	62.213100
984.000000	62.220600
983.000000	62.253900
982.000000	62.287600
981.000000	62.291000
980.000000	62.291300
979.000000	62.306400
978.000000	62.303000
977.000000	62.322500
976.000000	62.327100
975.000000	62.351800
974.000000	62.365200
973.000000	62.400500
972.000000	62.403100
971.000000	62.418200
970.000000	62.461000
969.000000	62.496000
968.000000	62.526700
967.000000	62.561300
966.000000	62.594300
965.000000	62.656600
964.000000	62.725200
963.000000	62.782400
962.000000	62.841100
961.000000	62.893200
960.000000	62.975500
959.000000	63.057600
958.000000	63.116400
957.000000	63.193300
956.000000	63.267400
955.000000	63.355600
954.000000	63.413000
953.000000	63.484600
952.000000	63.573800
951.000000	63.659800
950.000000	63.718400
949.000000	63.809700
948.000000	63.869200
947.000000	63.966600
946.000000	64.043300
945.000000	64.086200
944.000000	64.159100
943.000000	64.263300
942.000000	64.320400
941.000000	64.363600
940.000000	64.448300
939.000000	64.488900
938.000000	64.543900
937.000000	64.592000
936.000000	64.650400
935.000000	64.699400
934.000000	64.794200
933.000000	64.819400
932.000000	64.841800
931.000000	64.881700
930.000000	64.955900
929.000000	65.002700
928.000000	65.006800
927.000000	65.002000
926.000000	65.031500
925.000000	65.065000
924.000000	65.077700
923.000000	65.083700
922.000000	65.087600
921.000000	65.078300
920.000000	65.087300
919.000000	65.133600
918.000000	65.132400
917.000000	65.111300
916.000000	65.088700
915.000000	65.071000
914.000000	65.062000
913.000000	65.062000
912.000000	65.052300
911.000000	65.041800
910.000000	65.054100
909.000000	65.075900
908.000000	65.110000
907.000000	65.115300
906.000000	65.151700
905.000000	65.197000
904.000000	65.239700
903.000000	65.298000
902.000000	65.342300
901.000000	65.377600
900.000000	65.360400
899.000000	65.398700
898.000000	65.446400
897.000000	65.479800
896.000000	65.506500
895.000000	65.550600
894.000000	65.578500
893.000000	65.573100
892.000000	65.532100
891.000000	65.544100
890.000000	65.535000
889.000000	65.509800
888.000000	65.395600
887.000000	65.379900
886.000000	65.348300
885.000000	65.235500
884.000000	65.083500
883.000000	64.968500
882.000000	64.781000
881.000000	64.702100
880.000000	64.537600
879.000000	64.302500
878.000000	64.110200
877.000000	63.855700
876.000000	63.644000
875.000000	63.337200
874.000000	63.089500
873.000000	62.775800
872.000000	62.507300
871.000000	62.041800
870.000000	61.662500
869.000000	61.157100
868.000000	60.791300
867.000000	60.232900
866.000000	59.754600
865.000000	59.531700
864.000000	59.537900
863.000000	59.606600
862.000000	59.647400
861.000000	59.664600
860.000000	59.688600
859.000000	59.747600
858.000000	61.461300
857.000000	60.054940
856.000000	59.996064
855.000000	60.180284
854.000000	59.860092
853.000000	59.846174
852.000000	59.905388
851.000000	59.963167
850.000000	60.021116
849.000000	60.323594
848.000000	60.119046
847.000000	60.213180
846.000000	60.245233
845.000000	60.182730
844.000000	60.062616
843.000000	60.092982
842.000000	59.951780
841.000000	60.155822
840.000000	59.942164
839.000000	60.014199
838.000000	59.784177
837.000000	59.890458
836.000000	59.731627
835.000000	59.767729
834.000000	59.814290
833.000000	59.794805
832.000000	59.689452
831.000000	59.567904
830.000000	59.505654
829.000000	59.403675
828.000000	59.367742
827.000000	59.365971
826.000000	59.308866
825.000000	59.345474
824.000000	59.329026
823.000000	59.185041
822.000000	59.131479
821.000000	59.181329
820.000000	59.103390
819.000000	59.029500
818.000000	58.979986
817.000000	59.034308
816.000000	58.842834
815.000000	58.814745
814.000000	58.712851
813.000000	58.587254
812.000000	58.629597
811.000000	58.546934
810.000000	58.416867
809.000000	58.398985
808.000000	58.317081
807.000000	58.302151
806.000000	58.209620
805.000000	58.083011
804.000000	58.127294
803.000000	58.073732
802.000000	57.889597
801.000000	57.790654
800.000000	57.809296
799.000000	57.597156
798.000000	57.482356
797.000000	57.467848
796.000000	57.247695
795.000000	57.132726
794.000000	57.038760
793.000000	56.988150
792.000000	56.800219
791.000000	56.713845
790.000000	56.598623
789.000000	56.468893
788.000000	56.384122
787.000000	56.258609
786.000000	56.064352
785.000000	56.009609
784.000000	55.969458
783.000000	55.839897
782.000000	55.715903
781.000000	55.512788
780.000000	55.395205
779.000000	55.299889
778.000000	55.186861
777.000000	55.007533
776.000000	54.857812
775.000000	54.835713
774.000000	54.698813
773.000000	54.528005
772.000000	54.414638
771.000000	54.259182
770.000000	54.156359
769.000000	54.053621
768.000000	54.003349
767.000000	53.935700
766.000000	53.825793
765.000000	53.736804
764.000000	53.593071
763.000000	53.483923
762.000000	53.422854
761.000000	53.377220
760.000000	53.287978
759.000000	53.223872
758.000000	53.127376
757.000000	53.069512
756.000000	52.976643
755.000000	52.819078
754.000000	52.756828
753.000000	52.659825
752.000000	52.558100
751.000000	52.508249
750.000000	52.484800
749.000000	52.462616
748.000000	52.378181
747.000000	52.363167
746.000000	52.341489
745.000000	52.216146
744.000000	52.132049
743.000000	52.104382
742.000000	52.039517
741.000000	51.957529
740.000000	51.927079
739.000000	51.856478
738.000000	51.803253
737.000000	51.727339
736.000000	51.629746
735.000000	51.554506
734.000000	51.476904
733.000000	51.388758
732.000000	51.280369
731.000000	51.210612
730.000000	51.147265
729.000000	51.074640
728.000000	51.068735
727.000000	50.989615
726.000000	50.841497
725.000000	50.806745
724.000000	50.738928
723.000000	50.654072
722.000000	50.553443
721.000000	50.452054
720.000000	50.375886
719.000000	50.262014
718.000000	50.119716
717.000000	50.036378
716.000000	49.934652
715.000000	49.798596
714.000000	49.672999
713.000000	49.583504
712.000000	49.468367
711.000000	49.319321
710.000000	49.200303
709.000000	49.112664
708.000000	49.020638
707.000000	48.869483
706.000000	48.715123
705.000000	48.567511
704.000000	48.444023
703.000000	48.335634
702.000000	48.246560
701.000000	48.127374
700.000000	48.007597
699.000000	47.894906
698.000000	47.761212
697.000000	47.638061
696.000000	47.554470
695.000000	47.452154
694.000000	47.280418
693.000000	47.156677
692.000000	46.991604
691.000000	46.904302
690.000000	46.798696
689.000000	46.670400
688.000000	46.541176
687.000000	46.415748
686.000000	46.338146
685.000000	46.225708
684.000000	46.208838
683.000000	46.178809
682.000000	46.141611
681.000000	46.122801
680.000000	46.126007
679.000000	46.050935
678.000000	46.026980
677.000000	46.063672
676.000000	46.135538
675.000000	46.113691
674.000000	46.136382
673.000000	46.172146
672.000000	46.199644
671.000000	46.188257
670.000000	46.178219
669.000000	46.226214
668.000000	46.291079
667.000000	46.266618
666.000000	46.275812
665.000000	46.281801
664.000000	46.297827
663.000000	46.309889
662.000000	46.294622
661.000000	46.293525
660.000000	46.267630
659.000000	46.215839
658.000000	46.160253
657.000000	46.085434
656.000000	46.049586
655.000000	45.929472
654.000000	45.767014
653.000000	45.644116
652.000000	45.477694
651.000000	45.251637
650.000000	45.013095
649.000000	44.754816
648.000000	44.441120
647.000000	44.150703
646.000000	43.813304
645.000000	43.484930
644.000000	43.165582
643.000000	42.870611
642.000000	42.569229
641.000000	42.346967
640.000000	42.061190
639.000000	41.841628
638.000000	41.654877
637.000000	41.469730
636.000000	41.347760
635.000000	41.292005
634.000000	41.248396
633.000000	41.225115
632.000000	41.297319
631.000000	41.319587
630.000000	41.412793
629.000000	41.566479
628.000000	41.764785
627.000000	42.002145
626.000000	42.263039
625.000000	42.589726
624.000000	42.941633
623.000000	43.356719
622.000000	43.822920
621.000000	44.350697
620.000000	44.919889
619.000000	45.529063
618.000000	46.108040
617.000000	46.766728
616.000000	47.410485
615.000000	48.064955
614.000000	48.762275
613.000000	49.389415
612.000000	49.999855
611.000000	50.584062
610.000000	51.162954
609.000000	51.708866
608.000000	52.167223
607.000000	52.580368
606.000000	53.022276
605.000000	53.377980
604.000000	53.738322
603.000000	54.043584
602.000000	54.354328
601.000000	54.659675
600.000000	54.904711
599.000000	55.179775
598.000000	55.453659
597.000000	55.712360
596.000000	55.980002
595.000000	56.213145
594.000000	56.559316
593.000000	56.789844
592.000000	57.078826
591.000000	57.360723
590.000000	57.568730
589.000000	57.793100
588.000000	58.055091
587.000000	58.241673
586.000000	58.367522
585.000000	58.485190
584.000000	58.558912
583.000000	58.656252
582.000000	58.734866
581.000000	58.757893
580.000000	58.767003
579.000000	58.766834
578.000000	58.732420
577.000000	58.739505
576.000000	58.755278
575.000000	58.816516
574.000000	58.854221
573.000000	58.939836
572.000000	58.961935
571.000000	59.011111
570.000000	59.097823
569.000000	59.155856
568.000000	59.229071
567.000000	59.253448
566.000000	59.266776
565.000000	59.297816
564.000000	59.261968
563.000000	59.192295
562.000000	59.123465
561.000000	59.061046
560.000000	58.927268
559.000000	58.758737
558.000000	58.616354
557.000000	58.471610
556.000000	58.331336
555.000000	58.135814
554.000000	57.962644
553.000000	57.754468
552.000000	57.585263
551.000000	57.337865
550.000000	57.141161
549.000000	56.851251
548.000000	56.566064
547.000000	56.242583
546.000000	55.856261
545.000000	55.469095
544.000000	54.987964
543.000000	54.469128
542.000000	53.925831
541.000000	53.303667
540.000000	52.647595
539.000000	51.950359
538.000000	51.194501
537.000000	50.444125
536.000000	49.629728
535.000000	48.780410
534.000000	47.922404
533.000000	47.027537
532.000000	46.130140
531.000000	45.228693
530.000000	44.314932
529.000000	43.415510
528.000000	42.512630
527.000000	41.646274
526.000000	40.755877
525.000000	39.899221
524.000000	39.050999
523.000000	38.196030
522.000000	37.385935
521.000000	36.583178
520.000000	35.775950
519.000000	35.013175
518.000000	34.260859
517.000000	33.545404
516.000000	32.863774
515.000000	32.180878
514.000000	31.509116
513.000000	30.852706
512.000000	30.218396
511.000000	29.598762
510.000000	29.026027
509.000000	28.454473
508.000000	27.918599
507.000000	27.405668
506.000000	26.911294
505.000000	26.433115
504.000000	25.947682
503.000000	25.475660
502.000000	25.032655
501.000000	24.597579
500.000000	24.185193
499.000000	23.805619
498.000000	23.428828
497.000000	23.075234
496.000000	22.733280
495.000000	22.415703
494.000000	22.103693
493.000000	21.788647
492.000000	21.520246
491.000000	21.268546
490.000000	21.030342
489.000000	20.787162
488.000000	20.560936
487.000000	20.354869
486.000000	20.140030
485.000000	19.929409
484.000000	19.716847
483.000000	19.483536
482.000000	19.251827
481.000000	18.996753
480.000000	18.725231
479.000000	18.446877
478.000000	18.157135
477.000000	17.877684
476.000000	17.578749
475.000000	17.278042
474.000000	16.976070
473.000000	16.664819
472.000000	16.363437
471.000000	16.067875
470.000000	15.787328
469.000000	15.519433
468.000000	15.270348
467.000000	15.043279
466.000000	14.812329
465.000000	14.606262
464.000000	14.410571
463.000000	14.241787
462.000000	14.086583
461.000000	13.946900
460.000000	13.844752
459.000000	13.738978
458.000000	13.626708
457.000000	13.550793
456.000000	13.490905
455.000000	13.446284
454.000000	13.407820
453.000000	13.373828
452.000000	13.364380
451.000000	13.370369
450.000000	13.371719
449.000000	13.366489
448.000000	13.379816
447.000000	13.390107
446.000000	13.399554
445.000000	13.412207
444.000000	13.417352
443.000000	13.421485
442.000000	13.422750
441.000000	13.404278
440.000000	13.378129
439.000000	13.343715
438.000000	13.297491
437.000000	13.252533
436.000000	13.201332
435.000000	13.148782
434.000000	13.094967
433.000000	13.038031
432.000000	12.967177
431.000000	12.891600
430.000000	12.808684
429.000000	12.725431
428.000000	12.656433
427.000000	12.556900
426.000000	12.462175
425.000000	12.374704
424.000000	12.266230
423.000000	12.169397
422.000000	12.064719
421.000000	11.939544
420.000000	11.821117
419.000000	11.707076
418.000000	11.578695
417.000000	11.440952
416.000000	11.303631
415.000000	11.153404
414.000000	11.003177
413.000000	10.848901
412.000000	10.690829
411.000000	10.518503
410.000000	10.340019
409.000000	10.155714
408.000000	9.969217
407.000000	9.787865
406.000000	9.602211
405.000000	9.419172
404.000000	9.224661
403.000000	9.009738
402.000000	8.806877
401.000000	8.616078
400.000000	8.430255
399.000000	8.238697
398.000000	8.044608
397.000000	7.859291
396.000000	7.665456
395.000000	7.482164
394.000000	7.319368
393.000000	7.128401
392.000000	6.947470
391.000000	6.792941
390.000000	6.647101
389.000000	6.487933
388.000000	6.371193
387.000000	6.255465
386.000000	6.122023
385.000000	5.998366
384.000000	5.884747
383.000000	5.796770
382.000000	5.711240
381.000000	5.623769
380.000000	5.559410
379.000000	5.486954
378.000000	5.416437
377.000000	5.373672
376.000000	5.331666
375.000000	5.078026
374.000000	4.753195
373.000000	4.846823
372.000000	4.932354
371.000000	4.977228
370.000000	4.969636
369.000000	4.958249
368.000000	4.894649
367.000000	4.899289
366.000000	4.814348
365.000000	4.879635
364.000000	4.916496
363.000000	4.820084
362.000000	4.858970
361.000000	4.805660
360.000000	4.836026
359.000000	4.882503
358.000000	4.863777
357.000000	4.956562
356.000000	4.872297
355.000000	4.812999
354.000000	4.858801
353.000000	4.829278
352.000000	4.874743
351.000000	4.808444
350.000000	4.829194
349.000000	4.770065
348.000000	4.785416
347.000000	4.801612
346.000000	4.922907
345.000000	4.849269
344.000000	4.834002
343.000000	4.830965
342.000000	4.844630
341.000000	4.743157
340.000000	4.839822
339.000000	4.767366
338.000000	4.611993
337.000000	4.663278
336.000000	4.671207
335.000000	4.819916
334.000000	5.014342
333.000000	4.715491
332.000000	4.788031
331.000000	4.697861
330.000000	4.854415
329.000000	4.711863
328.000000	4.817891
327.000000	4.951164
326.000000	4.895577
325.000000	4.817638
324.000000	4.959346
323.000000	5.180005
322.000000	5.213829
321.000000	5.468481
320.000000	5.405472
319.000000	5.155796
318.000000	4.734301
317.000000	5.463336
316.000000	4.766438
315.000000	4.805998
314.000000	4.753532
313.000000	4.751424
312.000000	4.688246
311.000000	4.739699
310.000000	4.762895
309.000000	4.733457
308.000000	4.770571
307.000000	4.756738
306.000000	4.786007
305.000000	4.774873
304.000000	4.768715
303.000000	4.805154
302.000000	4.797310
301.000000	4.803552
300.000000	4.832905
299.000000	4.788790
298.000000	4.761124
297.000000	4.808444
296.000000	4.843871
295.000000	4.807938
294.000000	4.787441
293.000000	4.794948
292.000000	4.755978
291.000000	4.864284
290.000000	4.795285
289.000000	4.795117
288.000000	4.872212
287.000000	4.872128
286.000000	4.900301
285.000000	4.915990
284.000000	4.920882
283.000000	4.882334
282.000000	4.880479
281.000000	4.911772
280.000000	4.907133
279.000000	4.892541
278.000000	4.915737
277.000000	4.960358
276.000000	4.988278
275.000000	4.955719
274.000000	4.963395
273.000000	4.979505
272.000000	5.031127
271.000000	5.024548
270.000000	5.032814
269.000000	5.033489
268.000000	5.048588
267.000000	5.094812
266.000000	5.136902
265.000000	5.130407
264.000000	5.163978
263.000000	5.194091
262.000000	5.275489
261.000000	5.289322
260.000000	5.253052
259.000000	5.239724
258.000000	5.287466
257.000000	5.304589
256.000000	5.358826
255.000000	5.301637
254.000000	5.367430
253.000000	5.394675
252.000000	5.415678
251.000000	5.436344
250.000000	5.437778
