PE UV       SUBTECH     SPECTRUM    ASCII       PEDS        4.00        
   -1
CICIMAUCR0113-1.Sample.ASC
24/04/18
14:46:15.00
24/04/18
14:46:15.00
Vinicio Soto Monge
C. kalinini
250,000000
1
Lambda 1050
1050L1511233
PerkinElmer UV WinLab 6.3.2.0749 / 2.02.05 Lambda 900 UV/VIS/NIR, Aug  7 2015 09:38:08

0
0
3350/servo 860,8/2
0
0
UV/VIS
1
1
1
DoubleDePol,CommonBeamDepol,RBeamAtt,SBeamAtt,60mm sphere, WB InGaAs Detector
0
0
0
0
Program
Program
3350/servo 860,8/2
3350/0,2 860,8/0,2
3350/0,2 860,8/0,2
0
15.00
 
 
 
0
 
860,8
319,2
860,8
Front
100
on
S:100 R:100
0
0
0
0
 
0
 
 
 
0
 
 
0
0
0
0
0
 
 
 
 
0
0


0
0
#HDR
-1
-1
#GR
nm
%R
1.0
0.0
2500,000000
-1,000000
2251
8
90,738500
4,918600
#DATA
2500.000000	7.110800
2499.000000	7.177400
2498.000000	7.065800
2497.000000	6.955600
2496.000000	6.989500
2495.000000	7.132600
2494.000000	6.940100
2493.000000	6.982200
2492.000000	6.919000
2491.000000	6.961600
2490.000000	6.969900
2489.000000	6.931100
2488.000000	6.968600
2487.000000	6.862900
2486.000000	6.808100
2485.000000	6.954800
2484.000000	6.871800
2483.000000	6.898500
2482.000000	6.869500
2481.000000	6.903800
2480.000000	6.838700
2479.000000	6.846800
2478.000000	6.914200
2477.000000	6.933100
2476.000000	6.908700
2475.000000	6.872800
2474.000000	6.868100
2473.000000	6.882700
2472.000000	6.923300
2471.000000	6.894300
2470.000000	6.867100
2469.000000	6.941100
2468.000000	6.934400
2467.000000	6.952000
2466.000000	6.990600
2465.000000	7.034300
2464.000000	7.031900
2463.000000	7.035100
2462.000000	7.062100
2461.000000	7.103800
2460.000000	7.142800
2459.000000	7.153600
2458.000000	7.204600
2457.000000	7.269300
2456.000000	7.310200
2455.000000	7.335700
2454.000000	7.377200
2453.000000	7.429700
2452.000000	7.475500
2451.000000	7.500400
2450.000000	7.556600
2449.000000	7.589400
2448.000000	7.641900
2447.000000	7.691400
2446.000000	7.748000
2445.000000	7.777500
2444.000000	7.842800
2443.000000	7.869300
2442.000000	7.909900
2441.000000	7.967100
2440.000000	8.015500
2439.000000	8.053200
2438.000000	8.112200
2437.000000	8.140100
2436.000000	8.174900
2435.000000	8.194400
2434.000000	8.232600
2433.000000	8.286900
2432.000000	8.333200
2431.000000	8.360800
2430.000000	8.383000
2429.000000	8.419300
2428.000000	8.448200
2427.000000	8.483500
2426.000000	8.502100
2425.000000	8.514300
2424.000000	8.527400
2423.000000	8.493900
2422.000000	8.433700
2421.000000	8.381100
2420.000000	8.347900
2419.000000	8.364300
2418.000000	8.373400
2417.000000	8.393800
2416.000000	8.389300
2415.000000	8.356000
2414.000000	8.336100
2413.000000	8.353500
2412.000000	8.364800
2411.000000	8.331200
2410.000000	8.301700
2409.000000	8.304200
2408.000000	8.334800
2407.000000	8.338300
2406.000000	8.295900
2405.000000	8.270700
2404.000000	8.282100
2403.000000	8.285700
2402.000000	8.273800
2401.000000	8.276300
2400.000000	8.288400
2399.000000	8.258300
2398.000000	8.252100
2397.000000	8.248900
2396.000000	8.273600
2395.000000	8.289200
2394.000000	8.281600
2393.000000	8.256300
2392.000000	8.261400
2391.000000	8.253800
2390.000000	8.227900
2389.000000	8.234300
2388.000000	8.227600
2387.000000	8.214000
2386.000000	8.223400
2385.000000	8.208500
2384.000000	8.186100
2383.000000	8.171100
2382.000000	8.151800
2381.000000	8.132700
2380.000000	8.100800
2379.000000	8.095000
2378.000000	8.093200
2377.000000	8.070400
2376.000000	8.045600
2375.000000	8.032800
2374.000000	7.992300
2373.000000	7.958900
2372.000000	7.943600
2371.000000	7.928800
2370.000000	7.900700
2369.000000	7.861700
2368.000000	7.834800
2367.000000	7.817800
2366.000000	7.780700
2365.000000	7.721700
2364.000000	7.687400
2363.000000	7.662100
2362.000000	7.616600
2361.000000	7.560700
2360.000000	7.526600
2359.000000	7.509900
2358.000000	7.464000
2357.000000	7.423100
2356.000000	7.398600
2355.000000	7.366900
2354.000000	7.349400
2353.000000	7.342900
2352.000000	7.343900
2351.000000	7.349500
2350.000000	7.348100
2349.000000	7.345600
2348.000000	7.349500
2347.000000	7.372000
2346.000000	7.391000
2345.000000	7.410800
2344.000000	7.426000
2343.000000	7.440900
2342.000000	7.443700
2341.000000	7.460700
2340.000000	7.478100
2339.000000	7.482300
2338.000000	7.483700
2337.000000	7.470300
2336.000000	7.463200
2335.000000	7.458600
2334.000000	7.447400
2333.000000	7.422100
2332.000000	7.398500
2331.000000	7.372100
2330.000000	7.358000
2329.000000	7.343900
2328.000000	7.317300
2327.000000	7.278200
2326.000000	7.247000
2325.000000	7.197000
2324.000000	7.163100
2323.000000	7.110300
2322.000000	7.071700
2321.000000	7.045900
2320.000000	7.004000
2319.000000	6.951300
2318.000000	6.900400
2317.000000	6.852200
2316.000000	6.780400
2315.000000	6.735200
2314.000000	6.677300
2313.000000	6.632600
2312.000000	6.592400
2311.000000	6.552400
2310.000000	6.531000
2309.000000	6.511000
2308.000000	6.497900
2307.000000	6.492700
2306.000000	6.481000
2305.000000	6.493800
2304.000000	6.514500
2303.000000	6.543000
2302.000000	6.578200
2301.000000	6.624800
2300.000000	6.674100
2299.000000	6.704500
2298.000000	6.758000
2297.000000	6.806300
2296.000000	6.860700
2295.000000	6.927600
2294.000000	6.961200
2293.000000	6.989200
2292.000000	7.009400
2291.000000	7.030300
2290.000000	7.044400
2289.000000	7.064200
2288.000000	7.061500
2287.000000	7.050400
2286.000000	7.065300
2285.000000	7.053900
2284.000000	7.041200
2283.000000	7.030100
2282.000000	7.000100
2281.000000	7.001100
2280.000000	6.958100
2279.000000	6.952800
2278.000000	6.932700
2277.000000	6.902000
2276.000000	6.892200
2275.000000	6.881800
2274.000000	6.885400
2273.000000	6.870800
2272.000000	6.874800
2271.000000	6.892400
2270.000000	6.921800
2269.000000	6.942400
2268.000000	6.980600
2267.000000	7.006200
2266.000000	7.075400
2265.000000	7.144000
2264.000000	7.221600
2263.000000	7.307000
2262.000000	7.391000
2261.000000	7.527200
2260.000000	7.644100
2259.000000	7.750000
2258.000000	7.920800
2257.000000	8.048000
2256.000000	8.193300
2255.000000	8.334500
2254.000000	8.468200
2253.000000	8.578900
2252.000000	8.733200
2251.000000	8.872700
2250.000000	8.978500
2249.000000	9.095600
2248.000000	9.234600
2247.000000	9.316800
2246.000000	9.435300
2245.000000	9.522500
2244.000000	9.597200
2243.000000	9.704100
2242.000000	9.754100
2241.000000	9.830400
2240.000000	9.910300
2239.000000	9.988500
2238.000000	10.033400
2237.000000	10.096200
2236.000000	10.196700
2235.000000	10.202200
2234.000000	10.247600
2233.000000	10.292600
2232.000000	10.331100
2231.000000	10.374000
2230.000000	10.395700
2229.000000	10.412900
2228.000000	10.425700
2227.000000	10.448700
2226.000000	10.449100
2225.000000	10.449000
2224.000000	10.429600
2223.000000	10.432300
2222.000000	10.423400
2221.000000	10.430800
2220.000000	10.411200
2219.000000	10.407500
2218.000000	10.393400
2217.000000	10.396300
2216.000000	10.365300
2215.000000	10.349500
2214.000000	10.328500
2213.000000	10.342500
2212.000000	10.298500
2211.000000	10.306300
2210.000000	10.275600
2209.000000	10.269500
2208.000000	10.242800
2207.000000	10.250600
2206.000000	10.231400
2205.000000	10.221100
2204.000000	10.208100
2203.000000	10.222100
2202.000000	10.242000
2201.000000	10.211200
2200.000000	10.210000
2199.000000	10.197900
2198.000000	10.183500
2197.000000	10.187000
2196.000000	10.183800
2195.000000	10.176000
2194.000000	10.159300
2193.000000	10.148300
2192.000000	10.162000
2191.000000	10.152000
2190.000000	10.140100
2189.000000	10.143300
2188.000000	10.132000
2187.000000	10.116700
2186.000000	10.110900
2185.000000	10.085000
2184.000000	10.067800
2183.000000	10.049500
2182.000000	10.058000
2181.000000	10.052100
2180.000000	10.015900
2179.000000	10.016100
2178.000000	9.991600
2177.000000	9.997700
2176.000000	9.988300
2175.000000	9.977900
2174.000000	9.975100
2173.000000	9.980800
2172.000000	9.967800
2171.000000	9.975900
2170.000000	9.987200
2169.000000	9.989100
2168.000000	10.003000
2167.000000	9.983600
2166.000000	9.984300
2165.000000	10.014200
2164.000000	10.030200
2163.000000	10.007600
2162.000000	10.023100
2161.000000	10.047700
2160.000000	10.053800
2159.000000	10.067500
2158.000000	10.095900
2157.000000	10.088400
2156.000000	10.095800
2155.000000	10.130400
2154.000000	10.166300
2153.000000	10.173300
2152.000000	10.194700
2151.000000	10.217500
2150.000000	10.255100
2149.000000	10.288700
2148.000000	10.299900
2147.000000	10.320600
2146.000000	10.346300
2145.000000	10.384100
2144.000000	10.413300
2143.000000	10.421100
2142.000000	10.438300
2141.000000	10.456900
2140.000000	10.469900
2139.000000	10.496300
2138.000000	10.513100
2137.000000	10.515300
2136.000000	10.537500
2135.000000	10.573900
2134.000000	10.585500
2133.000000	10.591300
2132.000000	10.626900
2131.000000	10.654300
2130.000000	10.654800
2129.000000	10.666000
2128.000000	10.664500
2127.000000	10.676000
2126.000000	10.689400
2125.000000	10.694600
2124.000000	10.710000
2123.000000	10.708800
2122.000000	10.704900
2121.000000	10.716600
2120.000000	10.706000
2119.000000	10.704800
2118.000000	10.712700
2117.000000	10.719400
2116.000000	10.708100
2115.000000	10.699000
2114.000000	10.704900
2113.000000	10.691300
2112.000000	10.686400
2111.000000	10.679700
2110.000000	10.670200
2109.000000	10.666800
2108.000000	10.661500
2107.000000	10.653000
2106.000000	10.644100
2105.000000	10.640400
2104.000000	10.649800
2103.000000	10.653100
2102.000000	10.636200
2101.000000	10.626600
2100.000000	10.620300
2099.000000	10.621200
2098.000000	10.629500
2097.000000	10.622000
2096.000000	10.609400
2095.000000	10.622600
2094.000000	10.636500
2093.000000	10.620000
2092.000000	10.618600
2091.000000	10.634900
2090.000000	10.634100
2089.000000	10.638200
2088.000000	10.635900
2087.000000	10.642600
2086.000000	10.661500
2085.000000	10.678000
2084.000000	10.675400
2083.000000	10.662300
2082.000000	10.664300
2081.000000	10.676200
2080.000000	10.672800
2079.000000	10.666100
2078.000000	10.663400
2077.000000	10.660200
2076.000000	10.648200
2075.000000	10.639800
2074.000000	10.648800
2073.000000	10.644500
2072.000000	10.649900
2071.000000	10.648100
2070.000000	10.642300
2069.000000	10.629700
2068.000000	10.628500
2067.000000	10.632200
2066.000000	10.617800
2065.000000	10.609400
2064.000000	10.605500
2063.000000	10.605000
2062.000000	10.599400
2061.000000	10.587900
2060.000000	10.592700
2059.000000	10.630800
2058.000000	10.641600
2057.000000	10.645900
2056.000000	10.673800
2055.000000	10.712600
2054.000000	10.734000
2053.000000	10.769000
2052.000000	10.819800
2051.000000	10.850000
2050.000000	10.929700
2049.000000	11.005000
2048.000000	11.086800
2047.000000	11.155300
2046.000000	11.234300
2045.000000	11.334000
2044.000000	11.434900
2043.000000	11.510400
2042.000000	11.607300
2041.000000	11.692900
2040.000000	11.804800
2039.000000	11.902500
2038.000000	11.988600
2037.000000	12.067700
2036.000000	12.145300
2035.000000	12.235900
2034.000000	12.306200
2033.000000	12.388200
2032.000000	12.470600
2031.000000	12.517100
2030.000000	12.602800
2029.000000	12.660700
2028.000000	12.738400
2027.000000	12.798800
2026.000000	12.839900
2025.000000	12.904900
2024.000000	12.947700
2023.000000	13.009100
2022.000000	13.053200
2021.000000	13.114500
2020.000000	13.160000
2019.000000	13.213700
2018.000000	13.245800
2017.000000	13.284700
2016.000000	13.321400
2015.000000	13.349000
2014.000000	13.387000
2013.000000	13.402600
2012.000000	13.431100
2011.000000	13.467200
2010.000000	13.472300
2009.000000	13.510400
2008.000000	13.525800
2007.000000	13.501700
2006.000000	13.533100
2005.000000	13.527000
2004.000000	13.515100
2003.000000	13.527200
2002.000000	13.530200
2001.000000	13.495600
2000.000000	13.498300
1999.000000	13.475200
1998.000000	13.458700
1997.000000	13.457500
1996.000000	13.431300
1995.000000	13.405300
1994.000000	13.380500
1993.000000	13.332500
1992.000000	13.302000
1991.000000	13.263300
1990.000000	13.225200
1989.000000	13.181400
1988.000000	13.151600
1987.000000	13.104100
1986.000000	13.044400
1985.000000	13.010600
1984.000000	12.976900
1983.000000	12.922000
1982.000000	12.870700
1981.000000	12.832400
1980.000000	12.775100
1979.000000	12.727200
1978.000000	12.691600
1977.000000	12.624000
1976.000000	12.573700
1975.000000	12.519400
1974.000000	12.482100
1973.000000	12.425800
1972.000000	12.390800
1971.000000	12.328300
1970.000000	12.290000
1969.000000	12.256300
1968.000000	12.211900
1967.000000	12.156700
1966.000000	12.135200
1965.000000	12.066400
1964.000000	12.016500
1963.000000	12.005300
1962.000000	11.938100
1961.000000	11.896900
1960.000000	11.823200
1959.000000	11.810900
1958.000000	11.763100
1957.000000	11.734200
1956.000000	11.704600
1955.000000	11.668600
1954.000000	11.603600
1953.000000	11.649900
1952.000000	11.647700
1951.000000	11.629200
1950.000000	11.584500
1949.000000	11.560400
1948.000000	11.541200
1947.000000	11.522200
1946.000000	11.503500
1945.000000	11.478300
1944.000000	11.455500
1943.000000	11.429800
1942.000000	11.440600
1941.000000	11.442300
1940.000000	11.454200
1939.000000	11.466500
1938.000000	11.485900
1937.000000	11.500500
1936.000000	11.508600
1935.000000	11.555100
1934.000000	11.584100
1933.000000	11.593900
1932.000000	11.661000
1931.000000	11.718600
1930.000000	11.768800
1929.000000	11.828200
1928.000000	11.898500
1927.000000	11.968600
1926.000000	12.064300
1925.000000	12.154100
1924.000000	12.248400
1923.000000	12.332700
1922.000000	12.438500
1921.000000	12.560500
1920.000000	12.678100
1919.000000	12.811100
1918.000000	12.950700
1917.000000	13.100700
1916.000000	13.216500
1915.000000	13.355000
1914.000000	13.530700
1913.000000	13.693700
1912.000000	13.860700
1911.000000	14.048000
1910.000000	14.215000
1909.000000	14.377100
1908.000000	14.553400
1907.000000	14.728300
1906.000000	14.918700
1905.000000	15.117800
1904.000000	15.338000
1903.000000	15.533900
1902.000000	15.749400
1901.000000	15.950200
1900.000000	16.176900
1899.000000	16.413900
1898.000000	16.619000
1897.000000	16.853500
1896.000000	17.075900
1895.000000	17.283400
1894.000000	17.505500
1893.000000	17.714800
1892.000000	17.950200
1891.000000	18.181800
1890.000000	18.388500
1889.000000	18.587700
1888.000000	18.840100
1887.000000	19.109500
1886.000000	19.358300
1885.000000	19.648600
1884.000000	19.978100
1883.000000	20.331000
1882.000000	20.688900
1881.000000	21.040000
1880.000000	21.415800
1879.000000	21.756100
1878.000000	22.081000
1877.000000	22.383100
1876.000000	22.655800
1875.000000	22.880400
1874.000000	23.101200
1873.000000	23.304800
1872.000000	23.480500
1871.000000	23.654600
1870.000000	23.807200
1869.000000	23.933400
1868.000000	24.082900
1867.000000	24.198000
1866.000000	24.264200
1865.000000	24.352700
1864.000000	24.430800
1863.000000	24.487200
1862.000000	24.544200
1861.000000	24.570900
1860.000000	24.567100
1859.000000	24.531300
1858.000000	24.501700
1857.000000	24.500500
1856.000000	24.489000
1855.000000	24.459500
1854.000000	24.430600
1853.000000	24.361300
1852.000000	24.291000
1851.000000	24.268900
1850.000000	24.257700
1849.000000	24.205800
1848.000000	24.097900
1847.000000	23.983600
1846.000000	23.884300
1845.000000	23.835000
1844.000000	23.823300
1843.000000	23.830100
1842.000000	23.824900
1841.000000	23.764300
1840.000000	23.686000
1839.000000	23.616200
1838.000000	23.563500
1837.000000	23.518600
1836.000000	23.463900
1835.000000	23.403200
1834.000000	23.329700
1833.000000	23.276200
1832.000000	23.236800
1831.000000	23.186400
1830.000000	23.117300
1829.000000	23.041300
1828.000000	22.950100
1827.000000	22.867100
1826.000000	22.805900
1825.000000	22.749500
1824.000000	22.709600
1823.000000	22.689700
1822.000000	22.704600
1821.000000	22.679300
1820.000000	22.606500
1819.000000	22.549600
1818.000000	22.533800
1817.000000	22.532300
1816.000000	22.532800
1815.000000	22.526100
1814.000000	22.514000
1813.000000	22.509900
1812.000000	22.489800
1811.000000	22.456000
1810.000000	22.403500
1809.000000	22.376600
1808.000000	22.354600
1807.000000	22.313500
1806.000000	22.267000
1805.000000	22.219500
1804.000000	22.181900
1803.000000	22.152300
1802.000000	22.119300
1801.000000	22.070800
1800.000000	22.010600
1799.000000	21.954900
1798.000000	21.925900
1797.000000	21.897000
1796.000000	21.864600
1795.000000	21.827500
1794.000000	21.776100
1793.000000	21.744500
1792.000000	21.690900
1791.000000	21.637900
1790.000000	21.605500
1789.000000	21.553200
1788.000000	21.500900
1787.000000	21.441100
1786.000000	21.387600
1785.000000	21.346700
1784.000000	21.261600
1783.000000	21.203800
1782.000000	21.133400
1781.000000	21.068700
1780.000000	20.998600
1779.000000	20.923400
1778.000000	20.855500
1777.000000	20.775800
1776.000000	20.692000
1775.000000	20.599600
1774.000000	20.487000
1773.000000	20.374100
1772.000000	20.255800
1771.000000	20.159600
1770.000000	20.057100
1769.000000	19.958000
1768.000000	19.843800
1767.000000	19.756300
1766.000000	19.695300
1765.000000	19.650600
1764.000000	19.605700
1763.000000	19.578500
1762.000000	19.608200
1761.000000	19.646000
1760.000000	19.705900
1759.000000	19.773800
1758.000000	19.831700
1757.000000	19.886300
1756.000000	19.926800
1755.000000	19.973600
1754.000000	20.019300
1753.000000	20.018600
1752.000000	19.997600
1751.000000	19.964300
1750.000000	19.942400
1749.000000	19.893200
1748.000000	19.836400
1747.000000	19.779900
1746.000000	19.673000
1745.000000	19.555100
1744.000000	19.434500
1743.000000	19.288000
1742.000000	19.110100
1741.000000	18.917200
1740.000000	18.725500
1739.000000	18.543800
1738.000000	18.352900
1737.000000	18.202400
1736.000000	18.084300
1735.000000	18.004700
1734.000000	17.967900
1733.000000	17.960900
1732.000000	17.993200
1731.000000	18.064700
1730.000000	18.159700
1729.000000	18.255600
1728.000000	18.354900
1727.000000	18.442800
1726.000000	18.538900
1725.000000	18.596900
1724.000000	18.610800
1723.000000	18.659900
1722.000000	18.661800
1721.000000	18.664200
1720.000000	18.681600
1719.000000	18.699400
1718.000000	18.721600
1717.000000	18.749400
1716.000000	18.788700
1715.000000	18.850600
1714.000000	18.897900
1713.000000	18.959400
1712.000000	19.000900
1711.000000	19.016400
1710.000000	19.032900
1709.000000	19.044600
1708.000000	19.023300
1707.000000	18.973400
1706.000000	18.960200
1705.000000	18.922600
1704.000000	18.890000
1703.000000	18.784500
1702.000000	18.710400
1701.000000	18.606600
1700.000000	18.467100
1699.000000	18.312900
1698.000000	18.183700
1697.000000	18.100300
1696.000000	18.023500
1695.000000	17.983100
1694.000000	18.020300
1693.000000	18.097400
1692.000000	18.207600
1691.000000	18.324200
1690.000000	18.459600
1689.000000	18.579200
1688.000000	18.611600
1687.000000	18.608100
1686.000000	18.615200
1685.000000	18.609600
1684.000000	18.668300
1683.000000	18.804900
1682.000000	19.062700
1681.000000	19.435400
1680.000000	19.893000
1679.000000	20.327500
1678.000000	20.803900
1677.000000	21.249800
1676.000000	21.639800
1675.000000	21.985800
1674.000000	22.302400
1673.000000	22.557500
1672.000000	22.802300
1671.000000	22.958300
1670.000000	23.143500
1669.000000	23.306600
1668.000000	23.432900
1667.000000	23.564000
1666.000000	23.659000
1665.000000	23.752700
1664.000000	23.822000
1663.000000	23.885800
1662.000000	23.956400
1661.000000	24.003800
1660.000000	24.057900
1659.000000	24.101000
1658.000000	24.113600
1657.000000	24.134400
1656.000000	24.155000
1655.000000	24.160500
1654.000000	24.179800
1653.000000	24.165800
1652.000000	24.151200
1651.000000	24.152000
1650.000000	24.113400
1649.000000	24.114200
1648.000000	24.093400
1647.000000	24.053900
1646.000000	24.028400
1645.000000	23.990700
1644.000000	23.948200
1643.000000	23.915500
1642.000000	23.883000
1641.000000	23.857600
1640.000000	23.806700
1639.000000	23.755600
1638.000000	23.701900
1637.000000	23.659900
1636.000000	23.618500
1635.000000	23.570900
1634.000000	23.528600
1633.000000	23.477500
1632.000000	23.420400
1631.000000	23.371200
1630.000000	23.311200
1629.000000	23.254400
1628.000000	23.190100
1627.000000	23.139600
1626.000000	23.086800
1625.000000	23.025400
1624.000000	22.972000
1623.000000	22.914700
1622.000000	22.857100
1621.000000	22.810400
1620.000000	22.752000
1619.000000	22.697400
1618.000000	22.654400
1617.000000	22.586500
1616.000000	22.534000
1615.000000	22.484600
1614.000000	22.429600
1613.000000	22.381500
1612.000000	22.340700
1611.000000	22.285000
1610.000000	22.242000
1609.000000	22.180900
1608.000000	22.149300
1607.000000	22.096100
1606.000000	22.039500
1605.000000	21.985100
1604.000000	21.923700
1603.000000	21.874100
1602.000000	21.829600
1601.000000	21.779400
1600.000000	21.737100
1599.000000	21.686400
1598.000000	21.626900
1597.000000	21.565300
1596.000000	21.536800
1595.000000	21.497200
1594.000000	21.456200
1593.000000	21.415300
1592.000000	21.382700
1591.000000	21.338700
1590.000000	21.300900
1589.000000	21.270100
1588.000000	21.240900
1587.000000	21.214700
1586.000000	21.172700
1585.000000	21.147100
1584.000000	21.127300
1583.000000	21.087500
1582.000000	21.057100
1581.000000	21.050500
1580.000000	21.034400
1579.000000	21.017400
1578.000000	21.028700
1577.000000	21.019300
1576.000000	20.998100
1575.000000	20.998000
1574.000000	20.999900
1573.000000	21.003000
1572.000000	21.007000
1571.000000	21.019700
1570.000000	21.035200
1569.000000	21.041600
1568.000000	21.060600
1567.000000	21.084400
1566.000000	21.088100
1565.000000	21.099500
1564.000000	21.122600
1563.000000	21.145100
1562.000000	21.166400
1561.000000	21.189900
1560.000000	21.209500
1559.000000	21.220900
1558.000000	21.218900
1557.000000	21.222000
1556.000000	21.236400
1555.000000	21.235300
1554.000000	21.238300
1553.000000	21.250000
1552.000000	21.239500
1551.000000	21.221700
1550.000000	21.211100
1549.000000	21.227000
1548.000000	21.229200
1547.000000	21.213900
1546.000000	21.211900
1545.000000	21.213800
1544.000000	21.213900
1543.000000	21.217600
1542.000000	21.209700
1541.000000	21.216200
1540.000000	21.239600
1539.000000	21.241200
1538.000000	21.237200
1537.000000	21.256700
1536.000000	21.269500
1535.000000	21.282800
1534.000000	21.284500
1533.000000	21.288700
1532.000000	21.294100
1531.000000	21.312000
1530.000000	21.313900
1529.000000	21.308700
1528.000000	21.308400
1527.000000	21.311000
1526.000000	21.309800
1525.000000	21.335300
1524.000000	21.336500
1523.000000	21.334900
1522.000000	21.320000
1521.000000	21.318600
1520.000000	21.304800
1519.000000	21.314500
1518.000000	21.319600
1517.000000	21.318000
1516.000000	21.321400
1515.000000	21.313500
1514.000000	21.318300
1513.000000	21.310600
1512.000000	21.302300
1511.000000	21.286900
1510.000000	21.290200
1509.000000	21.284100
1508.000000	21.269800
1507.000000	21.248300
1506.000000	21.245900
1505.000000	21.236100
1504.000000	21.229900
1503.000000	21.234000
1502.000000	21.217500
1501.000000	21.212800
1500.000000	21.212100
1499.000000	21.207400
1498.000000	21.227800
1497.000000	21.237600
1496.000000	21.235800
1495.000000	21.246900
1494.000000	21.271800
1493.000000	21.277800
1492.000000	21.286000
1491.000000	21.301200
1490.000000	21.317400
1489.000000	21.342200
1488.000000	21.355900
1487.000000	21.374500
1486.000000	21.388000
1485.000000	21.403900
1484.000000	21.422500
1483.000000	21.437300
1482.000000	21.459000
1481.000000	21.496400
1480.000000	21.505000
1479.000000	21.553700
1478.000000	21.584700
1477.000000	21.605500
1476.000000	21.630700
1475.000000	21.668000
1474.000000	21.695500
1473.000000	21.753500
1472.000000	21.781400
1471.000000	21.810400
1470.000000	21.827300
1469.000000	21.879700
1468.000000	21.912400
1467.000000	21.944200
1466.000000	21.962000
1465.000000	22.003800
1464.000000	22.032100
1463.000000	22.118300
1462.000000	22.161900
1461.000000	22.229800
1460.000000	22.299000
1459.000000	22.357500
1458.000000	22.408700
1457.000000	22.475500
1456.000000	22.580600
1455.000000	22.646900
1454.000000	22.733500
1453.000000	22.803200
1452.000000	22.934700
1451.000000	23.015300
1450.000000	23.100900
1449.000000	23.167200
1448.000000	23.284100
1447.000000	23.415800
1446.000000	23.549200
1445.000000	23.633500
1444.000000	23.740400
1443.000000	23.842600
1442.000000	23.975400
1441.000000	24.112700
1440.000000	24.237700
1439.000000	24.355900
1438.000000	24.463400
1437.000000	24.584100
1436.000000	24.698400
1435.000000	24.840500
1434.000000	24.972400
1433.000000	25.096100
1432.000000	25.245000
1431.000000	25.368700
1430.000000	25.498700
1429.000000	25.659100
1428.000000	25.836300
1427.000000	26.009900
1426.000000	26.202900
1425.000000	26.426200
1424.000000	26.656200
1423.000000	26.852000
1422.000000	27.051000
1421.000000	27.277100
1420.000000	27.515400
1419.000000	27.759300
1418.000000	27.943800
1417.000000	28.122200
1416.000000	28.319400
1415.000000	28.566800
1414.000000	28.795000
1413.000000	28.961700
1412.000000	29.158300
1411.000000	29.395300
1410.000000	29.663500
1409.000000	29.958200
1408.000000	30.271400
1407.000000	30.555800
1406.000000	30.883800
1405.000000	31.207000
1404.000000	31.508600
1403.000000	31.860600
1402.000000	32.189600
1401.000000	32.561800
1400.000000	32.853200
1399.000000	33.015900
1398.000000	33.188300
1397.000000	33.412500
1396.000000	33.643600
1395.000000	33.805100
1394.000000	33.848000
1393.000000	33.956900
1392.000000	34.098000
1391.000000	34.225700
1390.000000	34.355700
1389.000000	34.564800
1388.000000	34.807900
1387.000000	35.017100
1386.000000	35.269000
1385.000000	35.596900
1384.000000	35.954100
1383.000000	36.239300
1382.000000	36.497800
1381.000000	36.648700
1380.000000	36.699400
1379.000000	36.798200
1378.000000	36.848100
1377.000000	36.911800
1376.000000	37.009400
1375.000000	37.161500
1374.000000	37.370200
1373.000000	37.661500
1372.000000	37.959400
1371.000000	38.278300
1370.000000	38.555300
1369.000000	38.833100
1368.000000	39.106800
1367.000000	39.309400
1366.000000	39.491100
1365.000000	39.695500
1364.000000	39.852400
1363.000000	39.983900
1362.000000	40.172600
1361.000000	40.234300
1360.000000	40.249300
1359.000000	40.262300
1358.000000	40.383000
1357.000000	40.532900
1356.000000	40.779900
1355.000000	41.152700
1354.000000	41.617600
1353.000000	42.081800
1352.000000	42.600900
1351.000000	43.120600
1350.000000	43.595600
1349.000000	44.017300
1348.000000	44.423100
1347.000000	44.783400
1346.000000	45.091300
1345.000000	45.427000
1344.000000	45.717400
1343.000000	45.978800
1342.000000	46.265100
1341.000000	46.527200
1340.000000	46.764200
1339.000000	46.993000
1338.000000	47.197500
1337.000000	47.396300
1336.000000	47.608900
1335.000000	47.797700
1334.000000	47.970700
1333.000000	48.142000
1332.000000	48.318800
1331.000000	48.466300
1330.000000	48.606800
1329.000000	48.737700
1328.000000	48.859800
1327.000000	48.979800
1326.000000	49.087200
1325.000000	49.187400
1324.000000	49.294600
1323.000000	49.386600
1322.000000	49.471900
1321.000000	49.568700
1320.000000	49.642400
1319.000000	49.710100
1318.000000	49.780100
1317.000000	49.838800
1316.000000	49.899600
1315.000000	49.954900
1314.000000	50.009300
1313.000000	50.056700
1312.000000	50.098300
1311.000000	50.136800
1310.000000	50.173700
1309.000000	50.195900
1308.000000	50.216900
1307.000000	50.235100
1306.000000	50.256600
1305.000000	50.260100
1304.000000	50.254900
1303.000000	50.243400
1302.000000	50.223100
1301.000000	50.200800
1300.000000	50.185000
1299.000000	50.170000
1298.000000	50.145400
1297.000000	50.106100
1296.000000	50.075200
1295.000000	50.063400
1294.000000	50.044600
1293.000000	50.005600
1292.000000	49.966900
1291.000000	49.925400
1290.000000	49.868200
1289.000000	49.818600
1288.000000	49.759800
1287.000000	49.681600
1286.000000	49.611700
1285.000000	49.548500
1284.000000	49.477900
1283.000000	49.406000
1282.000000	49.329900
1281.000000	49.252300
1280.000000	49.170900
1279.000000	49.099600
1278.000000	49.046800
1277.000000	48.988200
1276.000000	48.939400
1275.000000	48.885000
1274.000000	48.826500
1273.000000	48.786200
1272.000000	48.751100
1271.000000	48.718400
1270.000000	48.676000
1269.000000	48.635000
1268.000000	48.611900
1267.000000	48.570200
1266.000000	48.516300
1265.000000	48.480800
1264.000000	48.444700
1263.000000	48.410100
1262.000000	48.362900
1261.000000	48.328600
1260.000000	48.303400
1259.000000	48.257800
1258.000000	48.199300
1257.000000	48.162800
1256.000000	48.128700
1255.000000	48.065400
1254.000000	48.008200
1253.000000	47.962100
1252.000000	47.908300
1251.000000	47.831700
1250.000000	47.766000
1249.000000	47.670700
1248.000000	47.570200
1247.000000	47.485600
1246.000000	47.379500
1245.000000	47.274800
1244.000000	47.141100
1243.000000	47.019200
1242.000000	46.902400
1241.000000	46.765200
1240.000000	46.621400
1239.000000	46.483300
1238.000000	46.317900
1237.000000	46.176900
1236.000000	46.024500
1235.000000	45.856800
1234.000000	45.695900
1233.000000	45.526700
1232.000000	45.360500
1231.000000	45.176800
1230.000000	45.007700
1229.000000	44.829600
1228.000000	44.664800
1227.000000	44.481900
1226.000000	44.303700
1225.000000	44.125900
1224.000000	43.952600
1223.000000	43.773300
1222.000000	43.600200
1221.000000	43.420400
1220.000000	43.280500
1219.000000	43.123200
1218.000000	42.981300
1217.000000	42.825600
1216.000000	42.715600
1215.000000	42.573100
1214.000000	42.455800
1213.000000	42.333100
1212.000000	42.238400
1211.000000	42.128700
1210.000000	42.030100
1209.000000	41.906900
1208.000000	41.817400
1207.000000	41.756500
1206.000000	41.726900
1205.000000	41.669200
1204.000000	41.637100
1203.000000	41.603200
1202.000000	41.587200
1201.000000	41.562900
1200.000000	41.519900
1199.000000	41.467100
1198.000000	41.362300
1197.000000	41.221600
1196.000000	41.073900
1195.000000	40.852200
1194.000000	40.570300
1193.000000	40.239800
1192.000000	39.854600
1191.000000	39.440300
1190.000000	39.055800
1189.000000	38.704300
1188.000000	38.436200
1187.000000	38.316600
1186.000000	38.288700
1185.000000	38.336200
1184.000000	38.539200
1183.000000	38.841900
1182.000000	39.238900
1181.000000	39.703200
1180.000000	40.142300
1179.000000	40.557400
1178.000000	40.936600
1177.000000	41.273000
1176.000000	41.547900
1175.000000	41.798100
1174.000000	42.051000
1173.000000	42.316300
1172.000000	42.590800
1171.000000	42.881500
1170.000000	43.182400
1169.000000	43.467600
1168.000000	43.758200
1167.000000	44.044200
1166.000000	44.366200
1165.000000	44.667700
1164.000000	44.950400
1163.000000	45.262900
1162.000000	45.574800
1161.000000	45.835200
1160.000000	46.123500
1159.000000	46.382100
1158.000000	46.650600
1157.000000	46.866600
1156.000000	47.062000
1155.000000	47.202900
1154.000000	47.288900
1153.000000	47.345100
1152.000000	47.363700
1151.000000	47.327900
1150.000000	47.298500
1149.000000	47.274000
1148.000000	47.263700
1147.000000	47.273100
1146.000000	47.324100
1145.000000	47.463700
1144.000000	47.663600
1143.000000	47.855300
1142.000000	48.093000
1141.000000	48.338400
1140.000000	48.607700
1139.000000	48.862800
1138.000000	49.125800
1137.000000	49.415900
1136.000000	49.690400
1135.000000	49.992500
1134.000000	50.265400
1133.000000	50.436500
1132.000000	50.646300
1131.000000	50.830800
1130.000000	51.006000
1129.000000	51.152000
1128.000000	51.266900
1127.000000	51.336700
1126.000000	51.432100
1125.000000	51.478500
1124.000000	51.503000
1123.000000	51.561800
1122.000000	51.609000
1121.000000	51.629000
1120.000000	51.616200
1119.000000	51.619100
1118.000000	51.616700
1117.000000	51.602200
1116.000000	51.592900
1115.000000	51.551200
1114.000000	51.527900
1113.000000	51.495500
1112.000000	51.469300
1111.000000	51.458400
1110.000000	51.410100
1109.000000	51.368200
1108.000000	51.332200
1107.000000	51.285100
1106.000000	51.248900
1105.000000	51.208100
1104.000000	51.153300
1103.000000	51.111300
1102.000000	51.076400
1101.000000	51.033400
1100.000000	50.986300
1099.000000	50.907800
1098.000000	50.848800
1097.000000	50.795500
1096.000000	50.744700
1095.000000	50.685000
1094.000000	50.629100
1093.000000	50.551600
1092.000000	50.486700
1091.000000	50.429200
1090.000000	50.355500
1089.000000	50.267200
1088.000000	50.215900
1087.000000	50.140900
1086.000000	50.080200
1085.000000	50.011300
1084.000000	49.932300
1083.000000	49.870000
1082.000000	49.815400
1081.000000	49.745600
1080.000000	49.670900
1079.000000	49.588600
1078.000000	49.530300
1077.000000	49.464800
1076.000000	49.405800
1075.000000	49.346000
1074.000000	49.287700
1073.000000	49.223900
1072.000000	49.151500
1071.000000	49.082900
1070.000000	49.018700
1069.000000	48.945300
1068.000000	48.884900
1067.000000	48.818200
1066.000000	48.741500
1065.000000	48.682700
1064.000000	48.621100
1063.000000	48.542900
1062.000000	48.474900
1061.000000	48.399200
1060.000000	48.313400
1059.000000	48.244500
1058.000000	48.169100
1057.000000	48.084400
1056.000000	47.994400
1055.000000	47.910400
1054.000000	47.830800
1053.000000	47.743900
1052.000000	47.666200
1051.000000	47.588900
1050.000000	47.521900
1049.000000	47.451900
1048.000000	47.383600
1047.000000	47.309900
1046.000000	47.237300
1045.000000	47.164800
1044.000000	47.080400
1043.000000	47.011100
1042.000000	46.941600
1041.000000	46.872900
1040.000000	46.817500
1039.000000	46.743000
1038.000000	46.664800
1037.000000	46.603500
1036.000000	46.536500
1035.000000	46.450900
1034.000000	46.369900
1033.000000	46.306600
1032.000000	46.236800
1031.000000	46.154000
1030.000000	46.073800
1029.000000	46.008700
1028.000000	45.915300
1027.000000	45.833400
1026.000000	45.766000
1025.000000	45.682500
1024.000000	45.589500
1023.000000	45.515700
1022.000000	45.436700
1021.000000	45.341700
1020.000000	45.268500
1019.000000	45.181600
1018.000000	45.097200
1017.000000	45.036900
1016.000000	44.962000
1015.000000	44.879400
1014.000000	44.827400
1013.000000	44.768000
1012.000000	44.711700
1011.000000	44.666200
1010.000000	44.607500
1009.000000	44.558600
1008.000000	44.534400
1007.000000	44.504000
1006.000000	44.467000
1005.000000	44.429100
1004.000000	44.387400
1003.000000	44.338700
1002.000000	44.283600
1001.000000	44.234600
1000.000000	44.207300
999.000000	44.163300
998.000000	44.121700
997.000000	44.090300
996.000000	44.066300
995.000000	44.014700
994.000000	43.976600
993.000000	43.946600
992.000000	43.917500
991.000000	43.888500
990.000000	43.839600
989.000000	43.810500
988.000000	43.799700
987.000000	43.759600
986.000000	43.750300
985.000000	43.736700
984.000000	43.699000
983.000000	43.687300
982.000000	43.657800
981.000000	43.645000
980.000000	43.636700
979.000000	43.614800
978.000000	43.594100
977.000000	43.576100
976.000000	43.556100
975.000000	43.539900
974.000000	43.536600
973.000000	43.532900
972.000000	43.508800
971.000000	43.492300
970.000000	43.490100
969.000000	43.496000
968.000000	43.477000
967.000000	43.457300
966.000000	43.460000
965.000000	43.435400
964.000000	43.432000
963.000000	43.431000
962.000000	43.446000
961.000000	43.471300
960.000000	43.466200
959.000000	43.465900
958.000000	43.489200
957.000000	43.513700
956.000000	43.524600
955.000000	43.517700
954.000000	43.529400
953.000000	43.563600
952.000000	43.560100
951.000000	43.596400
950.000000	43.612100
949.000000	43.637600
948.000000	43.656500
947.000000	43.694800
946.000000	43.722100
945.000000	43.776900
944.000000	43.838000
943.000000	43.894100
942.000000	43.951400
941.000000	43.990900
940.000000	44.061900
939.000000	44.118100
938.000000	44.201600
937.000000	44.279800
936.000000	44.366300
935.000000	44.490300
934.000000	44.611400
933.000000	44.757000
932.000000	44.870900
931.000000	44.991700
930.000000	45.107100
929.000000	45.213900
928.000000	45.326700
927.000000	45.488900
926.000000	45.577800
925.000000	45.704300
924.000000	45.833500
923.000000	45.998500
922.000000	46.176300
921.000000	46.308900
920.000000	46.405700
919.000000	46.579300
918.000000	46.719000
917.000000	46.876900
916.000000	47.000600
915.000000	47.149500
914.000000	47.282300
913.000000	47.492400
912.000000	47.596700
911.000000	47.740300
910.000000	47.924100
909.000000	48.083900
908.000000	48.232700
907.000000	48.396500
906.000000	48.587900
905.000000	48.745600
904.000000	48.931800
903.000000	49.093100
902.000000	49.262500
901.000000	49.469200
900.000000	49.646900
899.000000	49.803700
898.000000	49.984200
897.000000	50.170700
896.000000	50.352600
895.000000	50.521200
894.000000	50.641600
893.000000	50.807800
892.000000	51.001300
891.000000	51.154200
890.000000	51.332700
889.000000	51.519200
888.000000	51.663800
887.000000	51.790500
886.000000	51.929700
885.000000	52.080800
884.000000	52.264100
883.000000	52.409700
882.000000	52.537300
881.000000	52.702700
880.000000	52.873500
879.000000	53.023100
878.000000	53.157700
877.000000	53.346100
876.000000	53.505400
875.000000	53.676900
874.000000	53.825200
873.000000	53.986300
872.000000	54.154900
871.000000	54.357700
870.000000	54.520600
869.000000	54.751000
868.000000	54.952300
867.000000	55.132000
866.000000	55.345900
865.000000	55.578000
864.000000	55.793200
863.000000	56.018800
862.000000	56.257600
861.000000	56.458000
860.000000	56.648800
859.000000	56.861600
858.000000	58.229500
857.000000	57.007500
856.000000	57.236408
855.000000	57.801218
854.000000	58.145194
853.000000	58.606170
852.000000	58.823931
851.000000	59.151582
850.000000	59.792665
849.000000	60.038338
848.000000	60.073007
847.000000	60.440243
846.000000	60.861371
845.000000	61.243089
844.000000	61.634813
843.000000	61.987918
842.000000	62.430111
841.000000	62.944803
840.000000	63.185736
839.000000	63.562539
838.000000	63.884046
837.000000	64.386976
836.000000	64.735693
835.000000	64.859363
834.000000	65.224317
833.000000	65.593045
832.000000	65.898138
831.000000	66.272045
830.000000	66.653851
829.000000	67.019858
828.000000	67.391570
827.000000	67.675511
826.000000	68.028704
825.000000	68.396993
824.000000	68.767037
823.000000	69.135590
822.000000	69.410929
821.000000	69.685830
820.000000	69.954849
819.000000	70.196484
818.000000	70.598478
817.000000	70.927972
816.000000	71.281428
815.000000	71.545620
814.000000	71.800508
813.000000	71.911978
812.000000	72.257886
811.000000	72.542792
810.000000	72.769418
809.000000	73.097069
808.000000	73.472380
807.000000	73.704799
806.000000	73.949769
805.000000	74.244944
804.000000	74.453490
803.000000	74.726108
802.000000	74.961511
801.000000	75.299343
800.000000	75.410901
799.000000	75.576526
798.000000	75.793234
797.000000	76.114390
796.000000	76.338119
795.000000	76.489613
794.000000	76.737831
793.000000	76.975691
792.000000	77.142720
791.000000	77.301324
790.000000	77.496703
789.000000	77.601151
788.000000	77.703931
787.000000	77.926871
786.000000	78.121548
785.000000	78.195452
784.000000	78.249343
783.000000	78.446390
782.000000	78.675386
781.000000	78.756487
780.000000	78.807570
779.000000	78.843557
778.000000	78.968719
777.000000	79.058948
776.000000	79.116175
775.000000	79.179107
774.000000	79.243531
773.000000	79.234842
772.000000	79.402924
771.000000	79.487185
770.000000	79.436102
769.000000	79.558104
768.000000	79.579257
767.000000	79.517115
766.000000	79.522645
765.000000	79.546782
764.000000	79.577502
763.000000	79.601551
762.000000	79.556788
761.000000	79.540374
760.000000	79.628409
759.000000	79.642540
758.000000	79.563458
757.000000	79.463925
756.000000	79.431801
755.000000	79.463223
754.000000	79.449794
753.000000	79.319980
752.000000	79.291279
751.000000	79.270916
750.000000	79.130394
749.000000	79.010322
748.000000	78.936858
747.000000	78.864358
746.000000	78.785188
745.000000	78.734457
744.000000	78.646422
743.000000	78.496245
742.000000	78.339221
741.000000	78.165609
740.000000	78.050190
739.000000	77.821633
738.000000	77.575785
737.000000	77.473619
736.000000	77.238655
735.000000	76.975428
734.000000	76.822354
733.000000	76.562551
732.000000	76.274573
731.000000	76.028725
730.000000	75.777171
729.000000	75.506045
728.000000	75.215171
727.000000	74.835559
726.000000	74.545913
725.000000	74.276103
724.000000	73.905883
723.000000	73.554622
722.000000	73.200815
721.000000	72.789166
720.000000	72.372076
719.000000	72.021078
718.000000	71.663409
717.000000	71.250883
716.000000	70.884964
715.000000	70.488500
714.000000	70.057103
713.000000	69.604904
712.000000	69.187814
711.000000	68.769846
710.000000	68.321509
709.000000	67.897924
708.000000	67.561408
707.000000	67.150199
706.000000	66.721435
705.000000	66.334889
704.000000	65.956506
703.000000	65.612793
702.000000	65.309630
701.000000	65.020336
700.000000	64.745962
699.000000	64.523198
698.000000	64.302979
697.000000	64.113744
696.000000	63.926176
695.000000	63.755987
694.000000	63.608092
693.000000	63.504258
692.000000	63.381993
691.000000	63.264379
690.000000	63.144308
689.000000	63.055307
688.000000	62.941994
687.000000	62.805159
686.000000	62.632424
685.000000	62.463640
684.000000	62.278968
683.000000	62.103952
682.000000	61.922177
681.000000	61.643503
680.000000	61.429779
679.000000	61.201222
678.000000	60.933519
677.000000	60.645892
676.000000	60.381963
675.000000	60.052030
674.000000	59.714373
673.000000	59.458256
672.000000	59.119984
671.000000	58.730367
670.000000	58.346718
669.000000	57.965789
668.000000	57.597149
667.000000	57.161802
666.000000	56.787369
665.000000	56.403457
664.000000	56.000059
663.000000	55.605526
662.000000	55.254528
661.000000	54.819620
660.000000	54.389715
659.000000	54.034153
658.000000	53.675957
657.000000	53.320219
656.000000	53.002399
655.000000	52.719687
654.000000	52.411170
653.000000	52.146100
652.000000	51.931587
651.000000	51.749812
650.000000	51.466573
649.000000	51.300509
648.000000	51.153931
647.000000	51.022274
646.000000	50.891055
645.000000	50.799071
644.000000	50.666009
643.000000	50.549888
642.000000	50.451496
641.000000	50.368815
640.000000	50.295614
639.000000	50.265332
638.000000	50.203892
637.000000	50.146841
636.000000	50.150176
635.000000	50.103218
634.000000	50.082592
633.000000	50.062317
632.000000	50.060649
631.000000	50.093125
630.000000	50.178439
629.000000	50.246286
628.000000	50.336954
627.000000	50.482918
626.000000	50.598689
625.000000	50.742107
624.000000	50.903519
623.000000	51.078009
622.000000	51.279708
621.000000	51.496152
620.000000	51.717687
619.000000	51.943348
618.000000	52.208769
617.000000	52.441539
616.000000	52.743473
615.000000	53.012756
614.000000	53.272647
613.000000	53.588976
612.000000	53.855187
611.000000	54.189947
610.000000	54.508997
609.000000	54.792762
608.000000	55.122344
607.000000	55.416554
606.000000	55.698388
605.000000	55.981012
604.000000	56.238446
603.000000	56.560041
602.000000	56.819406
601.000000	57.097817
600.000000	57.314788
599.000000	57.539044
598.000000	57.735565
597.000000	57.911810
596.000000	58.111314
595.000000	58.239987
594.000000	58.352159
593.000000	58.474337
592.000000	58.611612
591.000000	58.700963
590.000000	58.801549
589.000000	58.925219
588.000000	59.018608
587.000000	59.107784
586.000000	59.149388
585.000000	59.241197
584.000000	59.290876
583.000000	59.326160
582.000000	59.339589
581.000000	59.432363
580.000000	59.445617
579.000000	59.444212
578.000000	59.480023
577.000000	59.479321
576.000000	59.480023
575.000000	59.438858
574.000000	59.413668
573.000000	59.338535
572.000000	59.269371
571.000000	59.194766
570.000000	59.103396
569.000000	59.004916
568.000000	58.867290
567.000000	58.764861
566.000000	58.615737
565.000000	58.421148
564.000000	58.227173
563.000000	58.023367
562.000000	57.812540
561.000000	57.615142
560.000000	57.357621
559.000000	57.109666
558.000000	56.847054
557.000000	56.580492
556.000000	56.335434
555.000000	56.016735
554.000000	55.729284
553.000000	55.427262
552.000000	55.130594
551.000000	54.765377
550.000000	54.418241
549.000000	54.054252
548.000000	53.710188
547.000000	53.302753
546.000000	52.893036
545.000000	52.503944
544.000000	52.059206
543.000000	51.594720
542.000000	51.143486
541.000000	50.695062
540.000000	50.266825
539.000000	49.783555
538.000000	49.280448
537.000000	48.798320
536.000000	48.295126
535.000000	47.768848
534.000000	47.254331
533.000000	46.721383
532.000000	46.190014
531.000000	45.641881
530.000000	45.070664
529.000000	44.492513
528.000000	43.919629
527.000000	43.323397
526.000000	42.700219
525.000000	42.085994
524.000000	41.454478
523.000000	40.789960
522.000000	40.139925
521.000000	39.468736
520.000000	38.777974
519.000000	38.074486
518.000000	37.371261
517.000000	36.681552
516.000000	35.938391
515.000000	35.204884
514.000000	34.471905
513.000000	33.732342
512.000000	32.989883
511.000000	32.244703
510.000000	31.508388
509.000000	30.776461
508.000000	30.085700
507.000000	29.410649
506.000000	28.765002
505.000000	28.156394
504.000000	27.588249
503.000000	27.060567
502.000000	26.581247
501.000000	26.148534
500.000000	25.771730
499.000000	25.462160
498.000000	25.201479
497.000000	24.990827
496.000000	24.811510
495.000000	24.690122
494.000000	24.586552
493.000000	24.512648
492.000000	24.454280
491.000000	24.402056
490.000000	24.378270
489.000000	24.371248
488.000000	24.367738
487.000000	24.359838
486.000000	24.354923
485.000000	24.349657
484.000000	24.337105
483.000000	24.327099
482.000000	24.278386
481.000000	24.202639
480.000000	24.122767
479.000000	24.048600
478.000000	24.022093
477.000000	23.989004
476.000000	23.963199
475.000000	23.933181
474.000000	23.877797
473.000000	23.821184
472.000000	23.773963
471.000000	23.717175
470.000000	23.662757
469.000000	23.612639
468.000000	23.551726
467.000000	23.488443
466.000000	23.414100
465.000000	23.345024
464.000000	23.285691
463.000000	23.203800
462.000000	23.110674
461.000000	23.015442
460.000000	22.925125
459.000000	22.812866
458.000000	22.700957
457.000000	22.592647
456.000000	22.473102
455.000000	22.322925
454.000000	22.181613
453.000000	22.040564
452.000000	21.861510
451.000000	21.686494
450.000000	21.509371
449.000000	21.315308
448.000000	21.113697
447.000000	20.909541
446.000000	20.713371
445.000000	20.498068
444.000000	20.264157
443.000000	20.016553
442.000000	19.758505
441.000000	19.480972
440.000000	19.177984
439.000000	18.883511
438.000000	18.598342
437.000000	18.286665
436.000000	17.966211
435.000000	17.644704
434.000000	17.310558
433.000000	16.970356
432.000000	16.619270
431.000000	16.267745
430.000000	15.910339
429.000000	15.553987
428.000000	15.195792
427.000000	14.826625
426.000000	14.466059
425.000000	14.106547
424.000000	13.726497
423.000000	13.341092
422.000000	13.001241
421.000000	12.652612
420.000000	12.285113
419.000000	11.932184
418.000000	11.594352
417.000000	11.276443
416.000000	10.964767
415.000000	10.650194
414.000000	10.321753
413.000000	10.022013
412.000000	9.743338
411.000000	9.460802
410.000000	9.189149
409.000000	8.930399
408.000000	8.701491
407.000000	8.480745
406.000000	8.264652
405.000000	8.055844
404.000000	7.856076
403.000000	7.671931
402.000000	7.499548
401.000000	7.333045
400.000000	7.163646
399.000000	7.018033
398.000000	6.878565
397.000000	6.753490
396.000000	6.639738
395.000000	6.525109
394.000000	6.418817
393.000000	6.318495
392.000000	6.220805
391.000000	6.126626
390.000000	6.059218
389.000000	5.988913
388.000000	5.912113
387.000000	5.846459
386.000000	5.781684
385.000000	5.718050
384.000000	5.661086
383.000000	5.610793
382.000000	5.572788
381.000000	5.538645
380.000000	5.489756
379.000000	5.441218
378.000000	5.426034
377.000000	5.384167
376.000000	5.346250
375.000000	5.297185
374.000000	5.290339
373.000000	5.251808
372.000000	5.183785
371.000000	5.176587
370.000000	5.165353
369.000000	5.127962
368.000000	5.061080
367.000000	5.095399
366.000000	5.045369
365.000000	4.986474
364.000000	4.996217
363.000000	4.971378
362.000000	4.901863
361.000000	4.927053
360.000000	4.922928
359.000000	4.892822
358.000000	4.860171
357.000000	4.809264
356.000000	4.826906
355.000000	4.817251
354.000000	4.777490
353.000000	4.747648
352.000000	4.714734
351.000000	4.740977
350.000000	4.735799
349.000000	4.706308
348.000000	4.677343
347.000000	4.613007
346.000000	4.628191
345.000000	4.642673
344.000000	4.630210
343.000000	4.656015
342.000000	4.600016
341.000000	4.589308
340.000000	4.595189
339.000000	4.565434
338.000000	4.577898
337.000000	4.608706
336.000000	4.664528
335.000000	4.548231
334.000000	4.523304
333.000000	4.551918
332.000000	4.453701
331.000000	4.467657
330.000000	4.491706
329.000000	4.420436
328.000000	4.531028
327.000000	4.472836
326.000000	4.478277
325.000000	4.437376
324.000000	4.429389
323.000000	4.317129
322.000000	4.374531
321.000000	4.469939
320.000000	4.453087
319.000000	4.376375
318.000000	4.460284
317.000000	4.556921
316.000000	4.523392
315.000000	4.521549
314.000000	4.536558
313.000000	4.533310
312.000000	4.571315
311.000000	4.520495
310.000000	4.492584
309.000000	4.494778
308.000000	4.525235
307.000000	4.531555
306.000000	4.544720
305.000000	4.567014
304.000000	4.547792
303.000000	4.493199
302.000000	4.529448
301.000000	4.583603
300.000000	4.555165
299.000000	4.566312
298.000000	4.576494
297.000000	4.576230
296.000000	4.606863
295.000000	4.611866
294.000000	4.578337
293.000000	4.603088
292.000000	4.599139
291.000000	4.578600
290.000000	4.598437
289.000000	4.591239
288.000000	4.593258
287.000000	4.586500
286.000000	4.633282
285.000000	4.644341
284.000000	4.636354
283.000000	4.584393
282.000000	4.614586
281.000000	4.631526
280.000000	4.576406
279.000000	4.639163
278.000000	4.631702
277.000000	4.662861
276.000000	4.651538
275.000000	4.658121
274.000000	4.656278
273.000000	4.683487
272.000000	4.680415
271.000000	4.736852
270.000000	4.726758
269.000000	4.753090
268.000000	4.760814
267.000000	4.758005
266.000000	4.777403
265.000000	4.820411
264.000000	4.801891
263.000000	4.820937
262.000000	4.836385
261.000000	4.876409
260.000000	4.905286
259.000000	4.901424
258.000000	4.937498
257.000000	4.917837
256.000000	4.908358
255.000000	4.964883
254.000000	4.987703
253.000000	5.001834
252.000000	5.015263
251.000000	4.983666
250.000000	5.000430
