PE UV       SUBTECH     SPECTRUM    ASCII       PEDS        4.00        
   -1
CICIMAUCR0008-1.Sample.ASC
24/04/12
13:52:45.00
24/04/12
13:52:45.00
Vinicio Soto Monge
C. kalinini
250,000000
1
Lambda 1050
1050L1511233
PerkinElmer UV WinLab 6.3.2.0749 / 2.02.05 Lambda 900 UV/VIS/NIR, Aug  7 2015 09:38:08

0
0
3350/servo 860,8/2
0
0
UV/VIS
1
1
1
DoubleDePol,CommonBeamDepol,RBeamAtt,SBeamAtt,60mm sphere, WB InGaAs Detector
0
0
0
0
Program
Program
3350/servo 860,8/2
3350/0,2 860,8/0,2
3350/0,2 860,8/0,2
0
15.00
 
 
 
0
 
860,8
319,2
860,8
Front
100
on
S:100 R:100
0
0
0
0
 
0
 
 
 
0
 
 
0
0
0
0
0
 
 
 
 
0
0


0
0
#HDR
-1
-1
#GR
nm
%R
1.0
0.0
2500,000000
-1,000000
2251
8
60,497900
3,778300
#DATA
2500.000000	6.188068
2499.000000	6.110644
2498.000000	6.282624
2497.000000	6.208323
2496.000000	6.100800
2495.000000	6.107331
2494.000000	6.073257
2493.000000	6.107994
2492.000000	5.987598
2491.000000	6.063886
2490.000000	6.007948
2489.000000	6.091619
2488.000000	6.047796
2487.000000	5.973684
2486.000000	5.946046
2485.000000	6.010503
2484.000000	6.023092
2483.000000	6.015236
2482.000000	5.971413
2481.000000	6.031137
2480.000000	6.017602
2479.000000	5.982960
2478.000000	6.030759
2477.000000	5.989207
2476.000000	6.038993
2475.000000	6.028298
2474.000000	6.050446
2473.000000	6.035113
2472.000000	6.024512
2471.000000	6.067483
2470.000000	6.093133
2469.000000	6.072784
2468.000000	6.099191
2467.000000	6.094269
2466.000000	6.160714
2465.000000	6.142446
2464.000000	6.180117
2463.000000	6.214192
2462.000000	6.236908
2461.000000	6.289533
2460.000000	6.300892
2459.000000	6.344904
2458.000000	6.370649
2457.000000	6.433876
2456.000000	6.467287
2455.000000	6.510921
2454.000000	6.521522
2453.000000	6.556354
2452.000000	6.599987
2451.000000	6.616362
2450.000000	6.659807
2449.000000	6.701737
2448.000000	6.702683
2447.000000	6.743005
2446.000000	6.777457
2445.000000	6.823079
2444.000000	6.867186
2443.000000	6.897758
2442.000000	6.933631
2441.000000	6.973857
2440.000000	7.006796
2439.000000	7.045035
2438.000000	7.094916
2437.000000	7.109586
2436.000000	7.138833
2435.000000	7.167418
2434.000000	7.216542
2433.000000	7.233579
2432.000000	7.261879
2431.000000	7.317250
2430.000000	7.357192
2429.000000	7.384452
2428.000000	7.399501
2427.000000	7.414172
2426.000000	7.385682
2425.000000	7.361073
2424.000000	7.369686
2423.000000	7.398176
2422.000000	7.423921
2421.000000	7.437929
2420.000000	7.474654
2419.000000	7.451275
2418.000000	7.437267
2417.000000	7.473707
2416.000000	7.478061
2415.000000	7.463958
2414.000000	7.483835
2413.000000	7.469353
2412.000000	7.487810
2411.000000	7.479197
2410.000000	7.459226
2409.000000	7.448246
2408.000000	7.470205
2407.000000	7.483930
2406.000000	7.462633
2405.000000	7.482794
2404.000000	7.474843
2403.000000	7.462917
2402.000000	7.476736
2401.000000	7.468218
2400.000000	7.458658
2399.000000	7.443892
2398.000000	7.439728
2397.000000	7.446921
2396.000000	7.454872
2395.000000	7.453073
2394.000000	7.434143
2393.000000	7.426666
2392.000000	7.408398
2391.000000	7.411238
2390.000000	7.416444
2389.000000	7.407925
2388.000000	7.397608
2387.000000	7.399407
2386.000000	7.391456
2385.000000	7.372620
2384.000000	7.353880
2383.000000	7.347538
2382.000000	7.326715
2381.000000	7.320373
2380.000000	7.317534
2379.000000	7.302200
2378.000000	7.295575
2377.000000	7.272007
2376.000000	7.249575
2375.000000	7.245126
2374.000000	7.230739
2373.000000	7.203291
2372.000000	7.199315
2371.000000	7.194393
2370.000000	7.167702
2369.000000	7.136656
2368.000000	7.123500
2367.000000	7.087627
2366.000000	7.051092
2365.000000	7.032825
2364.000000	7.021467
2363.000000	6.989096
2362.000000	6.957010
2361.000000	6.943096
2360.000000	6.932779
2359.000000	6.895297
2358.000000	6.855639
2357.000000	6.853935
2356.000000	6.852989
2355.000000	6.837466
2354.000000	6.808124
2353.000000	6.786449
2352.000000	6.775470
2351.000000	6.750293
2350.000000	6.744803
2349.000000	6.745182
2348.000000	6.743383
2347.000000	6.718206
2346.000000	6.718301
2345.000000	6.727387
2344.000000	6.704482
2343.000000	6.701642
2342.000000	6.708457
2341.000000	6.705712
2340.000000	6.697194
2339.000000	6.683280
2338.000000	6.651572
2337.000000	6.640971
2336.000000	6.619012
2335.000000	6.586831
2334.000000	6.592226
2333.000000	6.584654
2332.000000	6.547835
2331.000000	6.489341
2330.000000	6.486880
2329.000000	6.478929
2328.000000	6.455267
2327.000000	6.436526
2326.000000	6.420814
2325.000000	6.368283
2324.000000	6.329949
2323.000000	6.311019
2322.000000	6.308369
2321.000000	6.293887
2320.000000	6.277134
2319.000000	6.241356
2318.000000	6.189961
2317.000000	6.157212
2316.000000	6.144055
2315.000000	6.124747
2314.000000	6.110928
2313.000000	6.064738
2312.000000	6.043347
2311.000000	6.026405
2310.000000	5.987598
2309.000000	5.988639
2308.000000	5.979647
2307.000000	5.982108
2306.000000	5.951347
2305.000000	5.965355
2304.000000	5.981067
2303.000000	5.994129
2302.000000	5.994413
2301.000000	5.998010
2300.000000	6.011071
2299.000000	6.009746
2298.000000	6.011071
2297.000000	6.028487
2296.000000	6.063508
2295.000000	6.067010
2294.000000	6.082154
2293.000000	6.100232
2292.000000	6.084331
2291.000000	6.077232
2290.000000	6.082817
2289.000000	6.044294
2288.000000	6.030853
2287.000000	6.046376
2286.000000	6.048080
2285.000000	6.022808
2284.000000	5.987693
2283.000000	5.980594
2282.000000	5.978228
2281.000000	5.921437
2280.000000	5.886227
2279.000000	5.888309
2278.000000	5.869285
2277.000000	5.825745
2276.000000	5.810601
2275.000000	5.812873
2274.000000	5.791671
2273.000000	5.753811
2272.000000	5.751255
2271.000000	5.752581
2270.000000	5.769239
2269.000000	5.770659
2268.000000	5.753811
2267.000000	5.778231
2266.000000	5.782963
2265.000000	5.813914
2264.000000	5.832276
2263.000000	5.892758
2262.000000	5.951441
2261.000000	6.022713
2260.000000	6.052339
2259.000000	6.125125
2258.000000	6.205862
2257.000000	6.275714
2256.000000	6.353328
2255.000000	6.422612
2254.000000	6.492654
2253.000000	6.581247
2252.000000	6.656021
2251.000000	6.718395
2250.000000	6.786638
2249.000000	6.838602
2248.000000	6.921232
2247.000000	6.977265
2246.000000	7.007080
2245.000000	7.082800
2244.000000	7.159846
2243.000000	7.227710
2242.000000	7.267085
2241.000000	7.312328
2240.000000	7.344415
2239.000000	7.391929
2238.000000	7.427423
2237.000000	7.465378
2236.000000	7.515070
2235.000000	7.521979
2234.000000	7.554160
2233.000000	7.598930
2232.000000	7.628461
2231.000000	7.643321
2230.000000	7.682223
2229.000000	7.671527
2228.000000	7.694527
2227.000000	7.708346
2226.000000	7.718190
2225.000000	7.759174
2224.000000	7.756334
2223.000000	7.734659
2222.000000	7.737309
2221.000000	7.756334
2220.000000	7.732103
2219.000000	7.765799
2218.000000	7.719610
2217.000000	7.752264
2216.000000	7.744692
2215.000000	7.753211
2214.000000	7.715445
2213.000000	7.723206
2212.000000	7.729927
2211.000000	7.739865
2210.000000	7.712511
2209.000000	7.706075
2208.000000	7.716486
2207.000000	7.698313
2206.000000	7.676922
2205.000000	7.643227
2204.000000	7.662157
2203.000000	7.671527
2202.000000	7.640008
2201.000000	7.619564
2200.000000	7.621173
2199.000000	7.599971
2198.000000	7.596375
2197.000000	7.608679
2196.000000	7.594292
2195.000000	7.601391
2194.000000	7.588802
2193.000000	7.596753
2192.000000	7.587004
2191.000000	7.573469
2190.000000	7.590979
2189.000000	7.580852
2188.000000	7.566465
2187.000000	7.564383
2186.000000	7.568547
2185.000000	7.552551
2184.000000	7.555864
2183.000000	7.536082
2182.000000	7.543749
2181.000000	7.534189
2180.000000	7.549049
2179.000000	7.553782
2178.000000	7.535893
2177.000000	7.513177
2176.000000	7.517436
2175.000000	7.522452
2174.000000	7.532201
2173.000000	7.545169
2172.000000	7.542992
2171.000000	7.546778
2170.000000	7.551415
2169.000000	7.563152
2168.000000	7.564099
2167.000000	7.567979
2166.000000	7.571955
2165.000000	7.605082
2164.000000	7.615683
2163.000000	7.608679
2162.000000	7.607922
2161.000000	7.623918
2160.000000	7.622214
2159.000000	7.639346
2158.000000	7.638494
2157.000000	7.654585
2156.000000	7.660737
2155.000000	7.661210
2154.000000	7.675124
2153.000000	7.666227
2152.000000	7.666227
2151.000000	7.662725
2150.000000	7.676828
2149.000000	7.679099
2148.000000	7.680046
2147.000000	7.675313
2146.000000	7.668782
2145.000000	7.675029
2144.000000	7.691025
2143.000000	7.687428
2142.000000	7.674935
2141.000000	7.682507
2140.000000	7.670770
2139.000000	7.657140
2138.000000	7.656667
2137.000000	7.684684
2136.000000	7.680708
2135.000000	7.670391
2134.000000	7.658939
2133.000000	7.644078
2132.000000	7.624864
2131.000000	7.598551
2130.000000	7.597510
2129.000000	7.576309
2128.000000	7.569020
2127.000000	7.555391
2126.000000	7.547913
2125.000000	7.534284
2124.000000	7.504469
2123.000000	7.473613
2122.000000	7.445691
2121.000000	7.433386
2120.000000	7.422217
2119.000000	7.403382
2118.000000	7.366184
2117.000000	7.332867
2116.000000	7.329649
2115.000000	7.314694
2114.000000	7.280999
2113.000000	7.260270
2112.000000	7.240299
2111.000000	7.228941
2110.000000	7.214081
2109.000000	7.179723
2108.000000	7.154261
2107.000000	7.149718
2106.000000	7.135615
2105.000000	7.124730
2104.000000	7.093401
2103.000000	7.073903
2102.000000	7.074566
2101.000000	7.066994
2100.000000	7.069265
2099.000000	7.062072
2098.000000	7.048158
2097.000000	7.038504
2096.000000	7.006607
2095.000000	7.002726
2094.000000	7.002915
2093.000000	7.001211
2092.000000	7.005471
2091.000000	6.991557
2090.000000	6.971396
2089.000000	6.971964
2088.000000	6.975466
2087.000000	6.968557
2086.000000	6.976129
2085.000000	6.964392
2084.000000	6.949059
2083.000000	6.965434
2082.000000	6.953129
2081.000000	6.941582
2080.000000	6.941487
2079.000000	6.948302
2078.000000	6.925207
2077.000000	6.910252
2076.000000	6.927384
2075.000000	6.929845
2074.000000	6.941960
2073.000000	6.922651
2072.000000	6.909116
2071.000000	6.906750
2070.000000	6.901923
2069.000000	6.901166
2068.000000	6.891985
2067.000000	6.892174
2066.000000	6.902112
2065.000000	6.898137
2064.000000	6.906372
2063.000000	6.905709
2062.000000	6.897096
2061.000000	6.902869
2060.000000	6.913376
2059.000000	6.926627
2058.000000	6.929750
2057.000000	6.931170
2056.000000	6.951141
2055.000000	6.965434
2054.000000	6.975561
2053.000000	6.998561
2052.000000	7.018911
2051.000000	7.050051
2050.000000	7.095957
2049.000000	7.130220
2048.000000	7.163253
2047.000000	7.200924
2046.000000	7.254875
2045.000000	7.287151
2044.000000	7.346592
2043.000000	7.402246
2042.000000	7.441148
2041.000000	7.497275
2040.000000	7.552173
2039.000000	7.589749
2038.000000	7.643794
2037.000000	7.712700
2036.000000	7.767030
2035.000000	7.781511
2034.000000	7.826470
2033.000000	7.888088
2032.000000	7.930870
2031.000000	7.968730
2030.000000	8.006117
2029.000000	8.041990
2028.000000	8.082027
2027.000000	8.105973
2026.000000	8.138439
2025.000000	8.164751
2024.000000	8.196933
2023.000000	8.233562
2022.000000	8.267731
2021.000000	8.310892
2020.000000	8.330011
2019.000000	8.350172
2018.000000	8.377431
2017.000000	8.385098
2016.000000	8.412641
2015.000000	8.438386
2014.000000	8.464605
2013.000000	8.476152
2012.000000	8.486658
2011.000000	8.506724
2010.000000	8.536823
2009.000000	8.538432
2008.000000	8.548749
2007.000000	8.560959
2006.000000	8.569667
2005.000000	8.554239
2004.000000	8.551683
2003.000000	8.556889
2002.000000	8.548181
2001.000000	8.548749
2000.000000	8.525370
1999.000000	8.507292
1998.000000	8.514959
1997.000000	8.504358
1996.000000	8.508806
1995.000000	8.470378
1994.000000	8.470094
1993.000000	8.456559
1992.000000	8.439049
1991.000000	8.412168
1990.000000	8.396929
1989.000000	8.379040
1988.000000	8.321398
1987.000000	8.303320
1986.000000	8.281172
1985.000000	8.244163
1984.000000	8.239904
1983.000000	8.185669
1982.000000	8.167591
1981.000000	8.128974
1980.000000	8.121591
1979.000000	8.075780
1978.000000	8.052590
1977.000000	8.023343
1976.000000	7.986051
1975.000000	7.958035
1974.000000	7.935981
1973.000000	7.895849
1972.000000	7.879380
1971.000000	7.844548
1970.000000	7.807729
1969.000000	7.800252
1968.000000	7.753968
1967.000000	7.739959
1966.000000	7.699733
1965.000000	7.686009
1964.000000	7.654869
1963.000000	7.647107
1962.000000	7.626852
1961.000000	7.596469
1960.000000	7.555580
1959.000000	7.524913
1958.000000	7.530782
1957.000000	7.512893
1956.000000	7.480049
1955.000000	7.443324
1954.000000	7.415970
1953.000000	7.392876
1952.000000	7.353028
1951.000000	7.318575
1950.000000	7.313369
1949.000000	7.308069
1948.000000	7.280525
1947.000000	7.259702
1946.000000	7.243138
1945.000000	7.238501
1944.000000	7.235472
1943.000000	7.214459
1942.000000	7.212472
1941.000000	7.228562
1940.000000	7.227710
1939.000000	7.230361
1938.000000	7.214365
1937.000000	7.218435
1936.000000	7.219949
1935.000000	7.236134
1934.000000	7.251089
1933.000000	7.264056
1932.000000	7.291410
1931.000000	7.333435
1930.000000	7.355773
1929.000000	7.413415
1928.000000	7.458658
1927.000000	7.490839
1926.000000	7.512325
1925.000000	7.555959
1924.000000	7.601580
1923.000000	7.681560
1922.000000	7.754346
1921.000000	7.837734
1920.000000	7.868874
1919.000000	7.910047
1918.000000	7.978952
1917.000000	8.066409
1916.000000	8.153961
1915.000000	8.256847
1914.000000	8.355756
1913.000000	8.434506
1912.000000	8.538053
1911.000000	8.609136
1910.000000	8.731425
1909.000000	8.850022
1908.000000	8.980072
1907.000000	9.094315
1906.000000	9.207991
1905.000000	9.347600
1904.000000	9.460897
1903.000000	9.575519
1902.000000	9.716264
1901.000000	9.868179
1900.000000	10.002866
1899.000000	10.101114
1898.000000	10.227567
1897.000000	10.353831
1896.000000	10.510004
1895.000000	10.672709
1894.000000	10.835603
1893.000000	10.982595
1892.000000	11.129682
1891.000000	11.271090
1890.000000	11.400099
1889.000000	11.544820
1888.000000	11.711783
1887.000000	11.917838
1886.000000	12.101839
1885.000000	12.320008
1884.000000	12.572252
1883.000000	12.824401
1882.000000	13.073806
1881.000000	13.374795
1880.000000	13.692442
1879.000000	13.987184
1878.000000	14.271231
1877.000000	14.541742
1876.000000	14.792377
1875.000000	15.021715
1874.000000	15.230704
1873.000000	15.408742
1872.000000	15.579586
1871.000000	15.708122
1870.000000	15.795484
1869.000000	15.872624
1868.000000	15.967086
1867.000000	16.023781
1866.000000	16.069119
1865.000000	16.112280
1864.000000	16.162066
1863.000000	16.213556
1862.000000	16.247819
1861.000000	16.271198
1860.000000	16.277918
1859.000000	16.247062
1858.000000	16.214502
1857.000000	16.198223
1856.000000	16.178914
1855.000000	16.131778
1854.000000	16.077543
1853.000000	16.010152
1852.000000	15.934242
1851.000000	15.905090
1850.000000	15.911147
1849.000000	15.898843
1848.000000	15.807883
1847.000000	15.675562
1846.000000	15.557059
1845.000000	15.501594
1844.000000	15.532166
1843.000000	15.560656
1842.000000	15.543997
1841.000000	15.497051
1840.000000	15.435055
1839.000000	15.391705
1838.000000	15.368705
1837.000000	15.320149
1836.000000	15.243292
1835.000000	15.161325
1834.000000	15.102452
1833.000000	15.074152
1832.000000	15.051530
1831.000000	14.990386
1830.000000	14.910122
1829.000000	14.837620
1828.000000	14.768241
1827.000000	14.706150
1826.000000	14.633837
1825.000000	14.568055
1824.000000	14.545150
1823.000000	14.568244
1822.000000	14.580170
1821.000000	14.541080
1820.000000	14.474919
1819.000000	14.428824
1818.000000	14.429581
1817.000000	14.457030
1816.000000	14.461952
1815.000000	14.454380
1814.000000	14.447659
1813.000000	14.455799
1812.000000	14.455421
1811.000000	14.432042
1810.000000	14.384527
1809.000000	14.360013
1808.000000	14.356416
1807.000000	14.344680
1806.000000	14.343354
1805.000000	14.325087
1804.000000	14.293663
1803.000000	14.274638
1802.000000	14.253058
1801.000000	14.199296
1800.000000	14.133514
1799.000000	14.096506
1798.000000	14.090543
1797.000000	14.082497
1796.000000	14.049843
1795.000000	14.005641
1794.000000	13.955571
1793.000000	13.929731
1792.000000	13.883258
1791.000000	13.837731
1790.000000	13.796085
1789.000000	13.755669
1788.000000	13.701623
1787.000000	13.665656
1786.000000	13.613125
1785.000000	13.553400
1784.000000	13.491404
1783.000000	13.424676
1782.000000	13.367980
1781.000000	13.311663
1780.000000	13.250234
1779.000000	13.179909
1778.000000	13.107501
1777.000000	13.024398
1776.000000	12.935900
1775.000000	12.856488
1774.000000	12.781809
1773.000000	12.674001
1772.000000	12.592791
1771.000000	12.510540
1770.000000	12.404437
1769.000000	12.299753
1768.000000	12.233024
1767.000000	12.150205
1766.000000	12.086032
1765.000000	12.036246
1764.000000	12.009933
1763.000000	11.990529
1762.000000	11.999521
1761.000000	12.032554
1760.000000	12.058583
1759.000000	12.091711
1758.000000	12.141497
1757.000000	12.179547
1756.000000	12.208510
1755.000000	12.173868
1754.000000	12.191283
1753.000000	12.201127
1752.000000	12.188255
1751.000000	12.170460
1750.000000	12.147365
1749.000000	12.102312
1748.000000	12.038233
1747.000000	11.966015
1746.000000	11.904587
1745.000000	11.820537
1744.000000	11.686417
1743.000000	11.560153
1742.000000	11.437959
1741.000000	11.290967
1740.000000	11.129398
1739.000000	10.986097
1738.000000	10.829356
1737.000000	10.714923
1736.000000	10.624058
1735.000000	10.591877
1734.000000	10.555626
1733.000000	10.574935
1732.000000	10.589700
1731.000000	10.615540
1730.000000	10.690976
1729.000000	10.753540
1728.000000	10.830870
1727.000000	10.906591
1726.000000	10.964043
1725.000000	10.996793
1724.000000	11.030583
1723.000000	11.048188
1722.000000	11.056138
1721.000000	11.059925
1720.000000	11.034274
1719.000000	11.058126
1718.000000	11.063332
1717.000000	11.073081
1716.000000	11.119081
1715.000000	11.147571
1714.000000	11.166028
1713.000000	11.207012
1712.000000	11.224143
1711.000000	11.243641
1710.000000	11.265884
1709.000000	11.249604
1708.000000	11.226320
1707.000000	11.247995
1706.000000	11.220831
1705.000000	11.184769
1704.000000	11.160727
1703.000000	11.124760
1702.000000	11.085291
1701.000000	10.990451
1700.000000	10.907726
1699.000000	10.819228
1698.000000	10.734894
1697.000000	10.665231
1696.000000	10.608157
1695.000000	10.607968
1694.000000	10.675359
1693.000000	10.725524
1692.000000	10.810142
1691.000000	10.938204
1690.000000	11.030583
1689.000000	11.101855
1688.000000	11.167448
1687.000000	11.169625
1686.000000	11.158361
1685.000000	11.165933
1684.000000	11.214584
1683.000000	11.314345
1682.000000	11.487367
1681.000000	11.781635
1680.000000	12.141213
1679.000000	12.517544
1678.000000	12.903340
1677.000000	13.295951
1676.000000	13.599685
1675.000000	13.888464
1674.000000	14.146386
1673.000000	14.361149
1672.000000	14.560578
1671.000000	14.739278
1670.000000	14.864406
1669.000000	15.000324
1668.000000	15.107942
1667.000000	15.230515
1666.000000	15.270930
1665.000000	15.353371
1664.000000	15.407322
1663.000000	15.464870
1662.000000	15.517117
1661.000000	15.553557
1660.000000	15.561319
1659.000000	15.600220
1658.000000	15.628994
1657.000000	15.631644
1656.000000	15.639216
1655.000000	15.633348
1654.000000	15.632401
1653.000000	15.634578
1652.000000	15.615175
1651.000000	15.591039
1650.000000	15.576557
1649.000000	15.539549
1648.000000	15.512195
1647.000000	15.476133
1646.000000	15.438273
1645.000000	15.397289
1644.000000	15.356400
1643.000000	15.317215
1642.000000	15.265819
1641.000000	15.205243
1640.000000	15.190572
1639.000000	15.128576
1638.000000	15.063267
1637.000000	15.028246
1636.000000	14.962275
1635.000000	14.906715
1634.000000	14.855887
1633.000000	14.801747
1632.000000	14.758208
1631.000000	14.703879
1630.000000	14.621438
1629.000000	14.575816
1628.000000	14.523475
1627.000000	14.468766
1626.000000	14.402132
1625.000000	14.347519
1624.000000	14.280980
1623.000000	14.215765
1622.000000	14.159732
1621.000000	14.089028
1620.000000	14.028641
1619.000000	13.981789
1618.000000	13.927081
1617.000000	13.858933
1616.000000	13.805834
1615.000000	13.755006
1614.000000	13.698216
1613.000000	13.648051
1612.000000	13.607730
1611.000000	13.566935
1610.000000	13.502762
1609.000000	13.442091
1608.000000	13.413128
1607.000000	13.356716
1606.000000	13.296613
1605.000000	13.260078
1604.000000	13.203098
1603.000000	13.167131
1602.000000	13.123971
1601.000000	13.084312
1600.000000	13.044180
1599.000000	12.996760
1598.000000	12.956912
1597.000000	12.913562
1596.000000	12.886492
1595.000000	12.868319
1594.000000	12.840113
1593.000000	12.790895
1592.000000	12.749059
1591.000000	12.723409
1590.000000	12.710726
1589.000000	12.681668
1588.000000	12.666808
1587.000000	12.652043
1586.000000	12.628853
1585.000000	12.607841
1584.000000	12.593738
1583.000000	12.587018
1582.000000	12.578310
1581.000000	12.559569
1580.000000	12.556067
1579.000000	12.560705
1578.000000	12.571400
1577.000000	12.575565
1576.000000	12.569602
1575.000000	12.575565
1574.000000	12.585125
1573.000000	12.603392
1572.000000	12.635289
1571.000000	12.650528
1570.000000	12.655639
1569.000000	12.673812
1568.000000	12.705615
1567.000000	12.730792
1566.000000	12.741014
1565.000000	12.756348
1564.000000	12.782376
1563.000000	12.819669
1562.000000	12.847212
1561.000000	12.862924
1560.000000	12.877690
1559.000000	12.902109
1558.000000	12.917727
1557.000000	12.936941
1556.000000	12.965904
1555.000000	12.976032
1554.000000	12.983982
1553.000000	12.988715
1552.000000	12.996949
1551.000000	13.005563
1550.000000	13.012472
1549.000000	13.017299
1548.000000	13.010390
1547.000000	12.997139
1546.000000	12.991649
1545.000000	13.005184
1544.000000	13.011147
1543.000000	13.010200
1542.000000	13.015217
1541.000000	13.022600
1540.000000	13.037649
1539.000000	13.040299
1538.000000	13.035472
1537.000000	13.046452
1536.000000	13.056295
1535.000000	13.061217
1534.000000	13.070304
1533.000000	13.076361
1532.000000	13.070588
1531.000000	13.060081
1530.000000	13.059703
1529.000000	13.045221
1528.000000	13.046073
1527.000000	13.053834
1526.000000	13.049197
1525.000000	13.052699
1524.000000	13.029888
1523.000000	13.009633
1522.000000	13.000073
1521.000000	12.998274
1520.000000	12.993258
1519.000000	12.978682
1518.000000	12.976126
1517.000000	12.968365
1516.000000	12.961645
1515.000000	12.938171
1514.000000	12.932208
1513.000000	12.938077
1512.000000	12.920850
1511.000000	12.908924
1510.000000	12.900879
1509.000000	12.885924
1508.000000	12.867941
1507.000000	12.879015
1506.000000	12.865006
1505.000000	12.847875
1504.000000	12.829986
1503.000000	12.848253
1502.000000	12.848443
1501.000000	12.829228
1500.000000	12.831027
1499.000000	12.827430
1498.000000	12.827335
1497.000000	12.838978
1496.000000	12.853364
1495.000000	12.843994
1494.000000	12.833582
1493.000000	12.849200
1492.000000	12.861220
1491.000000	12.889237
1490.000000	12.898702
1489.000000	12.913468
1488.000000	12.922081
1487.000000	12.932208
1486.000000	12.954641
1485.000000	12.979534
1484.000000	12.994205
1483.000000	13.013703
1482.000000	13.040962
1481.000000	13.076077
1480.000000	13.113086
1479.000000	13.132678
1478.000000	13.176786
1477.000000	13.200827
1476.000000	13.243987
1475.000000	13.275317
1474.000000	13.315922
1473.000000	13.368074
1472.000000	13.413317
1471.000000	13.427515
1470.000000	13.457519
1469.000000	13.482034
1468.000000	13.527655
1467.000000	13.594195
1466.000000	13.623442
1465.000000	13.661870
1464.000000	13.712887
1463.000000	13.745541
1462.000000	13.788229
1461.000000	13.855620
1460.000000	13.931246
1459.000000	13.991917
1458.000000	14.068773
1457.000000	14.114205
1456.000000	14.193522
1455.000000	14.285901
1454.000000	14.353577
1453.000000	14.426174
1452.000000	14.523191
1451.000000	14.605537
1450.000000	14.664883
1449.000000	14.736344
1448.000000	14.830900
1447.000000	14.930945
1446.000000	15.044905
1445.000000	15.116082
1444.000000	15.198712
1443.000000	15.292416
1442.000000	15.421520
1441.000000	15.507084
1440.000000	15.613376
1439.000000	15.711245
1438.000000	15.832776
1437.000000	15.914744
1436.000000	15.982987
1435.000000	16.086724
1434.000000	16.215828
1433.000000	16.302244
1432.000000	16.404656
1431.000000	16.501672
1430.000000	16.612319
1429.000000	16.740003
1428.000000	16.894662
1427.000000	17.017897
1426.000000	17.177194
1425.000000	17.339425
1424.000000	17.549360
1423.000000	17.678369
1422.000000	17.849781
1421.000000	18.036621
1420.000000	18.258293
1419.000000	18.389858
1418.000000	18.577928
1417.000000	18.709777
1416.000000	18.895103
1415.000000	19.111095
1414.000000	19.260833
1413.000000	19.384162
1412.000000	19.533521
1411.000000	19.726230
1410.000000	19.954716
1409.000000	20.200145
1408.000000	20.431282
1407.000000	20.704160
1406.000000	20.992087
1405.000000	21.291278
1404.000000	21.551661
1403.000000	21.852745
1402.000000	22.170771
1401.000000	22.522587
1400.000000	22.769815
1399.000000	22.925894
1398.000000	23.121915
1397.000000	23.321060
1396.000000	23.526168
1395.000000	23.610691
1394.000000	23.662559
1393.000000	23.760428
1392.000000	23.884704
1391.000000	23.987306
1390.000000	24.149064
1389.000000	24.358999
1388.000000	24.570070
1387.000000	24.765807
1386.000000	25.019376
1385.000000	25.330682
1384.000000	25.696412
1383.000000	26.013113
1382.000000	26.270846
1381.000000	26.437148
1380.000000	26.533786
1379.000000	26.611683
1378.000000	26.682861
1377.000000	26.754700
1376.000000	26.869417
1375.000000	27.036286
1374.000000	27.287773
1373.000000	27.603054
1372.000000	27.979669
1371.000000	28.339909
1370.000000	28.667589
1369.000000	28.983249
1368.000000	29.300045
1367.000000	29.546799
1366.000000	29.761656
1365.000000	29.999607
1364.000000	30.184176
1363.000000	30.327383
1362.000000	30.492737
1361.000000	30.617297
1360.000000	30.684878
1359.000000	30.739397
1358.000000	30.845121
1357.000000	31.033949
1356.000000	31.320551
1355.000000	31.775632
1354.000000	32.318832
1353.000000	32.894497
1352.000000	33.504898
1351.000000	34.128835
1350.000000	34.694846
1349.000000	35.198198
1348.000000	35.646274
1347.000000	36.061506
1346.000000	36.436228
1345.000000	36.813127
1344.000000	37.169202
1343.000000	37.485998
1342.000000	37.820683
1341.000000	38.131988
1340.000000	38.395496
1339.000000	38.665061
1338.000000	38.914276
1337.000000	39.137178
1336.000000	39.366895
1335.000000	39.583834
1334.000000	39.796798
1333.000000	40.000013
1332.000000	40.194615
1331.000000	40.378899
1330.000000	40.541698
1329.000000	40.705917
1328.000000	40.850165
1327.000000	40.978984
1326.000000	41.109034
1325.000000	41.231891
1324.000000	41.342727
1323.000000	41.453846
1322.000000	41.550769
1321.000000	41.655642
1320.000000	41.753416
1319.000000	41.849675
1318.000000	41.939215
1317.000000	42.012285
1316.000000	42.093211
1315.000000	42.163915
1314.000000	42.213702
1313.000000	42.266517
1312.000000	42.325295
1311.000000	42.378678
1310.000000	42.427991
1309.000000	42.467271
1308.000000	42.492732
1307.000000	42.517057
1306.000000	42.527942
1305.000000	42.537312
1304.000000	42.551983
1303.000000	42.553024
1302.000000	42.541003
1301.000000	42.527184
1300.000000	42.518571
1299.000000	42.505036
1298.000000	42.493583
1297.000000	42.470015
1296.000000	42.450423
1295.000000	42.434143
1294.000000	42.404328
1293.000000	42.368550
1292.000000	42.343562
1291.000000	42.311476
1290.000000	42.260364
1289.000000	42.217298
1288.000000	42.169500
1287.000000	42.098890
1286.000000	42.020141
1285.000000	41.948680
1284.000000	41.866239
1283.000000	41.781622
1282.000000	41.691893
1281.000000	41.611440
1280.000000	41.541304
1279.000000	41.468139
1278.000000	41.383426
1277.000000	41.304772
1276.000000	41.233216
1275.000000	41.154656
1274.000000	41.093985
1273.000000	41.041170
1272.000000	40.972264
1271.000000	40.927305
1270.000000	40.868906
1269.000000	40.816848
1268.000000	40.750403
1267.000000	40.686419
1266.000000	40.628493
1265.000000	40.557032
1264.000000	40.494752
1263.000000	40.436447
1262.000000	40.378048
1261.000000	40.315484
1260.000000	40.265697
1259.000000	40.214113
1258.000000	40.138865
1257.000000	40.069865
1256.000000	39.993766
1255.000000	39.902239
1254.000000	39.839580
1253.000000	39.757518
1252.000000	39.655390
1251.000000	39.571056
1250.000000	39.492496
1249.000000	39.368788
1248.000000	39.252652
1247.000000	39.143330
1246.000000	39.038647
1245.000000	38.892885
1244.000000	38.754695
1243.000000	38.614612
1242.000000	38.452097
1241.000000	38.281347
1240.000000	38.100848
1239.000000	37.924798
1238.000000	37.748369
1237.000000	37.590303
1236.000000	37.400434
1235.000000	37.197030
1234.000000	37.002239
1233.000000	36.810098
1232.000000	36.625813
1231.000000	36.412849
1230.000000	36.195910
1229.000000	35.993926
1228.000000	35.790238
1227.000000	35.578504
1226.000000	35.365824
1225.000000	35.166206
1224.000000	34.959300
1223.000000	34.764887
1222.000000	34.557697
1221.000000	34.357133
1220.000000	34.190642
1219.000000	33.982600
1218.000000	33.831538
1217.000000	33.672051
1216.000000	33.537269
1215.000000	33.392075
1214.000000	33.255873
1213.000000	33.121374
1212.000000	33.001073
1211.000000	32.874715
1210.000000	32.777603
1209.000000	32.685413
1208.000000	32.591899
1207.000000	32.516462
1206.000000	32.462133
1205.000000	32.443013
1204.000000	32.425408
1203.000000	32.396256
1202.000000	32.358585
1201.000000	32.349782
1200.000000	32.310692
1199.000000	32.236296
1198.000000	32.134641
1197.000000	31.949032
1196.000000	31.778282
1195.000000	31.520264
1194.000000	31.207917
1193.000000	30.789372
1192.000000	30.330127
1191.000000	29.842487
1190.000000	29.363366
1189.000000	28.959681
1188.000000	28.649038
1187.000000	28.475070
1186.000000	28.418564
1185.000000	28.491445
1184.000000	28.707721
1183.000000	29.036443
1182.000000	29.482626
1181.000000	29.999229
1180.000000	30.493400
1179.000000	31.017386
1178.000000	31.487515
1177.000000	31.866496
1176.000000	32.176666
1175.000000	32.504631
1174.000000	32.773912
1173.000000	33.123646
1172.000000	33.416968
1171.000000	33.786200
1170.000000	34.141992
1169.000000	34.502611
1168.000000	34.870707
1167.000000	35.211922
1166.000000	35.604344
1165.000000	36.002917
1164.000000	36.373853
1163.000000	36.774509
1162.000000	37.143079
1161.000000	37.523953
1160.000000	37.865358
1159.000000	38.231656
1158.000000	38.555739
1157.000000	38.888058
1156.000000	39.135758
1155.000000	39.311430
1154.000000	39.434286
1153.000000	39.502151
1152.000000	39.539822
1151.000000	39.490414
1150.000000	39.474702
1149.000000	39.445171
1148.000000	39.413936
1147.000000	39.444319
1146.000000	39.538875
1145.000000	39.719185
1144.000000	39.975877
1143.000000	40.243928
1142.000000	40.570756
1141.000000	40.905535
1140.000000	41.244574
1139.000000	41.578975
1138.000000	41.927667
1137.000000	42.261122
1136.000000	42.647769
1135.000000	42.999302
1134.000000	43.366451
1133.000000	43.607621
1132.000000	43.838379
1131.000000	44.086932
1130.000000	44.291661
1129.000000	44.483329
1128.000000	44.604860
1127.000000	44.698470
1126.000000	44.800882
1125.000000	44.839120
1124.000000	44.879252
1123.000000	44.902915
1122.000000	44.947022
1121.000000	44.964532
1120.000000	44.975796
1119.000000	44.996524
1118.000000	44.994347
1117.000000	44.980339
1116.000000	44.943425
1115.000000	44.899886
1114.000000	44.870828
1113.000000	44.822273
1112.000000	44.788766
1111.000000	44.763495
1110.000000	44.724404
1109.000000	44.690140
1108.000000	44.652753
1107.000000	44.620572
1106.000000	44.583469
1105.000000	44.551761
1104.000000	44.505950
1103.000000	44.464493
1102.000000	44.428147
1101.000000	44.380633
1100.000000	44.338324
1099.000000	44.273110
1098.000000	44.224365
1097.000000	44.168048
1096.000000	44.118451
1095.000000	44.060998
1094.000000	43.988306
1093.000000	43.910787
1092.000000	43.863178
1091.000000	43.795976
1090.000000	43.725461
1089.000000	43.651066
1088.000000	43.588407
1087.000000	43.517325
1086.000000	43.439049
1085.000000	43.350172
1084.000000	43.278805
1083.000000	43.211130
1082.000000	43.150364
1081.000000	43.092154
1080.000000	43.006590
1079.000000	42.936643
1078.000000	42.881083
1077.000000	42.814449
1076.000000	42.735416
1075.000000	42.656288
1074.000000	42.597699
1073.000000	42.534189
1072.000000	42.464053
1071.000000	42.391645
1070.000000	42.305039
1069.000000	42.219286
1068.000000	42.140537
1067.000000	42.067372
1066.000000	41.999034
1065.000000	41.918865
1064.000000	41.841819
1063.000000	41.773671
1062.000000	41.683847
1061.000000	41.616646
1060.000000	41.544806
1059.000000	41.452900
1058.000000	41.357871
1057.000000	41.277418
1056.000000	41.197722
1055.000000	41.108466
1054.000000	41.020252
1053.000000	40.937433
1052.000000	40.851395
1051.000000	40.779366
1050.000000	40.705539
1049.000000	40.617514
1048.000000	40.556275
1047.000000	40.484530
1046.000000	40.417422
1045.000000	40.336591
1044.000000	40.264372
1043.000000	40.200578
1042.000000	40.124668
1041.000000	40.063713
1040.000000	39.994618
1039.000000	39.927889
1038.000000	39.863811
1037.000000	39.774366
1036.000000	39.690411
1035.000000	39.639678
1034.000000	39.564999
1033.000000	39.466089
1032.000000	39.373047
1031.000000	39.285874
1030.000000	39.197565
1029.000000	39.118248
1028.000000	39.034009
1027.000000	38.938033
1026.000000	38.834769
1025.000000	38.731221
1024.000000	38.653324
1023.000000	38.560377
1022.000000	38.448122
1021.000000	38.364545
1020.000000	38.267717
1019.000000	38.165589
1018.000000	38.078700
1017.000000	37.988687
1016.000000	37.916658
1015.000000	37.837814
1014.000000	37.767110
1013.000000	37.718555
1012.000000	37.665077
1011.000000	37.601377
1010.000000	37.551496
1009.000000	37.508714
1008.000000	37.470854
1007.000000	37.439525
1006.000000	37.387656
1005.000000	37.360018
1004.000000	37.324713
1003.000000	37.284203
1002.000000	37.243692
1001.000000	37.197976
1000.000000	37.145445
999.000000	37.084869
998.000000	37.050605
997.000000	37.020412
996.000000	36.972424
995.000000	36.920177
994.000000	36.886008
993.000000	36.826946
992.000000	36.761448
991.000000	36.728982
990.000000	36.683739
989.000000	36.643986
988.000000	36.598932
987.000000	36.567414
986.000000	36.532677
985.000000	36.464434
984.000000	36.398841
983.000000	36.359277
982.000000	36.298795
981.000000	36.255635
980.000000	36.220425
979.000000	36.163445
978.000000	36.102585
977.000000	36.060654
976.000000	35.996860
975.000000	35.932876
974.000000	35.863024
973.000000	35.821094
972.000000	35.768752
971.000000	35.722373
970.000000	35.649303
969.000000	35.585319
968.000000	35.497672
967.000000	35.431322
966.000000	35.380495
965.000000	35.328059
964.000000	35.251486
963.000000	35.188070
962.000000	35.097206
961.000000	35.044012
960.000000	35.015806
959.000000	34.974822
958.000000	34.930905
957.000000	34.864365
956.000000	34.819312
955.000000	34.771797
954.000000	34.702418
953.000000	34.647994
952.000000	34.584862
951.000000	34.533467
950.000000	34.463898
949.000000	34.386285
948.000000	34.326276
947.000000	34.273272
946.000000	34.178148
945.000000	34.034185
944.000000	33.937641
943.000000	33.853875
942.000000	33.830307
941.000000	33.769825
940.000000	33.711521
939.000000	33.676689
938.000000	33.632866
937.000000	33.602199
936.000000	33.555347
935.000000	33.534051
934.000000	33.511524
933.000000	33.489281
932.000000	33.454544
931.000000	33.421511
930.000000	33.409301
929.000000	33.376079
928.000000	33.334149
927.000000	33.285972
926.000000	33.265716
925.000000	33.237889
924.000000	33.244136
923.000000	33.249910
922.000000	33.216971
921.000000	33.222177
920.000000	33.236375
919.000000	33.240729
918.000000	33.249152
917.000000	33.256630
916.000000	33.274235
915.000000	33.258618
914.000000	33.243568
913.000000	33.266852
912.000000	33.308972
911.000000	33.376836
910.000000	33.395861
909.000000	33.430976
908.000000	33.491837
907.000000	33.557713
906.000000	33.666183
905.000000	33.759887
904.000000	33.855768
903.000000	33.961020
902.000000	34.097601
901.000000	34.220268
900.000000	34.357322
899.000000	34.481977
898.000000	34.616665
897.000000	34.775678
896.000000	34.908188
895.000000	35.016469
894.000000	35.182297
893.000000	35.322758
892.000000	35.525594
891.000000	35.660282
890.000000	35.802637
889.000000	35.982568
888.000000	36.117161
887.000000	36.262639
886.000000	36.446640
885.000000	36.660834
884.000000	36.815398
883.000000	36.967123
882.000000	37.119889
881.000000	37.290166
880.000000	37.460821
879.000000	37.694513
878.000000	37.841600
877.000000	38.038000
876.000000	38.248314
875.000000	38.417265
874.000000	38.599941
873.000000	38.795963
872.000000	39.025490
871.000000	39.210816
870.000000	39.414315
869.000000	39.643653
868.000000	39.869584
867.000000	40.081602
866.000000	40.286710
865.000000	40.517941
864.000000	40.702037
863.000000	40.910457
862.000000	41.148977
861.000000	41.364118
860.000000	41.581814
859.000000	41.794778
858.000000	41.554933
857.000000	41.479700
856.000000	41.426700
855.000000	41.758400
854.000000	41.742600
853.000000	41.733900
852.000000	42.181700
851.000000	42.221600
850.000000	42.235600
849.000000	42.437100
848.000000	42.690300
847.000000	42.723000
846.000000	42.890600
845.000000	43.170300
844.000000	43.148600
843.000000	43.195700
842.000000	43.470900
841.000000	43.725300
840.000000	44.070400
839.000000	44.009400
838.000000	44.108600
837.000000	44.116800
836.000000	44.265400
835.000000	44.349600
834.000000	44.477000
833.000000	44.452700
832.000000	44.671400
831.000000	44.787300
830.000000	44.915900
829.000000	44.922600
828.000000	45.050300
827.000000	45.117500
826.000000	45.225800
825.000000	45.309200
824.000000	45.432700
823.000000	45.464800
822.000000	45.659800
821.000000	45.824700
820.000000	45.932400
819.000000	46.091200
818.000000	46.129000
817.000000	46.242600
816.000000	46.432700
815.000000	46.587300
814.000000	46.731500
813.000000	46.929100
812.000000	47.038100
811.000000	47.175100
810.000000	47.332300
809.000000	47.523500
808.000000	47.702800
807.000000	47.856200
806.000000	48.075700
805.000000	48.284800
804.000000	48.503600
803.000000	48.684700
802.000000	48.857200
801.000000	49.057200
800.000000	49.301700
799.000000	49.495500
798.000000	49.672700
797.000000	49.895000
796.000000	50.098800
795.000000	50.351800
794.000000	50.536300
793.000000	50.645700
792.000000	50.950700
791.000000	51.228300
790.000000	51.368800
789.000000	51.613900
788.000000	51.905700
787.000000	52.169800
786.000000	52.302600
785.000000	52.513800
784.000000	52.782100
783.000000	53.061200
782.000000	53.329900
781.000000	53.513300
780.000000	53.728600
779.000000	54.027100
778.000000	54.269500
777.000000	54.440800
776.000000	54.635300
775.000000	54.898100
774.000000	55.097400
773.000000	55.321900
772.000000	55.575200
771.000000	55.833500
770.000000	56.046700
769.000000	56.187900
768.000000	56.352700
767.000000	56.540200
766.000000	56.755300
765.000000	56.949500
764.000000	57.191800
763.000000	57.403500
762.000000	57.569300
761.000000	57.765300
760.000000	57.941100
759.000000	58.039400
758.000000	58.192300
757.000000	58.339000
756.000000	58.448400
755.000000	58.623900
754.000000	58.773400
753.000000	58.880900
752.000000	59.022200
751.000000	59.209500
750.000000	59.356400
749.000000	59.457300
748.000000	59.564400
747.000000	59.644400
746.000000	59.710300
745.000000	59.827300
744.000000	59.925900
743.000000	60.024000
742.000000	60.113100
741.000000	60.131900
740.000000	60.191000
739.000000	60.253100
738.000000	60.280000
737.000000	60.314100
736.000000	60.373200
735.000000	60.398400
734.000000	60.438900
733.000000	60.465800
732.000000	60.484900
731.000000	60.497900
730.000000	60.413700
729.000000	60.368500
728.000000	60.406700
727.000000	60.416600
726.000000	60.341400
725.000000	60.273900
724.000000	60.272300
723.000000	60.257300
722.000000	60.226900
721.000000	60.173000
720.000000	60.102800
719.000000	60.040400
718.000000	59.933100
717.000000	59.872700
716.000000	59.800300
715.000000	59.741600
714.000000	59.647200
713.000000	59.523800
712.000000	59.427600
711.000000	59.344800
710.000000	59.243500
709.000000	59.138600
708.000000	59.011100
707.000000	58.855600
706.000000	58.674000
705.000000	58.547500
704.000000	58.385400
703.000000	58.218600
702.000000	58.093700
701.000000	57.924700
700.000000	57.761100
699.000000	57.556500
698.000000	57.319400
697.000000	57.203200
696.000000	57.105200
695.000000	56.926600
694.000000	56.738300
693.000000	56.520400
692.000000	56.320700
691.000000	56.072000
690.000000	55.848600
689.000000	55.673200
688.000000	55.475000
687.000000	55.368100
686.000000	55.235300
685.000000	55.020100
684.000000	54.754100
683.000000	54.510100
682.000000	54.296600
681.000000	54.083800
680.000000	53.849000
679.000000	53.644700
678.000000	53.413300
677.000000	53.151800
676.000000	52.874800
675.000000	52.645000
674.000000	52.406900
673.000000	52.147700
672.000000	51.885100
671.000000	51.633700
670.000000	51.346600
669.000000	51.066200
668.000000	50.813400
667.000000	50.555900
666.000000	50.273500
665.000000	49.995300
664.000000	49.693100
663.000000	49.447600
662.000000	49.187100
661.000000	48.917900
660.000000	48.670200
659.000000	48.459800
658.000000	48.247900
657.000000	48.033900
656.000000	47.792700
655.000000	47.586200
654.000000	47.346600
653.000000	47.088200
652.000000	46.884600
651.000000	46.658900
650.000000	46.456400
649.000000	46.287700
648.000000	46.108500
647.000000	45.879600
646.000000	45.658000
645.000000	45.424400
644.000000	45.156000
643.000000	44.924400
642.000000	44.622400
641.000000	44.420500
640.000000	44.171000
639.000000	43.932600
638.000000	43.665400
637.000000	43.393000
636.000000	43.157800
635.000000	42.924000
634.000000	42.677500
633.000000	42.437400
632.000000	42.190400
631.000000	41.931600
630.000000	41.747300
629.000000	41.515700
628.000000	41.310500
627.000000	41.120200
626.000000	40.936500
625.000000	40.759100
624.000000	40.582700
623.000000	40.452200
622.000000	40.293700
621.000000	40.144600
620.000000	40.018800
619.000000	39.848500
618.000000	39.687000
617.000000	39.577800
616.000000	39.499200
615.000000	39.377200
614.000000	39.278500
613.000000	39.236700
612.000000	39.163000
611.000000	39.108900
610.000000	39.069100
609.000000	39.039500
608.000000	38.999000
607.000000	39.015900
606.000000	39.029000
605.000000	39.080600
604.000000	39.115100
603.000000	39.180100
602.000000	39.221900
601.000000	39.282100
600.000000	39.327300
599.000000	39.394300
598.000000	39.461000
597.000000	39.534600
596.000000	39.630300
595.000000	39.741300
594.000000	39.834800
593.000000	39.892800
592.000000	40.006300
591.000000	40.111000
590.000000	40.208800
589.000000	40.317700
588.000000	40.413400
587.000000	40.520500
586.000000	40.646700
585.000000	40.770800
584.000000	40.907600
583.000000	41.032200
582.000000	41.136900
581.000000	41.278800
580.000000	41.432900
579.000000	41.488500
578.000000	41.599000
577.000000	41.711400
576.000000	41.769600
575.000000	41.827100
574.000000	41.882500
573.000000	41.951900
572.000000	41.985000
571.000000	42.022400
570.000000	42.075100
569.000000	42.100400
568.000000	42.104300
567.000000	42.165400
566.000000	42.205500
565.000000	42.242600
564.000000	42.233700
563.000000	42.207000
562.000000	42.209200
561.000000	42.177600
560.000000	42.227100
559.000000	42.718900
558.000000	42.726800
557.000000	42.757700
556.000000	42.734100
555.000000	42.753300
554.000000	42.737500
553.000000	42.719600
552.000000	42.695000
551.000000	42.652100
550.000000	42.566700
549.000000	42.469400
548.000000	42.403400
547.000000	42.309700
546.000000	42.216100
545.000000	42.143700
544.000000	42.061000
543.000000	41.916600
542.000000	41.789200
541.000000	41.647200
540.000000	41.495800
539.000000	41.336500
538.000000	41.159300
537.000000	40.959400
536.000000	40.790700
535.000000	40.608300
534.000000	40.427500
533.000000	40.206400
532.000000	39.973900
531.000000	39.747900
530.000000	39.533500
529.000000	39.275000
528.000000	39.008300
527.000000	38.717600
526.000000	38.429400
525.000000	38.148500
524.000000	37.838400
523.000000	37.518900
522.000000	37.207100
521.000000	36.894500
520.000000	36.533400
519.000000	36.191500
518.000000	35.841400
517.000000	35.473100
516.000000	35.149100
515.000000	34.787300
514.000000	34.414500
513.000000	34.057500
512.000000	33.696200
511.000000	33.357300
510.000000	33.013500
509.000000	32.688200
508.000000	32.334000
507.000000	32.013100
506.000000	31.687900
505.000000	31.363600
504.000000	31.023100
503.000000	30.667900
502.000000	30.336600
501.000000	30.009000
500.000000	29.666800
499.000000	29.358800
498.000000	29.032300
497.000000	28.706900
496.000000	28.373100
495.000000	28.041400
494.000000	27.705200
493.000000	27.356600
492.000000	27.003100
491.000000	26.663200
490.000000	26.292800
489.000000	25.917200
488.000000	25.561500
487.000000	25.187500
486.000000	24.820500
485.000000	24.456500
484.000000	24.070500
483.000000	23.687900
482.000000	23.263900
481.000000	22.841700
480.000000	22.419400
479.000000	22.034100
478.000000	21.708000
477.000000	21.394600
476.000000	21.089300
475.000000	20.793700
474.000000	20.502700
473.000000	20.226800
472.000000	19.969500
471.000000	19.735900
470.000000	19.505600
469.000000	19.286600
468.000000	19.092200
467.000000	18.896300
466.000000	18.704500
465.000000	18.532000
464.000000	18.353800
463.000000	18.202100
462.000000	18.066700
461.000000	17.922300
460.000000	17.782600
459.000000	17.660600
458.000000	17.548200
457.000000	17.436200
456.000000	17.328000
455.000000	17.226500
454.000000	17.129700
453.000000	17.045900
452.000000	16.966200
451.000000	16.898500
450.000000	16.826000
449.000000	16.741400
448.000000	16.672200
447.000000	16.614300
446.000000	16.559700
445.000000	16.520400
444.000000	16.494500
443.000000	16.444100
442.000000	16.366900
441.000000	16.290200
440.000000	16.208100
439.000000	16.129700
438.000000	16.054000
437.000000	15.971000
436.000000	15.893300
435.000000	15.813800
434.000000	15.722200
433.000000	15.643000
432.000000	15.553900
431.000000	15.445100
430.000000	15.342000
429.000000	15.255600
428.000000	15.176500
427.000000	15.087000
426.000000	14.980300
425.000000	14.863200
424.000000	14.735900
423.000000	14.593000
422.000000	14.452200
421.000000	14.320200
420.000000	14.166700
419.000000	13.989600
418.000000	13.846000
417.000000	13.685500
416.000000	13.506300
415.000000	13.326300
414.000000	13.151100
413.000000	12.958900
412.000000	12.746000
411.000000	12.537900
410.000000	12.334600
409.000000	12.131800
408.000000	11.896300
407.000000	11.677100
406.000000	11.454400
405.000000	11.226900
404.000000	11.005000
403.000000	10.772300
402.000000	10.528100
401.000000	10.297900
400.000000	10.066000
399.000000	9.839000
398.000000	9.602700
397.000000	9.361100
396.000000	9.144400
395.000000	8.918500
394.000000	8.694400
393.000000	8.461800
392.000000	8.241800
391.000000	8.035800
390.000000	7.816500
389.000000	7.616500
388.000000	7.425300
387.000000	7.236700
386.000000	7.060600
385.000000	6.885400
384.000000	6.705500
383.000000	6.555200
382.000000	6.396200
381.000000	6.261000
380.000000	6.117200
379.000000	5.988700
378.000000	5.852200
377.000000	5.727200
376.000000	5.793100
375.000000	5.777000
374.000000	5.684200
373.000000	5.548900
372.000000	5.438000
371.000000	5.340000
370.000000	5.264000
369.000000	5.171800
368.000000	5.114700
367.000000	5.045600
366.000000	5.000400
365.000000	4.897000
364.000000	4.875900
363.000000	4.789800
362.000000	4.743700
361.000000	4.661100
360.000000	4.635600
359.000000	4.608200
358.000000	4.549300
357.000000	4.550300
356.000000	4.461900
355.000000	4.406600
354.000000	4.436000
353.000000	4.362200
352.000000	4.361600
351.000000	4.238500
350.000000	4.306700
349.000000	4.288500
348.000000	4.255600
347.000000	4.181500
346.000000	4.159100
345.000000	4.204600
344.000000	4.202900
343.000000	4.130300
342.000000	4.130600
341.000000	4.134300
340.000000	4.123500
339.000000	4.069200
338.000000	4.014600
337.000000	4.059300
336.000000	4.014800
335.000000	4.032800
334.000000	4.025800
333.000000	3.975000
332.000000	3.948700
331.000000	3.919900
330.000000	3.972800
329.000000	3.941200
328.000000	3.985200
327.000000	3.868700
326.000000	3.951400
325.000000	3.937700
324.000000	3.921100
323.000000	4.002700
322.000000	3.977200
321.000000	3.918200
320.000000	3.863100
319.000000	3.881500
318.000000	3.883200
317.000000	3.946100
316.000000	3.817600
315.000000	3.792500
314.000000	3.824700
313.000000	3.781200
312.000000	3.803100
311.000000	3.815500
310.000000	3.819900
309.000000	3.836000
308.000000	3.832600
307.000000	3.803500
306.000000	3.815600
305.000000	3.799800
304.000000	3.807200
303.000000	3.837400
302.000000	3.815600
301.000000	3.802900
300.000000	3.810500
299.000000	3.840300
298.000000	3.842000
297.000000	3.836900
296.000000	3.824300
295.000000	3.818600
294.000000	3.840200
293.000000	3.778300
292.000000	3.850600
291.000000	3.799200
290.000000	3.847800
289.000000	3.807300
288.000000	3.818200
287.000000	3.837100
286.000000	3.819100
285.000000	3.857000
284.000000	3.821100
283.000000	3.824000
282.000000	3.863900
281.000000	3.845100
280.000000	3.857500
279.000000	3.847000
278.000000	3.864400
277.000000	3.878600
276.000000	3.830700
275.000000	3.861600
274.000000	3.875900
273.000000	3.879500
272.000000	3.873700
271.000000	3.850400
270.000000	3.878800
269.000000	3.883800
268.000000	3.919500
267.000000	3.884200
266.000000	3.930800
265.000000	3.917600
264.000000	3.934000
263.000000	3.944400
262.000000	3.964900
261.000000	3.973500
260.000000	3.982200
259.000000	3.989900
258.000000	4.033300
257.000000	4.011700
256.000000	3.990700
255.000000	4.035200
254.000000	4.019400
253.000000	4.030100
252.000000	4.022200
251.000000	4.041700
250.000000	4.004800
