PE UV       SUBTECH     SPECTRUM    ASCII       PEDS        4.00        
   -1
CICIMAUCR0008-1.Sample.ASC
24/04/12
13:52:45.00
24/04/12
13:52:45.00
Vinicio Soto Monge
C. kalinini
250,000000
1
Lambda 1050
1050L1511233
PerkinElmer UV WinLab 6.3.2.0749 / 2.02.05 Lambda 900 UV/VIS/NIR, Aug  7 2015 09:38:08

0
0
3350/servo 860,8/2
0
0
UV/VIS
1
1
1
DoubleDePol,CommonBeamDepol,RBeamAtt,SBeamAtt,60mm sphere, WB InGaAs Detector
0
0
0
0
Program
Program
3350/servo 860,8/2
3350/0,2 860,8/0,2
3350/0,2 860,8/0,2
0
15.00
 
 
 
0
 
860,8
319,2
860,8
Front
100
on
S:100 R:100
0
0
0
0
 
0
 
 
 
0
 
 
0
0
0
0
0
 
 
 
 
0
0


0
0
#HDR
-1
-1
#GR
nm
%R
1.0
0.0
2500,000000
-1,000000
2251
8
60,497900
3,778300
#DATA
2500.000000	6.537800
2499.000000	6.456000
2498.000000	6.637700
2497.000000	6.559200
2496.000000	6.445600
2495.000000	6.452500
2494.000000	6.416500
2493.000000	6.453200
2492.000000	6.326000
2491.000000	6.406600
2490.000000	6.347500
2489.000000	6.435900
2488.000000	6.389600
2487.000000	6.311300
2486.000000	6.282100
2485.000000	6.350200
2484.000000	6.363500
2483.000000	6.355200
2482.000000	6.308900
2481.000000	6.372000
2480.000000	6.357700
2479.000000	6.321100
2478.000000	6.371600
2477.000000	6.327700
2476.000000	6.380300
2475.000000	6.369000
2474.000000	6.392400
2473.000000	6.376200
2472.000000	6.365000
2471.000000	6.410400
2470.000000	6.437500
2469.000000	6.416000
2468.000000	6.443900
2467.000000	6.438700
2466.000000	6.508900
2465.000000	6.489600
2464.000000	6.529400
2463.000000	6.565400
2462.000000	6.589400
2461.000000	6.645000
2460.000000	6.657000
2459.000000	6.703500
2458.000000	6.730700
2457.000000	6.797500
2456.000000	6.832800
2455.000000	6.878900
2454.000000	6.890100
2453.000000	6.926900
2452.000000	6.973000
2451.000000	6.990300
2450.000000	7.036200
2449.000000	7.080500
2448.000000	7.081500
2447.000000	7.124100
2446.000000	7.160500
2445.000000	7.208700
2444.000000	7.255300
2443.000000	7.287600
2442.000000	7.325500
2441.000000	7.368000
2440.000000	7.402800
2439.000000	7.443200
2438.000000	7.495900
2437.000000	7.511400
2436.000000	7.542300
2435.000000	7.572500
2434.000000	7.624400
2433.000000	7.642400
2432.000000	7.672300
2431.000000	7.730800
2430.000000	7.773000
2429.000000	7.801800
2428.000000	7.817700
2427.000000	7.833200
2426.000000	7.803100
2425.000000	7.777100
2424.000000	7.786200
2423.000000	7.816300
2422.000000	7.843500
2421.000000	7.858300
2420.000000	7.897100
2419.000000	7.872400
2418.000000	7.857600
2417.000000	7.896100
2416.000000	7.900700
2415.000000	7.885800
2414.000000	7.906800
2413.000000	7.891500
2412.000000	7.911000
2411.000000	7.901900
2410.000000	7.880800
2409.000000	7.869200
2408.000000	7.892400
2407.000000	7.906900
2406.000000	7.884400
2405.000000	7.905700
2404.000000	7.897300
2403.000000	7.884700
2402.000000	7.899300
2401.000000	7.890300
2400.000000	7.880200
2399.000000	7.864600
2398.000000	7.860200
2397.000000	7.867800
2396.000000	7.876200
2395.000000	7.874300
2394.000000	7.854300
2393.000000	7.846400
2392.000000	7.827100
2391.000000	7.830100
2390.000000	7.835600
2389.000000	7.826600
2388.000000	7.815700
2387.000000	7.817600
2386.000000	7.809200
2385.000000	7.789300
2384.000000	7.769500
2383.000000	7.762800
2382.000000	7.740800
2381.000000	7.734100
2380.000000	7.731100
2379.000000	7.714900
2378.000000	7.707900
2377.000000	7.683000
2376.000000	7.659300
2375.000000	7.654600
2374.000000	7.639400
2373.000000	7.610400
2372.000000	7.606200
2371.000000	7.601000
2370.000000	7.572800
2369.000000	7.540000
2368.000000	7.526100
2367.000000	7.488200
2366.000000	7.449600
2365.000000	7.430300
2364.000000	7.418300
2363.000000	7.384100
2362.000000	7.350200
2361.000000	7.335500
2360.000000	7.324600
2359.000000	7.285000
2358.000000	7.243100
2357.000000	7.241300
2356.000000	7.240300
2355.000000	7.223900
2354.000000	7.192900
2353.000000	7.170000
2352.000000	7.158400
2351.000000	7.131800
2350.000000	7.126000
2349.000000	7.126400
2348.000000	7.124500
2347.000000	7.097900
2346.000000	7.098000
2345.000000	7.107600
2344.000000	7.083400
2343.000000	7.080400
2342.000000	7.087600
2341.000000	7.084700
2340.000000	7.075700
2339.000000	7.061000
2338.000000	7.027500
2337.000000	7.016300
2336.000000	6.993100
2335.000000	6.959100
2334.000000	6.964800
2333.000000	6.956800
2332.000000	6.917900
2331.000000	6.856100
2330.000000	6.853500
2329.000000	6.845100
2328.000000	6.820100
2327.000000	6.800300
2326.000000	6.783700
2325.000000	6.728200
2324.000000	6.687700
2323.000000	6.667700
2322.000000	6.664900
2321.000000	6.649600
2320.000000	6.631900
2319.000000	6.594100
2318.000000	6.539800
2317.000000	6.505200
2316.000000	6.491300
2315.000000	6.470900
2314.000000	6.456300
2313.000000	6.407500
2312.000000	6.384900
2311.000000	6.367000
2310.000000	6.326000
2309.000000	6.327100
2308.000000	6.317600
2307.000000	6.320200
2306.000000	6.287700
2305.000000	6.302500
2304.000000	6.319100
2303.000000	6.332900
2302.000000	6.333200
2301.000000	6.337000
2300.000000	6.350800
2299.000000	6.349400
2298.000000	6.350800
2297.000000	6.369200
2296.000000	6.406200
2295.000000	6.409900
2294.000000	6.425900
2293.000000	6.445000
2292.000000	6.428200
2291.000000	6.420700
2290.000000	6.426600
2289.000000	6.385900
2288.000000	6.371700
2287.000000	6.388100
2286.000000	6.389900
2285.000000	6.363200
2284.000000	6.326100
2283.000000	6.318600
2282.000000	6.316100
2281.000000	6.256100
2280.000000	6.218900
2279.000000	6.221100
2278.000000	6.201000
2277.000000	6.155000
2276.000000	6.139000
2275.000000	6.141400
2274.000000	6.119000
2273.000000	6.079000
2272.000000	6.076300
2271.000000	6.077700
2270.000000	6.095300
2269.000000	6.096800
2268.000000	6.079000
2267.000000	6.104800
2266.000000	6.109800
2265.000000	6.142500
2264.000000	6.161900
2263.000000	6.225800
2262.000000	6.287800
2261.000000	6.363100
2260.000000	6.394400
2259.000000	6.471300
2258.000000	6.556600
2257.000000	6.630400
2256.000000	6.712400
2255.000000	6.785600
2254.000000	6.859600
2253.000000	6.953200
2252.000000	7.032200
2251.000000	7.098100
2250.000000	7.170200
2249.000000	7.225100
2248.000000	7.312400
2247.000000	7.371600
2246.000000	7.403100
2245.000000	7.483100
2244.000000	7.564500
2243.000000	7.636200
2242.000000	7.677800
2241.000000	7.725600
2240.000000	7.759500
2239.000000	7.809700
2238.000000	7.847200
2237.000000	7.887300
2236.000000	7.939800
2235.000000	7.947100
2234.000000	7.981100
2233.000000	8.028400
2232.000000	8.059600
2231.000000	8.075300
2230.000000	8.116400
2229.000000	8.105100
2228.000000	8.129400
2227.000000	8.144000
2226.000000	8.154400
2225.000000	8.197700
2224.000000	8.194700
2223.000000	8.171800
2222.000000	8.174600
2221.000000	8.194700
2220.000000	8.169100
2219.000000	8.204700
2218.000000	8.155900
2217.000000	8.190400
2216.000000	8.182400
2215.000000	8.191400
2214.000000	8.151500
2213.000000	8.159700
2212.000000	8.166800
2211.000000	8.177300
2210.000000	8.148400
2209.000000	8.141600
2208.000000	8.152600
2207.000000	8.133400
2206.000000	8.110800
2205.000000	8.075200
2204.000000	8.095200
2203.000000	8.105100
2202.000000	8.071800
2201.000000	8.050200
2200.000000	8.051900
2199.000000	8.029500
2198.000000	8.025700
2197.000000	8.038700
2196.000000	8.023500
2195.000000	8.031000
2194.000000	8.017700
2193.000000	8.026100
2192.000000	8.015800
2191.000000	8.001500
2190.000000	8.020000
2189.000000	8.009300
2188.000000	7.994100
2187.000000	7.991900
2186.000000	7.996300
2185.000000	7.979400
2184.000000	7.982900
2183.000000	7.962000
2182.000000	7.970100
2181.000000	7.960000
2180.000000	7.975700
2179.000000	7.980700
2178.000000	7.961800
2177.000000	7.937800
2176.000000	7.942300
2175.000000	7.947600
2174.000000	7.957900
2173.000000	7.971600
2172.000000	7.969300
2171.000000	7.973300
2170.000000	7.978200
2169.000000	7.990600
2168.000000	7.991600
2167.000000	7.995700
2166.000000	7.999900
2165.000000	8.034900
2164.000000	8.046100
2163.000000	8.038700
2162.000000	8.037900
2161.000000	8.054800
2160.000000	8.053000
2159.000000	8.071100
2158.000000	8.070200
2157.000000	8.087200
2156.000000	8.093700
2155.000000	8.094200
2154.000000	8.108900
2153.000000	8.099500
2152.000000	8.099500
2151.000000	8.095800
2150.000000	8.110700
2149.000000	8.113100
2148.000000	8.114100
2147.000000	8.109100
2146.000000	8.102200
2145.000000	8.108800
2144.000000	8.125700
2143.000000	8.121900
2142.000000	8.108700
2141.000000	8.116700
2140.000000	8.104300
2139.000000	8.089900
2138.000000	8.089400
2137.000000	8.119000
2136.000000	8.114800
2135.000000	8.103900
2134.000000	8.091800
2133.000000	8.076100
2132.000000	8.055800
2131.000000	8.028000
2130.000000	8.026900
2129.000000	8.004500
2128.000000	7.996800
2127.000000	7.982400
2126.000000	7.974500
2125.000000	7.960100
2124.000000	7.928600
2123.000000	7.896000
2122.000000	7.866500
2121.000000	7.853500
2120.000000	7.841700
2119.000000	7.821800
2118.000000	7.782500
2117.000000	7.747300
2116.000000	7.743900
2115.000000	7.728100
2114.000000	7.692500
2113.000000	7.670600
2112.000000	7.649500
2111.000000	7.637500
2110.000000	7.621800
2109.000000	7.585500
2108.000000	7.558600
2107.000000	7.553800
2106.000000	7.538900
2105.000000	7.527400
2104.000000	7.494300
2103.000000	7.473700
2102.000000	7.474400
2101.000000	7.466400
2100.000000	7.468800
2099.000000	7.461200
2098.000000	7.446500
2097.000000	7.436300
2096.000000	7.402600
2095.000000	7.398500
2094.000000	7.398700
2093.000000	7.396900
2092.000000	7.401400
2091.000000	7.386700
2090.000000	7.365400
2089.000000	7.366000
2088.000000	7.369700
2087.000000	7.362400
2086.000000	7.370400
2085.000000	7.358000
2084.000000	7.341800
2083.000000	7.359100
2082.000000	7.346100
2081.000000	7.333900
2080.000000	7.333800
2079.000000	7.341000
2078.000000	7.316600
2077.000000	7.300800
2076.000000	7.318900
2075.000000	7.321500
2074.000000	7.334300
2073.000000	7.313900
2072.000000	7.299600
2071.000000	7.297100
2070.000000	7.292000
2069.000000	7.291200
2068.000000	7.281500
2067.000000	7.281700
2066.000000	7.292200
2065.000000	7.288000
2064.000000	7.296700
2063.000000	7.296000
2062.000000	7.286900
2061.000000	7.293000
2060.000000	7.304100
2059.000000	7.318100
2058.000000	7.321400
2057.000000	7.322900
2056.000000	7.344000
2055.000000	7.359100
2054.000000	7.369800
2053.000000	7.394100
2052.000000	7.415600
2051.000000	7.448500
2050.000000	7.497000
2049.000000	7.533200
2048.000000	7.568100
2047.000000	7.607900
2046.000000	7.664900
2045.000000	7.699000
2044.000000	7.761800
2043.000000	7.820600
2042.000000	7.861700
2041.000000	7.921000
2040.000000	7.979000
2039.000000	8.018700
2038.000000	8.075800
2037.000000	8.148600
2036.000000	8.206000
2035.000000	8.221300
2034.000000	8.268800
2033.000000	8.333900
2032.000000	8.379100
2031.000000	8.419100
2030.000000	8.458600
2029.000000	8.496500
2028.000000	8.538800
2027.000000	8.564100
2026.000000	8.598400
2025.000000	8.626200
2024.000000	8.660200
2023.000000	8.698900
2022.000000	8.735000
2021.000000	8.780600
2020.000000	8.800800
2019.000000	8.822100
2018.000000	8.850900
2017.000000	8.859000
2016.000000	8.888100
2015.000000	8.915300
2014.000000	8.943000
2013.000000	8.955200
2012.000000	8.966300
2011.000000	8.987500
2010.000000	9.019300
2009.000000	9.021000
2008.000000	9.031900
2007.000000	9.044800
2006.000000	9.054000
2005.000000	9.037700
2004.000000	9.035000
2003.000000	9.040500
2002.000000	9.031300
2001.000000	9.031900
2000.000000	9.007200
1999.000000	8.988100
1998.000000	8.996200
1997.000000	8.985000
1996.000000	8.989700
1995.000000	8.949100
1994.000000	8.948800
1993.000000	8.934500
1992.000000	8.916000
1991.000000	8.887600
1990.000000	8.871500
1989.000000	8.852600
1988.000000	8.791700
1987.000000	8.772600
1986.000000	8.749200
1985.000000	8.710100
1984.000000	8.705600
1983.000000	8.648300
1982.000000	8.629200
1981.000000	8.588400
1980.000000	8.580600
1979.000000	8.532200
1978.000000	8.507700
1977.000000	8.476800
1976.000000	8.437400
1975.000000	8.407800
1974.000000	8.384500
1973.000000	8.342100
1972.000000	8.324700
1971.000000	8.287900
1970.000000	8.249000
1969.000000	8.241100
1968.000000	8.192200
1967.000000	8.177400
1966.000000	8.134900
1965.000000	8.120400
1964.000000	8.087500
1963.000000	8.079300
1962.000000	8.057900
1961.000000	8.025800
1960.000000	7.982600
1959.000000	7.950200
1958.000000	7.956400
1957.000000	7.937500
1956.000000	7.902800
1955.000000	7.864000
1954.000000	7.835100
1953.000000	7.810700
1952.000000	7.768600
1951.000000	7.732200
1950.000000	7.726700
1949.000000	7.721100
1948.000000	7.692000
1947.000000	7.670000
1946.000000	7.652500
1945.000000	7.647600
1944.000000	7.644400
1943.000000	7.622200
1942.000000	7.620100
1941.000000	7.637100
1940.000000	7.636200
1939.000000	7.639000
1938.000000	7.622100
1937.000000	7.626400
1936.000000	7.628000
1935.000000	7.645100
1934.000000	7.660900
1933.000000	7.674600
1932.000000	7.703500
1931.000000	7.747900
1930.000000	7.771500
1929.000000	7.832400
1928.000000	7.880200
1927.000000	7.914200
1926.000000	7.936900
1925.000000	7.983000
1924.000000	8.031200
1923.000000	8.115700
1922.000000	8.192600
1921.000000	8.280700
1920.000000	8.313600
1919.000000	8.357100
1918.000000	8.429900
1917.000000	8.522300
1916.000000	8.614800
1915.000000	8.723500
1914.000000	8.828000
1913.000000	8.911200
1912.000000	9.020600
1911.000000	9.095700
1910.000000	9.224900
1909.000000	9.350200
1908.000000	9.487600
1907.000000	9.608300
1906.000000	9.728400
1905.000000	9.875900
1904.000000	9.995600
1903.000000	10.116700
1902.000000	10.265400
1901.000000	10.425900
1900.000000	10.568200
1899.000000	10.672000
1898.000000	10.805600
1897.000000	10.939000
1896.000000	11.104000
1895.000000	11.275900
1894.000000	11.448000
1893.000000	11.603300
1892.000000	11.758700
1891.000000	11.908100
1890.000000	12.044400
1889.000000	12.197300
1888.000000	12.373700
1887.000000	12.591400
1886.000000	12.785800
1885.000000	13.016300
1884.000000	13.282800
1883.000000	13.549200
1882.000000	13.812700
1881.000000	14.130700
1880.000000	14.466300
1879.000000	14.777700
1878.000000	15.077800
1877.000000	15.363600
1876.000000	15.628400
1875.000000	15.870700
1874.000000	16.091500
1873.000000	16.279600
1872.000000	16.460100
1871.000000	16.595900
1870.000000	16.688200
1869.000000	16.769700
1868.000000	16.869500
1867.000000	16.929400
1866.000000	16.977300
1865.000000	17.022900
1864.000000	17.075500
1863.000000	17.129900
1862.000000	17.166100
1861.000000	17.190800
1860.000000	17.197900
1859.000000	17.165300
1858.000000	17.130900
1857.000000	17.113700
1856.000000	17.093300
1855.000000	17.043500
1854.000000	16.986200
1853.000000	16.915000
1852.000000	16.834800
1851.000000	16.804000
1850.000000	16.810400
1849.000000	16.797400
1848.000000	16.701300
1847.000000	16.561500
1846.000000	16.436300
1845.000000	16.377700
1844.000000	16.410000
1843.000000	16.440100
1842.000000	16.422500
1841.000000	16.372900
1840.000000	16.307400
1839.000000	16.261600
1838.000000	16.237300
1837.000000	16.186000
1836.000000	16.104800
1835.000000	16.018200
1834.000000	15.956000
1833.000000	15.926100
1832.000000	15.902200
1831.000000	15.837600
1830.000000	15.752800
1829.000000	15.676200
1828.000000	15.602900
1827.000000	15.537300
1826.000000	15.460900
1825.000000	15.391400
1824.000000	15.367200
1823.000000	15.391600
1822.000000	15.404200
1821.000000	15.362900
1820.000000	15.293000
1819.000000	15.244300
1818.000000	15.245100
1817.000000	15.274100
1816.000000	15.279300
1815.000000	15.271300
1814.000000	15.264200
1813.000000	15.272800
1812.000000	15.272400
1811.000000	15.247700
1810.000000	15.197500
1809.000000	15.171600
1808.000000	15.167800
1807.000000	15.155400
1806.000000	15.154000
1805.000000	15.134700
1804.000000	15.101500
1803.000000	15.081400
1802.000000	15.058600
1801.000000	15.001800
1800.000000	14.932300
1799.000000	14.893200
1798.000000	14.886900
1797.000000	14.878400
1796.000000	14.843900
1795.000000	14.797200
1794.000000	14.744300
1793.000000	14.717000
1792.000000	14.667900
1791.000000	14.619800
1790.000000	14.575800
1789.000000	14.533100
1788.000000	14.476000
1787.000000	14.438000
1786.000000	14.382500
1785.000000	14.319400
1784.000000	14.253900
1783.000000	14.183400
1782.000000	14.123500
1781.000000	14.064000
1780.000000	13.999100
1779.000000	13.924800
1778.000000	13.848300
1777.000000	13.760500
1776.000000	13.667000
1775.000000	13.583100
1774.000000	13.504200
1773.000000	13.390300
1772.000000	13.304500
1771.000000	13.217600
1770.000000	13.105500
1769.000000	12.994900
1768.000000	12.924400
1767.000000	12.836900
1766.000000	12.769100
1765.000000	12.716500
1764.000000	12.688700
1763.000000	12.668200
1762.000000	12.677700
1761.000000	12.712600
1760.000000	12.740100
1759.000000	12.775100
1758.000000	12.827700
1757.000000	12.867900
1756.000000	12.898500
1755.000000	12.861900
1754.000000	12.880300
1753.000000	12.890700
1752.000000	12.877100
1751.000000	12.858300
1750.000000	12.833900
1749.000000	12.786300
1748.000000	12.718600
1747.000000	12.642300
1746.000000	12.577400
1745.000000	12.488600
1744.000000	12.346900
1743.000000	12.213500
1742.000000	12.084400
1741.000000	11.929100
1740.000000	11.758400
1739.000000	11.607000
1738.000000	11.441400
1737.000000	11.320500
1736.000000	11.224500
1735.000000	11.190500
1734.000000	11.152200
1733.000000	11.172600
1732.000000	11.188200
1731.000000	11.215500
1730.000000	11.295200
1729.000000	11.361300
1728.000000	11.443000
1727.000000	11.523000
1726.000000	11.583700
1725.000000	11.618300
1724.000000	11.654000
1723.000000	11.672600
1722.000000	11.681000
1721.000000	11.685000
1720.000000	11.657900
1719.000000	11.683100
1718.000000	11.688600
1717.000000	11.698900
1716.000000	11.747500
1715.000000	11.777600
1714.000000	11.797100
1713.000000	11.840400
1712.000000	11.858500
1711.000000	11.879100
1710.000000	11.902600
1709.000000	11.885400
1708.000000	11.860800
1707.000000	11.883700
1706.000000	11.855000
1705.000000	11.816900
1704.000000	11.791500
1703.000000	11.753500
1702.000000	11.711800
1701.000000	11.611600
1700.000000	11.524200
1699.000000	11.430700
1698.000000	11.341600
1697.000000	11.268000
1696.000000	11.207700
1695.000000	11.207500
1694.000000	11.278700
1693.000000	11.331700
1692.000000	11.421100
1691.000000	11.556400
1690.000000	11.654000
1689.000000	11.729300
1688.000000	11.798600
1687.000000	11.800900
1686.000000	11.789000
1685.000000	11.797000
1684.000000	11.848400
1683.000000	11.953800
1682.000000	12.136600
1681.000000	12.447500
1680.000000	12.827400
1679.000000	13.225000
1678.000000	13.632600
1677.000000	14.047400
1676.000000	14.368300
1675.000000	14.673400
1674.000000	14.945900
1673.000000	15.172800
1672.000000	15.383500
1671.000000	15.572300
1670.000000	15.704500
1669.000000	15.848100
1668.000000	15.961800
1667.000000	16.091300
1666.000000	16.134000
1665.000000	16.221100
1664.000000	16.278100
1663.000000	16.338900
1662.000000	16.394100
1661.000000	16.432600
1660.000000	16.440800
1659.000000	16.481900
1658.000000	16.512300
1657.000000	16.515100
1656.000000	16.523100
1655.000000	16.516900
1654.000000	16.515900
1653.000000	16.518200
1652.000000	16.497700
1651.000000	16.472200
1650.000000	16.456900
1649.000000	16.417800
1648.000000	16.388900
1647.000000	16.350800
1646.000000	16.310800
1645.000000	16.267500
1644.000000	16.224300
1643.000000	16.182900
1642.000000	16.128600
1641.000000	16.064600
1640.000000	16.049100
1639.000000	15.983600
1638.000000	15.914600
1637.000000	15.877600
1636.000000	15.807900
1635.000000	15.749200
1634.000000	15.695500
1633.000000	15.638300
1632.000000	15.592300
1631.000000	15.534900
1630.000000	15.447800
1629.000000	15.399600
1628.000000	15.344300
1627.000000	15.286500
1626.000000	15.216100
1625.000000	15.158400
1624.000000	15.088100
1623.000000	15.019200
1622.000000	14.960000
1621.000000	14.885300
1620.000000	14.821500
1619.000000	14.772000
1618.000000	14.714200
1617.000000	14.642200
1616.000000	14.586100
1615.000000	14.532400
1614.000000	14.472400
1613.000000	14.419400
1612.000000	14.376800
1611.000000	14.333700
1610.000000	14.265900
1609.000000	14.201800
1608.000000	14.171200
1607.000000	14.111600
1606.000000	14.048100
1605.000000	14.009500
1604.000000	13.949300
1603.000000	13.911300
1602.000000	13.865700
1601.000000	13.823800
1600.000000	13.781400
1599.000000	13.731300
1598.000000	13.689200
1597.000000	13.643400
1596.000000	13.614800
1595.000000	13.595600
1594.000000	13.565800
1593.000000	13.513800
1592.000000	13.469600
1591.000000	13.442500
1590.000000	13.429100
1589.000000	13.398400
1588.000000	13.382700
1587.000000	13.367100
1586.000000	13.342600
1585.000000	13.320400
1584.000000	13.305500
1583.000000	13.298400
1582.000000	13.289200
1581.000000	13.269400
1580.000000	13.265700
1579.000000	13.270600
1578.000000	13.281900
1577.000000	13.286300
1576.000000	13.280000
1575.000000	13.286300
1574.000000	13.296400
1573.000000	13.315700
1572.000000	13.349400
1571.000000	13.365500
1570.000000	13.370900
1569.000000	13.390100
1568.000000	13.423700
1567.000000	13.450300
1566.000000	13.461100
1565.000000	13.477300
1564.000000	13.504800
1563.000000	13.544200
1562.000000	13.573300
1561.000000	13.589900
1560.000000	13.605500
1559.000000	13.631300
1558.000000	13.647800
1557.000000	13.668100
1556.000000	13.698700
1555.000000	13.709400
1554.000000	13.717800
1553.000000	13.722800
1552.000000	13.731500
1551.000000	13.740600
1550.000000	13.747900
1549.000000	13.753000
1548.000000	13.745700
1547.000000	13.731700
1546.000000	13.725900
1545.000000	13.740200
1544.000000	13.746500
1543.000000	13.745500
1542.000000	13.750800
1541.000000	13.758600
1540.000000	13.774500
1539.000000	13.777300
1538.000000	13.772200
1537.000000	13.783800
1536.000000	13.794200
1535.000000	13.799400
1534.000000	13.809000
1533.000000	13.815400
1532.000000	13.809300
1531.000000	13.798200
1530.000000	13.797800
1529.000000	13.782500
1528.000000	13.783400
1527.000000	13.791600
1526.000000	13.786700
1525.000000	13.790400
1524.000000	13.766300
1523.000000	13.744900
1522.000000	13.734800
1521.000000	13.732900
1520.000000	13.727600
1519.000000	13.712200
1518.000000	13.709500
1517.000000	13.701300
1516.000000	13.694200
1515.000000	13.669400
1514.000000	13.663100
1513.000000	13.669300
1512.000000	13.651100
1511.000000	13.638500
1510.000000	13.630000
1509.000000	13.614200
1508.000000	13.595200
1507.000000	13.606900
1506.000000	13.592100
1505.000000	13.574000
1504.000000	13.555100
1503.000000	13.574400
1502.000000	13.574600
1501.000000	13.554300
1500.000000	13.556200
1499.000000	13.552400
1498.000000	13.552300
1497.000000	13.564600
1496.000000	13.579800
1495.000000	13.569900
1494.000000	13.558900
1493.000000	13.575400
1492.000000	13.588100
1491.000000	13.617700
1490.000000	13.627700
1489.000000	13.643300
1488.000000	13.652400
1487.000000	13.663100
1486.000000	13.686800
1485.000000	13.713100
1484.000000	13.728600
1483.000000	13.749200
1482.000000	13.778000
1481.000000	13.815100
1480.000000	13.854200
1479.000000	13.874900
1478.000000	13.921500
1477.000000	13.946900
1476.000000	13.992500
1475.000000	14.025600
1474.000000	14.068500
1473.000000	14.123600
1472.000000	14.171400
1471.000000	14.186400
1470.000000	14.218100
1469.000000	14.244000
1468.000000	14.292200
1467.000000	14.362500
1466.000000	14.393400
1465.000000	14.434000
1464.000000	14.487900
1463.000000	14.522400
1462.000000	14.567500
1461.000000	14.638700
1460.000000	14.718600
1459.000000	14.782700
1458.000000	14.863900
1457.000000	14.911900
1456.000000	14.995700
1455.000000	15.093300
1454.000000	15.164800
1453.000000	15.241500
1452.000000	15.344000
1451.000000	15.431000
1450.000000	15.493700
1449.000000	15.569200
1448.000000	15.669100
1447.000000	15.774800
1446.000000	15.895200
1445.000000	15.970400
1444.000000	16.057700
1443.000000	16.156700
1442.000000	16.293100
1441.000000	16.383500
1440.000000	16.495800
1439.000000	16.599200
1438.000000	16.727600
1437.000000	16.814200
1436.000000	16.886300
1435.000000	16.995900
1434.000000	17.132300
1433.000000	17.223600
1432.000000	17.331800
1431.000000	17.434300
1430.000000	17.551200
1429.000000	17.686100
1428.000000	17.849500
1427.000000	17.979700
1426.000000	18.148000
1425.000000	18.319400
1424.000000	18.541200
1423.000000	18.677500
1422.000000	18.858600
1421.000000	19.056000
1420.000000	19.290200
1419.000000	19.429200
1418.000000	19.627900
1417.000000	19.767200
1416.000000	19.963000
1415.000000	20.191200
1414.000000	20.349400
1413.000000	20.479700
1412.000000	20.637500
1411.000000	20.841100
1410.000000	21.082500
1409.000000	21.341800
1408.000000	21.586000
1407.000000	21.874300
1406.000000	22.178500
1405.000000	22.494600
1404.000000	22.769700
1403.000000	23.087800
1402.000000	23.423800
1401.000000	23.795500
1400.000000	24.056700
1399.000000	24.221600
1398.000000	24.428700
1397.000000	24.639100
1396.000000	24.855800
1395.000000	24.945100
1394.000000	24.999900
1393.000000	25.103300
1392.000000	25.234600
1391.000000	25.343000
1390.000000	25.513900
1389.000000	25.735700
1388.000000	25.958700
1387.000000	26.165500
1386.000000	26.433400
1385.000000	26.762300
1384.000000	27.148700
1383.000000	27.483300
1382.000000	27.755600
1381.000000	27.931300
1380.000000	28.033400
1379.000000	28.115700
1378.000000	28.190900
1377.000000	28.266800
1376.000000	28.388000
1375.000000	28.564300
1374.000000	28.830000
1373.000000	29.163100
1372.000000	29.561000
1371.000000	29.941600
1370.000000	30.287800
1369.000000	30.621300
1368.000000	30.956000
1367.000000	31.216700
1366.000000	31.443700
1365.000000	31.695100
1364.000000	31.890100
1363.000000	32.041400
1362.000000	32.216100
1361.000000	32.347700
1360.000000	32.419100
1359.000000	32.476700
1358.000000	32.588400
1357.000000	32.787900
1356.000000	33.090700
1355.000000	33.571500
1354.000000	34.145400
1353.000000	34.753600
1352.000000	35.398500
1351.000000	36.057700
1350.000000	36.655700
1349.000000	37.187500
1348.000000	37.660900
1347.000000	38.099600
1346.000000	38.495500
1345.000000	38.893700
1344.000000	39.269900
1343.000000	39.604600
1342.000000	39.958200
1341.000000	40.287100
1340.000000	40.565500
1339.000000	40.850300
1338.000000	41.113600
1337.000000	41.349100
1336.000000	41.591800
1335.000000	41.821000
1334.000000	42.046000
1333.000000	42.260700
1332.000000	42.466300
1331.000000	42.661000
1330.000000	42.833000
1329.000000	43.006500
1328.000000	43.158900
1327.000000	43.295000
1326.000000	43.432400
1325.000000	43.562200
1324.000000	43.679300
1323.000000	43.796700
1322.000000	43.899100
1321.000000	44.009900
1320.000000	44.113200
1319.000000	44.214900
1318.000000	44.309500
1317.000000	44.386700
1316.000000	44.472200
1315.000000	44.546900
1314.000000	44.599500
1313.000000	44.655300
1312.000000	44.717400
1311.000000	44.773800
1310.000000	44.825900
1309.000000	44.867400
1308.000000	44.894300
1307.000000	44.920000
1306.000000	44.931500
1305.000000	44.941400
1304.000000	44.956900
1303.000000	44.958000
1302.000000	44.945300
1301.000000	44.930700
1300.000000	44.921600
1299.000000	44.907300
1298.000000	44.895200
1297.000000	44.870300
1296.000000	44.849600
1295.000000	44.832400
1294.000000	44.800900
1293.000000	44.763100
1292.000000	44.736700
1291.000000	44.702800
1290.000000	44.648800
1289.000000	44.603300
1288.000000	44.552800
1287.000000	44.478200
1286.000000	44.395000
1285.000000	44.319500
1284.000000	44.232400
1283.000000	44.143000
1282.000000	44.048200
1281.000000	43.963200
1280.000000	43.889100
1279.000000	43.811800
1278.000000	43.722300
1277.000000	43.639200
1276.000000	43.563600
1275.000000	43.480600
1274.000000	43.416500
1273.000000	43.360700
1272.000000	43.287900
1271.000000	43.240400
1270.000000	43.178700
1269.000000	43.123700
1268.000000	43.053500
1267.000000	42.985900
1266.000000	42.924700
1265.000000	42.849200
1264.000000	42.783400
1263.000000	42.721800
1262.000000	42.660100
1261.000000	42.594000
1260.000000	42.541400
1259.000000	42.486900
1258.000000	42.407400
1257.000000	42.334500
1256.000000	42.254100
1255.000000	42.157400
1254.000000	42.091200
1253.000000	42.004500
1252.000000	41.896600
1251.000000	41.807500
1250.000000	41.724500
1249.000000	41.593800
1248.000000	41.471100
1247.000000	41.355600
1246.000000	41.245000
1245.000000	41.091000
1244.000000	40.945000
1243.000000	40.797000
1242.000000	40.625300
1241.000000	40.444900
1240.000000	40.254200
1239.000000	40.068200
1238.000000	39.881800
1237.000000	39.714800
1236.000000	39.514200
1235.000000	39.299300
1234.000000	39.093500
1233.000000	38.890500
1232.000000	38.695800
1231.000000	38.470800
1230.000000	38.241600
1229.000000	38.028200
1228.000000	37.813000
1227.000000	37.589300
1226.000000	37.364600
1225.000000	37.153700
1224.000000	36.935100
1223.000000	36.729700
1222.000000	36.510800
1221.000000	36.298900
1220.000000	36.123000
1219.000000	35.903200
1218.000000	35.743600
1217.000000	35.575100
1216.000000	35.432700
1215.000000	35.279300
1214.000000	35.135400
1213.000000	34.993300
1212.000000	34.866200
1211.000000	34.732700
1210.000000	34.630100
1209.000000	34.532700
1208.000000	34.433900
1207.000000	34.354200
1206.000000	34.296800
1205.000000	34.276600
1204.000000	34.258000
1203.000000	34.227200
1202.000000	34.187400
1201.000000	34.178100
1200.000000	34.136800
1199.000000	34.058200
1198.000000	33.950800
1197.000000	33.754700
1196.000000	33.574300
1195.000000	33.301700
1194.000000	32.971700
1193.000000	32.529500
1192.000000	32.044300
1191.000000	31.529100
1190.000000	31.022900
1189.000000	30.596400
1188.000000	30.268200
1187.000000	30.084400
1186.000000	30.024700
1185.000000	30.101700
1184.000000	30.330200
1183.000000	30.677500
1182.000000	31.148900
1181.000000	31.694700
1180.000000	32.216800
1179.000000	32.770400
1178.000000	33.267100
1177.000000	33.667500
1176.000000	33.995200
1175.000000	34.341700
1174.000000	34.626200
1173.000000	34.995700
1172.000000	35.305600
1171.000000	35.695700
1170.000000	36.071600
1169.000000	36.452600
1168.000000	36.841500
1167.000000	37.202000
1166.000000	37.616600
1165.000000	38.037700
1164.000000	38.429600
1163.000000	38.852900
1162.000000	39.242300
1161.000000	39.644700
1160.000000	40.005400
1159.000000	40.392400
1158.000000	40.734800
1157.000000	41.085900
1156.000000	41.347600
1155.000000	41.533200
1154.000000	41.663000
1153.000000	41.734700
1152.000000	41.774500
1151.000000	41.722300
1150.000000	41.705700
1149.000000	41.674500
1148.000000	41.641500
1147.000000	41.673600
1146.000000	41.773500
1145.000000	41.964000
1144.000000	42.235200
1143.000000	42.518400
1142.000000	42.863700
1141.000000	43.217400
1140.000000	43.575600
1139.000000	43.928900
1138.000000	44.297300
1137.000000	44.649600
1136.000000	45.058100
1135.000000	45.429500
1134.000000	45.817400
1133.000000	46.072200
1132.000000	46.316000
1131.000000	46.578600
1130.000000	46.794900
1129.000000	46.997400
1128.000000	47.125800
1127.000000	47.224700
1126.000000	47.332900
1125.000000	47.373300
1124.000000	47.415700
1123.000000	47.440700
1122.000000	47.487300
1121.000000	47.505800
1120.000000	47.517700
1119.000000	47.539600
1118.000000	47.537300
1117.000000	47.522500
1116.000000	47.483500
1115.000000	47.437500
1114.000000	47.406800
1113.000000	47.355500
1112.000000	47.320100
1111.000000	47.293400
1110.000000	47.252100
1109.000000	47.215900
1108.000000	47.176400
1107.000000	47.142400
1106.000000	47.103200
1105.000000	47.069700
1104.000000	47.021300
1103.000000	46.977500
1102.000000	46.939100
1101.000000	46.888900
1100.000000	46.844200
1099.000000	46.775300
1098.000000	46.723800
1097.000000	46.664300
1096.000000	46.611900
1095.000000	46.551200
1094.000000	46.474400
1093.000000	46.392500
1092.000000	46.342200
1091.000000	46.271200
1090.000000	46.196700
1089.000000	46.118100
1088.000000	46.051900
1087.000000	45.976800
1086.000000	45.894100
1085.000000	45.800200
1084.000000	45.724800
1083.000000	45.653300
1082.000000	45.589100
1081.000000	45.527600
1080.000000	45.437200
1079.000000	45.363300
1078.000000	45.304600
1077.000000	45.234200
1076.000000	45.150700
1075.000000	45.067100
1074.000000	45.005200
1073.000000	44.938100
1072.000000	44.864000
1071.000000	44.787500
1070.000000	44.696000
1069.000000	44.605400
1068.000000	44.522200
1067.000000	44.444900
1066.000000	44.372700
1065.000000	44.288000
1064.000000	44.206600
1063.000000	44.134600
1062.000000	44.039700
1061.000000	43.968700
1060.000000	43.892800
1059.000000	43.795700
1058.000000	43.695300
1057.000000	43.610300
1056.000000	43.526100
1055.000000	43.431800
1054.000000	43.338600
1053.000000	43.251100
1052.000000	43.160200
1051.000000	43.084100
1050.000000	43.006100
1049.000000	42.913100
1048.000000	42.848400
1047.000000	42.772600
1046.000000	42.701700
1045.000000	42.616300
1044.000000	42.540000
1043.000000	42.472600
1042.000000	42.392400
1041.000000	42.328000
1040.000000	42.255000
1039.000000	42.184500
1038.000000	42.116800
1037.000000	42.022300
1036.000000	41.933600
1035.000000	41.880000
1034.000000	41.801100
1033.000000	41.696600
1032.000000	41.598300
1031.000000	41.506200
1030.000000	41.412900
1029.000000	41.329100
1028.000000	41.240100
1027.000000	41.138700
1026.000000	41.029600
1025.000000	40.920200
1024.000000	40.837900
1023.000000	40.739700
1022.000000	40.621100
1021.000000	40.532800
1020.000000	40.430500
1019.000000	40.322600
1018.000000	40.230800
1017.000000	40.135700
1016.000000	40.059600
1015.000000	39.976300
1014.000000	39.901600
1013.000000	39.850300
1012.000000	39.793800
1011.000000	39.726500
1010.000000	39.673800
1009.000000	39.628600
1008.000000	39.588600
1007.000000	39.555500
1006.000000	39.500700
1005.000000	39.471500
1004.000000	39.434200
1003.000000	39.391400
1002.000000	39.348600
1001.000000	39.300300
1000.000000	39.244800
999.000000	39.180800
998.000000	39.144600
997.000000	39.112700
996.000000	39.062000
995.000000	39.006800
994.000000	38.970700
993.000000	38.908300
992.000000	38.839100
991.000000	38.804800
990.000000	38.757000
989.000000	38.715000
988.000000	38.667400
987.000000	38.634100
986.000000	38.597400
985.000000	38.525300
984.000000	38.456000
983.000000	38.414200
982.000000	38.350300
981.000000	38.304700
980.000000	38.267500
979.000000	38.207300
978.000000	38.143000
977.000000	38.098700
976.000000	38.031300
975.000000	37.963700
974.000000	37.889900
973.000000	37.845600
972.000000	37.790300
971.000000	37.741300
970.000000	37.664100
969.000000	37.596500
968.000000	37.503900
967.000000	37.433800
966.000000	37.380100
965.000000	37.324700
964.000000	37.243800
963.000000	37.176800
962.000000	37.080800
961.000000	37.024600
960.000000	36.994800
959.000000	36.951500
958.000000	36.905100
957.000000	36.834800
956.000000	36.787200
955.000000	36.737000
954.000000	36.663700
953.000000	36.606200
952.000000	36.539500
951.000000	36.485200
950.000000	36.411700
949.000000	36.329700
948.000000	36.266300
947.000000	36.210300
946.000000	36.109800
945.000000	35.957700
944.000000	35.855700
943.000000	35.767200
942.000000	35.742300
941.000000	35.678400
940.000000	35.616800
939.000000	35.580000
938.000000	35.533700
937.000000	35.501300
936.000000	35.451800
935.000000	35.429300
934.000000	35.405500
933.000000	35.382000
932.000000	35.345300
931.000000	35.310400
930.000000	35.297500
929.000000	35.262400
928.000000	35.218100
927.000000	35.167200
926.000000	35.145800
925.000000	35.116400
924.000000	35.123000
923.000000	35.129100
922.000000	35.094300
921.000000	35.099800
920.000000	35.114800
919.000000	35.119400
918.000000	35.128300
917.000000	35.136200
916.000000	35.154800
915.000000	35.138300
914.000000	35.122400
913.000000	35.147000
912.000000	35.191500
911.000000	35.263200
910.000000	35.283300
909.000000	35.320400
908.000000	35.384700
907.000000	35.454300
906.000000	35.568900
905.000000	35.667900
904.000000	35.769200
903.000000	35.880400
902.000000	36.024700
901.000000	36.154300
900.000000	36.299100
899.000000	36.430800
898.000000	36.573100
897.000000	36.741100
896.000000	36.881100
895.000000	36.995500
894.000000	37.170700
893.000000	37.319100
892.000000	37.533400
891.000000	37.675700
890.000000	37.826100
889.000000	38.016200
888.000000	38.158400
887.000000	38.312100
886.000000	38.506500
885.000000	38.732800
884.000000	38.896100
883.000000	39.056400
882.000000	39.217800
881.000000	39.397700
880.000000	39.578000
879.000000	39.824900
878.000000	39.980300
877.000000	40.187800
876.000000	40.410000
875.000000	40.588500
874.000000	40.781500
873.000000	40.988600
872.000000	41.231100
871.000000	41.426900
870.000000	41.641900
869.000000	41.884200
868.000000	42.122900
867.000000	42.346900
866.000000	42.563600
865.000000	42.807900
864.000000	43.002400
863.000000	43.222600
862.000000	43.474600
861.000000	43.701900
860.000000	43.931900
859.000000	44.156900
858.000000	43.903500
857.000000	43.971220
856.000000	43.915037
855.000000	44.266660
854.000000	44.249911
853.000000	44.240689
852.000000	44.715386
851.000000	44.757683
850.000000	44.772524
849.000000	44.986127
848.000000	45.254536
847.000000	45.289200
846.000000	45.466867
845.000000	45.763368
844.000000	45.740364
843.000000	45.790293
842.000000	46.082023
841.000000	46.351704
840.000000	46.717533
839.000000	46.652869
838.000000	46.758028
837.000000	46.766720
836.000000	46.924246
835.000000	47.013503
834.000000	47.148556
833.000000	47.122796
832.000000	47.354633
831.000000	47.477494
830.000000	47.613819
829.000000	47.620921
828.000000	47.756292
827.000000	47.827528
826.000000	47.942333
825.000000	48.030743
824.000000	48.161661
823.000000	48.195689
822.000000	48.402402
821.000000	48.577207
820.000000	48.691376
819.000000	48.859714
818.000000	48.899785
817.000000	49.020208
816.000000	49.221727
815.000000	49.385613
814.000000	49.538475
813.000000	49.747944
812.000000	49.863491
811.000000	50.008720
810.000000	50.175362
809.000000	50.378047
808.000000	50.568117
807.000000	50.730731
806.000000	50.963415
805.000000	51.185075
804.000000	51.417018
803.000000	51.608996
802.000000	51.791857
801.000000	52.003870
800.000000	52.263056
799.000000	52.468497
798.000000	52.656341
797.000000	52.891993
796.000000	53.108035
795.000000	53.376232
794.000000	53.571814
793.000000	53.687785
792.000000	54.011105
791.000000	54.305379
790.000000	54.454319
789.000000	54.714141
788.000000	55.023468
787.000000	55.303432
786.000000	55.444208
785.000000	55.668094
784.000000	55.952510
783.000000	56.248374
782.000000	56.533214
781.000000	56.727630
780.000000	56.955863
779.000000	57.272292
778.000000	57.529252
777.000000	57.710842
776.000000	57.917024
775.000000	58.195610
774.000000	58.406881
773.000000	58.644866
772.000000	58.913380
771.000000	59.187195
770.000000	59.413202
769.000000	59.562883
768.000000	59.737582
767.000000	59.936344
766.000000	60.164364
765.000000	60.370229
764.000000	60.627083
763.000000	60.851499
762.000000	61.027258
761.000000	61.235031
760.000000	61.421391
759.000000	61.525595
758.000000	61.687679
757.000000	61.843191
756.000000	61.959162
755.000000	62.145204
754.000000	62.303684
753.000000	62.417641
752.000000	62.567428
751.000000	62.765978
750.000000	62.921702
749.000000	63.028663
748.000000	63.142196
747.000000	63.227001
746.000000	63.296859
745.000000	63.420887
744.000000	63.525410
743.000000	63.629402
742.000000	63.723854
741.000000	63.743783
740.000000	63.806433
739.000000	63.872263
738.000000	63.900779
737.000000	63.936927
736.000000	63.999577
735.000000	64.026291
734.000000	64.069223
733.000000	64.097739
732.000000	64.117986
731.000000	64.131767
730.000000	64.042510
729.000000	63.994595
728.000000	64.035089
727.000000	64.045584
726.000000	63.965867
725.000000	63.894313
724.000000	63.892616
723.000000	63.876715
722.000000	63.844489
721.000000	63.787352
720.000000	63.712935
719.000000	63.646787
718.000000	63.533042
717.000000	63.469014
716.000000	63.392265
715.000000	63.330039
714.000000	63.229969
713.000000	63.099157
712.000000	62.997179
711.000000	62.909405
710.000000	62.802021
709.000000	62.690820
708.000000	62.555661
707.000000	62.390821
706.000000	62.198313
705.000000	62.064215
704.000000	61.892378
703.000000	61.715559
702.000000	61.583157
701.000000	61.404006
700.000000	61.230579
699.000000	61.013689
698.000000	60.762348
697.000000	60.639168
696.000000	60.535281
695.000000	60.345954
694.000000	60.146343
693.000000	59.915355
692.000000	59.703660
691.000000	59.440021
690.000000	59.203202
689.000000	59.017267
688.000000	58.807162
687.000000	58.693841
686.000000	58.553064
685.000000	58.324938
684.000000	58.042960
683.000000	57.784304
682.000000	57.557980
681.000000	57.332398
680.000000	57.083494
679.000000	56.866923
678.000000	56.621624
677.000000	56.344416
676.000000	56.050778
675.000000	55.807175
674.000000	55.554773
673.000000	55.280004
672.000000	55.001631
671.000000	54.735130
670.000000	54.430785
669.000000	54.133543
668.000000	53.865558
667.000000	53.592591
666.000000	53.293228
665.000000	52.998318
664.000000	52.677966
663.000000	52.417720
662.000000	52.141573
661.000000	51.856203
660.000000	51.593625
659.000000	51.370587
658.000000	51.145959
657.000000	50.919105
656.000000	50.663417
655.000000	50.444513
654.000000	50.190521
653.000000	49.916600
652.000000	49.700771
651.000000	49.461514
650.000000	49.246851
649.000000	49.068017
648.000000	48.878054
647.000000	48.635404
646.000000	48.400494
645.000000	48.152862
644.000000	47.868341
643.000000	47.622829
642.000000	47.302689
641.000000	47.088662
640.000000	46.824176
639.000000	46.571456
638.000000	46.288206
637.000000	45.999444
636.000000	45.750117
635.000000	45.502273
634.000000	45.240967
633.000000	44.986445
632.000000	44.724609
631.000000	44.450264
630.000000	44.254894
629.000000	44.009382
628.000000	43.791857
627.000000	43.590126
626.000000	43.395392
625.000000	43.207336
624.000000	43.020341
623.000000	42.882002
622.000000	42.713982
621.000000	42.555926
620.000000	42.422570
619.000000	42.242040
618.000000	42.070840
617.000000	41.955080
616.000000	41.871759
615.000000	41.742431
614.000000	41.637803
613.000000	41.593492
612.000000	41.515365
611.000000	41.458016
610.000000	41.415825
609.000000	41.384447
608.000000	41.341514
607.000000	41.359429
606.000000	41.373316
605.000000	41.428016
604.000000	41.464588
603.000000	41.533492
602.000000	41.577803
601.000000	41.641619
600.000000	41.689534
599.000000	41.760558
598.000000	41.831265
597.000000	41.909286
596.000000	42.010734
595.000000	42.128401
594.000000	42.227517
593.000000	42.289001
592.000000	42.409319
591.000000	42.520308
590.000000	42.623982
589.000000	42.739423
588.000000	42.840872
587.000000	42.954405
586.000000	43.088185
585.000000	43.219739
584.000000	43.364756
583.000000	43.496840
582.000000	43.607829
581.000000	43.758253
580.000000	43.921609
579.000000	43.980549
578.000000	44.097686
577.000000	44.216837
576.000000	44.278533
575.000000	44.339487
574.000000	44.398215
573.000000	44.471783
572.000000	44.506871
571.000000	44.546518
570.000000	44.602383
569.000000	44.629203
568.000000	44.633337
567.000000	44.698107
566.000000	44.740616
565.000000	44.779944
564.000000	44.770510
563.000000	44.742206
562.000000	44.744538
561.000000	44.711040
560.000000	44.763513
559.000000	45.284854
558.000000	45.293228
557.000000	45.325984
556.000000	45.300967
555.000000	45.321320
554.000000	45.304571
553.000000	45.285596
552.000000	45.259518
551.000000	45.214041
550.000000	45.123512
549.000000	45.020367
548.000000	44.950403
547.000000	44.851075
546.000000	44.751853
545.000000	44.675104
544.000000	44.587436
543.000000	44.434363
542.000000	44.299310
541.000000	44.148781
540.000000	43.988287
539.000000	43.819419
538.000000	43.631575
537.000000	43.419668
536.000000	43.240835
535.000000	43.047478
534.000000	42.855819
533.000000	42.621438
532.000000	42.374973
531.000000	42.135398
530.000000	41.908120
529.000000	41.634092
528.000000	41.351373
527.000000	41.043212
526.000000	40.737701
525.000000	40.439928
524.000000	40.111202
523.000000	39.772511
522.000000	39.441982
521.000000	39.110605
520.000000	38.727816
519.000000	38.365379
518.000000	37.994250
517.000000	37.603828
516.000000	37.260366
515.000000	36.876834
514.000000	36.481642
513.000000	36.103198
512.000000	35.720196
511.000000	35.360940
510.000000	34.996489
509.000000	34.651650
508.000000	34.276174
507.000000	33.935999
506.000000	33.591266
505.000000	33.247486
504.000000	32.886534
503.000000	32.509998
502.000000	32.158798
501.000000	31.811521
500.000000	31.448766
499.000000	31.122266
498.000000	30.776154
497.000000	30.431209
496.000000	30.077359
495.000000	29.725735
494.000000	29.369341
493.000000	28.999802
492.000000	28.625068
491.000000	28.264752
490.000000	27.872104
489.000000	27.473943
488.000000	27.096877
487.000000	26.700413
486.000000	26.311368
485.000000	25.925504
484.000000	25.516319
483.000000	25.110738
482.000000	24.661270
481.000000	24.213710
480.000000	23.766044
479.000000	23.357600
478.000000	23.011913
477.000000	22.679688
476.000000	22.356050
475.000000	22.042695
474.000000	21.734215
473.000000	21.441743
472.000000	21.168988
471.000000	20.921357
470.000000	20.677224
469.000000	20.445069
468.000000	20.238992
467.000000	20.031325
466.000000	19.828005
465.000000	19.645143
464.000000	19.456240
463.000000	19.295427
462.000000	19.151895
461.000000	18.998821
460.000000	18.850730
459.000000	18.721402
458.000000	18.602250
457.000000	18.483523
456.000000	18.368824
455.000000	18.261227
454.000000	18.158613
453.000000	18.069779
452.000000	17.985292
451.000000	17.913525
450.000000	17.836671
449.000000	17.746989
448.000000	17.673633
447.000000	17.612255
446.000000	17.554375
445.000000	17.512714
444.000000	17.485259
443.000000	17.431831
442.000000	17.349994
441.000000	17.268687
440.000000	17.181656
439.000000	17.098547
438.000000	17.018300
437.000000	16.930314
436.000000	16.847947
435.000000	16.763672
434.000000	16.666570
433.000000	16.582613
432.000000	16.488161
431.000000	16.372826
430.000000	16.263533
429.000000	16.171943
428.000000	16.088092
427.000000	15.993216
426.000000	15.880107
425.000000	15.755973
424.000000	15.621027
423.000000	15.469543
422.000000	15.320286
421.000000	15.180357
420.000000	15.017637
419.000000	14.829899
418.000000	14.677674
417.000000	14.507533
416.000000	14.317570
415.000000	14.126758
414.000000	13.941034
413.000000	13.737289
412.000000	13.511601
411.000000	13.291002
410.000000	13.075490
409.000000	12.860509
408.000000	12.610863
407.000000	12.378497
406.000000	12.142420
405.000000	11.901255
404.000000	11.666026
403.000000	11.419349
402.000000	11.160481
401.000000	10.916454
400.000000	10.670624
399.000000	10.429989
398.000000	10.179496
397.000000	9.923384
396.000000	9.693668
395.000000	9.454199
394.000000	9.216638
393.000000	8.970067
392.000000	8.736852
391.000000	8.518478
390.000000	8.286006
389.000000	8.073993
388.000000	7.871308
387.000000	7.671380
386.000000	7.484702
385.000000	7.298978
384.000000	7.108273
383.000000	6.948945
382.000000	6.780394
381.000000	6.637073
380.000000	6.484636
379.000000	6.348417
378.000000	6.203718
377.000000	6.071210
376.000000	6.141068
375.000000	6.124001
374.000000	6.025627
373.000000	5.882200
372.000000	5.764639
371.000000	5.660752
370.000000	5.580187
369.000000	5.482449
368.000000	5.421920
367.000000	5.348669
366.000000	5.300754
365.000000	5.191143
364.000000	5.168776
363.000000	5.077504
362.000000	5.028635
361.000000	4.941074
360.000000	4.914042
359.000000	4.884996
358.000000	4.822558
357.000000	4.823618
356.000000	4.729909
355.000000	4.671287
354.000000	4.702453
353.000000	4.624220
352.000000	4.623584
351.000000	4.493090
350.000000	4.565386
349.000000	4.546093
348.000000	4.511217
347.000000	4.432666
346.000000	4.408921
345.000000	4.457154
344.000000	4.455351
343.000000	4.378391
342.000000	4.378709
341.000000	4.382631
340.000000	4.371182
339.000000	4.313621
338.000000	4.255741
337.000000	4.303126
336.000000	4.255953
335.000000	4.275034
334.000000	4.267614
333.000000	4.213762
332.000000	4.185883
331.000000	4.155353
330.000000	4.211430
329.000000	4.177932
328.000000	4.224575
327.000000	4.101077
326.000000	4.188745
325.000000	4.174222
324.000000	4.156625
323.000000	4.243126
322.000000	4.216095
321.000000	4.153551
320.000000	4.095141
319.000000	4.114646
318.000000	4.116448
317.000000	4.183126
316.000000	4.046908
315.000000	4.020300
314.000000	4.054434
313.000000	4.008322
312.000000	4.031537
311.000000	4.044682
310.000000	4.049346
309.000000	4.066413
308.000000	4.062809
307.000000	4.031961
306.000000	4.044788
305.000000	4.028039
304.000000	4.035883
303.000000	4.067897
302.000000	4.044788
301.000000	4.031325
300.000000	4.039382
299.000000	4.070971
298.000000	4.072774
297.000000	4.067367
296.000000	4.054010
295.000000	4.047968
294.000000	4.070865
293.000000	4.005247
292.000000	4.081890
291.000000	4.027403
290.000000	4.078922
289.000000	4.035989
288.000000	4.047544
287.000000	4.067579
286.000000	4.048498
285.000000	4.088675
284.000000	4.050618
283.000000	4.053692
282.000000	4.095989
281.000000	4.076060
280.000000	4.089205
279.000000	4.078074
278.000000	4.096519
277.000000	4.111572
276.000000	4.060795
275.000000	4.093551
274.000000	4.108710
273.000000	4.112526
272.000000	4.106378
271.000000	4.081678
270.000000	4.111784
269.000000	4.117084
268.000000	4.154929
267.000000	4.117508
266.000000	4.166907
265.000000	4.152915
264.000000	4.170300
263.000000	4.181324
262.000000	4.203056
261.000000	4.212172
260.000000	4.221395
259.000000	4.229557
258.000000	4.275564
257.000000	4.252667
256.000000	4.230405
255.000000	4.277578
254.000000	4.260829
253.000000	4.272172
252.000000	4.263797
251.000000	4.284469
250.000000	4.245352
