PE UV       SUBTECH     SPECTRUM    ASCII       PEDS        4.00        
   -1
CICIMAUCR0014-4.Sample.ASC
24/04/23
10:33:05.00
24/04/23
10:33:05.00
Vinicio Soto Monge
C. cupreomarginata
250,000000
1
Lambda 1050
1050L1511233
PerkinElmer UV WinLab 6.3.2.0749 / 2.02.05 Lambda 900 UV/VIS/NIR, Aug  7 2015 09:38:08

0
0
3350/servo 860,8/2
0
0
UV/VIS
1
1
1
DoubleDePol,CommonBeamDepol,RBeamAtt,SBeamAtt,60mm sphere, WB InGaAs Detector
0
0
0
0
Program
Program
3350/servo 860,8/2
3350/0,2 860,8/0,2
3350/0,2 860,8/0,2
0
15.00
 
 
 
0
 
860,8
319,2
860,8
Front
100
on
S:100 R:100
0
0
0
0
 
0
 
 
 
0
 
 
0
0
0
0
0
 
 
 
 
0
0


0
0
#HDR
-1
-1
#GR
nm
%R
1.0
0.0
2500,000000
-1,000000
2251
8
76,501800
5,863200
#DATA
2500.000000	7.803295
2499.000000	7.757918
2498.000000	7.651208
2497.000000	7.609678
2496.000000	7.686174
2495.000000	7.617260
2494.000000	7.526732
2493.000000	7.585914
2492.000000	7.608207
2491.000000	7.645663
2490.000000	7.512360
2489.000000	7.484410
2488.000000	7.429527
2487.000000	7.544158
2486.000000	7.496631
2485.000000	7.481581
2484.000000	7.525261
2483.000000	7.454536
2482.000000	7.483052
2481.000000	7.463023
2480.000000	7.438580
2479.000000	7.495613
2478.000000	7.502402
2477.000000	7.467549
2476.000000	7.445709
2475.000000	7.475357
2474.000000	7.445370
2473.000000	7.485768
2472.000000	7.436204
2471.000000	7.466304
2470.000000	7.510776
2469.000000	7.486560
2468.000000	7.474339
2467.000000	7.529221
2466.000000	7.534540
2465.000000	7.525713
2464.000000	7.540311
2463.000000	7.596212
2462.000000	7.593723
2461.000000	7.618957
2460.000000	7.634008
2459.000000	7.670445
2458.000000	7.675424
2457.000000	7.740378
2456.000000	7.778513
2455.000000	7.827285
2454.000000	7.900726
2453.000000	7.906158
2452.000000	7.941577
2451.000000	8.005625
2450.000000	8.052474
2449.000000	8.083480
2448.000000	8.136099
2447.000000	8.164842
2446.000000	8.238169
2445.000000	8.277436
2444.000000	8.335374
2443.000000	8.399762
2442.000000	8.428618
2441.000000	8.500361
2440.000000	8.526275
2439.000000	8.560449
2438.000000	8.616916
2437.000000	8.656975
2436.000000	8.690810
2435.000000	8.742071
2434.000000	8.790617
2433.000000	8.818681
2432.000000	8.855005
2431.000000	8.887369
2430.000000	8.934217
2429.000000	8.961828
2428.000000	8.973484
2427.000000	9.041380
2426.000000	9.065709
2425.000000	9.082344
2424.000000	9.091849
2423.000000	9.092868
2422.000000	9.106786
2421.000000	9.117763
2420.000000	9.132021
2419.000000	9.142771
2418.000000	9.164724
2417.000000	9.183848
2416.000000	9.207612
2415.000000	9.215420
2414.000000	9.218023
2413.000000	9.236921
2412.000000	9.255705
2411.000000	9.280940
2410.000000	9.295311
2409.000000	9.308551
2408.000000	9.342159
2407.000000	9.356418
2406.000000	9.378484
2405.000000	9.384481
2404.000000	9.392855
2403.000000	9.421711
2402.000000	9.451698
2401.000000	9.479988
2400.000000	9.489154
2399.000000	9.510768
2398.000000	9.534079
2397.000000	9.559879
2396.000000	9.589301
2395.000000	9.618496
2394.000000	9.637281
2393.000000	9.669192
2392.000000	9.699972
2391.000000	9.706422
2390.000000	9.726791
2389.000000	9.738107
2388.000000	9.760512
2387.000000	9.778052
2386.000000	9.776128
2385.000000	9.780315
2384.000000	9.801476
2383.000000	9.804532
2382.000000	9.806569
2381.000000	9.802834
2380.000000	9.798647
2379.000000	9.808153
2378.000000	9.806795
2377.000000	9.800571
2376.000000	9.803740
2375.000000	9.792310
2374.000000	9.762210
2373.000000	9.750441
2372.000000	9.742859
2371.000000	9.730299
2370.000000	9.722491
2369.000000	9.699632
2368.000000	9.668061
2367.000000	9.623928
2366.000000	9.580475
2365.000000	9.569611
2364.000000	9.557277
2363.000000	9.503752
2362.000000	9.444004
2361.000000	9.420693
2360.000000	9.390479
2359.000000	9.337633
2358.000000	9.290106
2357.000000	9.251405
2356.000000	9.214741
2355.000000	9.192562
2354.000000	9.191204
2353.000000	9.198107
2352.000000	9.199351
2351.000000	9.200257
2350.000000	9.219041
2349.000000	9.239976
2348.000000	9.294180
2347.000000	9.333446
2346.000000	9.352344
2345.000000	9.392403
2344.000000	9.446380
2343.000000	9.491418
2342.000000	9.533740
2341.000000	9.601749
2340.000000	9.624947
2339.000000	9.632415
2338.000000	9.659121
2337.000000	9.683111
2336.000000	9.700538
2335.000000	9.699066
2334.000000	9.686279
2333.000000	9.653237
2332.000000	9.630605
2331.000000	9.622683
2330.000000	9.598807
2329.000000	9.559087
2328.000000	9.514389
2327.000000	9.478631
2326.000000	9.457583
2325.000000	9.409490
2324.000000	9.342725
2323.000000	9.280827
2322.000000	9.221983
2321.000000	9.162348
2320.000000	9.087889
2319.000000	9.020785
2318.000000	8.945646
2317.000000	8.859758
2316.000000	8.779414
2315.000000	8.716271
2314.000000	8.640906
2313.000000	8.571086
2312.000000	8.525596
2311.000000	8.456682
2310.000000	8.417302
2309.000000	8.386635
2308.000000	8.359024
2307.000000	8.331300
2306.000000	8.336619
2305.000000	8.348274
2304.000000	8.353027
2303.000000	8.416397
2302.000000	8.462113
2301.000000	8.494251
2300.000000	8.568031
2299.000000	8.645546
2298.000000	8.718195
2297.000000	8.787788
2296.000000	8.856589
2295.000000	8.931501
2294.000000	8.973371
2293.000000	9.047377
2292.000000	9.093434
2291.000000	9.120252
2290.000000	9.146392
2289.000000	9.163593
2288.000000	9.172759
2287.000000	9.164724
2286.000000	9.148656
2285.000000	9.156124
2284.000000	9.117876
2283.000000	9.107918
2282.000000	9.061183
2281.000000	9.041040
2280.000000	8.968844
2279.000000	8.949607
2278.000000	8.914301
2277.000000	8.884540
2276.000000	8.843010
2275.000000	8.797180
2274.000000	8.789938
2273.000000	8.782809
2272.000000	8.783262
2271.000000	8.810873
2270.000000	8.817889
2269.000000	8.832486
2268.000000	8.891443
2267.000000	8.921204
2266.000000	8.987742
2265.000000	9.068538
2264.000000	9.211686
2263.000000	9.306401
2262.000000	9.443098
2261.000000	9.589188
2260.000000	9.765944
2259.000000	9.967822
2258.000000	10.129528
2257.000000	10.350077
2256.000000	10.543807
2255.000000	10.749758
2254.000000	10.954352
2253.000000	11.155550
2252.000000	11.334004
2251.000000	11.555571
2250.000000	11.723388
2249.000000	11.877964
2248.000000	12.035257
2247.000000	12.207600
2246.000000	12.343958
2245.000000	12.469226
2244.000000	12.582952
2243.000000	12.729947
2242.000000	12.854423
2241.000000	12.945404
2240.000000	13.041137
2239.000000	13.147847
2238.000000	13.226720
2237.000000	13.321435
2236.000000	13.397931
2235.000000	13.466506
2234.000000	13.532139
2233.000000	13.575140
2232.000000	13.668610
2231.000000	13.694863
2230.000000	13.720777
2229.000000	13.771359
2228.000000	13.789012
2227.000000	13.823300
2226.000000	13.842424
2225.000000	13.869469
2224.000000	13.885538
2223.000000	13.878296
2222.000000	13.886783
2221.000000	13.890970
2220.000000	13.873656
2219.000000	13.856343
2218.000000	13.858040
2217.000000	13.859398
2216.000000	13.844913
2215.000000	13.843329
2214.000000	13.821829
2213.000000	13.803723
2212.000000	13.803950
2211.000000	13.784599
2210.000000	13.767851
2209.000000	13.745333
2208.000000	13.762080
2207.000000	13.742051
2206.000000	13.740467
2205.000000	13.724058
2204.000000	13.735374
2203.000000	13.724172
2202.000000	13.716703
2201.000000	13.709008
2200.000000	13.683095
2199.000000	13.694750
2198.000000	13.692600
2197.000000	13.711498
2196.000000	13.706858
2195.000000	13.693279
2194.000000	13.693166
2193.000000	13.683887
2192.000000	13.675965
2191.000000	13.680831
2190.000000	13.682302
2189.000000	13.669742
2188.000000	13.650278
2187.000000	13.653333
2186.000000	13.649033
2185.000000	13.625383
2184.000000	13.626175
2183.000000	13.608635
2182.000000	13.589737
2181.000000	13.572198
2180.000000	13.574913
2179.000000	13.570387
2178.000000	13.575706
2177.000000	13.559184
2176.000000	13.532252
2175.000000	13.537910
2174.000000	13.545266
2173.000000	13.564390
2172.000000	13.583853
2171.000000	13.583627
2170.000000	13.565747
2169.000000	13.578648
2168.000000	13.595509
2167.000000	13.612709
2166.000000	13.613727
2165.000000	13.632399
2164.000000	13.642696
2163.000000	13.652428
2162.000000	13.664536
2161.000000	13.678455
2160.000000	13.697805
2159.000000	13.716137
2158.000000	13.735148
2157.000000	13.745333
2156.000000	13.769888
2155.000000	13.806552
2154.000000	13.827600
2153.000000	13.823526
2152.000000	13.850119
2151.000000	13.878409
2150.000000	13.908623
2149.000000	13.919939
2148.000000	13.945513
2147.000000	13.965542
2146.000000	13.969276
2145.000000	13.989079
2144.000000	14.012730
2143.000000	14.031854
2142.000000	14.049846
2141.000000	14.060144
2140.000000	14.056749
2139.000000	14.083002
2138.000000	14.089452
2137.000000	14.091150
2136.000000	14.087302
2135.000000	14.097826
2134.000000	14.093074
2133.000000	14.097147
2132.000000	14.103258
2131.000000	14.101674
2130.000000	14.102353
2129.000000	14.091829
2128.000000	14.084587
2127.000000	14.079721
2126.000000	14.067386
2125.000000	14.058786
2124.000000	14.038530
2123.000000	14.021330
2122.000000	14.011146
2121.000000	13.989985
2120.000000	13.949021
2119.000000	13.932160
2118.000000	13.915299
2117.000000	13.888254
2116.000000	13.862227
2115.000000	13.829976
2114.000000	13.807231
2113.000000	13.804742
2112.000000	13.758459
2111.000000	13.716250
2110.000000	13.706066
2109.000000	13.689092
2108.000000	13.661141
2107.000000	13.636020
2106.000000	13.615425
2105.000000	13.589172
2104.000000	13.561900
2103.000000	13.551602
2102.000000	13.529423
2101.000000	13.504754
2100.000000	13.478841
2099.000000	13.436519
2098.000000	13.416942
2097.000000	13.413434
2096.000000	13.401326
2095.000000	13.360588
2094.000000	13.324830
2093.000000	13.321548
2092.000000	13.305366
2091.000000	13.291334
2090.000000	13.275605
2089.000000	13.257952
2088.000000	13.241544
2087.000000	13.210538
2086.000000	13.194130
2085.000000	13.176250
2084.000000	13.159842
2083.000000	13.140944
2082.000000	13.120802
2081.000000	13.101904
2080.000000	13.089004
2079.000000	13.064448
2078.000000	13.041929
2077.000000	13.028916
2076.000000	13.004134
2075.000000	12.978220
2074.000000	12.963849
2073.000000	12.958983
2072.000000	12.921527
2071.000000	12.903987
2070.000000	12.901950
2069.000000	12.878300
2068.000000	12.844691
2067.000000	12.824549
2066.000000	12.805990
2065.000000	12.795919
2064.000000	12.783585
2063.000000	12.770685
2062.000000	12.738208
2061.000000	12.733568
2060.000000	12.731192
2059.000000	12.732776
2058.000000	12.741489
2057.000000	12.766045
2056.000000	12.787998
2055.000000	12.787998
2054.000000	12.817985
2053.000000	12.843333
2052.000000	12.891313
2051.000000	12.924130
2050.000000	12.959096
2049.000000	13.027445
2048.000000	13.073388
2047.000000	13.145471
2046.000000	13.213141
2045.000000	13.295747
2044.000000	13.352441
2043.000000	13.429163
2042.000000	13.493099
2041.000000	13.576385
2040.000000	13.637944
2039.000000	13.703350
2038.000000	13.783468
2037.000000	13.872638
2036.000000	13.911565
2035.000000	13.963279
2034.000000	14.021104
2033.000000	14.068631
2032.000000	14.106540
2031.000000	14.176812
2030.000000	14.233958
2029.000000	14.255006
2028.000000	14.284088
2027.000000	14.331728
2026.000000	14.359339
2025.000000	14.415127
2024.000000	14.422596
2023.000000	14.445228
2022.000000	14.473292
2021.000000	14.496942
2020.000000	14.528287
2019.000000	14.546506
2018.000000	14.570383
2017.000000	14.595505
2016.000000	14.621079
2015.000000	14.625266
2014.000000	14.623229
2013.000000	14.605576
2012.000000	14.606255
2011.000000	14.597541
2010.000000	14.581246
2009.000000	14.574344
2008.000000	14.552843
2007.000000	14.537793
2006.000000	14.530890
2005.000000	14.497055
2004.000000	14.443417
2003.000000	14.417956
2002.000000	14.403245
2001.000000	14.373484
2000.000000	14.333652
1999.000000	14.294046
1998.000000	14.240974
1997.000000	14.185299
1996.000000	14.157009
1995.000000	14.090924
1994.000000	14.050412
1993.000000	13.998359
1992.000000	13.927294
1991.000000	13.883162
1990.000000	13.828166
1989.000000	13.747709
1988.000000	13.688526
1987.000000	13.617575
1986.000000	13.562579
1985.000000	13.491628
1984.000000	13.439008
1983.000000	13.370999
1982.000000	13.308421
1981.000000	13.229096
1980.000000	13.189490
1979.000000	13.122386
1978.000000	13.049737
1977.000000	12.990781
1976.000000	12.911682
1975.000000	12.830207
1974.000000	12.784377
1973.000000	12.737302
1972.000000	12.677667
1971.000000	12.604000
1970.000000	12.539951
1969.000000	12.479976
1968.000000	12.436975
1967.000000	12.391485
1966.000000	12.301862
1965.000000	12.266556
1964.000000	12.206355
1963.000000	12.170144
1962.000000	12.091498
1961.000000	12.027449
1960.000000	12.010814
1959.000000	11.969737
1958.000000	11.888715
1957.000000	11.822742
1956.000000	11.781778
1955.000000	11.742625
1954.000000	11.682990
1953.000000	11.638065
1952.000000	11.581598
1951.000000	11.566774
1950.000000	11.538371
1949.000000	11.498765
1948.000000	11.451917
1947.000000	11.425890
1946.000000	11.375534
1945.000000	11.351883
1944.000000	11.316011
1943.000000	11.322235
1942.000000	11.285232
1941.000000	11.313522
1940.000000	11.310353
1939.000000	11.294737
1938.000000	11.278782
1937.000000	11.289419
1936.000000	11.307411
1935.000000	11.331175
1934.000000	11.343283
1933.000000	11.392960
1932.000000	11.430642
1931.000000	11.478283
1930.000000	11.515739
1929.000000	11.571753
1928.000000	11.646099
1927.000000	11.694079
1926.000000	11.765144
1925.000000	11.853974
1924.000000	11.938392
1923.000000	12.045781
1922.000000	12.151359
1921.000000	12.238493
1920.000000	12.320307
1919.000000	12.401556
1918.000000	12.560546
1917.000000	12.708899
1916.000000	12.871850
1915.000000	13.016695
1914.000000	13.190735
1913.000000	13.289071
1912.000000	13.441950
1911.000000	13.629457
1910.000000	13.789012
1909.000000	13.960337
1908.000000	14.172286
1907.000000	14.395664
1906.000000	14.584189
1905.000000	14.761963
1904.000000	14.956033
1903.000000	15.184616
1902.000000	15.401883
1901.000000	15.627298
1900.000000	15.879080
1899.000000	16.097705
1898.000000	16.352542
1897.000000	16.618807
1896.000000	16.895144
1895.000000	17.187776
1894.000000	17.499532
1893.000000	17.791825
1892.000000	18.128929
1891.000000	18.459696
1890.000000	18.819093
1889.000000	19.166494
1888.000000	19.544223
1887.000000	19.982492
1886.000000	20.470212
1885.000000	20.972416
1884.000000	21.529164
1883.000000	22.105941
1882.000000	22.691658
1881.000000	23.327052
1880.000000	23.924311
1879.000000	24.524852
1878.000000	25.096989
1877.000000	25.641403
1876.000000	26.177668
1875.000000	26.690963
1874.000000	27.177551
1873.000000	27.612425
1872.000000	28.007920
1871.000000	28.351361
1870.000000	28.649085
1869.000000	28.963105
1868.000000	29.200514
1867.000000	29.387002
1866.000000	29.572698
1865.000000	29.745946
1864.000000	29.895431
1863.000000	30.053289
1862.000000	30.203113
1861.000000	30.311860
1860.000000	30.402275
1859.000000	30.450821
1858.000000	30.478771
1857.000000	30.519056
1856.000000	30.545875
1855.000000	30.531843
1854.000000	30.478205
1853.000000	30.411893
1852.000000	30.393109
1851.000000	30.393222
1850.000000	30.408612
1849.000000	30.380888
1848.000000	30.254375
1847.000000	30.111340
1846.000000	30.008591
1845.000000	29.981998
1844.000000	29.996370
1843.000000	30.008365
1842.000000	29.978490
1841.000000	29.917610
1840.000000	29.845301
1839.000000	29.800603
1838.000000	29.764052
1837.000000	29.687782
1836.000000	29.579035
1835.000000	29.477983
1834.000000	29.388813
1833.000000	29.322388
1832.000000	29.265242
1831.000000	29.173809
1830.000000	29.056575
1829.000000	28.953939
1828.000000	28.834442
1827.000000	28.730674
1826.000000	28.638561
1825.000000	28.559462
1824.000000	28.532530
1823.000000	28.533549
1822.000000	28.506843
1821.000000	28.428989
1820.000000	28.342987
1819.000000	28.293649
1818.000000	28.286747
1817.000000	28.292970
1816.000000	28.281994
1815.000000	28.255514
1814.000000	28.246688
1813.000000	28.233674
1812.000000	28.213532
1811.000000	28.154123
1810.000000	28.095280
1809.000000	28.065971
1808.000000	28.026818
1807.000000	27.954848
1806.000000	27.875296
1805.000000	27.793595
1804.000000	27.733959
1803.000000	27.677945
1802.000000	27.629513
1801.000000	27.558222
1800.000000	27.479236
1799.000000	27.397648
1798.000000	27.331562
1797.000000	27.288335
1796.000000	27.219647
1795.000000	27.145527
1794.000000	27.089399
1793.000000	27.028406
1792.000000	26.968884
1791.000000	26.902119
1790.000000	26.810007
1789.000000	26.734642
1788.000000	26.660409
1787.000000	26.574408
1786.000000	26.489764
1785.000000	26.371738
1784.000000	26.256880
1783.000000	26.161486
1782.000000	26.063716
1781.000000	25.968209
1780.000000	25.866591
1779.000000	25.748339
1778.000000	25.632123
1777.000000	25.515116
1776.000000	25.400032
1775.000000	25.255300
1774.000000	25.108305
1773.000000	24.951579
1772.000000	24.798020
1771.000000	24.652949
1770.000000	24.485246
1769.000000	24.343230
1768.000000	24.214906
1767.000000	24.089072
1766.000000	23.990057
1765.000000	23.896813
1764.000000	23.828125
1763.000000	23.826428
1762.000000	23.845665
1761.000000	23.900774
1760.000000	23.974667
1759.000000	24.053314
1758.000000	24.141805
1757.000000	24.219319
1756.000000	24.270128
1755.000000	24.319240
1754.000000	24.315619
1753.000000	24.341985
1752.000000	24.333611
1751.000000	24.298758
1750.000000	24.254399
1749.000000	24.178695
1748.000000	24.095975
1747.000000	24.005786
1746.000000	23.866939
1745.000000	23.698217
1744.000000	23.529948
1743.000000	23.324902
1742.000000	23.082966
1741.000000	22.833674
1740.000000	22.552810
1739.000000	22.304311
1738.000000	22.068938
1737.000000	21.857781
1736.000000	21.733192
1735.000000	21.618221
1734.000000	21.580086
1733.000000	21.578049
1732.000000	21.619805
1731.000000	21.725836
1730.000000	21.869663
1729.000000	21.979541
1728.000000	22.122576
1727.000000	22.262442
1726.000000	22.375262
1725.000000	22.485593
1724.000000	22.563561
1723.000000	22.615501
1722.000000	22.633267
1721.000000	22.644018
1720.000000	22.642094
1719.000000	22.621725
1718.000000	22.685774
1717.000000	22.702408
1716.000000	22.759780
1715.000000	22.804252
1714.000000	22.854495
1713.000000	22.918431
1712.000000	22.972182
1711.000000	22.986893
1710.000000	22.976708
1709.000000	22.970598
1708.000000	22.935971
1707.000000	22.878825
1706.000000	22.839898
1705.000000	22.765212
1704.000000	22.671742
1703.000000	22.583477
1702.000000	22.434106
1701.000000	22.271834
1700.000000	22.071993
1699.000000	21.910061
1698.000000	21.736021
1697.000000	21.602831
1696.000000	21.526561
1695.000000	21.537198
1694.000000	21.603850
1693.000000	21.731381
1692.000000	21.921151
1691.000000	22.114541
1690.000000	22.334751
1689.000000	22.457303
1688.000000	22.547605
1687.000000	22.574198
1686.000000	22.608825
1685.000000	22.634738
1684.000000	22.760459
1683.000000	22.998096
1682.000000	23.358284
1681.000000	23.873615
1680.000000	24.484001
1679.000000	25.155154
1678.000000	25.795300
1677.000000	26.418020
1676.000000	26.956436
1675.000000	27.453549
1674.000000	27.900192
1673.000000	28.272375
1672.000000	28.578021
1671.000000	28.850171
1670.000000	29.078641
1669.000000	29.301340
1668.000000	29.485565
1667.000000	29.680087
1666.000000	29.780234
1665.000000	29.893960
1664.000000	29.979622
1663.000000	30.068226
1662.000000	30.140649
1661.000000	30.176068
1660.000000	30.202774
1659.000000	30.265691
1658.000000	30.289907
1657.000000	30.277007
1656.000000	30.274291
1655.000000	30.260485
1654.000000	30.242493
1653.000000	30.223821
1652.000000	30.182065
1651.000000	30.153888
1650.000000	30.110774
1649.000000	30.066868
1648.000000	30.020925
1647.000000	29.949748
1646.000000	29.880494
1645.000000	29.801055
1644.000000	29.728520
1643.000000	29.664358
1642.000000	29.584240
1641.000000	29.506047
1640.000000	29.417556
1639.000000	29.324764
1638.000000	29.248268
1637.000000	29.162606
1636.000000	29.072644
1635.000000	28.978721
1634.000000	28.878800
1633.000000	28.790083
1632.000000	28.705213
1631.000000	28.610498
1630.000000	28.498017
1629.000000	28.385309
1628.000000	28.281315
1627.000000	28.172455
1626.000000	28.077287
1625.000000	27.973859
1624.000000	27.874391
1623.000000	27.785108
1622.000000	27.676927
1621.000000	27.578591
1620.000000	27.477539
1619.000000	27.391311
1618.000000	27.303951
1617.000000	27.196109
1616.000000	27.091776
1615.000000	27.010640
1614.000000	26.927580
1613.000000	26.824265
1612.000000	26.737698
1611.000000	26.662333
1610.000000	26.575426
1609.000000	26.484332
1608.000000	26.407270
1607.000000	26.325682
1606.000000	26.238322
1605.000000	26.163071
1604.000000	26.061792
1603.000000	25.976130
1602.000000	25.917287
1601.000000	25.843393
1600.000000	25.765539
1599.000000	25.694588
1598.000000	25.620242
1597.000000	25.543406
1596.000000	25.462723
1595.000000	25.392450
1594.000000	25.336436
1593.000000	25.288909
1592.000000	25.220786
1591.000000	25.163188
1590.000000	25.105476
1589.000000	25.040636
1588.000000	24.996164
1587.000000	24.949089
1586.000000	24.891830
1585.000000	24.838079
1584.000000	24.806168
1583.000000	24.757509
1582.000000	24.706926
1581.000000	24.676486
1580.000000	24.663586
1579.000000	24.655325
1578.000000	24.623641
1577.000000	24.590485
1576.000000	24.568984
1575.000000	24.558913
1574.000000	24.536847
1573.000000	24.533905
1572.000000	24.541599
1571.000000	24.523041
1570.000000	24.518288
1569.000000	24.530057
1568.000000	24.542844
1567.000000	24.550086
1566.000000	24.560271
1565.000000	24.570455
1564.000000	24.576792
1563.000000	24.580753
1562.000000	24.580640
1561.000000	24.586750
1560.000000	24.602140
1559.000000	24.590824
1558.000000	24.582450
1557.000000	24.577584
1556.000000	24.564231
1555.000000	24.571247
1554.000000	24.559252
1553.000000	24.532207
1552.000000	24.515346
1551.000000	24.497014
1550.000000	24.484793
1549.000000	24.477211
1548.000000	24.450845
1547.000000	24.414521
1546.000000	24.389060
1545.000000	24.365635
1544.000000	24.326369
1543.000000	24.303058
1542.000000	24.301587
1541.000000	24.300003
1540.000000	24.272844
1539.000000	24.239462
1538.000000	24.223280
1537.000000	24.207551
1536.000000	24.184240
1535.000000	24.150631
1534.000000	24.130036
1533.000000	24.094843
1532.000000	24.061574
1531.000000	24.022195
1530.000000	23.989604
1529.000000	23.959617
1528.000000	23.918766
1527.000000	23.881650
1526.000000	23.837517
1525.000000	23.800061
1524.000000	23.770753
1523.000000	23.715304
1522.000000	23.659743
1521.000000	23.614931
1520.000000	23.567517
1519.000000	23.516029
1518.000000	23.473029
1517.000000	23.438628
1516.000000	23.399361
1515.000000	23.345271
1514.000000	23.290388
1513.000000	23.249311
1512.000000	23.187978
1511.000000	23.133435
1510.000000	23.091792
1509.000000	23.027857
1508.000000	22.975011
1507.000000	22.946042
1506.000000	22.883804
1505.000000	22.818171
1504.000000	22.764646
1503.000000	22.737714
1502.000000	22.677287
1501.000000	22.642433
1500.000000	22.593774
1499.000000	22.562995
1498.000000	22.532781
1497.000000	22.487970
1496.000000	22.439764
1495.000000	22.430371
1494.000000	22.412492
1493.000000	22.410681
1492.000000	22.371528
1491.000000	22.351385
1490.000000	22.330225
1489.000000	22.324906
1488.000000	22.312006
1487.000000	22.298992
1486.000000	22.287903
1485.000000	22.263800
1484.000000	22.267986
1483.000000	22.259499
1482.000000	22.275342
1481.000000	22.272173
1480.000000	22.276926
1479.000000	22.287790
1478.000000	22.290845
1477.000000	22.293561
1476.000000	22.303066
1475.000000	22.309743
1474.000000	22.373339
1473.000000	22.399931
1472.000000	22.422676
1471.000000	22.426637
1470.000000	22.432408
1469.000000	22.438519
1468.000000	22.479709
1467.000000	22.480954
1466.000000	22.536855
1465.000000	22.566390
1464.000000	22.611541
1463.000000	22.677626
1462.000000	22.725945
1461.000000	22.770417
1460.000000	22.830279
1459.000000	22.893875
1458.000000	22.993230
1457.000000	23.091226
1456.000000	23.180510
1455.000000	23.263795
1454.000000	23.361339
1453.000000	23.487853
1452.000000	23.611650
1451.000000	23.717681
1450.000000	23.824504
1449.000000	23.897266
1448.000000	24.053993
1447.000000	24.222375
1446.000000	24.352283
1445.000000	24.466009
1444.000000	24.595916
1443.000000	24.750833
1442.000000	24.878817
1441.000000	25.040070
1440.000000	25.173599
1439.000000	25.321725
1438.000000	25.502668
1437.000000	25.638800
1436.000000	25.793942
1435.000000	25.969454
1434.000000	26.121767
1433.000000	26.307010
1432.000000	26.500854
1431.000000	26.628272
1430.000000	26.828226
1429.000000	27.074915
1428.000000	27.276340
1427.000000	27.506960
1426.000000	27.770623
1425.000000	28.069140
1424.000000	28.344911
1423.000000	28.609592
1422.000000	28.843947
1421.000000	29.188633
1420.000000	29.504689
1419.000000	29.791210
1418.000000	30.060305
1417.000000	30.320686
1416.000000	30.682686
1415.000000	31.036424
1414.000000	31.347388
1413.000000	31.619199
1412.000000	31.909681
1411.000000	32.333239
1410.000000	32.795385
1409.000000	33.214077
1408.000000	33.679958
1407.000000	34.165754
1406.000000	34.665695
1405.000000	35.160997
1404.000000	35.647812
1403.000000	36.138927
1402.000000	36.755876
1401.000000	37.313529
1400.000000	37.703705
1399.000000	38.092184
1398.000000	38.469346
1397.000000	38.884870
1396.000000	39.275386
1395.000000	39.553760
1394.000000	39.828739
1393.000000	40.124879
1392.000000	40.472280
1391.000000	40.817305
1390.000000	41.205897
1389.000000	41.685243
1388.000000	42.180885
1387.000000	42.645746
1386.000000	43.205210
1385.000000	43.857918
1384.000000	44.473395
1383.000000	45.039649
1382.000000	45.504171
1381.000000	45.845235
1380.000000	46.067142
1379.000000	46.266078
1378.000000	46.436497
1377.000000	46.616874
1376.000000	46.840818
1375.000000	47.146803
1374.000000	47.555990
1373.000000	48.064758
1372.000000	48.544217
1371.000000	49.035672
1370.000000	49.501778
1369.000000	49.924771
1368.000000	50.338031
1367.000000	50.709649
1366.000000	50.987231
1365.000000	51.269226
1364.000000	51.522478
1363.000000	51.763057
1362.000000	52.002277
1361.000000	52.113287
1360.000000	52.147235
1359.000000	52.336892
1358.000000	52.515119
1357.000000	52.794059
1356.000000	53.250660
1355.000000	53.855161
1354.000000	54.548040
1353.000000	55.260496
1352.000000	56.091657
1351.000000	56.869859
1350.000000	57.547802
1349.000000	58.161243
1348.000000	58.742886
1347.000000	59.277115
1346.000000	59.734395
1345.000000	60.255157
1344.000000	60.716398
1343.000000	61.140183
1342.000000	61.541675
1341.000000	61.942488
1340.000000	62.339793
1339.000000	62.716843
1338.000000	63.071147
1337.000000	63.401461
1336.000000	63.730983
1335.000000	64.052924
1334.000000	64.367170
1333.000000	64.671457
1332.000000	64.946097
1331.000000	65.208741
1330.000000	65.464596
1329.000000	65.705741
1328.000000	65.934211
1327.000000	66.146612
1326.000000	66.342606
1325.000000	66.558176
1324.000000	66.758922
1323.000000	66.934320
1322.000000	67.096592
1321.000000	67.253658
1320.000000	67.422493
1319.000000	67.584651
1318.000000	67.707090
1317.000000	67.847296
1316.000000	67.992027
1315.000000	68.122954
1314.000000	68.253088
1313.000000	68.369303
1312.000000	68.464245
1311.000000	68.559412
1310.000000	68.652656
1309.000000	68.747258
1308.000000	68.821378
1307.000000	68.887011
1306.000000	68.948117
1305.000000	68.991684
1304.000000	69.026198
1303.000000	69.068859
1302.000000	69.102241
1301.000000	69.118989
1300.000000	69.126344
1299.000000	69.136076
1298.000000	69.148750
1297.000000	69.142413
1296.000000	69.130758
1295.000000	69.120121
1294.000000	69.102468
1293.000000	69.089681
1292.000000	69.071462
1291.000000	69.029027
1290.000000	68.979802
1289.000000	68.924240
1288.000000	68.865624
1287.000000	68.802593
1286.000000	68.724852
1285.000000	68.640209
1284.000000	68.552396
1283.000000	68.459605
1282.000000	68.368285
1281.000000	68.282962
1280.000000	68.200695
1279.000000	68.114806
1278.000000	68.027560
1277.000000	67.951403
1276.000000	67.885657
1275.000000	67.813800
1274.000000	67.750657
1273.000000	67.705959
1272.000000	67.649379
1271.000000	67.599022
1270.000000	67.549911
1269.000000	67.493557
1268.000000	67.427472
1267.000000	67.373947
1266.000000	67.308540
1265.000000	67.251734
1264.000000	67.187233
1263.000000	67.121600
1262.000000	67.056985
1261.000000	66.982639
1260.000000	66.906030
1259.000000	66.842887
1258.000000	66.781893
1257.000000	66.702229
1256.000000	66.602648
1255.000000	66.518456
1254.000000	66.429286
1253.000000	66.309450
1252.000000	66.200477
1251.000000	66.091164
1250.000000	65.983096
1249.000000	65.837233
1248.000000	65.692048
1247.000000	65.543356
1246.000000	65.361055
1245.000000	65.199802
1244.000000	65.022027
1243.000000	64.831013
1242.000000	64.629475
1241.000000	64.427484
1240.000000	64.186679
1239.000000	63.964999
1238.000000	63.766629
1237.000000	63.533406
1236.000000	63.286151
1235.000000	63.046817
1234.000000	62.813934
1233.000000	62.568829
1232.000000	62.313653
1231.000000	62.046482
1230.000000	61.794135
1229.000000	61.548464
1228.000000	61.290459
1227.000000	61.030644
1226.000000	60.763699
1225.000000	60.498338
1224.000000	60.238749
1223.000000	59.985723
1222.000000	59.741750
1221.000000	59.498343
1220.000000	59.276436
1219.000000	59.045023
1218.000000	58.805463
1217.000000	58.610149
1216.000000	58.412911
1215.000000	58.225970
1214.000000	58.032466
1213.000000	57.870874
1212.000000	57.705547
1211.000000	57.526641
1210.000000	57.384399
1209.000000	57.253812
1208.000000	57.130807
1207.000000	57.041297
1206.000000	56.978606
1205.000000	56.891813
1204.000000	56.857186
1203.000000	56.826632
1202.000000	56.776050
1201.000000	56.732596
1200.000000	56.645576
1199.000000	56.534679
1198.000000	56.377839
1197.000000	56.172454
1196.000000	55.883782
1195.000000	55.519859
1194.000000	55.047076
1193.000000	54.486255
1192.000000	53.863422
1191.000000	53.194872
1190.000000	52.582336
1189.000000	52.086921
1188.000000	51.718245
1187.000000	51.536510
1186.000000	51.523949
1185.000000	51.700366
1184.000000	52.074926
1183.000000	52.600555
1182.000000	53.276121
1181.000000	54.014377
1180.000000	54.753879
1179.000000	55.448342
1178.000000	56.063028
1177.000000	56.607781
1176.000000	57.065287
1175.000000	57.529017
1174.000000	58.008477
1173.000000	58.446180
1172.000000	58.909005
1171.000000	59.425807
1170.000000	59.961394
1169.000000	60.458393
1168.000000	60.960824
1167.000000	61.475476
1166.000000	62.018758
1165.000000	62.551855
1164.000000	63.096721
1163.000000	63.641587
1162.000000	64.152392
1161.000000	64.698276
1160.000000	65.166533
1159.000000	65.678695
1158.000000	66.137673
1157.000000	66.537015
1156.000000	66.889395
1155.000000	67.170711
1154.000000	67.356860
1153.000000	67.460175
1152.000000	67.516868
1151.000000	67.552966
1150.000000	67.541877
1149.000000	67.587254
1148.000000	67.625955
1147.000000	67.751789
1146.000000	67.956269
1145.000000	68.268251
1144.000000	68.659785
1143.000000	69.123176
1142.000000	69.617346
1141.000000	70.123511
1140.000000	70.623226
1139.000000	71.152250
1138.000000	71.703792
1137.000000	72.262464
1136.000000	72.841844
1135.000000	73.388181
1134.000000	73.870016
1133.000000	74.263021
1132.000000	74.682393
1131.000000	75.068156
1130.000000	75.397452
1129.000000	75.680012
1128.000000	75.903164
1127.000000	76.069510
1126.000000	76.230197
1125.000000	76.340188
1124.000000	76.448030
1123.000000	76.547158
1122.000000	76.631123
1121.000000	76.688043
1120.000000	76.749941
1119.000000	76.784342
1118.000000	76.819874
1117.000000	76.846693
1116.000000	76.847259
1115.000000	76.849748
1114.000000	76.844769
1113.000000	76.841827
1112.000000	76.827456
1111.000000	76.828248
1110.000000	76.814329
1109.000000	76.813424
1108.000000	76.813198
1107.000000	76.805390
1106.000000	76.802674
1105.000000	76.795432
1104.000000	76.788189
1103.000000	76.767594
1102.000000	76.756278
1101.000000	76.729120
1100.000000	76.733420
1099.000000	76.717012
1098.000000	76.683969
1097.000000	76.637121
1096.000000	76.591404
1095.000000	76.583709
1094.000000	76.538445
1093.000000	76.480394
1092.000000	76.438977
1091.000000	76.395297
1090.000000	76.350373
1089.000000	76.309069
1088.000000	76.255658
1087.000000	76.189912
1086.000000	76.121789
1085.000000	76.067020
1084.000000	76.023001
1083.000000	75.962234
1082.000000	75.899656
1081.000000	75.837079
1080.000000	75.787854
1079.000000	75.727313
1078.000000	75.659983
1077.000000	75.608156
1076.000000	75.560515
1075.000000	75.511517
1074.000000	75.467271
1073.000000	75.418726
1072.000000	75.367804
1071.000000	75.308960
1070.000000	75.239593
1069.000000	75.186634
1068.000000	75.137070
1067.000000	75.084790
1066.000000	75.018931
1065.000000	74.975817
1064.000000	74.912900
1063.000000	74.855641
1062.000000	74.816940
1061.000000	74.748026
1060.000000	74.677074
1059.000000	74.600012
1058.000000	74.546940
1057.000000	74.483684
1056.000000	74.423256
1055.000000	74.368713
1054.000000	74.336915
1053.000000	74.290293
1052.000000	74.238466
1051.000000	74.189807
1050.000000	74.156425
1049.000000	74.124627
1048.000000	74.089773
1047.000000	74.083323
1046.000000	74.086265
1045.000000	74.100071
1044.000000	74.098713
1043.000000	74.068386
1042.000000	74.048696
1041.000000	74.056391
1040.000000	74.050959
1039.000000	74.039870
1038.000000	74.029006
1037.000000	74.024480
1036.000000	74.011467
1035.000000	73.994266
1034.000000	73.980461
1033.000000	73.973897
1032.000000	73.956471
1031.000000	73.937573
1030.000000	73.930670
1029.000000	73.911659
1028.000000	73.885632
1027.000000	73.872166
1026.000000	73.859040
1025.000000	73.840368
1024.000000	73.828147
1023.000000	73.816378
1022.000000	73.796010
1021.000000	73.792389
1020.000000	73.780733
1019.000000	73.774057
1018.000000	73.799178
1017.000000	73.808005
1016.000000	73.837766
1015.000000	73.873638
1014.000000	73.885067
1013.000000	73.927728
1012.000000	74.000151
1011.000000	74.063294
1010.000000	74.145561
1009.000000	74.232016
1008.000000	74.301496
1007.000000	74.395419
1006.000000	74.488663
1005.000000	74.578172
1004.000000	74.659308
1003.000000	74.728336
1002.000000	74.799400
1001.000000	74.881555
1000.000000	74.958051
999.000000	75.042808
998.000000	75.133562
997.000000	75.213566
996.000000	75.298097
995.000000	75.364861
994.000000	75.451429
993.000000	75.552481
992.000000	75.624677
991.000000	75.696421
990.000000	75.791588
989.000000	75.900561
988.000000	75.968344
987.000000	76.085805
986.000000	76.184820
985.000000	76.284740
984.000000	76.400390
983.000000	76.493860
982.000000	76.592649
981.000000	76.716106
980.000000	76.811161
979.000000	76.920134
978.000000	77.013604
977.000000	77.136044
976.000000	77.242075
975.000000	77.374585
974.000000	77.482200
973.000000	77.612334
972.000000	77.725042
971.000000	77.846802
970.000000	77.967318
969.000000	78.088852
968.000000	78.218307
967.000000	78.361454
966.000000	78.469070
965.000000	78.603391
964.000000	78.732167
963.000000	78.889686
962.000000	79.033626
961.000000	79.177791
960.000000	79.312226
959.000000	79.438173
958.000000	79.614816
957.000000	79.726844
956.000000	79.876555
955.000000	79.971949
954.000000	80.093709
953.000000	80.211283
952.000000	80.346396
951.000000	80.454464
950.000000	80.583806
949.000000	80.666413
948.000000	80.749359
947.000000	80.893978
946.000000	80.994917
945.000000	81.078089
944.000000	81.195210
943.000000	81.276572
942.000000	81.354992
941.000000	81.425378
940.000000	81.550985
939.000000	81.606660
938.000000	81.676140
937.000000	81.806048
936.000000	81.888995
935.000000	81.952591
934.000000	82.030105
933.000000	82.098341
932.000000	82.218064
931.000000	82.258462
930.000000	82.283923
929.000000	82.383278
928.000000	82.411002
927.000000	82.452758
926.000000	82.484330
925.000000	82.575763
924.000000	82.586174
923.000000	82.636304
922.000000	82.677947
921.000000	82.698429
920.000000	82.716761
919.000000	82.744372
918.000000	82.822905
917.000000	82.817926
916.000000	82.824150
915.000000	82.829129
914.000000	82.830939
913.000000	82.826300
912.000000	82.806949
911.000000	82.820416
910.000000	82.806610
909.000000	82.836711
908.000000	82.846103
907.000000	82.869414
906.000000	82.985856
905.000000	83.009506
904.000000	83.008488
903.000000	83.056807
902.000000	83.104674
901.000000	83.143261
900.000000	83.175851
899.000000	83.231300
898.000000	83.268077
897.000000	83.303270
896.000000	83.330541
895.000000	83.333936
894.000000	83.265248
893.000000	83.257440
892.000000	83.231753
891.000000	83.207876
890.000000	83.197804
889.000000	83.170193
888.000000	83.122892
887.000000	83.042662
886.000000	82.886162
885.000000	82.818605
884.000000	82.759196
883.000000	82.637096
882.000000	82.421526
881.000000	82.336317
880.000000	82.211614
879.000000	82.042213
878.000000	81.780587
877.000000	81.588894
876.000000	81.424246
875.000000	81.147456
874.000000	80.898730
873.000000	80.573735
872.000000	80.338135
871.000000	80.083299
870.000000	79.729673
869.000000	79.410562
868.000000	78.998885
867.000000	78.686450
866.000000	78.274547
865.000000	77.918772
864.000000	77.465339
863.000000	77.057058
862.000000	76.432527
861.000000	75.828252
860.000000	75.301492
859.000000	74.815809
858.000000	76.032167
857.000000	75.883900
856.000000	76.200900
855.000000	76.011700
854.000000	76.501800
853.000000	76.192900
852.000000	76.420200
851.000000	75.987600
850.000000	75.711100
849.000000	75.689300
848.000000	75.941400
847.000000	75.744900
846.000000	75.774100
845.000000	75.380300
844.000000	75.546800
843.000000	75.652300
842.000000	75.429400
841.000000	75.199900
840.000000	75.240500
839.000000	75.220000
838.000000	74.811500
837.000000	74.813000
836.000000	74.857100
835.000000	74.699400
834.000000	74.380800
833.000000	74.162500
832.000000	74.096500
831.000000	74.119400
830.000000	73.967100
829.000000	73.700400
828.000000	73.572100
827.000000	73.357200
826.000000	73.233800
825.000000	73.041700
824.000000	73.010000
823.000000	72.823900
822.000000	72.818600
821.000000	72.672000
820.000000	72.458500
819.000000	72.284700
818.000000	72.044800
817.000000	71.959800
816.000000	71.959400
815.000000	71.798500
814.000000	71.593200
813.000000	71.492800
812.000000	71.236200
811.000000	71.055500
810.000000	70.911800
809.000000	70.796900
808.000000	70.744700
807.000000	70.546400
806.000000	70.323400
805.000000	70.064700
804.000000	70.075300
803.000000	70.024100
802.000000	69.808000
801.000000	69.640900
800.000000	69.565300
799.000000	69.354600
798.000000	69.110200
797.000000	69.022500
796.000000	68.985400
795.000000	68.981700
794.000000	68.758700
793.000000	68.601800
792.000000	68.441100
791.000000	68.332700
790.000000	68.206600
789.000000	67.978700
788.000000	67.878300
787.000000	67.744200
786.000000	67.667500
785.000000	67.547400
784.000000	67.439000
783.000000	67.317500
782.000000	67.228000
781.000000	67.105000
780.000000	67.000400
779.000000	66.901000
778.000000	66.770600
777.000000	66.614600
776.000000	66.547100
775.000000	66.388700
774.000000	66.311100
773.000000	66.262200
772.000000	66.189400
771.000000	66.065400
770.000000	65.902200
769.000000	65.838000
768.000000	65.768600
767.000000	65.691600
766.000000	65.580000
765.000000	65.522100
764.000000	65.393000
763.000000	65.219000
762.000000	65.126200
761.000000	65.019300
760.000000	64.901500
759.000000	64.784400
758.000000	64.665300
757.000000	64.577200
756.000000	64.469900
755.000000	64.279400
754.000000	64.123200
753.000000	64.042500
752.000000	63.908700
751.000000	63.785100
750.000000	63.690500
749.000000	63.479400
748.000000	63.319300
747.000000	63.196200
746.000000	63.031400
745.000000	62.935400
744.000000	62.831500
743.000000	62.652300
742.000000	62.503700
741.000000	62.333500
740.000000	62.210300
739.000000	62.073300
738.000000	61.852500
737.000000	61.648500
736.000000	61.494200
735.000000	61.319600
734.000000	61.125800
733.000000	60.892100
732.000000	60.623600
731.000000	60.393600
730.000000	60.157700
729.000000	59.973200
728.000000	59.742800
727.000000	59.479200
726.000000	59.223700
725.000000	58.975400
724.000000	58.726600
723.000000	58.480800
722.000000	58.235300
721.000000	57.976900
720.000000	57.708000
719.000000	57.468400
718.000000	57.249400
717.000000	56.998200
716.000000	56.763100
715.000000	56.566100
714.000000	56.334300
713.000000	56.090200
712.000000	55.898500
711.000000	55.684400
710.000000	55.446100
709.000000	55.230900
708.000000	55.001100
707.000000	54.809900
706.000000	54.596500
705.000000	54.321700
704.000000	54.092100
703.000000	53.874100
702.000000	53.665100
701.000000	53.472300
700.000000	53.226700
699.000000	53.044100
698.000000	52.898900
697.000000	52.731700
696.000000	52.568200
695.000000	52.472300
694.000000	52.378500
693.000000	52.303800
692.000000	52.232700
691.000000	52.246400
690.000000	52.268200
689.000000	52.263900
688.000000	52.269100
687.000000	52.291100
686.000000	52.306800
685.000000	52.318400
684.000000	52.305100
683.000000	52.282400
682.000000	52.296800
681.000000	52.178400
680.000000	52.065700
679.000000	52.035500
678.000000	51.916300
677.000000	51.790600
676.000000	51.631900
675.000000	51.492400
674.000000	51.306500
673.000000	51.094900
672.000000	50.924200
671.000000	50.719600
670.000000	50.512400
669.000000	50.291000
668.000000	50.051000
667.000000	49.817500
666.000000	49.621200
665.000000	49.445600
664.000000	49.220400
663.000000	48.999900
662.000000	48.806600
661.000000	48.580900
660.000000	48.342300
659.000000	48.091100
658.000000	47.788400
657.000000	47.513500
656.000000	47.222300
655.000000	46.882100
654.000000	46.599400
653.000000	46.263300
652.000000	45.933600
651.000000	45.631600
650.000000	45.297400
649.000000	45.046000
648.000000	44.834200
647.000000	44.682500
646.000000	44.520900
645.000000	44.486100
644.000000	44.510400
643.000000	44.583300
642.000000	44.738000
641.000000	44.967900
640.000000	45.229700
639.000000	45.568200
638.000000	45.968800
637.000000	46.486200
636.000000	46.951800
635.000000	47.514600
634.000000	48.090100
633.000000	48.713100
632.000000	49.312500
631.000000	49.923800
630.000000	50.536700
629.000000	51.135500
628.000000	51.773600
627.000000	52.355000
626.000000	52.963100
625.000000	53.561300
624.000000	54.159100
623.000000	54.771900
622.000000	55.398500
621.000000	56.013800
620.000000	56.558400
619.000000	57.197200
618.000000	57.735600
617.000000	58.320100
616.000000	58.845100
615.000000	59.417200
614.000000	59.945600
613.000000	60.524500
612.000000	61.018900
611.000000	61.548400
610.000000	62.035400
609.000000	62.509100
608.000000	62.923200
607.000000	63.347300
606.000000	63.683800
605.000000	64.014000
604.000000	64.314500
603.000000	64.660700
602.000000	64.930800
601.000000	65.241300
600.000000	65.463800
599.000000	65.756600
598.000000	66.021600
597.000000	66.271300
596.000000	66.475900
595.000000	66.704300
594.000000	66.981600
593.000000	67.230100
592.000000	67.442400
591.000000	67.675500
590.000000	67.869000
589.000000	68.102000
588.000000	68.260800
587.000000	68.456400
586.000000	68.639300
585.000000	68.790000
584.000000	68.963500
583.000000	69.047100
582.000000	69.186200
581.000000	69.259800
580.000000	69.378100
579.000000	69.439100
578.000000	69.483700
577.000000	69.486100
576.000000	69.481700
575.000000	69.473700
574.000000	69.456500
573.000000	69.439400
572.000000	69.404000
571.000000	69.315100
570.000000	69.233000
569.000000	69.155700
568.000000	69.058100
567.000000	68.922600
566.000000	68.812500
565.000000	68.650400
564.000000	68.498200
563.000000	68.330600
562.000000	68.138300
561.000000	67.963900
560.000000	67.777400
559.000000	67.516800
558.000000	67.306800
557.000000	67.070900
556.000000	66.799800
555.000000	66.518700
554.000000	66.216500
553.000000	65.854400
552.000000	65.517700
551.000000	65.082100
550.000000	64.609500
549.000000	64.116500
548.000000	63.569800
547.000000	62.968100
546.000000	62.327400
545.000000	61.653600
544.000000	60.936000
543.000000	60.180300
542.000000	59.398400
541.000000	58.581800
540.000000	57.710300
539.000000	56.846600
538.000000	55.938900
537.000000	55.053700
536.000000	54.100800
535.000000	53.138100
534.000000	52.172700
533.000000	51.193200
532.000000	50.246600
531.000000	49.295800
530.000000	48.351900
529.000000	47.446800
528.000000	46.536300
527.000000	45.689000
526.000000	44.849300
525.000000	44.032500
524.000000	43.231700
523.000000	42.433800
522.000000	41.657400
521.000000	40.908400
520.000000	40.194000
519.000000	39.481100
518.000000	38.786500
517.000000	38.113400
516.000000	37.462600
515.000000	36.806600
514.000000	36.149100
513.000000	35.547400
512.000000	34.944000
511.000000	34.362300
510.000000	33.776000
509.000000	33.207300
508.000000	32.656500
507.000000	32.135400
506.000000	31.587100
505.000000	31.061600
504.000000	30.550900
503.000000	30.044500
502.000000	29.518200
501.000000	29.017800
500.000000	28.514500
499.000000	28.034900
498.000000	27.537400
497.000000	27.050000
496.000000	26.553000
495.000000	26.076700
494.000000	25.599500
493.000000	25.113400
492.000000	24.662500
491.000000	24.229000
490.000000	23.811000
489.000000	23.423900
488.000000	23.068400
487.000000	22.722900
486.000000	22.407500
485.000000	22.130400
484.000000	21.885200
483.000000	21.666900
482.000000	21.469600
481.000000	21.283200
480.000000	21.131500
479.000000	21.014600
478.000000	20.910600
477.000000	20.829700
476.000000	20.768100
475.000000	20.716300
474.000000	20.675000
473.000000	20.646700
472.000000	20.617500
471.000000	20.588500
470.000000	20.567400
469.000000	20.554100
468.000000	20.542600
467.000000	20.523200
466.000000	20.516100
465.000000	20.506400
464.000000	20.473400
463.000000	20.442600
462.000000	20.408600
461.000000	20.362900
460.000000	20.312800
459.000000	20.261100
458.000000	20.208100
457.000000	20.139700
456.000000	20.049400
455.000000	19.957100
454.000000	19.853200
453.000000	19.725800
452.000000	19.592200
451.000000	19.463800
450.000000	19.305000
449.000000	19.139000
448.000000	18.975700
447.000000	18.791800
446.000000	18.614200
445.000000	18.454900
444.000000	18.261800
443.000000	18.049900
442.000000	17.824900
441.000000	17.591700
440.000000	17.383600
439.000000	17.159100
438.000000	16.918900
437.000000	16.684400
436.000000	16.435600
435.000000	16.200700
434.000000	15.951900
433.000000	15.690800
432.000000	15.446800
431.000000	15.199100
430.000000	14.934400
429.000000	14.677700
428.000000	14.421700
427.000000	14.168400
426.000000	13.916600
425.000000	13.663400
424.000000	13.408100
423.000000	13.138100
422.000000	12.876700
421.000000	12.620400
420.000000	12.354900
419.000000	12.103900
418.000000	11.851000
417.000000	11.587200
416.000000	11.343300
415.000000	11.099700
414.000000	10.852200
413.000000	10.611400
412.000000	10.356900
411.000000	10.126900
410.000000	9.897400
409.000000	9.678900
408.000000	9.469300
407.000000	9.250200
406.000000	9.046100
405.000000	8.862400
404.000000	8.679900
403.000000	8.500000
402.000000	8.330400
401.000000	8.173500
400.000000	8.025800
399.000000	7.880800
398.000000	7.743800
397.000000	7.625500
396.000000	7.504300
395.000000	7.394600
394.000000	7.282600
393.000000	7.195100
392.000000	7.107000
391.000000	7.018300
390.000000	6.947900
389.000000	6.879400
388.000000	6.821900
387.000000	6.764400
386.000000	6.704700
385.000000	6.664800
384.000000	6.612400
383.000000	6.573500
382.000000	6.540700
381.000000	6.496200
380.000000	6.465600
379.000000	6.448700
378.000000	6.424100
377.000000	6.390000
376.000000	6.356700
375.000000	6.318400
374.000000	6.274500
373.000000	6.292100
372.000000	6.307400
371.000000	6.283600
370.000000	6.257200
369.000000	6.239300
368.000000	6.216400
367.000000	6.171200
366.000000	6.193700
365.000000	6.196000
364.000000	6.184500
363.000000	6.157500
362.000000	6.194500
361.000000	6.165900
360.000000	6.133100
359.000000	6.183000
358.000000	6.159100
357.000000	6.121200
356.000000	6.084500
355.000000	6.132500
354.000000	6.057600
353.000000	6.033700
352.000000	6.052000
351.000000	6.072500
350.000000	6.036500
349.000000	6.012700
348.000000	6.073600
347.000000	6.041400
346.000000	6.026800
345.000000	6.042100
344.000000	6.074900
343.000000	6.041900
342.000000	6.053400
341.000000	5.992800
340.000000	5.998800
339.000000	5.962300
338.000000	6.023500
337.000000	5.973900
336.000000	5.945700
335.000000	6.082500
334.000000	5.991700
333.000000	5.974700
332.000000	6.104400
331.000000	5.999500
330.000000	5.991100
329.000000	5.863200
328.000000	5.937300
327.000000	5.994200
326.000000	6.025700
325.000000	5.978500
324.000000	6.004600
323.000000	6.084900
322.000000	5.957500
321.000000	5.982300
320.000000	6.099500
319.000000	6.049300
318.000000	6.156000
317.000000	6.051100
316.000000	6.063100
315.000000	6.001900
314.000000	6.022600
313.000000	6.029500
312.000000	6.064500
311.000000	6.054200
310.000000	6.055400
309.000000	6.080300
308.000000	6.049700
307.000000	6.092300
306.000000	6.045400
305.000000	6.090800
304.000000	6.098400
303.000000	6.135500
302.000000	6.123100
301.000000	6.075800
300.000000	6.095400
299.000000	6.123800
298.000000	6.122200
297.000000	6.140400
296.000000	6.135500
295.000000	6.113700
294.000000	6.165400
293.000000	6.159500
292.000000	6.199400
291.000000	6.149200
290.000000	6.151500
289.000000	6.190800
288.000000	6.206800
287.000000	6.207600
286.000000	6.229500
285.000000	6.180400
284.000000	6.215200
283.000000	6.177400
282.000000	6.232100
281.000000	6.230300
280.000000	6.238400
279.000000	6.243900
278.000000	6.269300
277.000000	6.310100
276.000000	6.278900
275.000000	6.297200
274.000000	6.374300
273.000000	6.348100
272.000000	6.336900
271.000000	6.378500
270.000000	6.401100
269.000000	6.420200
268.000000	6.412100
267.000000	6.465700
266.000000	6.521300
265.000000	6.541500
264.000000	6.565000
263.000000	6.578300
262.000000	6.637100
261.000000	6.638900
260.000000	6.673400
259.000000	6.684800
258.000000	6.762700
257.000000	6.790800
256.000000	6.794300
255.000000	6.829000
254.000000	6.855300
253.000000	6.873200
252.000000	6.900400
251.000000	6.880500
250.000000	6.948200
