PE UV       SUBTECH     SPECTRUM    ASCII       PEDS        4.00        
   -1
CICIMAUCR0002-3.Sample.ASC
24/05/03
15:09:39.00
24/05/03
15:09:39.00
Vinicio Soto Monge
C. kalinini
250,000000
1
Lambda 1050
1050L1511233
PerkinElmer UV WinLab 6.3.2.0749 / 2.02.05 Lambda 900 UV/VIS/NIR, Aug  7 2015 09:38:08

0
0
3350/servo 860,8/2
0
0
UV/VIS
1
1
1
DoubleDePol,CommonBeamDepol,RBeamAtt,SBeamAtt,60mm sphere, WB InGaAs Detector
0
0
0
0
Program
Program
3350/servo 860,8/2
3350/0,2 860,8/0,2
3350/0,2 860,8/0,2
0
15.00
 
 
 
0
 
860,8
319,2
860,8
Front
100
on
S:100 R:100
0
0
0
0
 
0
 
 
 
0
 
 
0
0
0
0
0
 
 
 
 
0
0


0
0
#HDR
-1
-1
#GR
nm
%R
1.0
0.0
2500,000000
-1,000000
2251
8
99,074100
5,519500
#DATA
2500.000000	8.339492
2499.000000	8.508928
2498.000000	8.335669
2497.000000	8.320476
2496.000000	8.216037
2495.000000	8.470292
2494.000000	8.300353
2493.000000	8.142085
2492.000000	8.203460
2491.000000	8.215735
2490.000000	8.165931
2489.000000	8.079804
2488.000000	8.114114
2487.000000	8.105360
2486.000000	8.171666
2485.000000	8.164019
2484.000000	8.148122
2483.000000	8.180721
2482.000000	8.122465
2481.000000	8.084734
2480.000000	8.129407
2479.000000	8.142186
2478.000000	8.161604
2477.000000	8.124578
2476.000000	8.139570
2475.000000	8.130514
2474.000000	8.124779
2473.000000	8.164925
2472.000000	8.168647
2471.000000	8.145305
2470.000000	8.177200
2469.000000	8.168346
2468.000000	8.194807
2467.000000	8.195210
2466.000000	8.198832
2465.000000	8.238173
2464.000000	8.268256
2463.000000	8.293611
2462.000000	8.326613
2461.000000	8.368972
2460.000000	8.418676
2459.000000	8.519090
2458.000000	8.543942
2457.000000	8.567184
2456.000000	8.650594
2455.000000	8.763283
2454.000000	8.770528
2453.000000	8.843876
2452.000000	8.930707
2451.000000	9.023675
2450.000000	9.100546
2449.000000	9.158399
2448.000000	9.204783
2447.000000	9.301675
2446.000000	9.392631
2445.000000	9.455415
2444.000000	9.549390
2443.000000	9.615695
2442.000000	9.683309
2441.000000	9.776881
2440.000000	9.828899
2439.000000	9.901744
2438.000000	9.995015
2437.000000	10.059710
2436.000000	10.140907
2435.000000	10.193529
2434.000000	10.240013
2433.000000	10.297464
2432.000000	10.365279
2431.000000	10.408946
2430.000000	10.476157
2429.000000	10.523748
2428.000000	10.557655
2427.000000	10.594681
2426.000000	10.658471
2425.000000	10.694391
2424.000000	10.729606
2423.000000	10.783939
2422.000000	10.825694
2421.000000	10.857891
2420.000000	10.875901
2419.000000	10.909104
2418.000000	10.954381
2417.000000	10.968266
2416.000000	10.978327
2415.000000	11.022497
2414.000000	11.045639
2413.000000	11.060731
2412.000000	11.080049
2411.000000	11.106612
2410.000000	11.127942
2409.000000	11.164164
2408.000000	11.188613
2407.000000	11.196360
2406.000000	11.212559
2405.000000	11.230972
2404.000000	11.263571
2403.000000	11.284298
2402.000000	11.306031
2401.000000	11.341850
2400.000000	11.352616
2399.000000	11.371532
2398.000000	11.393767
2397.000000	11.418720
2396.000000	11.444578
2395.000000	11.456753
2394.000000	11.482108
2393.000000	11.488446
2392.000000	11.501225
2391.000000	11.519134
2390.000000	11.545696
2389.000000	11.539257
2388.000000	11.543483
2387.000000	11.541269
2386.000000	11.538251
2385.000000	11.532616
2384.000000	11.527686
2383.000000	11.521750
2382.000000	11.511387
2381.000000	11.493880
2380.000000	11.468424
2379.000000	11.448804
2378.000000	11.427574
2377.000000	11.398899
2376.000000	11.357043
2375.000000	11.332795
2374.000000	11.303717
2373.000000	11.258641
2372.000000	11.221917
2371.000000	11.164767
2370.000000	11.106813
2369.000000	11.069485
2368.000000	11.028232
2367.000000	10.959713
2366.000000	10.891899
2365.000000	10.840384
2364.000000	10.766633
2363.000000	10.704754
2362.000000	10.642071
2361.000000	10.560271
2360.000000	10.503625
2359.000000	10.437420
2358.000000	10.378157
2357.000000	10.340829
2356.000000	10.292433
2355.000000	10.255809
2354.000000	10.235586
2353.000000	10.224116
2352.000000	10.217173
2351.000000	10.219185
2350.000000	10.242528
2349.000000	10.262852
2348.000000	10.272813
2347.000000	10.307928
2346.000000	10.346766
2345.000000	10.378962
2344.000000	10.412065
2343.000000	10.446274
2342.000000	10.459354
2341.000000	10.480785
2340.000000	10.501411
2339.000000	10.504027
2338.000000	10.500204
2337.000000	10.498795
2336.000000	10.503826
2335.000000	10.468107
2334.000000	10.436011
2333.000000	10.409449
2332.000000	10.369907
2331.000000	10.316983
2330.000000	10.263456
2329.000000	10.217173
2328.000000	10.143120
2327.000000	10.074098
2326.000000	10.003869
2325.000000	9.930420
2324.000000	9.838357
2323.000000	9.739855
2322.000000	9.633202
2321.000000	9.514778
2320.000000	9.425130
2319.000000	9.327533
2318.000000	9.198645
2317.000000	9.076398
2316.000000	8.976185
2315.000000	8.871646
2314.000000	8.774955
2313.000000	8.679873
2312.000000	8.596463
2311.000000	8.518990
2310.000000	8.461136
2309.000000	8.430951
2308.000000	8.398251
2307.000000	8.395736
2306.000000	8.387586
2305.000000	8.414350
2304.000000	8.448156
2303.000000	8.503696
2302.000000	8.568190
2301.000000	8.646972
2300.000000	8.719516
2299.000000	8.802926
2298.000000	8.870338
2297.000000	8.956364
2296.000000	9.041686
2295.000000	9.113927
2294.000000	9.171379
2293.000000	9.239696
2292.000000	9.278232
2291.000000	9.306907
2290.000000	9.343934
2289.000000	9.353995
2288.000000	9.352788
2287.000000	9.331558
2286.000000	9.345745
2285.000000	9.321597
2284.000000	9.308014
2283.000000	9.271793
2282.000000	9.248450
2281.000000	9.212731
2280.000000	9.185666
2279.000000	9.151759
2278.000000	9.124794
2277.000000	9.119763
2276.000000	9.111412
2275.000000	9.095314
2274.000000	9.089075
2273.000000	9.110406
2272.000000	9.098634
2271.000000	9.134855
2270.000000	9.198343
2269.000000	9.253179
2268.000000	9.327433
2267.000000	9.448875
2266.000000	9.549491
2265.000000	9.677473
2264.000000	9.833729
2263.000000	10.019967
2262.000000	10.202081
2261.000000	10.415687
2260.000000	10.622753
2259.000000	10.841491
2258.000000	11.085281
2257.000000	11.331688
2256.000000	11.606367
2255.000000	11.843417
2254.000000	12.073826
2253.000000	12.320031
2252.000000	12.547623
2251.000000	12.794130
2250.000000	13.014477
2249.000000	13.199408
2248.000000	13.392791
2247.000000	13.582450
2246.000000	13.744642
2245.000000	13.893552
2244.000000	14.050613
2243.000000	14.217433
2242.000000	14.297623
2241.000000	14.428725
2240.000000	14.532962
2239.000000	14.621504
2238.000000	14.725942
2237.000000	14.807843
2236.000000	14.842555
2235.000000	14.920934
2234.000000	14.980901
2233.000000	15.034227
2232.000000	15.059482
2231.000000	15.094999
2230.000000	15.119146
2229.000000	15.143495
2228.000000	15.131623
2227.000000	15.129711
2226.000000	15.119750
2225.000000	15.115222
2224.000000	15.082824
2223.000000	15.062198
2222.000000	15.008067
2221.000000	14.978889
2220.000000	14.950616
2219.000000	14.911175
2218.000000	14.875054
2217.000000	14.819615
2216.000000	14.797480
2215.000000	14.759145
2214.000000	14.716686
2213.000000	14.669195
2212.000000	14.641425
2211.000000	14.606411
2210.000000	14.559223
2209.000000	14.538697
2208.000000	14.521995
2207.000000	14.483560
2206.000000	14.460117
2205.000000	14.419066
2204.000000	14.395924
2203.000000	14.379323
2202.000000	14.360005
2201.000000	14.346925
2200.000000	14.311005
2199.000000	14.285046
2198.000000	14.269250
2197.000000	14.253554
2196.000000	14.250032
2195.000000	14.228702
2194.000000	14.200127
2193.000000	14.189864
2192.000000	14.182419
2191.000000	14.168232
2190.000000	14.162799
2189.000000	14.130602
2188.000000	14.112592
2187.000000	14.082307
2186.000000	14.087438
2185.000000	14.082810
2184.000000	14.043670
2183.000000	14.027974
2182.000000	13.992860
2181.000000	13.989439
2180.000000	13.979981
2179.000000	13.944263
2178.000000	13.950199
2177.000000	13.949495
2176.000000	13.948589
2175.000000	13.941043
2174.000000	13.948287
2173.000000	13.947482
2172.000000	13.949193
2171.000000	13.977767
2170.000000	13.997689
2169.000000	14.004028
2168.000000	14.029785
2167.000000	14.053732
2166.000000	14.082810
2165.000000	14.110982
2164.000000	14.151429
2163.000000	14.178495
2162.000000	14.206969
2161.000000	14.237556
2160.000000	14.283034
2159.000000	14.313621
2158.000000	14.373185
2157.000000	14.420676
2156.000000	14.461022
2155.000000	14.539100
2154.000000	14.594337
2153.000000	14.648670
2152.000000	14.708838
2151.000000	14.761359
2150.000000	14.825954
2149.000000	14.878676
2148.000000	14.937234
2147.000000	15.002131
2146.000000	15.050829
2145.000000	15.110896
2144.000000	15.160600
2143.000000	15.208895
2142.000000	15.264234
2141.000000	15.323597
2140.000000	15.375816
2139.000000	15.410327
2138.000000	15.448862
2137.000000	15.488203
2136.000000	15.511244
2135.000000	15.560243
2134.000000	15.596163
2133.000000	15.617997
2132.000000	15.649992
2131.000000	15.687220
2130.000000	15.711267
2129.000000	15.726259
2128.000000	15.728472
2127.000000	15.740445
2126.000000	15.758154
2125.000000	15.761575
2124.000000	15.753827
2123.000000	15.750909
2122.000000	15.757550
2121.000000	15.755739
2120.000000	15.740345
2119.000000	15.727466
2118.000000	15.722938
2117.000000	15.704023
2116.000000	15.698086
2115.000000	15.666191
2114.000000	15.634397
2113.000000	15.618600
2112.000000	15.590327
2111.000000	15.563161
2110.000000	15.542032
2109.000000	15.518589
2108.000000	15.491926
2107.000000	15.463452
2106.000000	15.440612
2105.000000	15.410025
2104.000000	15.391713
2103.000000	15.369477
2102.000000	15.341707
2101.000000	15.320477
2100.000000	15.295424
2099.000000	15.278722
2098.000000	15.256587
2097.000000	15.238375
2096.000000	15.221774
2095.000000	15.209599
2094.000000	15.204066
2093.000000	15.190181
2092.000000	15.169454
2091.000000	15.171466
2090.000000	15.167039
2089.000000	15.151544
2088.000000	15.139269
2087.000000	15.133233
2086.000000	15.120756
2085.000000	15.104255
2084.000000	15.083629
2083.000000	15.053746
2082.000000	15.037849
2081.000000	15.011891
2080.000000	14.985630
2079.000000	14.963897
2078.000000	14.929990
2077.000000	14.885115
2076.000000	14.846278
2075.000000	14.815892
2074.000000	14.775344
2073.000000	14.717189
2072.000000	14.662756
2071.000000	14.611442
2070.000000	14.551274
2069.000000	14.500665
2068.000000	14.455790
2067.000000	14.403470
2066.000000	14.342397
2065.000000	14.292291
2064.000000	14.239669
2063.000000	14.176281
2062.000000	14.128388
2061.000000	14.075666
2060.000000	14.032804
2059.000000	14.005839
2058.000000	13.989036
2057.000000	13.979377
2056.000000	13.984911
2055.000000	13.991250
2054.000000	14.009662
2053.000000	14.055241
2052.000000	14.114906
2051.000000	14.186544
2050.000000	14.272872
2049.000000	14.365639
2048.000000	14.477624
2047.000000	14.609027
2046.000000	14.749587
2045.000000	14.909062
2044.000000	15.050024
2043.000000	15.217548
2042.000000	15.388695
2041.000000	15.567790
2040.000000	15.737527
2039.000000	15.896701
2038.000000	16.060502
2037.000000	16.206696
2036.000000	16.356814
2035.000000	16.508844
2034.000000	16.657553
2033.000000	16.782618
2032.000000	16.905368
2031.000000	17.017353
2030.000000	17.135978
2029.000000	17.254402
2028.000000	17.364174
2027.000000	17.461368
2026.000000	17.552425
2025.000000	17.664007
2024.000000	17.748222
2023.000000	17.816137
2022.000000	17.908703
2021.000000	17.985674
2020.000000	18.066468
2019.000000	18.158933
2018.000000	18.214674
2017.000000	18.268704
2016.000000	18.344468
2015.000000	18.403428
2014.000000	18.435927
2013.000000	18.494686
2012.000000	18.546000
2011.000000	18.585642
2010.000000	18.617940
2009.000000	18.636252
2008.000000	18.667342
2007.000000	18.687666
2006.000000	18.694005
2005.000000	18.734855
2004.000000	18.733345
2003.000000	18.747633
2002.000000	18.709902
2001.000000	18.716140
2000.000000	18.697325
1999.000000	18.698834
1998.000000	18.648225
1997.000000	18.607375
1996.000000	18.582322
1995.000000	18.531411
1994.000000	18.494485
1993.000000	18.449711
1992.000000	18.395178
1991.000000	18.351611
1990.000000	18.274440
1989.000000	18.191130
1988.000000	18.158229
1987.000000	18.069688
1986.000000	18.000464
1985.000000	17.929631
1984.000000	17.878116
1983.000000	17.776394
1982.000000	17.704555
1981.000000	17.607260
1980.000000	17.530994
1979.000000	17.440440
1978.000000	17.370311
1977.000000	17.313564
1976.000000	17.213452
1975.000000	17.134570
1974.000000	17.065850
1973.000000	16.984854
1972.000000	16.911606
1971.000000	16.852243
1970.000000	16.779901
1969.000000	16.703031
1968.000000	16.645177
1967.000000	16.549995
1966.000000	16.488922
1965.000000	16.425937
1964.000000	16.351280
1963.000000	16.275920
1962.000000	16.178524
1961.000000	16.128116
1960.000000	16.071872
1959.000000	16.003051
1958.000000	15.922358
1957.000000	15.850015
1956.000000	15.786225
1955.000000	15.689534
1954.000000	15.628561
1953.000000	15.569198
1952.000000	15.505811
1951.000000	15.427633
1950.000000	15.364446
1949.000000	15.335872
1948.000000	15.270371
1947.000000	15.229421
1946.000000	15.201349
1945.000000	15.140779
1944.000000	15.116027
1943.000000	15.062802
1942.000000	15.070046
1941.000000	15.040968
1940.000000	15.053344
1939.000000	15.044591
1938.000000	15.061293
1937.000000	15.066022
1936.000000	15.112405
1935.000000	15.156273
1934.000000	15.160399
1933.000000	15.219259
1932.000000	15.281841
1931.000000	15.357806
1930.000000	15.431959
1929.000000	15.522815
1928.000000	15.645565
1927.000000	15.754028
1926.000000	15.861284
1925.000000	15.972263
1924.000000	16.103465
1923.000000	16.256501
1922.000000	16.432779
1921.000000	16.590543
1920.000000	16.766922
1919.000000	16.952657
1918.000000	17.134067
1917.000000	17.291228
1916.000000	17.477567
1915.000000	17.695600
1914.000000	17.943415
1913.000000	18.215982
1912.000000	18.468526
1911.000000	18.696722
1910.000000	18.909925
1909.000000	19.101195
1908.000000	19.357260
1907.000000	19.653270
1906.000000	19.995765
1905.000000	20.315620
1904.000000	20.623704
1903.000000	20.901402
1902.000000	21.201235
1901.000000	21.538900
1900.000000	21.884312
1899.000000	22.225297
1898.000000	22.517685
1897.000000	22.832107
1896.000000	23.097229
1895.000000	23.372109
1894.000000	23.655341
1893.000000	23.970770
1892.000000	24.349888
1891.000000	24.685440
1890.000000	25.012339
1889.000000	25.339237
1888.000000	25.663420
1887.000000	25.999877
1886.000000	26.354747
1885.000000	26.771394
1884.000000	27.248914
1883.000000	27.667876
1882.000000	28.104345
1881.000000	28.554497
1880.000000	28.975974
1879.000000	29.375517
1878.000000	29.780997
1877.000000	30.141602
1876.000000	30.481379
1875.000000	30.803147
1874.000000	31.103181
1873.000000	31.390136
1872.000000	31.629399
1871.000000	31.836867
1870.000000	32.023911
1869.000000	32.189825
1868.000000	32.289435
1867.000000	32.342157
1866.000000	32.370631
1865.000000	32.415908
1864.000000	32.442873
1863.000000	32.451425
1862.000000	32.499117
1861.000000	32.544393
1860.000000	32.567736
1859.000000	32.560089
1858.000000	32.554757
1857.000000	32.530307
1856.000000	32.477082
1855.000000	32.443778
1854.000000	32.383107
1853.000000	32.304627
1852.000000	32.244862
1851.000000	32.174431
1850.000000	32.103799
1849.000000	32.050574
1848.000000	32.009724
1847.000000	31.926113
1846.000000	31.829321
1845.000000	31.744804
1844.000000	31.660086
1843.000000	31.638052
1842.000000	31.628292
1841.000000	31.581908
1840.000000	31.535424
1839.000000	31.476564
1838.000000	31.397179
1837.000000	31.339627
1836.000000	31.275535
1835.000000	31.184981
1834.000000	31.094025
1833.000000	30.998239
1832.000000	30.922074
1831.000000	30.854561
1830.000000	30.774371
1829.000000	30.685628
1828.000000	30.594974
1827.000000	30.523638
1826.000000	30.465381
1825.000000	30.399579
1824.000000	30.333676
1823.000000	30.325124
1822.000000	30.334481
1821.000000	30.335286
1820.000000	30.322608
1819.000000	30.281960
1818.000000	30.252379
1817.000000	30.240406
1816.000000	30.242619
1815.000000	30.234872
1814.000000	30.222496
1813.000000	30.196940
1812.000000	30.171283
1811.000000	30.150053
1810.000000	30.102160
1809.000000	30.042898
1808.000000	30.008186
1807.000000	29.970656
1806.000000	29.919343
1805.000000	29.864205
1804.000000	29.805949
1803.000000	29.752623
1802.000000	29.712377
1801.000000	29.660862
1800.000000	29.603310
1799.000000	29.555115
1798.000000	29.502393
1797.000000	29.470096
1796.000000	29.414154
1795.000000	29.359922
1794.000000	29.310721
1793.000000	29.270374
1792.000000	29.201755
1791.000000	29.135952
1790.000000	29.076187
1789.000000	29.009882
1788.000000	28.951324
1787.000000	28.893872
1786.000000	28.830787
1785.000000	28.751301
1784.000000	28.664470
1783.000000	28.568583
1782.000000	28.470785
1781.000000	28.397034
1780.000000	28.306682
1779.000000	28.185843
1778.000000	28.071242
1777.000000	27.957446
1776.000000	27.808335
1775.000000	27.676831
1774.000000	27.530033
1773.000000	27.358987
1772.000000	27.201021
1771.000000	27.042754
1770.000000	26.877242
1769.000000	26.718672
1768.000000	26.580125
1767.000000	26.444898
1766.000000	26.316815
1765.000000	26.246887
1764.000000	26.218916
1763.000000	26.210666
1762.000000	26.235115
1761.000000	26.296189
1760.000000	26.341868
1759.000000	26.411192
1758.000000	26.479107
1757.000000	26.537967
1756.000000	26.600449
1755.000000	26.620572
1754.000000	26.632847
1753.000000	26.641399
1752.000000	26.614133
1751.000000	26.575094
1750.000000	26.526094
1749.000000	26.446206
1748.000000	26.356860
1747.000000	26.243164
1746.000000	26.109246
1745.000000	25.908619
1744.000000	25.709602
1743.000000	25.470943
1742.000000	25.201898
1741.000000	24.930136
1740.000000	24.643081
1739.000000	24.399089
1738.000000	24.133968
1737.000000	23.914224
1736.000000	23.740059
1735.000000	23.634614
1734.000000	23.546475
1733.000000	23.517196
1732.000000	23.537823
1731.000000	23.615598
1730.000000	23.712088
1729.000000	23.810892
1728.000000	23.924688
1727.000000	24.030837
1726.000000	24.105192
1725.000000	24.170491
1724.000000	24.227439
1723.000000	24.286199
1722.000000	24.350592
1721.000000	24.423035
1720.000000	24.478877
1719.000000	24.564903
1718.000000	24.677592
1717.000000	24.797726
1716.000000	24.938085
1715.000000	25.058118
1714.000000	25.173122
1713.000000	25.293357
1712.000000	25.382502
1711.000000	25.445688
1710.000000	25.505152
1709.000000	25.550227
1708.000000	25.574878
1707.000000	25.590775
1706.000000	25.594599
1705.000000	25.591077
1704.000000	25.533324
1703.000000	25.478086
1702.000000	25.410372
1701.000000	25.296275
1700.000000	25.142836
1699.000000	25.026425
1698.000000	24.921684
1697.000000	24.839884
1696.000000	24.813322
1695.000000	24.824993
1694.000000	24.899448
1693.000000	25.000164
1692.000000	25.156822
1691.000000	25.295269
1690.000000	25.423352
1689.000000	25.520043
1688.000000	25.571357
1687.000000	25.616332
1686.000000	25.659999
1685.000000	25.760010
1684.000000	25.939508
1683.000000	26.226764
1682.000000	26.646028
1681.000000	27.162184
1680.000000	27.718988
1679.000000	28.329220
1678.000000	28.872743
1677.000000	29.409324
1676.000000	29.842774
1675.000000	30.253184
1674.000000	30.619423
1673.000000	30.921269
1672.000000	31.197458
1671.000000	31.454026
1670.000000	31.698421
1669.000000	31.883150
1668.000000	32.053492
1667.000000	32.215985
1666.000000	32.361073
1665.000000	32.487546
1664.000000	32.607781
1663.000000	32.715641
1662.000000	32.818972
1661.000000	32.899968
1660.000000	32.985189
1659.000000	33.040829
1658.000000	33.088118
1657.000000	33.125748
1656.000000	33.172534
1655.000000	33.181891
1654.000000	33.191349
1653.000000	33.188331
1652.000000	33.196179
1651.000000	33.183401
1650.000000	33.157241
1649.000000	33.121422
1648.000000	33.072020
1647.000000	33.029057
1646.000000	33.005714
1645.000000	32.948162
1644.000000	32.899163
1643.000000	32.843321
1642.000000	32.782348
1641.000000	32.716747
1640.000000	32.666239
1639.000000	32.604159
1638.000000	32.545400
1637.000000	32.469737
1636.000000	32.402627
1635.000000	32.338937
1634.000000	32.262268
1633.000000	32.183487
1632.000000	32.105611
1631.000000	32.024012
1630.000000	31.936577
1629.000000	31.842401
1628.000000	31.758991
1627.000000	31.667431
1626.000000	31.593077
1625.000000	31.508560
1624.000000	31.407341
1623.000000	31.324836
1622.000000	31.248067
1621.000000	31.160029
1620.000000	31.062432
1619.000000	30.981437
1618.000000	30.919961
1617.000000	30.837557
1616.000000	30.748009
1615.000000	30.682710
1614.000000	30.609664
1613.000000	30.530077
1612.000000	30.453207
1611.000000	30.372513
1610.000000	30.296750
1609.000000	30.218270
1608.000000	30.146733
1607.000000	30.069964
1606.000000	29.980315
1605.000000	29.913004
1604.000000	29.843177
1603.000000	29.753831
1602.000000	29.674244
1601.000000	29.586306
1600.000000	29.523019
1599.000000	29.463556
1598.000000	29.398256
1597.000000	29.330341
1596.000000	29.281341
1595.000000	29.238077
1594.000000	29.178915
1593.000000	29.123879
1592.000000	29.085343
1591.000000	29.044493
1590.000000	28.995795
1589.000000	28.957159
1588.000000	28.911681
1587.000000	28.873850
1586.000000	28.849400
1585.000000	28.830283
1584.000000	28.814990
1583.000000	28.790540
1582.000000	28.762066
1581.000000	28.749791
1580.000000	28.739025
1579.000000	28.723833
1578.000000	28.734800
1577.000000	28.741340
1576.000000	28.750395
1575.000000	28.765588
1574.000000	28.785208
1573.000000	28.803117
1572.000000	28.820725
1571.000000	28.855940
1570.000000	28.893772
1569.000000	28.924560
1568.000000	28.967925
1567.000000	29.003342
1566.000000	29.037249
1565.000000	29.080916
1564.000000	29.127400
1563.000000	29.169759
1562.000000	29.190587
1561.000000	29.215841
1560.000000	29.245221
1559.000000	29.269066
1558.000000	29.281845
1557.000000	29.288083
1556.000000	29.290699
1555.000000	29.289189
1554.000000	29.293818
1553.000000	29.281241
1552.000000	29.246428
1551.000000	29.222180
1550.000000	29.201151
1549.000000	29.176500
1548.000000	29.145612
1547.000000	29.113515
1546.000000	29.090575
1545.000000	29.070351
1544.000000	29.044694
1543.000000	29.014912
1542.000000	29.014912
1541.000000	29.006159
1540.000000	28.997707
1539.000000	28.992676
1538.000000	28.985633
1537.000000	28.983017
1536.000000	28.971044
1535.000000	28.969233
1534.000000	28.957964
1533.000000	28.940759
1532.000000	28.918020
1531.000000	28.892162
1530.000000	28.873246
1529.000000	28.860066
1528.000000	28.835515
1527.000000	28.801105
1526.000000	28.767701
1525.000000	28.747477
1524.000000	28.731077
1523.000000	28.679763
1522.000000	28.647667
1521.000000	28.618790
1520.000000	28.580858
1519.000000	28.543631
1518.000000	28.518074
1517.000000	28.486481
1516.000000	28.446738
1515.000000	28.421383
1514.000000	28.378622
1513.000000	28.346224
1512.000000	28.301450
1511.000000	28.257582
1510.000000	28.211701
1509.000000	28.176385
1508.000000	28.125575
1507.000000	28.071947
1506.000000	28.057559
1505.000000	28.022746
1504.000000	27.985015
1503.000000	27.950403
1502.000000	27.912069
1501.000000	27.881381
1500.000000	27.863774
1499.000000	27.861057
1498.000000	27.853712
1497.000000	27.847575
1496.000000	27.840532
1495.000000	27.850593
1494.000000	27.854115
1493.000000	27.845361
1492.000000	27.866692
1491.000000	27.883092
1490.000000	27.903919
1489.000000	27.907843
1488.000000	27.915188
1487.000000	27.956541
1486.000000	27.977066
1485.000000	28.000107
1484.000000	28.016709
1483.000000	28.035625
1482.000000	28.080901
1481.000000	28.094484
1480.000000	28.145295
1479.000000	28.185139
1478.000000	28.237861
1477.000000	28.274887
1476.000000	28.350248
1475.000000	28.410718
1474.000000	28.483463
1473.000000	28.562748
1472.000000	28.623016
1471.000000	28.682077
1470.000000	28.739428
1469.000000	28.797181
1468.000000	28.862178
1467.000000	28.934521
1466.000000	28.993481
1465.000000	29.061195
1464.000000	29.151648
1463.000000	29.215036
1462.000000	29.306697
1461.000000	29.386786
1460.000000	29.482169
1459.000000	29.571214
1458.000000	29.662573
1457.000000	29.784820
1456.000000	29.887146
1455.000000	29.993999
1454.000000	30.109505
1453.000000	30.209215
1452.000000	30.327035
1451.000000	30.473934
1450.000000	30.586321
1449.000000	30.679289
1448.000000	30.830212
1447.000000	30.957088
1446.000000	31.100666
1445.000000	31.205708
1444.000000	31.353814
1443.000000	31.471030
1442.000000	31.624871
1441.000000	31.749533
1440.000000	31.903877
1439.000000	32.012743
1438.000000	32.168696
1437.000000	32.291547
1436.000000	32.414399
1435.000000	32.561901
1434.000000	32.729123
1433.000000	32.881454
1432.000000	33.009135
1431.000000	33.159152
1430.000000	33.347705
1429.000000	33.510501
1428.000000	33.730949
1427.000000	33.920709
1426.000000	34.155042
1425.000000	34.395512
1424.000000	34.660130
1423.000000	34.904927
1422.000000	35.128192
1421.000000	35.364940
1420.000000	35.654007
1419.000000	35.905847
1418.000000	36.123176
1417.000000	36.368577
1416.000000	36.632490
1415.000000	36.902139
1414.000000	37.154784
1413.000000	37.386501
1412.000000	37.589442
1411.000000	37.933546
1410.000000	38.295358
1409.000000	38.650731
1408.000000	39.037697
1407.000000	39.425166
1406.000000	39.829941
1405.000000	40.240250
1404.000000	40.682554
1403.000000	41.046882
1402.000000	41.428616
1401.000000	41.882995
1400.000000	42.248228
1399.000000	42.446138
1398.000000	42.644249
1397.000000	42.884317
1396.000000	43.153463
1395.000000	43.306700
1394.000000	43.380250
1393.000000	43.513565
1392.000000	43.703023
1391.000000	43.879804
1390.000000	44.058698
1389.000000	44.316977
1388.000000	44.622847
1387.000000	44.909198
1386.000000	45.256120
1385.000000	45.648016
1384.000000	46.027838
1383.000000	46.414201
1382.000000	46.716248
1381.000000	46.908624
1380.000000	46.991933
1379.000000	47.093253
1378.000000	47.138027
1377.000000	47.234617
1376.000000	47.392281
1375.000000	47.604076
1374.000000	47.887711
1373.000000	48.251636
1372.000000	48.641117
1371.000000	49.007558
1370.000000	49.338783
1369.000000	49.652803
1368.000000	49.965314
1367.000000	50.216148
1366.000000	50.432471
1365.000000	50.642555
1364.000000	50.824971
1363.000000	51.006279
1362.000000	51.149052
1361.000000	51.222602
1360.000000	51.232764
1359.000000	51.335794
1358.000000	51.470920
1357.000000	51.695695
1356.000000	52.057909
1355.000000	52.553842
1354.000000	53.135498
1353.000000	53.705081
1352.000000	54.370047
1351.000000	55.009054
1350.000000	55.578234
1349.000000	56.081914
1348.000000	56.600787
1347.000000	57.044701
1346.000000	57.465575
1345.000000	57.879506
1344.000000	58.245443
1343.000000	58.601319
1342.000000	58.948442
1341.000000	59.296671
1340.000000	59.611295
1339.000000	59.902173
1338.000000	60.191442
1337.000000	60.475076
1336.000000	60.730740
1335.000000	60.982076
1334.000000	61.217013
1333.000000	61.434342
1332.000000	61.649457
1331.000000	61.842538
1330.000000	62.030487
1329.000000	62.211393
1328.000000	62.378012
1327.000000	62.529941
1326.000000	62.680059
1325.000000	62.821121
1324.000000	62.956046
1323.000000	63.077288
1322.000000	63.196014
1321.000000	63.311319
1320.000000	63.411431
1319.000000	63.518183
1318.000000	63.618698
1317.000000	63.710258
1316.000000	63.806144
1315.000000	63.890560
1314.000000	63.963506
1313.000000	64.049432
1312.000000	64.113725
1311.000000	64.171076
1310.000000	64.231445
1309.000000	64.288091
1308.000000	64.333368
1307.000000	64.360534
1306.000000	64.388908
1305.000000	64.413659
1304.000000	64.418790
1303.000000	64.416979
1302.000000	64.412955
1301.000000	64.416476
1300.000000	64.412049
1299.000000	64.396051
1298.000000	64.384782
1297.000000	64.374318
1296.000000	64.346146
1295.000000	64.313647
1294.000000	64.287387
1293.000000	64.261629
1292.000000	64.221283
1291.000000	64.173189
1290.000000	64.115335
1289.000000	64.046615
1288.000000	63.980611
1287.000000	63.905150
1286.000000	63.827072
1285.000000	63.737927
1284.000000	63.642946
1283.000000	63.551487
1282.000000	63.453689
1281.000000	63.355690
1280.000000	63.267450
1279.000000	63.177400
1278.000000	63.098920
1277.000000	63.020440
1276.000000	62.945784
1275.000000	62.875252
1274.000000	62.813374
1273.000000	62.766487
1272.000000	62.706722
1271.000000	62.642026
1270.000000	62.583669
1269.000000	62.531651
1268.000000	62.479331
1267.000000	62.418157
1266.000000	62.354267
1265.000000	62.300136
1264.000000	62.252847
1263.000000	62.198917
1262.000000	62.130197
1261.000000	62.081398
1260.000000	62.036926
1259.000000	61.991046
1258.000000	61.938625
1257.000000	61.861353
1256.000000	61.800380
1255.000000	61.741721
1254.000000	61.656601
1253.000000	61.586673
1252.000000	61.502358
1251.000000	61.401139
1250.000000	61.311390
1249.000000	61.216912
1248.000000	61.086616
1247.000000	60.967286
1246.000000	60.825620
1245.000000	60.659202
1244.000000	60.494495
1243.000000	60.323248
1242.000000	60.148379
1241.000000	59.961637
1240.000000	59.793207
1239.000000	59.617130
1238.000000	59.409762
1237.000000	59.190824
1236.000000	58.994926
1235.000000	58.804059
1234.000000	58.594276
1233.000000	58.377551
1232.000000	58.163341
1231.000000	57.944503
1230.000000	57.742468
1229.000000	57.504110
1228.000000	57.289699
1227.000000	57.071867
1226.000000	56.859267
1225.000000	56.638819
1224.000000	56.427628
1223.000000	56.214022
1222.000000	55.998001
1221.000000	55.816089
1220.000000	55.632567
1219.000000	55.464942
1218.000000	55.302146
1217.000000	55.140558
1216.000000	55.005331
1215.000000	54.870608
1214.000000	54.755705
1213.000000	54.626113
1212.000000	54.502155
1211.000000	54.399829
1210.000000	54.288448
1209.000000	54.198699
1208.000000	54.123640
1207.000000	54.065384
1206.000000	54.028861
1205.000000	54.005619
1204.000000	53.980767
1203.000000	53.966781
1202.000000	53.945551
1201.000000	53.908022
1200.000000	53.845238
1199.000000	53.735869
1198.000000	53.613521
1197.000000	53.433521
1196.000000	53.212167
1195.000000	52.917566
1194.000000	52.536033
1193.000000	52.107110
1192.000000	51.620636
1191.000000	51.134765
1190.000000	50.678676
1189.000000	50.304790
1188.000000	50.052346
1187.000000	49.927282
1186.000000	49.954850
1185.000000	50.095108
1184.000000	50.388804
1183.000000	50.804948
1182.000000	51.326336
1181.000000	51.858289
1180.000000	52.378067
1179.000000	52.895330
1178.000000	53.352223
1177.000000	53.705987
1176.000000	54.056530
1175.000000	54.396710
1174.000000	54.703788
1173.000000	55.044169
1172.000000	55.427010
1171.000000	55.821019
1170.000000	56.203558
1169.000000	56.578048
1168.000000	56.994092
1167.000000	57.384680
1166.000000	57.795190
1165.000000	58.231458
1164.000000	58.639955
1163.000000	59.084172
1162.000000	59.495990
1161.000000	59.903984
1160.000000	60.323248
1159.000000	60.691801
1158.000000	61.045464
1157.000000	61.355158
1156.000000	61.626014
1155.000000	61.830866
1154.000000	61.963377
1153.000000	62.020828
1152.000000	62.041655
1151.000000	62.036926
1150.000000	62.032399
1149.000000	61.999598
1148.000000	62.022337
1147.000000	62.075160
1146.000000	62.228498
1145.000000	62.447235
1144.000000	62.745358
1143.000000	63.081715
1142.000000	63.451878
1141.000000	63.832505
1140.000000	64.227219
1139.000000	64.658657
1138.000000	65.080738
1137.000000	65.536223
1136.000000	65.977018
1135.000000	66.404733
1134.000000	66.802566
1133.000000	67.128760
1132.000000	67.439863
1131.000000	67.768472
1130.000000	68.035203
1129.000000	68.257663
1128.000000	68.448530
1127.000000	68.578324
1126.000000	68.704898
1125.000000	68.800683
1124.000000	68.910958
1123.000000	68.986319
1122.000000	69.036526
1121.000000	69.097599
1120.000000	69.132211
1119.000000	69.170243
1118.000000	69.177789
1117.000000	69.184229
1116.000000	69.168432
1115.000000	69.153943
1114.000000	69.131104
1113.000000	69.114402
1112.000000	69.105849
1111.000000	69.085424
1110.000000	69.083915
1109.000000	69.063792
1108.000000	69.040449
1107.000000	69.025055
1106.000000	69.001411
1105.000000	68.992355
1104.000000	68.977565
1103.000000	68.943255
1102.000000	68.909750
1101.000000	68.877252
1100.000000	68.854714
1099.000000	68.809638
1098.000000	68.790823
1097.000000	68.754400
1096.000000	68.711136
1095.000000	68.669783
1094.000000	68.617564
1093.000000	68.573997
1092.000000	68.529324
1091.000000	68.472175
1090.000000	68.427904
1089.000000	68.385444
1088.000000	68.327490
1087.000000	68.278994
1086.000000	68.229088
1085.000000	68.188138
1084.000000	68.130687
1083.000000	68.080580
1082.000000	68.037920
1081.000000	67.977148
1080.000000	67.937908
1079.000000	67.888908
1078.000000	67.851681
1077.000000	67.809422
1076.000000	67.763139
1075.000000	67.730641
1074.000000	67.709511
1073.000000	67.663933
1072.000000	67.616845
1071.000000	67.582535
1070.000000	67.530316
1069.000000	67.493792
1068.000000	67.472462
1067.000000	67.433725
1066.000000	67.384122
1065.000000	67.338342
1064.000000	67.314999
1063.000000	67.296989
1062.000000	67.265698
1061.000000	67.231891
1060.000000	67.179370
1059.000000	67.139828
1058.000000	67.117391
1057.000000	67.071209
1056.000000	67.030258
1055.000000	66.994842
1054.000000	66.972103
1053.000000	66.947955
1052.000000	66.917066
1051.000000	66.890403
1050.000000	66.896541
1049.000000	66.895233
1048.000000	66.875613
1047.000000	66.869173
1046.000000	66.867161
1045.000000	66.866054
1044.000000	66.862935
1043.000000	66.867865
1042.000000	66.882857
1041.000000	66.886077
1040.000000	66.896943
1039.000000	66.907809
1038.000000	66.914148
1037.000000	66.917770
1036.000000	66.928335
1035.000000	66.947351
1034.000000	66.955501
1033.000000	66.948760
1032.000000	66.928838
1031.000000	66.931454
1030.000000	66.940912
1029.000000	66.938698
1028.000000	66.939201
1027.000000	66.943729
1026.000000	66.941214
1025.000000	66.937290
1024.000000	66.940811
1023.000000	66.925820
1022.000000	66.929643
1021.000000	66.943226
1020.000000	66.947452
1019.000000	66.969688
1018.000000	66.992024
1017.000000	67.022310
1016.000000	67.060845
1015.000000	67.105619
1014.000000	67.146469
1013.000000	67.195468
1012.000000	67.270829
1011.000000	67.357157
1010.000000	67.439360
1009.000000	67.516330
1008.000000	67.610707
1007.000000	67.712832
1006.000000	67.807410
1005.000000	67.887701
1004.000000	67.987411
1003.000000	68.078870
1002.000000	68.165097
1001.000000	68.257160
1000.000000	68.340872
999.000000	68.433840
998.000000	68.532946
997.000000	68.624204
996.000000	68.705803
995.000000	68.789314
994.000000	68.881276
993.000000	68.991450
992.000000	69.086934
991.000000	69.175173
990.000000	69.286051
989.000000	69.383447
988.000000	69.497645
987.000000	69.589809
986.000000	69.688311
985.000000	69.789630
984.000000	69.896786
983.000000	69.999312
982.000000	70.094897
981.000000	70.188972
980.000000	70.277715
979.000000	70.385272
978.000000	70.486190
977.000000	70.567889
976.000000	70.648683
975.000000	70.728873
974.000000	70.837437
973.000000	70.907365
972.000000	71.002647
971.000000	71.077304
970.000000	71.157595
969.000000	71.246941
968.000000	71.333571
967.000000	71.400782
966.000000	71.489625
965.000000	71.585310
964.000000	71.657451
963.000000	71.734321
962.000000	71.814713
961.000000	71.918548
960.000000	71.999241
959.000000	72.086072
958.000000	72.172400
957.000000	72.229449
956.000000	72.301087
955.000000	72.387918
954.000000	72.431887
953.000000	72.491149
952.000000	72.540249
951.000000	72.574358
950.000000	72.638550
949.000000	72.692882
948.000000	72.720350
947.000000	72.763715
946.000000	72.810200
945.000000	72.863224
944.000000	72.904275
943.000000	72.935969
942.000000	72.994527
941.000000	73.046645
940.000000	73.065461
939.000000	73.115969
938.000000	73.168994
937.000000	73.218396
936.000000	73.247272
935.000000	73.292448
934.000000	73.346278
933.000000	73.381895
932.000000	73.445685
931.000000	73.458262
930.000000	73.482913
929.000000	73.532215
928.000000	73.582421
927.000000	73.598721
926.000000	73.627900
925.000000	73.669957
924.000000	73.720466
923.000000	73.774999
922.000000	73.783753
921.000000	73.823898
920.000000	73.853479
919.000000	73.884670
918.000000	73.915055
917.000000	73.928739
916.000000	73.941115
915.000000	73.976330
914.000000	73.969388
913.000000	73.998365
912.000000	74.004804
911.000000	74.034083
910.000000	74.051892
909.000000	74.083083
908.000000	74.113871
907.000000	74.147376
906.000000	74.201809
905.000000	74.233301
904.000000	74.286326
903.000000	74.349914
902.000000	74.394889
901.000000	74.477394
900.000000	74.522469
899.000000	74.583845
898.000000	74.655986
897.000000	74.691604
896.000000	74.764348
895.000000	74.825522
894.000000	74.857317
893.000000	74.924427
892.000000	74.940224
891.000000	74.970811
890.000000	75.000694
889.000000	74.999788
888.000000	75.031985
887.000000	75.051806
886.000000	75.100001
885.000000	75.103925
884.000000	75.134914
883.000000	75.131594
882.000000	75.158156
881.000000	75.162583
880.000000	75.173450
879.000000	75.145076
878.000000	75.124551
877.000000	75.093058
876.000000	75.050397
875.000000	74.926842
874.000000	74.807311
873.000000	74.649043
872.000000	74.518646
871.000000	74.538266
870.000000	74.623990
869.000000	74.722694
868.000000	74.842728
867.000000	74.913460
866.000000	75.015082
865.000000	75.104629
864.000000	75.196290
863.000000	75.264909
862.000000	75.348017
861.000000	75.455676
860.000000	75.565648
859.000000	75.661132
858.000000	75.857633
857.000000	75.872400
856.000000	75.701500
855.000000	75.999000
854.000000	76.295900
853.000000	76.807900
852.000000	76.475400
851.000000	76.557000
850.000000	77.026100
849.000000	76.893100
848.000000	77.084200
847.000000	77.254900
846.000000	77.321200
845.000000	77.412700
844.000000	77.521500
843.000000	77.439200
842.000000	77.501800
841.000000	77.460900
840.000000	77.708800
839.000000	78.307500
838.000000	78.124900
837.000000	78.444100
836.000000	78.456500
835.000000	78.867600
834.000000	79.005700
833.000000	79.180700
832.000000	79.420300
831.000000	79.506400
830.000000	79.717600
829.000000	80.266000
828.000000	80.487900
827.000000	80.592300
826.000000	80.902800
825.000000	81.181300
824.000000	81.532200
823.000000	81.682100
822.000000	81.988400
821.000000	82.324100
820.000000	82.679600
819.000000	83.061200
818.000000	83.332000
817.000000	83.582900
816.000000	83.880000
815.000000	84.318800
814.000000	84.626000
813.000000	85.061700
812.000000	85.282000
811.000000	85.871400
810.000000	86.124100
809.000000	86.297300
808.000000	86.697300
807.000000	87.200700
806.000000	87.534600
805.000000	87.941400
804.000000	88.242500
803.000000	88.588200
802.000000	88.934100
801.000000	89.214300
800.000000	89.718000
799.000000	90.123600
798.000000	90.531100
797.000000	90.833100
796.000000	91.226400
795.000000	91.439400
794.000000	91.790800
793.000000	92.097800
792.000000	92.502600
791.000000	92.817300
790.000000	93.138900
789.000000	93.509000
788.000000	93.910700
787.000000	94.145800
786.000000	94.446800
785.000000	94.642100
784.000000	94.968700
783.000000	95.283300
782.000000	95.498800
781.000000	95.744300
780.000000	95.995400
779.000000	96.063300
778.000000	96.189300
777.000000	96.528200
776.000000	96.732200
775.000000	96.894000
774.000000	96.972700
773.000000	97.125200
772.000000	97.409600
771.000000	97.596800
770.000000	97.824100
769.000000	97.975700
768.000000	98.091800
767.000000	98.235600
766.000000	98.399500
765.000000	98.510500
764.000000	98.635000
763.000000	98.681600
762.000000	98.822900
761.000000	98.873400
760.000000	98.926300
759.000000	98.992200
758.000000	98.982200
757.000000	99.061200
756.000000	99.054400
755.000000	99.006400
754.000000	99.074100
753.000000	98.987400
752.000000	98.853000
751.000000	98.838000
750.000000	98.803100
749.000000	98.677500
748.000000	98.623700
747.000000	98.571900
746.000000	98.478100
745.000000	98.567600
744.000000	98.567500
743.000000	98.497800
742.000000	98.390700
741.000000	98.301000
740.000000	98.255600
739.000000	98.135700
738.000000	98.036600
737.000000	97.908100
736.000000	97.710100
735.000000	97.503900
734.000000	97.348500
733.000000	97.242900
732.000000	97.040100
731.000000	96.773100
730.000000	96.559800
729.000000	96.430000
728.000000	96.239000
727.000000	96.051700
726.000000	95.831200
725.000000	95.613100
724.000000	95.489500
723.000000	95.179600
722.000000	94.923900
721.000000	94.750500
720.000000	94.510600
719.000000	94.182900
718.000000	94.020400
717.000000	93.897100
716.000000	93.618400
715.000000	93.335300
714.000000	93.106200
713.000000	92.810000
712.000000	92.477000
711.000000	92.122400
710.000000	91.769800
709.000000	91.428900
708.000000	90.989300
707.000000	90.589100
706.000000	90.131800
705.000000	89.624600
704.000000	89.147900
703.000000	88.598000
702.000000	88.086900
701.000000	87.637900
700.000000	87.129900
699.000000	86.626000
698.000000	86.277800
697.000000	85.794600
696.000000	85.377100
695.000000	84.925700
694.000000	84.507200
693.000000	84.032800
692.000000	83.598800
691.000000	83.149000
690.000000	82.658800
689.000000	82.177400
688.000000	81.673600
687.000000	81.243400
686.000000	80.736100
685.000000	80.165800
684.000000	79.653700
683.000000	79.080300
682.000000	78.483600
681.000000	77.980400
680.000000	77.407800
679.000000	76.880300
678.000000	76.414200
677.000000	75.948500
676.000000	75.492500
675.000000	75.097600
674.000000	74.718600
673.000000	74.325700
672.000000	73.943100
671.000000	73.599100
670.000000	73.199400
669.000000	72.742800
668.000000	72.293900
667.000000	71.861800
666.000000	71.440700
665.000000	70.915300
664.000000	70.373700
663.000000	69.767100
662.000000	69.202600
661.000000	68.638800
660.000000	67.969800
659.000000	67.366900
658.000000	66.767100
657.000000	66.213900
656.000000	65.686000
655.000000	65.121700
654.000000	64.613300
653.000000	64.227300
652.000000	63.866900
651.000000	63.530800
650.000000	63.294200
649.000000	63.127400
648.000000	62.996900
647.000000	62.924200
646.000000	62.870600
645.000000	62.770000
644.000000	62.745400
643.000000	62.748800
642.000000	62.730600
641.000000	62.733900
640.000000	62.678400
639.000000	62.615200
638.000000	62.539800
637.000000	62.467200
636.000000	62.415200
635.000000	62.365200
634.000000	62.291000
633.000000	62.205300
632.000000	62.150500
631.000000	62.070900
630.000000	62.027200
629.000000	61.952600
628.000000	61.888600
627.000000	61.841300
626.000000	61.807400
625.000000	61.720800
624.000000	61.706900
623.000000	61.668400
622.000000	61.646200
621.000000	61.570900
620.000000	61.526500
619.000000	61.467300
618.000000	61.385200
617.000000	61.393900
616.000000	61.343600
615.000000	61.338600
614.000000	61.308000
613.000000	61.340100
612.000000	61.478100
611.000000	61.507600
610.000000	61.763100
609.000000	61.917600
608.000000	62.151800
607.000000	62.439800
606.000000	62.750700
605.000000	63.106300
604.000000	63.477200
603.000000	63.884800
602.000000	64.307900
601.000000	64.689700
600.000000	65.095600
599.000000	65.483500
598.000000	65.960400
597.000000	66.402000
596.000000	66.795900
595.000000	67.229000
594.000000	67.610200
593.000000	67.976400
592.000000	68.296600
591.000000	68.613500
590.000000	68.903400
589.000000	69.198400
588.000000	69.439200
587.000000	69.611000
586.000000	69.864100
585.000000	70.013800
584.000000	70.192800
583.000000	70.374400
582.000000	70.475600
581.000000	70.677300
580.000000	70.786700
579.000000	70.911800
578.000000	71.007600
577.000000	71.078600
576.000000	71.189100
575.000000	71.228300
574.000000	71.279200
573.000000	71.328300
572.000000	71.425300
571.000000	71.403700
570.000000	71.394100
569.000000	71.394200
568.000000	71.358500
567.000000	71.292800
566.000000	71.175700
565.000000	71.073100
564.000000	70.980900
563.000000	70.854600
562.000000	70.731600
561.000000	70.546100
560.000000	70.332600
559.000000	70.116500
558.000000	69.943600
557.000000	69.651900
556.000000	69.406900
555.000000	69.145400
554.000000	68.875500
553.000000	68.596300
552.000000	68.288700
551.000000	67.915500
550.000000	67.557200
549.000000	67.157100
548.000000	66.782100
547.000000	66.352200
546.000000	65.899600
545.000000	65.417300
544.000000	64.926400
543.000000	64.417800
542.000000	63.870700
541.000000	63.291500
540.000000	62.738800
539.000000	62.135600
538.000000	61.539000
537.000000	60.964600
536.000000	60.327100
535.000000	59.669100
534.000000	59.060600
533.000000	58.425000
532.000000	57.810200
531.000000	57.178700
530.000000	56.521600
529.000000	55.903100
528.000000	55.312300
527.000000	54.672700
526.000000	54.021100
525.000000	53.360200
524.000000	52.680700
523.000000	51.993600
522.000000	51.298200
521.000000	50.598400
520.000000	49.870800
519.000000	49.145000
518.000000	48.412300
517.000000	47.659900
516.000000	46.885600
515.000000	46.116600
514.000000	45.322000
513.000000	44.571500
512.000000	43.780900
511.000000	42.989100
510.000000	42.179000
509.000000	41.367400
508.000000	40.504000
507.000000	39.643100
506.000000	38.796800
505.000000	37.971900
504.000000	37.153600
503.000000	36.304800
502.000000	35.516400
501.000000	34.705400
500.000000	33.929000
499.000000	33.219600
498.000000	32.574800
497.000000	32.001900
496.000000	31.452700
495.000000	30.933600
494.000000	30.486500
493.000000	30.073500
492.000000	29.731900
491.000000	29.450100
490.000000	29.247200
489.000000	29.078600
488.000000	28.940000
487.000000	28.849600
486.000000	28.795000
485.000000	28.762100
484.000000	28.751700
483.000000	28.744800
482.000000	28.749900
481.000000	28.771700
480.000000	28.789700
479.000000	28.803300
478.000000	28.802700
477.000000	28.834100
476.000000	28.876100
475.000000	28.892800
474.000000	28.924600
473.000000	28.931900
472.000000	28.926100
471.000000	28.934200
470.000000	28.928800
469.000000	28.929200
468.000000	28.896400
467.000000	28.844200
466.000000	28.799700
465.000000	28.750000
464.000000	28.722300
463.000000	28.635400
462.000000	28.536700
461.000000	28.451200
460.000000	28.337100
459.000000	28.223000
458.000000	28.071600
457.000000	27.945200
456.000000	27.793200
455.000000	27.612600
454.000000	27.415500
453.000000	27.215800
452.000000	27.022200
451.000000	26.769400
450.000000	26.539300
449.000000	26.302000
448.000000	26.039200
447.000000	25.767700
446.000000	25.465900
445.000000	25.156800
444.000000	24.862000
443.000000	24.565800
442.000000	24.231800
441.000000	23.890100
440.000000	23.534600
439.000000	23.167000
438.000000	22.804100
437.000000	22.409500
436.000000	22.011200
435.000000	21.632900
434.000000	21.217800
433.000000	20.790300
432.000000	20.374700
431.000000	19.951700
430.000000	19.495800
429.000000	19.038000
428.000000	18.578500
427.000000	18.114500
426.000000	17.686300
425.000000	17.237000
424.000000	16.763800
423.000000	16.314100
422.000000	15.857600
421.000000	15.398800
420.000000	14.972600
419.000000	14.553200
418.000000	14.119800
417.000000	13.692600
416.000000	13.274300
415.000000	12.880400
414.000000	12.497000
413.000000	12.141500
412.000000	11.795200
411.000000	11.447800
410.000000	11.125600
409.000000	10.806600
408.000000	10.507500
407.000000	10.230700
406.000000	9.979800
405.000000	9.732900
404.000000	9.488100
403.000000	9.275000
402.000000	9.071100
401.000000	8.872300
400.000000	8.682300
399.000000	8.487200
398.000000	8.323800
397.000000	8.180800
396.000000	8.041000
395.000000	7.883900
394.000000	7.790400
393.000000	7.684200
392.000000	7.565500
391.000000	7.447600
390.000000	7.354300
389.000000	7.276600
388.000000	7.185900
387.000000	7.121800
386.000000	7.051900
385.000000	6.969800
384.000000	6.919900
383.000000	6.856300
382.000000	6.817400
381.000000	6.783500
380.000000	6.746800
379.000000	6.682900
378.000000	6.644200
377.000000	6.619300
376.000000	6.639800
375.000000	6.618200
374.000000	6.521600
373.000000	6.442100
372.000000	6.454500
371.000000	6.445300
370.000000	6.462000
369.000000	6.416600
368.000000	6.400200
367.000000	6.345300
366.000000	6.342300
365.000000	6.392000
364.000000	6.264300
363.000000	6.233400
362.000000	6.217600
361.000000	6.298200
360.000000	6.259100
359.000000	6.199800
358.000000	6.174700
357.000000	6.132800
356.000000	6.089800
355.000000	6.124400
354.000000	6.055700
353.000000	6.048700
352.000000	6.103200
351.000000	6.055900
350.000000	6.142000
349.000000	6.001200
348.000000	5.964600
347.000000	5.933800
346.000000	5.972300
345.000000	5.874000
344.000000	5.884800
343.000000	5.952000
342.000000	5.936200
341.000000	6.029100
340.000000	5.928000
339.000000	5.964100
338.000000	5.863500
337.000000	5.935400
336.000000	5.850700
335.000000	5.810200
334.000000	5.799100
333.000000	5.906600
332.000000	5.837000
331.000000	5.861800
330.000000	5.980800
329.000000	5.928100
328.000000	5.824400
327.000000	5.982400
326.000000	5.819300
325.000000	5.760700
324.000000	5.747800
323.000000	5.744400
322.000000	5.751800
321.000000	5.872600
320.000000	5.763100
319.000000	5.519500
318.000000	5.675200
317.000000	5.746200
316.000000	5.853200
315.000000	5.784700
314.000000	5.842200
313.000000	5.809300
312.000000	5.820300
311.000000	5.818400
310.000000	5.783500
309.000000	5.780600
308.000000	5.839200
307.000000	5.828400
306.000000	5.824000
305.000000	5.830300
304.000000	5.817200
303.000000	5.812500
302.000000	5.815600
301.000000	5.835300
300.000000	5.824600
299.000000	5.812400
298.000000	5.853800
297.000000	5.845700
296.000000	5.864900
295.000000	5.883900
294.000000	5.881000
293.000000	5.864900
292.000000	5.867300
291.000000	5.868100
290.000000	5.884800
289.000000	5.869200
288.000000	5.910900
287.000000	5.852800
286.000000	5.897200
285.000000	5.904500
284.000000	5.897000
283.000000	5.931800
282.000000	5.894300
281.000000	5.922000
280.000000	5.920900
279.000000	5.933900
278.000000	5.922500
277.000000	5.967300
276.000000	5.958200
275.000000	5.960400
274.000000	5.951800
273.000000	6.004100
272.000000	6.050400
271.000000	6.022200
270.000000	6.092300
269.000000	6.083300
268.000000	6.060300
267.000000	6.108300
266.000000	6.137300
265.000000	6.145100
264.000000	6.190500
263.000000	6.209400
262.000000	6.252200
261.000000	6.240100
260.000000	6.273000
259.000000	6.313000
258.000000	6.335600
257.000000	6.359800
256.000000	6.383200
255.000000	6.359600
254.000000	6.388200
253.000000	6.366400
252.000000	6.391200
251.000000	6.400300
250.000000	6.435700
