PE UV       SUBTECH     SPECTRUM    ASCII       PEDS        4.00        
   -1
CICIMAUCR0020-7.Sample.ASC
24/04/25
16:24:51.00
24/04/25
16:24:51.00
Vinicio Soto Monge
C. resplendens
250,000000
1
Lambda 1050
1050L1511233
PerkinElmer UV WinLab 6.3.2.0749 / 2.02.05 Lambda 900 UV/VIS/NIR, Aug  7 2015 09:38:08

0
0
3350/servo 860,8/2
0
0
UV/VIS
1
1
1
DoubleDePol,CommonBeamDepol,RBeamAtt,SBeamAtt,60mm sphere, WB InGaAs Detector
0
0
0
0
Program
Program
3350/servo 860,8/2
3350/0,2 860,8/0,2
3350/0,2 860,8/0,2
0
15.00
 
 
 
0
 
860,8
319,2
860,8
Front
100
on
S:100 R:100
0
0
0
0
 
0
 
 
 
0
 
 
0
0
0
0
0
 
 
 
 
0
0


0
0
#HDR
-1
-1
#GR
nm
%R
1.0
0.0
2500,000000
-1,000000
2251
8
81,082400
5,554700
#DATA
2500.000000	8.025100
2499.000000	8.153500
2498.000000	7.915200
2497.000000	7.986700
2496.000000	7.964500
2495.000000	7.857500
2494.000000	7.879000
2493.000000	7.873500
2492.000000	7.762500
2491.000000	7.824200
2490.000000	7.790200
2489.000000	7.795300
2488.000000	7.768000
2487.000000	7.784700
2486.000000	7.767500
2485.000000	7.775600
2484.000000	7.699200
2483.000000	7.777400
2482.000000	7.731900
2481.000000	7.697700
2480.000000	7.702000
2479.000000	7.757700
2478.000000	7.697600
2477.000000	7.680500
2476.000000	7.684800
2475.000000	7.714900
2474.000000	7.721300
2473.000000	7.707800
2472.000000	7.656300
2471.000000	7.688500
2470.000000	7.673700
2469.000000	7.694600
2468.000000	7.699300
2467.000000	7.641500
2466.000000	7.690300
2465.000000	7.688600
2464.000000	7.733800
2463.000000	7.731700
2462.000000	7.770300
2461.000000	7.787000
2460.000000	7.825700
2459.000000	7.871700
2458.000000	7.897800
2457.000000	7.949800
2456.000000	7.952700
2455.000000	8.028400
2454.000000	8.071600
2453.000000	8.143200
2452.000000	8.181400
2451.000000	8.236400
2450.000000	8.307600
2449.000000	8.358800
2448.000000	8.400600
2447.000000	8.481300
2446.000000	8.533600
2445.000000	8.587800
2444.000000	8.633800
2443.000000	8.676500
2442.000000	8.748400
2441.000000	8.792100
2440.000000	8.833500
2439.000000	8.887100
2438.000000	8.924200
2437.000000	8.982300
2436.000000	9.023700
2435.000000	9.051000
2434.000000	9.091200
2433.000000	9.122200
2432.000000	9.159800
2431.000000	9.208900
2430.000000	9.231200
2429.000000	9.276900
2428.000000	9.291400
2427.000000	9.303100
2426.000000	9.322300
2425.000000	9.342000
2424.000000	9.353800
2423.000000	9.377500
2422.000000	9.402900
2421.000000	9.421200
2420.000000	9.435400
2419.000000	9.442800
2418.000000	9.493800
2417.000000	9.520300
2416.000000	9.524000
2415.000000	9.531600
2414.000000	9.557800
2413.000000	9.581800
2412.000000	9.598900
2411.000000	9.640000
2410.000000	9.707500
2409.000000	9.764400
2408.000000	9.815700
2407.000000	9.838100
2406.000000	9.842700
2405.000000	9.872000
2404.000000	9.897600
2403.000000	9.927200
2402.000000	9.979200
2401.000000	10.018600
2400.000000	10.042200
2399.000000	10.059800
2398.000000	10.097100
2397.000000	10.123400
2396.000000	10.159400
2395.000000	10.200500
2394.000000	10.223200
2393.000000	10.254600
2392.000000	10.289600
2391.000000	10.314700
2390.000000	10.334900
2389.000000	10.345700
2388.000000	10.350400
2387.000000	10.356900
2386.000000	10.369800
2385.000000	10.378900
2384.000000	10.386500
2383.000000	10.394700
2382.000000	10.402400
2381.000000	10.400600
2380.000000	10.405800
2379.000000	10.386300
2378.000000	10.384300
2377.000000	10.394300
2376.000000	10.380000
2375.000000	10.355900
2374.000000	10.343400
2373.000000	10.326300
2372.000000	10.298200
2371.000000	10.282300
2370.000000	10.253900
2369.000000	10.215500
2368.000000	10.188100
2367.000000	10.146200
2366.000000	10.091300
2365.000000	10.029400
2364.000000	9.985600
2363.000000	9.939800
2362.000000	9.879100
2361.000000	9.822900
2360.000000	9.773900
2359.000000	9.738600
2358.000000	9.700200
2357.000000	9.663400
2356.000000	9.658700
2355.000000	9.653400
2354.000000	9.653400
2353.000000	9.679700
2352.000000	9.703800
2351.000000	9.727800
2350.000000	9.767200
2349.000000	9.804100
2348.000000	9.857300
2347.000000	9.928800
2346.000000	9.999400
2345.000000	10.053400
2344.000000	10.092100
2343.000000	10.147700
2342.000000	10.202500
2341.000000	10.246100
2340.000000	10.272500
2339.000000	10.298200
2338.000000	10.334400
2337.000000	10.327700
2336.000000	10.333500
2335.000000	10.322900
2334.000000	10.293600
2333.000000	10.291300
2332.000000	10.280000
2331.000000	10.219800
2330.000000	10.168700
2329.000000	10.133200
2328.000000	10.077300
2327.000000	10.032300
2326.000000	9.958500
2325.000000	9.872100
2324.000000	9.779700
2323.000000	9.709100
2322.000000	9.634500
2321.000000	9.538300
2320.000000	9.427900
2319.000000	9.326000
2318.000000	9.214500
2317.000000	9.119600
2316.000000	9.036100
2315.000000	8.940700
2314.000000	8.846300
2313.000000	8.757900
2312.000000	8.680100
2311.000000	8.616600
2310.000000	8.573600
2309.000000	8.559500
2308.000000	8.555200
2307.000000	8.549500
2306.000000	8.558000
2305.000000	8.599500
2304.000000	8.653200
2303.000000	8.731100
2302.000000	8.815300
2301.000000	8.902600
2300.000000	9.000800
2299.000000	9.084200
2298.000000	9.202100
2297.000000	9.289100
2296.000000	9.361700
2295.000000	9.452000
2294.000000	9.522700
2293.000000	9.581500
2292.000000	9.636600
2291.000000	9.669400
2290.000000	9.693800
2289.000000	9.687800
2288.000000	9.682300
2287.000000	9.690300
2286.000000	9.663400
2285.000000	9.633200
2284.000000	9.594100
2283.000000	9.541000
2282.000000	9.491900
2281.000000	9.478600
2280.000000	9.431100
2279.000000	9.367800
2278.000000	9.335400
2277.000000	9.298600
2276.000000	9.271100
2275.000000	9.248700
2274.000000	9.266200
2273.000000	9.256400
2272.000000	9.259300
2271.000000	9.288500
2270.000000	9.314000
2269.000000	9.382000
2268.000000	9.485300
2267.000000	9.581400
2266.000000	9.703300
2265.000000	9.817300
2264.000000	10.006800
2263.000000	10.170400
2262.000000	10.338800
2261.000000	10.541500
2260.000000	10.778800
2259.000000	11.005800
2258.000000	11.242300
2257.000000	11.488600
2256.000000	11.741900
2255.000000	11.998900
2254.000000	12.201800
2253.000000	12.433400
2252.000000	12.617800
2251.000000	12.886600
2250.000000	13.063100
2249.000000	13.235900
2248.000000	13.417900
2247.000000	13.555500
2246.000000	13.725400
2245.000000	13.872200
2244.000000	13.991500
2243.000000	14.127800
2242.000000	14.266600
2241.000000	14.373700
2240.000000	14.438400
2239.000000	14.539100
2238.000000	14.620700
2237.000000	14.711000
2236.000000	14.789400
2235.000000	14.867600
2234.000000	14.922200
2233.000000	14.957100
2232.000000	15.003100
2231.000000	15.049400
2230.000000	15.087200
2229.000000	15.108400
2228.000000	15.120300
2227.000000	15.138900
2226.000000	15.134600
2225.000000	15.131400
2224.000000	15.122000
2223.000000	15.156600
2222.000000	15.127700
2221.000000	15.091000
2220.000000	15.077600
2219.000000	15.048800
2218.000000	15.039600
2217.000000	15.023500
2216.000000	14.994600
2215.000000	14.975100
2214.000000	14.944800
2213.000000	14.926500
2212.000000	14.882500
2211.000000	14.873800
2210.000000	14.848900
2209.000000	14.822000
2208.000000	14.818300
2207.000000	14.798600
2206.000000	14.812100
2205.000000	14.798200
2204.000000	14.775300
2203.000000	14.770500
2202.000000	14.737500
2201.000000	14.723900
2200.000000	14.726200
2199.000000	14.723200
2198.000000	14.693300
2197.000000	14.685200
2196.000000	14.687400
2195.000000	14.671700
2194.000000	14.660700
2193.000000	14.628000
2192.000000	14.609000
2191.000000	14.588200
2190.000000	14.569900
2189.000000	14.560500
2188.000000	14.565200
2187.000000	14.548200
2186.000000	14.534100
2185.000000	14.499200
2184.000000	14.493500
2183.000000	14.473100
2182.000000	14.452000
2181.000000	14.400100
2180.000000	14.406400
2179.000000	14.394800
2178.000000	14.381700
2177.000000	14.370600
2176.000000	14.366100
2175.000000	14.351400
2174.000000	14.348800
2173.000000	14.344800
2172.000000	14.350700
2171.000000	14.338500
2170.000000	14.345900
2169.000000	14.343400
2168.000000	14.375100
2167.000000	14.382700
2166.000000	14.378000
2165.000000	14.394200
2164.000000	14.415000
2163.000000	14.430900
2162.000000	14.453800
2161.000000	14.476300
2160.000000	14.492500
2159.000000	14.532700
2158.000000	14.559600
2157.000000	14.574500
2156.000000	14.594100
2155.000000	14.648400
2154.000000	14.689700
2153.000000	14.733800
2152.000000	14.766800
2151.000000	14.811400
2150.000000	14.854100
2149.000000	14.885300
2148.000000	14.898800
2147.000000	14.944000
2146.000000	14.984600
2145.000000	15.012600
2144.000000	15.067900
2143.000000	15.089400
2142.000000	15.122500
2141.000000	15.154100
2140.000000	15.191600
2139.000000	15.231700
2138.000000	15.247200
2137.000000	15.274500
2136.000000	15.303600
2135.000000	15.326600
2134.000000	15.362300
2133.000000	15.374600
2132.000000	15.396900
2131.000000	15.415900
2130.000000	15.424200
2129.000000	15.457400
2128.000000	15.481000
2127.000000	15.481100
2126.000000	15.492900
2125.000000	15.509600
2124.000000	15.503700
2123.000000	15.513400
2122.000000	15.516400
2121.000000	15.510800
2120.000000	15.514000
2119.000000	15.491500
2118.000000	15.487900
2117.000000	15.493600
2116.000000	15.477500
2115.000000	15.476500
2114.000000	15.466400
2113.000000	15.442400
2112.000000	15.415200
2111.000000	15.397500
2110.000000	15.387000
2109.000000	15.390600
2108.000000	15.369700
2107.000000	15.333400
2106.000000	15.312400
2105.000000	15.318900
2104.000000	15.308700
2103.000000	15.284800
2102.000000	15.273100
2101.000000	15.250800
2100.000000	15.233000
2099.000000	15.223600
2098.000000	15.219600
2097.000000	15.216200
2096.000000	15.198900
2095.000000	15.163600
2094.000000	15.160300
2093.000000	15.164600
2092.000000	15.151700
2091.000000	15.144200
2090.000000	15.133700
2089.000000	15.113400
2088.000000	15.114200
2087.000000	15.115400
2086.000000	15.088800
2085.000000	15.086300
2084.000000	15.088600
2083.000000	15.076500
2082.000000	15.058100
2081.000000	15.040300
2080.000000	15.033000
2079.000000	15.011700
2078.000000	14.991800
2077.000000	14.967300
2076.000000	14.941300
2075.000000	14.930600
2074.000000	14.912200
2073.000000	14.912800
2072.000000	14.895100
2071.000000	14.863200
2070.000000	14.841200
2069.000000	14.817100
2068.000000	14.794200
2067.000000	14.774200
2066.000000	14.757300
2065.000000	14.734900
2064.000000	14.732100
2063.000000	14.734200
2062.000000	14.709900
2061.000000	14.702300
2060.000000	14.717000
2059.000000	14.740200
2058.000000	14.742600
2057.000000	14.753800
2056.000000	14.786700
2055.000000	14.822100
2054.000000	14.878400
2053.000000	14.961100
2052.000000	15.019700
2051.000000	15.077100
2050.000000	15.152000
2049.000000	15.258100
2048.000000	15.357600
2047.000000	15.439000
2046.000000	15.566500
2045.000000	15.689300
2044.000000	15.807600
2043.000000	15.910900
2042.000000	16.012800
2041.000000	16.154700
2040.000000	16.262100
2039.000000	16.352100
2038.000000	16.453900
2037.000000	16.579900
2036.000000	16.689300
2035.000000	16.766200
2034.000000	16.854500
2033.000000	16.939400
2032.000000	17.031300
2031.000000	17.128900
2030.000000	17.203800
2029.000000	17.268800
2028.000000	17.319100
2027.000000	17.400400
2026.000000	17.460100
2025.000000	17.536300
2024.000000	17.564200
2023.000000	17.631000
2022.000000	17.668500
2021.000000	17.705600
2020.000000	17.757800
2019.000000	17.777700
2018.000000	17.832900
2017.000000	17.852900
2016.000000	17.886200
2015.000000	17.925400
2014.000000	17.933400
2013.000000	17.960600
2012.000000	17.960700
2011.000000	17.970900
2010.000000	17.971600
2009.000000	17.983000
2008.000000	17.969400
2007.000000	17.955400
2006.000000	17.939900
2005.000000	17.934600
2004.000000	17.893800
2003.000000	17.886100
2002.000000	17.836400
2001.000000	17.799200
2000.000000	17.780400
1999.000000	17.729400
1998.000000	17.694500
1997.000000	17.624700
1996.000000	17.575000
1995.000000	17.531700
1994.000000	17.462700
1993.000000	17.417100
1992.000000	17.334400
1991.000000	17.285000
1990.000000	17.208500
1989.000000	17.136700
1988.000000	17.054200
1987.000000	16.999300
1986.000000	16.899700
1985.000000	16.864600
1984.000000	16.763000
1983.000000	16.681800
1982.000000	16.604100
1981.000000	16.534600
1980.000000	16.452000
1979.000000	16.351500
1978.000000	16.288500
1977.000000	16.207100
1976.000000	16.129100
1975.000000	16.042200
1974.000000	15.967500
1973.000000	15.886000
1972.000000	15.807100
1971.000000	15.753400
1970.000000	15.660900
1969.000000	15.604500
1968.000000	15.545300
1967.000000	15.464200
1966.000000	15.366200
1965.000000	15.318800
1964.000000	15.265900
1963.000000	15.186200
1962.000000	15.122700
1961.000000	15.029900
1960.000000	14.974700
1959.000000	14.916600
1958.000000	14.836700
1957.000000	14.784300
1956.000000	14.712600
1955.000000	14.648300
1954.000000	14.579000
1953.000000	14.537100
1952.000000	14.448800
1951.000000	14.407400
1950.000000	14.347600
1949.000000	14.288900
1948.000000	14.253200
1947.000000	14.198600
1946.000000	14.177000
1945.000000	14.135800
1944.000000	14.107400
1943.000000	14.079900
1942.000000	14.030700
1941.000000	14.058000
1940.000000	14.010400
1939.000000	14.023800
1938.000000	14.058500
1937.000000	14.091600
1936.000000	14.089400
1935.000000	14.132000
1934.000000	14.150000
1933.000000	14.196300
1932.000000	14.254500
1931.000000	14.311700
1930.000000	14.369000
1929.000000	14.470600
1928.000000	14.576800
1927.000000	14.675800
1926.000000	14.810000
1925.000000	14.902400
1924.000000	14.997900
1923.000000	15.110000
1922.000000	15.265200
1921.000000	15.482500
1920.000000	15.680500
1919.000000	15.842800
1918.000000	16.001000
1917.000000	16.140000
1916.000000	16.253800
1915.000000	16.417400
1914.000000	16.688500
1913.000000	16.961300
1912.000000	17.213300
1911.000000	17.393900
1910.000000	17.575900
1909.000000	17.732600
1908.000000	17.905600
1907.000000	18.155900
1906.000000	18.475900
1905.000000	18.816900
1904.000000	19.076900
1903.000000	19.327900
1902.000000	19.581200
1901.000000	19.859000
1900.000000	20.184800
1899.000000	20.515000
1898.000000	20.825900
1897.000000	21.136300
1896.000000	21.314200
1895.000000	21.522200
1894.000000	21.779300
1893.000000	22.080000
1892.000000	22.450500
1891.000000	22.791900
1890.000000	23.125900
1889.000000	23.419000
1888.000000	23.726300
1887.000000	24.040400
1886.000000	24.419300
1885.000000	24.813300
1884.000000	25.270000
1883.000000	25.734600
1882.000000	26.174600
1881.000000	26.603900
1880.000000	26.974200
1879.000000	27.347200
1878.000000	27.741700
1877.000000	28.081600
1876.000000	28.399900
1875.000000	28.717500
1874.000000	29.018900
1873.000000	29.323100
1872.000000	29.599000
1871.000000	29.878000
1870.000000	30.158200
1869.000000	30.391800
1868.000000	30.544400
1867.000000	30.654700
1866.000000	30.703900
1865.000000	30.762400
1864.000000	30.774700
1863.000000	30.784700
1862.000000	30.833400
1861.000000	30.901300
1860.000000	30.970200
1859.000000	31.025400
1858.000000	31.075200
1857.000000	31.064400
1856.000000	31.013800
1855.000000	31.025700
1854.000000	31.043200
1853.000000	31.013400
1852.000000	30.961000
1851.000000	30.890200
1850.000000	30.814500
1849.000000	30.789800
1848.000000	30.853700
1847.000000	30.895100
1846.000000	30.833700
1845.000000	30.711500
1844.000000	30.595500
1843.000000	30.550500
1842.000000	30.576600
1841.000000	30.588200
1840.000000	30.554200
1839.000000	30.501600
1838.000000	30.447900
1837.000000	30.440100
1836.000000	30.435300
1835.000000	30.390200
1834.000000	30.294100
1833.000000	30.174800
1832.000000	30.081000
1831.000000	30.032900
1830.000000	29.987900
1829.000000	29.910900
1828.000000	29.835800
1827.000000	29.787100
1826.000000	29.739900
1825.000000	29.668000
1824.000000	29.589300
1823.000000	29.530500
1822.000000	29.519700
1821.000000	29.541100
1820.000000	29.555800
1819.000000	29.517400
1818.000000	29.457100
1817.000000	29.425100
1816.000000	29.422400
1815.000000	29.408500
1814.000000	29.371800
1813.000000	29.351400
1812.000000	29.335200
1811.000000	29.319300
1810.000000	29.273700
1809.000000	29.203600
1808.000000	29.159300
1807.000000	29.128400
1806.000000	29.082900
1805.000000	29.031000
1804.000000	28.987000
1803.000000	28.932800
1802.000000	28.888200
1801.000000	28.843100
1800.000000	28.805500
1799.000000	28.746400
1798.000000	28.683300
1797.000000	28.631700
1796.000000	28.587000
1795.000000	28.553200
1794.000000	28.490800
1793.000000	28.432200
1792.000000	28.378200
1791.000000	28.328000
1790.000000	28.264600
1789.000000	28.213600
1788.000000	28.164000
1787.000000	28.085100
1786.000000	28.019100
1785.000000	27.952200
1784.000000	27.874200
1783.000000	27.799900
1782.000000	27.717800
1781.000000	27.637900
1780.000000	27.566600
1779.000000	27.493200
1778.000000	27.400300
1777.000000	27.286300
1776.000000	27.184700
1775.000000	27.075700
1774.000000	26.959200
1773.000000	26.837400
1772.000000	26.703000
1771.000000	26.579500
1770.000000	26.457000
1769.000000	26.361900
1768.000000	26.230400
1767.000000	26.135800
1766.000000	26.043800
1765.000000	25.977000
1764.000000	25.934500
1763.000000	25.924300
1762.000000	25.943200
1761.000000	25.972200
1760.000000	26.039800
1759.000000	26.098400
1758.000000	26.151800
1757.000000	26.183900
1756.000000	26.235400
1755.000000	26.261200
1754.000000	26.261500
1753.000000	26.271500
1752.000000	26.254800
1751.000000	26.218900
1750.000000	26.165800
1749.000000	26.117200
1748.000000	26.052800
1747.000000	25.961400
1746.000000	25.854200
1745.000000	25.702300
1744.000000	25.570800
1743.000000	25.418800
1742.000000	25.221100
1741.000000	24.995600
1740.000000	24.774300
1739.000000	24.566900
1738.000000	24.386400
1737.000000	24.209400
1736.000000	24.094600
1735.000000	24.025600
1734.000000	24.016000
1733.000000	24.024900
1732.000000	24.077300
1731.000000	24.158200
1730.000000	24.289600
1729.000000	24.421800
1728.000000	24.523100
1727.000000	24.648000
1726.000000	24.756400
1725.000000	24.806700
1724.000000	24.876800
1723.000000	24.903600
1722.000000	24.970700
1721.000000	24.981100
1720.000000	25.018500
1719.000000	25.061300
1718.000000	25.107900
1717.000000	25.164900
1716.000000	25.240200
1715.000000	25.314200
1714.000000	25.385400
1713.000000	25.465400
1712.000000	25.502100
1711.000000	25.534400
1710.000000	25.557100
1709.000000	25.564900
1708.000000	25.572300
1707.000000	25.546400
1706.000000	25.499000
1705.000000	25.465800
1704.000000	25.423700
1703.000000	25.351700
1702.000000	25.237500
1701.000000	25.111800
1700.000000	24.973200
1699.000000	24.836800
1698.000000	24.700000
1697.000000	24.600100
1696.000000	24.536400
1695.000000	24.552600
1694.000000	24.593200
1693.000000	24.744100
1692.000000	24.907400
1691.000000	25.045300
1690.000000	25.187000
1689.000000	25.303500
1688.000000	25.373400
1687.000000	25.392600
1686.000000	25.425000
1685.000000	25.469700
1684.000000	25.585600
1683.000000	25.821200
1682.000000	26.145900
1681.000000	26.582400
1680.000000	27.061000
1679.000000	27.585800
1678.000000	28.074800
1677.000000	28.543200
1676.000000	28.927800
1675.000000	29.282300
1674.000000	29.593200
1673.000000	29.850400
1672.000000	30.050400
1671.000000	30.257000
1670.000000	30.424000
1669.000000	30.580700
1668.000000	30.717600
1667.000000	30.841200
1666.000000	30.931500
1665.000000	31.018000
1664.000000	31.102500
1663.000000	31.178400
1662.000000	31.232000
1661.000000	31.250900
1660.000000	31.299400
1659.000000	31.320600
1658.000000	31.355700
1657.000000	31.379000
1656.000000	31.379300
1655.000000	31.386300
1654.000000	31.383200
1653.000000	31.367800
1652.000000	31.331100
1651.000000	31.330800
1650.000000	31.290100
1649.000000	31.250600
1648.000000	31.208000
1647.000000	31.181600
1646.000000	31.133500
1645.000000	31.055500
1644.000000	31.006200
1643.000000	30.950400
1642.000000	30.904100
1641.000000	30.849200
1640.000000	30.789300
1639.000000	30.737400
1638.000000	30.671300
1637.000000	30.604100
1636.000000	30.532400
1635.000000	30.475900
1634.000000	30.399100
1633.000000	30.334500
1632.000000	30.261300
1631.000000	30.200300
1630.000000	30.116400
1629.000000	30.043700
1628.000000	29.961600
1627.000000	29.884400
1626.000000	29.795100
1625.000000	29.729300
1624.000000	29.659200
1623.000000	29.591400
1622.000000	29.513500
1621.000000	29.441800
1620.000000	29.378000
1619.000000	29.307500
1618.000000	29.234500
1617.000000	29.175500
1616.000000	29.122300
1615.000000	29.059100
1614.000000	29.001800
1613.000000	28.928800
1612.000000	28.873100
1611.000000	28.811000
1610.000000	28.743700
1609.000000	28.692700
1608.000000	28.638000
1607.000000	28.576900
1606.000000	28.518700
1605.000000	28.459400
1604.000000	28.402500
1603.000000	28.329200
1602.000000	28.279000
1601.000000	28.225800
1600.000000	28.165300
1599.000000	28.109300
1598.000000	28.055800
1597.000000	28.016200
1596.000000	27.974300
1595.000000	27.940100
1594.000000	27.893800
1593.000000	27.848400
1592.000000	27.806200
1591.000000	27.777700
1590.000000	27.756700
1589.000000	27.712600
1588.000000	27.672000
1587.000000	27.652000
1586.000000	27.618300
1585.000000	27.602700
1584.000000	27.580500
1583.000000	27.560200
1582.000000	27.551600
1581.000000	27.540000
1580.000000	27.523900
1579.000000	27.519200
1578.000000	27.520400
1577.000000	27.518600
1576.000000	27.524200
1575.000000	27.527000
1574.000000	27.544900
1573.000000	27.557800
1572.000000	27.568900
1571.000000	27.597900
1570.000000	27.620000
1569.000000	27.629000
1568.000000	27.653700
1567.000000	27.681800
1566.000000	27.717500
1565.000000	27.747200
1564.000000	27.763300
1563.000000	27.781100
1562.000000	27.801100
1561.000000	27.824800
1560.000000	27.846400
1559.000000	27.861500
1558.000000	27.870600
1557.000000	27.872600
1556.000000	27.879100
1555.000000	27.876900
1554.000000	27.861100
1553.000000	27.855300
1552.000000	27.850600
1551.000000	27.828600
1550.000000	27.783900
1549.000000	27.760600
1548.000000	27.759000
1547.000000	27.744200
1546.000000	27.732500
1545.000000	27.713400
1544.000000	27.707600
1543.000000	27.697300
1542.000000	27.686000
1541.000000	27.675200
1540.000000	27.660700
1539.000000	27.659100
1538.000000	27.642400
1537.000000	27.610300
1536.000000	27.602200
1535.000000	27.577100
1534.000000	27.552000
1533.000000	27.547100
1532.000000	27.532800
1531.000000	27.491400
1530.000000	27.462400
1529.000000	27.444400
1528.000000	27.412600
1527.000000	27.373600
1526.000000	27.334600
1525.000000	27.318400
1524.000000	27.288400
1523.000000	27.249600
1522.000000	27.216400
1521.000000	27.179500
1520.000000	27.147000
1519.000000	27.093300
1518.000000	27.057900
1517.000000	27.032800
1516.000000	26.987500
1515.000000	26.951700
1514.000000	26.911400
1513.000000	26.870300
1512.000000	26.826100
1511.000000	26.786300
1510.000000	26.757000
1509.000000	26.718100
1508.000000	26.692300
1507.000000	26.640700
1506.000000	26.599800
1505.000000	26.567500
1504.000000	26.538600
1503.000000	26.505800
1502.000000	26.475300
1501.000000	26.463300
1500.000000	26.435700
1499.000000	26.427000
1498.000000	26.412400
1497.000000	26.399500
1496.000000	26.368600
1495.000000	26.374500
1494.000000	26.381700
1493.000000	26.389000
1492.000000	26.370400
1491.000000	26.389700
1490.000000	26.403900
1489.000000	26.416200
1488.000000	26.435300
1487.000000	26.443000
1486.000000	26.464800
1485.000000	26.453700
1484.000000	26.494400
1483.000000	26.511900
1482.000000	26.551900
1481.000000	26.577800
1480.000000	26.587300
1479.000000	26.642900
1478.000000	26.672200
1477.000000	26.717700
1476.000000	26.754900
1475.000000	26.773200
1474.000000	26.828400
1473.000000	26.868600
1472.000000	26.921500
1471.000000	26.960500
1470.000000	27.024200
1469.000000	27.047300
1468.000000	27.084900
1467.000000	27.142100
1466.000000	27.203100
1465.000000	27.238400
1464.000000	27.310900
1463.000000	27.364300
1462.000000	27.451500
1461.000000	27.530200
1460.000000	27.596100
1459.000000	27.685500
1458.000000	27.763100
1457.000000	27.852000
1456.000000	27.950300
1455.000000	28.042300
1454.000000	28.132700
1453.000000	28.234100
1452.000000	28.330600
1451.000000	28.468900
1450.000000	28.581100
1449.000000	28.662100
1448.000000	28.761500
1447.000000	28.881400
1446.000000	28.995600
1445.000000	29.133000
1444.000000	29.229300
1443.000000	29.342000
1442.000000	29.471600
1441.000000	29.583800
1440.000000	29.724400
1439.000000	29.847200
1438.000000	29.993800
1437.000000	30.102600
1436.000000	30.199600
1435.000000	30.321200
1434.000000	30.451000
1433.000000	30.579100
1432.000000	30.707200
1431.000000	30.847900
1430.000000	30.951200
1429.000000	31.132600
1428.000000	31.288700
1427.000000	31.440000
1426.000000	31.623000
1425.000000	31.807300
1424.000000	32.007400
1423.000000	32.222100
1422.000000	32.393800
1421.000000	32.585100
1420.000000	32.810200
1419.000000	33.026200
1418.000000	33.220300
1417.000000	33.330500
1416.000000	33.543300
1415.000000	33.785100
1414.000000	34.035200
1413.000000	34.194600
1412.000000	34.362400
1411.000000	34.596000
1410.000000	34.863600
1409.000000	35.166900
1408.000000	35.475500
1407.000000	35.735900
1406.000000	36.048800
1405.000000	36.375500
1404.000000	36.655700
1403.000000	36.935000
1402.000000	37.214300
1401.000000	37.571800
1400.000000	37.880100
1399.000000	38.037200
1398.000000	38.130200
1397.000000	38.326200
1396.000000	38.622200
1395.000000	38.802000
1394.000000	38.868000
1393.000000	38.964600
1392.000000	39.176700
1391.000000	39.331500
1390.000000	39.435300
1389.000000	39.651400
1388.000000	39.932400
1387.000000	40.171800
1386.000000	40.443400
1385.000000	40.731900
1384.000000	41.058800
1383.000000	41.375000
1382.000000	41.640200
1381.000000	41.859700
1380.000000	41.953700
1379.000000	42.007400
1378.000000	42.045500
1377.000000	42.149100
1376.000000	42.258500
1375.000000	42.404100
1374.000000	42.581500
1373.000000	42.785800
1372.000000	43.045000
1371.000000	43.319800
1370.000000	43.519600
1369.000000	43.723400
1368.000000	43.929600
1367.000000	44.072000
1366.000000	44.208800
1365.000000	44.374300
1364.000000	44.503300
1363.000000	44.614900
1362.000000	44.738400
1361.000000	44.846000
1360.000000	44.839900
1359.000000	44.907800
1358.000000	44.982300
1357.000000	45.102200
1356.000000	45.301100
1355.000000	45.578800
1354.000000	45.870300
1353.000000	46.136000
1352.000000	46.485700
1351.000000	46.819300
1350.000000	47.085600
1349.000000	47.334300
1348.000000	47.581400
1347.000000	47.805300
1346.000000	48.015100
1345.000000	48.233500
1344.000000	48.421600
1343.000000	48.591300
1342.000000	48.768400
1341.000000	48.938300
1340.000000	49.098100
1339.000000	49.244700
1338.000000	49.393100
1337.000000	49.544900
1336.000000	49.681800
1335.000000	49.811700
1334.000000	49.927900
1333.000000	50.036900
1332.000000	50.152600
1331.000000	50.257400
1330.000000	50.341900
1329.000000	50.438100
1328.000000	50.516100
1327.000000	50.591100
1326.000000	50.672300
1325.000000	50.748500
1324.000000	50.823200
1323.000000	50.881600
1322.000000	50.938000
1321.000000	50.991700
1320.000000	51.056600
1319.000000	51.116100
1318.000000	51.163700
1317.000000	51.224200
1316.000000	51.283100
1315.000000	51.315800
1314.000000	51.353100
1313.000000	51.397500
1312.000000	51.443900
1311.000000	51.469700
1310.000000	51.504200
1309.000000	51.537000
1308.000000	51.571700
1307.000000	51.595200
1306.000000	51.604500
1305.000000	51.615700
1304.000000	51.628800
1303.000000	51.651100
1302.000000	51.673100
1301.000000	51.675000
1300.000000	51.672900
1299.000000	51.680700
1298.000000	51.687200
1297.000000	51.679600
1296.000000	51.675000
1295.000000	51.678300
1294.000000	51.677800
1293.000000	51.680500
1292.000000	51.680800
1291.000000	51.663900
1290.000000	51.643000
1289.000000	51.626000
1288.000000	51.608100
1287.000000	51.585600
1286.000000	51.548700
1285.000000	51.511300
1284.000000	51.488900
1283.000000	51.461600
1282.000000	51.428500
1281.000000	51.397800
1280.000000	51.360700
1279.000000	51.324700
1278.000000	51.308000
1277.000000	51.275400
1276.000000	51.241600
1275.000000	51.234300
1274.000000	51.221200
1273.000000	51.197500
1272.000000	51.172400
1271.000000	51.153600
1270.000000	51.126600
1269.000000	51.103600
1268.000000	51.081200
1267.000000	51.055300
1266.000000	51.025700
1265.000000	50.992900
1264.000000	50.969700
1263.000000	50.942900
1262.000000	50.897700
1261.000000	50.864000
1260.000000	50.835700
1259.000000	50.798100
1258.000000	50.750600
1257.000000	50.714300
1256.000000	50.654200
1255.000000	50.628200
1254.000000	50.580100
1253.000000	50.499500
1252.000000	50.445200
1251.000000	50.402500
1250.000000	50.326300
1249.000000	50.262500
1248.000000	50.197200
1247.000000	50.129700
1246.000000	50.054400
1245.000000	49.967600
1244.000000	49.875300
1243.000000	49.793100
1242.000000	49.703200
1241.000000	49.604200
1240.000000	49.521000
1239.000000	49.433000
1238.000000	49.351300
1237.000000	49.255600
1236.000000	49.156800
1235.000000	49.055400
1234.000000	48.960600
1233.000000	48.861300
1232.000000	48.754700
1231.000000	48.654400
1230.000000	48.559700
1229.000000	48.445300
1228.000000	48.357600
1227.000000	48.243900
1226.000000	48.146000
1225.000000	48.046700
1224.000000	47.948500
1223.000000	47.845900
1222.000000	47.747900
1221.000000	47.652800
1220.000000	47.563500
1219.000000	47.465300
1218.000000	47.388800
1217.000000	47.325600
1216.000000	47.236100
1215.000000	47.164600
1214.000000	47.111900
1213.000000	47.034100
1212.000000	46.967000
1211.000000	46.907300
1210.000000	46.849300
1209.000000	46.794500
1208.000000	46.745200
1207.000000	46.726900
1206.000000	46.710200
1205.000000	46.672500
1204.000000	46.675000
1203.000000	46.687600
1202.000000	46.665300
1201.000000	46.645000
1200.000000	46.627600
1199.000000	46.593000
1198.000000	46.543900
1197.000000	46.473000
1196.000000	46.357800
1195.000000	46.218700
1194.000000	46.024500
1193.000000	45.792500
1192.000000	45.543000
1191.000000	45.304300
1190.000000	45.059300
1189.000000	44.855200
1188.000000	44.712200
1187.000000	44.640100
1186.000000	44.643700
1185.000000	44.738900
1184.000000	44.910800
1183.000000	45.169200
1182.000000	45.452200
1181.000000	45.751700
1180.000000	46.053700
1179.000000	46.355000
1178.000000	46.593900
1177.000000	46.826600
1176.000000	47.009800
1175.000000	47.186100
1174.000000	47.380600
1173.000000	47.557700
1172.000000	47.761700
1171.000000	47.954100
1170.000000	48.126800
1169.000000	48.345000
1168.000000	48.528600
1167.000000	48.727800
1166.000000	48.911900
1165.000000	49.116500
1164.000000	49.303600
1163.000000	49.497100
1162.000000	49.687000
1161.000000	49.859500
1160.000000	50.031700
1159.000000	50.167600
1158.000000	50.332800
1157.000000	50.475000
1156.000000	50.584600
1155.000000	50.657700
1154.000000	50.695700
1153.000000	50.748600
1152.000000	50.740100
1151.000000	50.746500
1150.000000	50.738100
1149.000000	50.706100
1148.000000	50.721300
1147.000000	50.736500
1146.000000	50.799600
1145.000000	50.895700
1144.000000	51.024700
1143.000000	51.166100
1142.000000	51.303200
1141.000000	51.454800
1140.000000	51.607800
1139.000000	51.766000
1138.000000	51.937800
1137.000000	52.125500
1136.000000	52.326900
1135.000000	52.530200
1134.000000	52.705800
1133.000000	52.822000
1132.000000	52.952300
1131.000000	53.090900
1130.000000	53.223400
1129.000000	53.351000
1128.000000	53.458300
1127.000000	53.528200
1126.000000	53.603600
1125.000000	53.671800
1124.000000	53.741500
1123.000000	53.783700
1122.000000	53.853800
1121.000000	53.899700
1120.000000	53.923400
1119.000000	53.951300
1118.000000	53.996100
1117.000000	54.032100
1116.000000	54.054200
1115.000000	54.076200
1114.000000	54.084600
1113.000000	54.093800
1112.000000	54.100500
1111.000000	54.140000
1110.000000	54.173000
1109.000000	54.173200
1108.000000	54.176300
1107.000000	54.202500
1106.000000	54.203800
1105.000000	54.204800
1104.000000	54.204200
1103.000000	54.204700
1102.000000	54.206300
1101.000000	54.211200
1100.000000	54.218200
1099.000000	54.211900
1098.000000	54.201300
1097.000000	54.187700
1096.000000	54.172300
1095.000000	54.175700
1094.000000	54.183100
1093.000000	54.174300
1092.000000	54.139800
1091.000000	54.122800
1090.000000	54.115800
1089.000000	54.113900
1088.000000	54.110600
1087.000000	54.108400
1086.000000	54.120200
1085.000000	54.117400
1084.000000	54.118400
1083.000000	54.132000
1082.000000	54.135100
1081.000000	54.145400
1080.000000	54.151500
1079.000000	54.171800
1078.000000	54.190000
1077.000000	54.211600
1076.000000	54.256200
1075.000000	54.299100
1074.000000	54.326900
1073.000000	54.352800
1072.000000	54.387700
1071.000000	54.435300
1070.000000	54.472600
1069.000000	54.507100
1068.000000	54.567500
1067.000000	54.619900
1066.000000	54.652100
1065.000000	54.681300
1064.000000	54.719400
1063.000000	54.758400
1062.000000	54.800700
1061.000000	54.818900
1060.000000	54.838900
1059.000000	54.865300
1058.000000	54.877300
1057.000000	54.888800
1056.000000	54.900000
1055.000000	54.900800
1054.000000	54.905800
1053.000000	54.914400
1052.000000	54.909100
1051.000000	54.891300
1050.000000	54.874400
1049.000000	54.860700
1048.000000	54.845600
1047.000000	54.821600
1046.000000	54.802300
1045.000000	54.777900
1044.000000	54.750000
1043.000000	54.726300
1042.000000	54.695100
1041.000000	54.680000
1040.000000	54.646600
1039.000000	54.618500
1038.000000	54.606900
1037.000000	54.574200
1036.000000	54.544700
1035.000000	54.531900
1034.000000	54.521000
1033.000000	54.514700
1032.000000	54.520600
1031.000000	54.519000
1030.000000	54.520700
1029.000000	54.535700
1028.000000	54.559200
1027.000000	54.585900
1026.000000	54.609300
1025.000000	54.643200
1024.000000	54.677700
1023.000000	54.732100
1022.000000	54.797700
1021.000000	54.869400
1020.000000	54.952300
1019.000000	55.032000
1018.000000	55.120900
1017.000000	55.216200
1016.000000	55.313400
1015.000000	55.431100
1014.000000	55.544800
1013.000000	55.654400
1012.000000	55.771600
1011.000000	55.889200
1010.000000	56.006100
1009.000000	56.140700
1008.000000	56.257000
1007.000000	56.367200
1006.000000	56.493300
1005.000000	56.577800
1004.000000	56.671700
1003.000000	56.755400
1002.000000	56.835900
1001.000000	56.917600
1000.000000	56.992000
999.000000	57.049600
998.000000	57.079200
997.000000	57.143000
996.000000	57.210900
995.000000	57.245400
994.000000	57.277000
993.000000	57.332200
992.000000	57.377400
991.000000	57.385700
990.000000	57.425600
989.000000	57.444000
988.000000	57.469600
987.000000	57.500400
986.000000	57.518400
985.000000	57.539700
984.000000	57.584100
983.000000	57.619000
982.000000	57.628300
981.000000	57.630800
980.000000	57.691600
979.000000	57.748000
978.000000	57.783600
977.000000	57.800700
976.000000	57.858500
975.000000	57.896500
974.000000	57.964200
973.000000	58.017700
972.000000	58.094100
971.000000	58.137200
970.000000	58.213400
969.000000	58.252100
968.000000	58.313600
967.000000	58.396300
966.000000	58.454100
965.000000	58.534900
964.000000	58.589700
963.000000	58.630400
962.000000	58.720900
961.000000	58.766100
960.000000	58.868800
959.000000	58.928200
958.000000	58.963600
957.000000	59.044700
956.000000	59.106700
955.000000	59.178400
954.000000	59.278700
953.000000	59.322800
952.000000	59.378500
951.000000	59.467200
950.000000	59.568600
949.000000	59.611300
948.000000	59.686200
947.000000	59.745600
946.000000	59.795300
945.000000	59.925800
944.000000	60.003500
943.000000	60.118100
942.000000	60.166100
941.000000	60.194900
940.000000	60.253300
939.000000	60.303200
938.000000	60.415900
937.000000	60.467800
936.000000	60.566700
935.000000	60.635700
934.000000	60.710800
933.000000	60.851000
932.000000	60.905900
931.000000	60.944800
930.000000	60.995900
929.000000	61.116100
928.000000	61.193500
927.000000	61.221400
926.000000	61.322900
925.000000	61.379600
924.000000	61.420200
923.000000	61.448300
922.000000	61.462200
921.000000	61.464100
920.000000	61.540600
919.000000	61.525800
918.000000	61.657700
917.000000	61.662500
916.000000	61.587800
915.000000	61.575000
914.000000	61.550300
913.000000	61.493400
912.000000	61.438000
911.000000	61.402500
910.000000	61.341600
909.000000	61.291000
908.000000	61.250300
907.000000	61.189400
906.000000	61.110700
905.000000	61.041400
904.000000	60.992800
903.000000	60.927700
902.000000	60.872100
901.000000	60.812100
900.000000	60.602200
899.000000	60.524700
898.000000	60.431800
897.000000	60.377500
896.000000	60.316700
895.000000	60.240200
894.000000	60.128600
893.000000	60.040700
892.000000	59.806300
891.000000	59.758700
890.000000	59.675900
889.000000	59.520800
888.000000	59.310500
887.000000	59.269000
886.000000	59.193600
885.000000	59.099000
884.000000	58.871500
883.000000	58.732400
882.000000	58.508000
881.000000	58.448000
880.000000	58.306100
879.000000	58.080600
878.000000	57.962700
877.000000	57.721300
876.000000	57.600600
875.000000	57.361600
874.000000	57.223600
873.000000	56.986100
872.000000	56.836700
871.000000	56.598500
870.000000	56.309600
869.000000	56.143300
868.000000	55.827300
867.000000	55.505500
866.000000	55.250500
865.000000	55.232700
864.000000	55.356200
863.000000	55.575700
862.000000	55.733900
861.000000	55.921900
860.000000	56.077600
859.000000	56.217300
858.000000	58.674800
857.000000	56.624980
856.000000	56.989306
855.000000	57.130687
854.000000	57.048339
853.000000	57.357635
852.000000	57.195765
851.000000	57.286827
850.000000	57.708773
849.000000	57.689226
848.000000	57.708930
847.000000	57.977640
846.000000	57.920491
845.000000	57.941687
844.000000	58.061323
843.000000	58.341024
842.000000	58.429495
841.000000	58.435775
840.000000	58.757239
839.000000	58.663351
838.000000	58.906785
837.000000	59.021790
836.000000	59.039531
835.000000	59.205876
834.000000	59.160973
833.000000	59.437455
832.000000	59.569730
831.000000	59.365705
830.000000	59.351889
829.000000	59.615104
828.000000	59.842602
827.000000	59.965300
826.000000	59.993482
825.000000	59.960511
824.000000	60.103620
823.000000	60.241233
822.000000	60.451224
821.000000	60.490475
820.000000	60.575178
819.000000	60.693245
818.000000	60.870972
817.000000	60.967529
816.000000	60.958894
815.000000	61.041321
814.000000	61.191573
813.000000	61.256415
812.000000	61.330049
811.000000	61.489957
810.000000	61.575602
809.000000	61.761337
808.000000	61.739985
807.000000	61.922108
806.000000	62.131629
805.000000	62.130294
804.000000	62.230776
803.000000	62.214369
802.000000	62.380950
801.000000	62.548080
800.000000	62.541407
799.000000	62.595181
798.000000	62.742685
797.000000	62.887285
796.000000	62.866717
795.000000	62.953854
794.000000	63.042168
793.000000	63.176092
792.000000	63.134879
791.000000	63.234968
790.000000	63.298476
789.000000	63.292981
788.000000	63.359786
787.000000	63.461602
786.000000	63.511451
785.000000	63.441584
784.000000	63.555098
783.000000	63.509881
782.000000	63.437188
781.000000	63.499676
780.000000	63.470865
779.000000	63.492218
778.000000	63.494573
777.000000	63.565146
776.000000	63.650948
775.000000	63.604318
774.000000	63.486880
773.000000	63.473849
772.000000	63.527151
771.000000	63.529585
770.000000	63.472985
769.000000	63.415286
768.000000	63.324303
767.000000	63.210240
766.000000	63.227825
765.000000	63.194069
764.000000	63.043032
763.000000	62.955424
762.000000	62.846150
761.000000	62.729968
760.000000	62.717172
759.000000	62.612529
758.000000	62.442966
757.000000	62.266181
756.000000	62.108000
755.000000	62.014191
754.000000	61.901384
753.000000	61.838269
752.000000	61.694846
751.000000	61.502831
750.000000	61.369457
749.000000	61.251862
748.000000	61.092111
747.000000	60.897741
746.000000	60.796396
745.000000	60.665926
744.000000	60.474461
743.000000	60.340773
742.000000	60.241311
741.000000	60.131095
740.000000	59.981785
739.000000	59.897317
738.000000	59.762059
737.000000	59.571615
736.000000	59.501199
735.000000	59.403307
734.000000	59.252584
733.000000	59.159717
732.000000	59.082314
731.000000	59.076427
730.000000	58.995335
729.000000	58.911338
728.000000	58.892419
727.000000	58.869261
726.000000	58.766895
725.000000	58.739498
724.000000	58.777414
723.000000	58.706763
722.000000	58.663037
721.000000	58.650163
720.000000	58.659348
719.000000	58.727487
718.000000	58.736358
717.000000	58.752058
716.000000	58.747348
715.000000	58.789582
714.000000	58.864158
713.000000	58.848772
712.000000	58.861097
711.000000	58.937008
710.000000	58.979556
709.000000	58.972177
708.000000	58.998553
707.000000	59.033251
706.000000	59.025636
705.000000	59.001458
704.000000	59.049108
703.000000	59.010014
702.000000	58.957968
701.000000	58.908669
700.000000	58.912515
699.000000	58.795234
698.000000	58.699541
697.000000	58.598117
696.000000	58.528878
695.000000	58.439936
694.000000	58.323675
693.000000	58.198151
692.000000	58.063678
691.000000	57.890190
690.000000	57.755716
689.000000	57.636237
688.000000	57.400340
687.000000	57.213114
686.000000	57.008539
685.000000	56.745166
684.000000	56.477162
683.000000	56.225172
682.000000	55.965017
681.000000	55.655250
680.000000	55.362361
679.000000	55.052201
678.000000	54.702084
677.000000	54.291521
676.000000	53.926567
675.000000	53.466705
674.000000	53.055279
673.000000	52.584034
672.000000	52.123936
671.000000	51.615796
670.000000	51.104750
669.000000	50.614744
668.000000	50.068844
667.000000	49.604821
666.000000	49.118896
665.000000	48.602199
664.000000	48.132289
663.000000	47.645972
662.000000	47.179358
661.000000	46.755764
660.000000	46.280908
659.000000	45.843654
658.000000	45.455543
657.000000	45.109822
656.000000	44.753974
655.000000	44.447897
654.000000	44.169844
653.000000	43.901918
652.000000	43.664137
651.000000	43.453674
650.000000	43.201763
649.000000	43.074276
648.000000	43.021209
647.000000	42.918686
646.000000	42.846308
645.000000	42.850390
644.000000	42.905184
643.000000	42.948281
642.000000	43.080871
641.000000	43.248314
640.000000	43.491826
639.000000	43.755356
638.000000	44.023910
637.000000	44.360289
636.000000	44.717628
635.000000	45.134079
634.000000	45.584913
633.000000	46.041871
632.000000	46.575917
631.000000	47.062313
630.000000	47.552869
629.000000	48.086679
628.000000	48.570171
627.000000	49.082315
626.000000	49.598855
625.000000	50.111470
624.000000	50.596296
623.000000	51.074213
622.000000	51.547421
621.000000	52.032089
620.000000	52.484101
619.000000	52.956445
618.000000	53.454067
617.000000	53.926175
616.000000	54.352674
615.000000	54.824468
614.000000	55.240448
613.000000	55.649127
612.000000	56.133403
611.000000	56.617836
610.000000	57.062783
609.000000	57.525785
608.000000	57.948281
607.000000	58.384043
606.000000	58.721364
605.000000	59.158225
604.000000	59.526712
603.000000	59.869449
602.000000	60.248690
601.000000	60.590957
600.000000	60.888871
599.000000	61.230666
598.000000	61.476062
597.000000	61.747756
596.000000	61.961987
595.000000	62.163108
594.000000	62.319640
593.000000	62.488811
592.000000	62.647227
591.000000	62.801012
590.000000	62.916173
589.000000	62.962411
588.000000	63.017676
587.000000	63.080399
586.000000	63.167457
585.000000	63.152620
584.000000	63.174444
583.000000	63.183628
582.000000	63.190065
581.000000	63.170361
580.000000	63.135899
579.000000	63.094607
578.000000	63.093037
577.000000	63.040284
576.000000	62.979760
575.000000	62.898589
574.000000	62.782014
573.000000	62.631370
572.000000	62.551612
571.000000	62.432761
570.000000	62.312025
569.000000	62.172921
568.000000	62.023375
567.000000	61.888510
566.000000	61.725933
565.000000	61.608651
564.000000	61.400701
563.000000	61.196440
562.000000	61.020910
561.000000	60.802990
560.000000	60.641591
559.000000	60.463235
558.000000	60.188401
557.000000	60.014206
556.000000	59.743140
555.000000	59.493741
554.000000	59.188684
553.000000	58.841158
552.000000	58.483426
551.000000	58.086130
550.000000	57.657590
549.000000	57.205735
548.000000	56.688802
547.000000	56.190631
546.000000	55.631464
545.000000	55.037443
544.000000	54.445620
543.000000	53.799316
542.000000	53.177035
541.000000	52.503177
540.000000	51.836149
539.000000	51.125082
538.000000	50.443924
537.000000	49.763708
536.000000	49.079175
535.000000	48.390245
534.000000	47.693936
533.000000	46.979415
532.000000	46.295745
531.000000	45.608621
530.000000	44.909172
529.000000	44.222676
528.000000	43.542931
527.000000	42.887600
526.000000	42.239726
525.000000	41.572306
524.000000	40.928672
523.000000	40.291396
522.000000	39.663776
521.000000	39.055939
520.000000	38.459641
519.000000	37.877159
518.000000	37.310378
517.000000	36.779864
516.000000	36.226036
515.000000	35.694266
514.000000	35.143578
513.000000	34.610238
512.000000	34.083807
511.000000	33.549918
510.000000	33.024271
509.000000	32.471620
508.000000	31.920068
507.000000	31.390732
506.000000	30.839494
505.000000	30.272556
504.000000	29.707580
503.000000	29.137424
502.000000	28.562007
501.000000	27.980546
500.000000	27.391156
499.000000	26.801531
498.000000	26.220384
497.000000	25.648108
496.000000	25.102286
495.000000	24.543983
494.000000	23.982619
493.000000	23.425964
492.000000	22.890819
491.000000	22.367371
490.000000	21.863626
489.000000	21.400388
488.000000	20.949005
487.000000	20.527059
486.000000	20.116574
485.000000	19.744006
484.000000	19.403466
483.000000	19.080039
482.000000	18.807639
481.000000	18.564912
480.000000	18.347384
479.000000	18.151680
478.000000	17.988475
477.000000	17.862873
476.000000	17.769377
475.000000	17.706027
474.000000	17.649898
473.000000	17.619753
472.000000	17.613787
471.000000	17.623129
470.000000	17.660967
469.000000	17.692289
468.000000	17.723375
467.000000	17.789866
466.000000	17.864914
465.000000	17.925517
464.000000	18.011162
463.000000	18.099476
462.000000	18.170285
461.000000	18.267705
460.000000	18.345265
459.000000	18.406261
458.000000	18.472908
457.000000	18.538536
456.000000	18.610208
455.000000	18.655424
454.000000	18.684941
453.000000	18.709198
452.000000	18.727803
451.000000	18.737302
450.000000	18.728823
449.000000	18.702761
448.000000	18.659742
447.000000	18.628969
446.000000	18.585087
445.000000	18.501012
444.000000	18.424787
443.000000	18.344480
442.000000	18.222096
441.000000	18.082520
440.000000	17.950323
439.000000	17.805724
438.000000	17.650683
437.000000	17.504199
436.000000	17.337619
435.000000	17.156437
434.000000	16.964187
433.000000	16.766363
432.000000	16.548050
431.000000	16.322829
430.000000	16.106557
429.000000	15.866264
428.000000	15.629503
427.000000	15.408914
426.000000	15.143657
425.000000	14.877537
424.000000	14.617540
423.000000	14.341371
422.000000	14.078941
421.000000	13.796021
420.000000	13.496930
419.000000	13.217621
418.000000	12.946320
417.000000	12.656021
416.000000	12.359835
415.000000	12.078407
414.000000	11.791955
413.000000	11.504717
412.000000	11.224624
411.000000	10.946650
410.000000	10.673386
409.000000	10.398159
408.000000	10.132039
407.000000	9.871728
406.000000	9.619503
405.000000	9.385097
404.000000	9.143940
403.000000	8.916364
402.000000	8.690437
401.000000	8.457208
400.000000	8.253654
399.000000	8.072080
398.000000	7.890741
397.000000	7.714819
396.000000	7.520842
395.000000	7.366822
394.000000	7.205109
393.000000	7.040255
392.000000	6.904369
391.000000	6.773586
390.000000	6.652458
389.000000	6.529917
388.000000	6.420407
387.000000	6.315607
386.000000	6.204920
385.000000	6.099964
384.000000	6.016752
383.000000	5.952224
382.000000	5.857237
381.000000	5.759031
380.000000	5.706671
379.000000	5.654781
378.000000	5.590567
377.000000	5.534438
376.000000	5.621575
375.000000	5.311337
374.000000	5.144364
373.000000	5.112964
372.000000	5.085095
371.000000	5.085723
370.000000	5.053145
369.000000	5.152685
368.000000	5.160849
367.000000	5.015386
366.000000	4.979668
365.000000	5.113042
364.000000	5.074890
363.000000	5.070887
362.000000	5.075440
361.000000	5.055579
360.000000	4.934451
359.000000	4.894023
358.000000	4.980924
357.000000	5.021823
356.000000	4.895750
355.000000	4.829887
354.000000	4.900695
353.000000	4.930526
352.000000	4.750993
351.000000	4.762454
350.000000	4.794326
349.000000	4.624841
348.000000	4.696827
347.000000	4.738668
346.000000	4.658126
345.000000	4.781765
344.000000	4.491545
343.000000	4.592812
342.000000	4.724852
341.000000	4.678850
340.000000	4.548930
339.000000	4.490368
338.000000	4.709937
337.000000	4.688427
336.000000	4.791186
335.000000	4.614322
334.000000	4.683246
333.000000	4.582293
332.000000	4.504105
331.000000	4.504105
330.000000	4.653965
329.000000	4.439891
328.000000	4.719828
327.000000	4.619895
326.000000	4.728620
325.000000	4.706639
324.000000	4.727599
323.000000	5.227811
322.000000	4.890883
321.000000	5.145620
320.000000	5.169249
319.000000	5.235818
318.000000	4.947325
317.000000	5.266513
316.000000	4.461479
315.000000	4.402132
314.000000	4.397579
313.000000	4.378189
312.000000	4.429843
311.000000	4.436673
310.000000	4.360526
309.000000	4.447977
308.000000	4.464619
307.000000	4.440598
306.000000	4.456534
305.000000	4.408491
304.000000	4.515410
303.000000	4.426232
302.000000	4.412494
301.000000	4.446250
300.000000	4.476080
299.000000	4.446956
298.000000	4.447584
297.000000	4.441697
296.000000	4.443345
295.000000	4.427174
294.000000	4.464933
293.000000	4.464776
292.000000	4.440833
291.000000	4.469015
290.000000	4.494685
289.000000	4.426153
288.000000	4.468623
287.000000	4.476394
286.000000	4.469957
285.000000	4.539824
284.000000	4.481261
283.000000	4.418931
282.000000	4.468544
281.000000	4.413672
280.000000	4.463756
279.000000	4.473490
278.000000	4.467131
277.000000	4.513761
276.000000	4.453079
275.000000	4.480319
274.000000	4.488484
273.000000	4.488405
272.000000	4.512741
271.000000	4.486207
270.000000	4.480476
269.000000	4.544691
268.000000	4.555681
267.000000	4.566200
266.000000	4.554503
265.000000	4.581979
264.000000	4.579781
263.000000	4.629865
262.000000	4.652866
261.000000	4.641562
260.000000	4.644859
259.000000	4.715589
258.000000	4.670136
257.000000	4.667075
256.000000	4.693059
255.000000	4.761434
254.000000	4.774308
253.000000	4.769912
252.000000	4.737883
251.000000	4.761512
250.000000	4.755624
