PE UV       SUBTECH     SPECTRUM    ASCII       PEDS        4.00        
   -1
CICIMAUCR0141-2.Sample.ASC
24/04/19
15:59:52.00
24/04/19
15:59:52.00
Vinicio Soto Monge
C. kalinini
250,000000
1
Lambda 1050
1050L1511233
PerkinElmer UV WinLab 6.3.2.0749 / 2.02.05 Lambda 900 UV/VIS/NIR, Aug  7 2015 09:38:08

0
0
3350/servo 860,8/2
0
0
UV/VIS
1
1
1
DoubleDePol,CommonBeamDepol,RBeamAtt,SBeamAtt,60mm sphere, WB InGaAs Detector
0
0
0
0
Program
Program
3350/servo 860,8/2
3350/0,2 860,8/0,2
3350/0,2 860,8/0,2
0
15.00
 
 
 
0
 
860,8
319,2
860,8
Front
100
on
S:100 R:100
0
0
0
0
 
0
 
 
 
0
 
 
0
0
0
0
0
 
 
 
 
0
0


0
0
#HDR
-1
-1
#GR
nm
%R
1.0
0.0
2500,000000
-1,000000
2251
8
99,178200
5,799400
#DATA
2500.000000	10.284600
2499.000000	10.299700
2498.000000	10.211200
2497.000000	10.289800
2496.000000	10.246700
2495.000000	10.277000
2494.000000	10.176700
2493.000000	10.288200
2492.000000	10.167300
2491.000000	10.150600
2490.000000	10.213400
2489.000000	10.145200
2488.000000	10.212500
2487.000000	10.221500
2486.000000	10.165100
2485.000000	10.152300
2484.000000	10.129900
2483.000000	10.178500
2482.000000	10.203500
2481.000000	10.182800
2480.000000	10.207900
2479.000000	10.223900
2478.000000	10.211700
2477.000000	10.229900
2476.000000	10.249400
2475.000000	10.306200
2474.000000	10.352000
2473.000000	10.371000
2472.000000	10.345500
2471.000000	10.412900
2470.000000	10.420700
2469.000000	10.497700
2468.000000	10.515500
2467.000000	10.546400
2466.000000	10.626500
2465.000000	10.629100
2464.000000	10.683800
2463.000000	10.725700
2462.000000	10.799800
2461.000000	10.851800
2460.000000	10.930900
2459.000000	10.984100
2458.000000	11.028700
2457.000000	11.091500
2456.000000	11.176500
2455.000000	11.240400
2454.000000	11.338100
2453.000000	11.431700
2452.000000	11.501700
2451.000000	11.589400
2450.000000	11.670800
2449.000000	11.768300
2448.000000	11.849100
2447.000000	11.945200
2446.000000	12.048500
2445.000000	12.126500
2444.000000	12.242600
2443.000000	12.329200
2442.000000	12.425200
2441.000000	12.515600
2440.000000	12.616000
2439.000000	12.728600
2438.000000	12.831400
2437.000000	12.925500
2436.000000	13.006200
2435.000000	13.127400
2434.000000	13.219300
2433.000000	13.317600
2432.000000	13.421400
2431.000000	13.492900
2430.000000	13.571100
2429.000000	13.665100
2428.000000	13.753300
2427.000000	13.830900
2426.000000	13.924300
2425.000000	14.015300
2424.000000	14.084300
2423.000000	14.147600
2422.000000	14.230100
2421.000000	14.302600
2420.000000	14.363800
2419.000000	14.434000
2418.000000	14.487600
2417.000000	14.549500
2416.000000	14.588100
2415.000000	14.648700
2414.000000	14.696700
2413.000000	14.756000
2412.000000	14.786200
2411.000000	14.824600
2410.000000	14.869700
2409.000000	14.888300
2408.000000	14.917900
2407.000000	14.958800
2406.000000	14.990200
2405.000000	15.011900
2404.000000	15.039700
2403.000000	15.069400
2402.000000	15.094900
2401.000000	15.108600
2400.000000	15.129300
2399.000000	15.145000
2398.000000	15.153600
2397.000000	15.172700
2396.000000	15.194800
2395.000000	15.215800
2394.000000	15.216800
2393.000000	15.226700
2392.000000	15.230500
2391.000000	15.250900
2390.000000	15.266900
2389.000000	15.278700
2388.000000	15.282900
2387.000000	15.282400
2386.000000	15.283800
2385.000000	15.283500
2384.000000	15.274700
2383.000000	15.271100
2382.000000	15.262400
2381.000000	15.244200
2380.000000	15.229900
2379.000000	15.223000
2378.000000	15.208300
2377.000000	15.182000
2376.000000	15.162400
2375.000000	15.148900
2374.000000	15.126300
2373.000000	15.110300
2372.000000	15.106800
2371.000000	15.096400
2370.000000	15.071100
2369.000000	15.054600
2368.000000	15.054500
2367.000000	15.053400
2366.000000	15.035800
2365.000000	15.027700
2364.000000	15.036400
2363.000000	15.033300
2362.000000	15.011100
2361.000000	15.007900
2360.000000	15.000500
2359.000000	14.981800
2358.000000	14.972600
2357.000000	14.963800
2356.000000	14.941500
2355.000000	14.925500
2354.000000	14.911000
2353.000000	14.877300
2352.000000	14.857200
2351.000000	14.834700
2350.000000	14.800100
2349.000000	14.786500
2348.000000	14.768800
2347.000000	14.745800
2346.000000	14.721600
2345.000000	14.704200
2344.000000	14.686200
2343.000000	14.659000
2342.000000	14.631900
2341.000000	14.613700
2340.000000	14.606700
2339.000000	14.581500
2338.000000	14.569400
2337.000000	14.569800
2336.000000	14.550000
2335.000000	14.544400
2334.000000	14.555600
2333.000000	14.568000
2332.000000	14.573700
2331.000000	14.582700
2330.000000	14.592200
2329.000000	14.620500
2328.000000	14.640600
2327.000000	14.652300
2326.000000	14.672800
2325.000000	14.701300
2324.000000	14.720900
2323.000000	14.744100
2322.000000	14.756200
2321.000000	14.760000
2320.000000	14.764000
2319.000000	14.771000
2318.000000	14.759600
2317.000000	14.735900
2316.000000	14.721500
2315.000000	14.715500
2314.000000	14.702200
2313.000000	14.667500
2312.000000	14.646100
2311.000000	14.610900
2310.000000	14.577200
2309.000000	14.550800
2308.000000	14.508500
2307.000000	14.485600
2306.000000	14.466500
2305.000000	14.431800
2304.000000	14.412000
2303.000000	14.395800
2302.000000	14.385700
2301.000000	14.364100
2300.000000	14.367100
2299.000000	14.377100
2298.000000	14.382800
2297.000000	14.387900
2296.000000	14.409900
2295.000000	14.415500
2294.000000	14.430200
2293.000000	14.442400
2292.000000	14.455600
2291.000000	14.504000
2290.000000	14.533100
2289.000000	14.558700
2288.000000	14.583800
2287.000000	14.624300
2286.000000	14.648400
2285.000000	14.688200
2284.000000	14.749600
2283.000000	14.748600
2282.000000	14.780600
2281.000000	14.830900
2280.000000	14.860300
2279.000000	14.883100
2278.000000	14.932200
2277.000000	14.963700
2276.000000	15.008900
2275.000000	15.018200
2274.000000	15.041600
2273.000000	15.065400
2272.000000	15.067600
2271.000000	15.102000
2270.000000	15.124400
2269.000000	15.163200
2268.000000	15.193300
2267.000000	15.233900
2266.000000	15.292000
2265.000000	15.364700
2264.000000	15.430800
2263.000000	15.507400
2262.000000	15.598600
2261.000000	15.703200
2260.000000	15.819100
2259.000000	15.929000
2258.000000	16.043200
2257.000000	16.190900
2256.000000	16.323900
2255.000000	16.491600
2254.000000	16.630900
2253.000000	16.775600
2252.000000	16.936600
2251.000000	17.106100
2250.000000	17.237300
2249.000000	17.368700
2248.000000	17.516300
2247.000000	17.632200
2246.000000	17.784400
2245.000000	17.882500
2244.000000	17.978800
2243.000000	18.065500
2242.000000	18.161300
2241.000000	18.255200
2240.000000	18.325300
2239.000000	18.361200
2238.000000	18.412600
2237.000000	18.435400
2236.000000	18.477400
2235.000000	18.481100
2234.000000	18.505400
2233.000000	18.490800
2232.000000	18.487500
2231.000000	18.462100
2230.000000	18.454000
2229.000000	18.419400
2228.000000	18.371100
2227.000000	18.335600
2226.000000	18.284000
2225.000000	18.242900
2224.000000	18.197600
2223.000000	18.118000
2222.000000	18.035700
2221.000000	17.968000
2220.000000	17.911000
2219.000000	17.838500
2218.000000	17.740100
2217.000000	17.644300
2216.000000	17.567500
2215.000000	17.501700
2214.000000	17.422800
2213.000000	17.343900
2212.000000	17.286700
2211.000000	17.210000
2210.000000	17.113600
2209.000000	17.053700
2208.000000	17.028100
2207.000000	16.958300
2206.000000	16.871700
2205.000000	16.820400
2204.000000	16.768800
2203.000000	16.700100
2202.000000	16.656300
2201.000000	16.616300
2200.000000	16.575900
2199.000000	16.520500
2198.000000	16.464400
2197.000000	16.436600
2196.000000	16.406800
2195.000000	16.371700
2194.000000	16.332300
2193.000000	16.290800
2192.000000	16.265200
2191.000000	16.227100
2190.000000	16.195100
2189.000000	16.163100
2188.000000	16.145400
2187.000000	16.121100
2186.000000	16.079700
2185.000000	16.060200
2184.000000	16.026000
2183.000000	16.005800
2182.000000	15.965500
2181.000000	15.932000
2180.000000	15.902500
2179.000000	15.875200
2178.000000	15.863600
2177.000000	15.841000
2176.000000	15.808400
2175.000000	15.799500
2174.000000	15.799300
2173.000000	15.787200
2172.000000	15.790500
2171.000000	15.789600
2170.000000	15.786900
2169.000000	15.798100
2168.000000	15.830900
2167.000000	15.843200
2166.000000	15.856200
2165.000000	15.881100
2164.000000	15.905300
2163.000000	15.936700
2162.000000	16.000000
2161.000000	16.053500
2160.000000	16.070100
2159.000000	16.125600
2158.000000	16.196100
2157.000000	16.272700
2156.000000	16.339900
2155.000000	16.408200
2154.000000	16.494100
2153.000000	16.579700
2152.000000	16.671000
2151.000000	16.755800
2150.000000	16.853700
2149.000000	16.947500
2148.000000	17.032500
2147.000000	17.135300
2146.000000	17.237100
2145.000000	17.334600
2144.000000	17.422200
2143.000000	17.512400
2142.000000	17.617000
2141.000000	17.698400
2140.000000	17.778000
2139.000000	17.876500
2138.000000	17.966900
2137.000000	18.047500
2136.000000	18.123900
2135.000000	18.201800
2134.000000	18.289900
2133.000000	18.375600
2132.000000	18.451800
2131.000000	18.510900
2130.000000	18.568100
2129.000000	18.630000
2128.000000	18.681300
2127.000000	18.747800
2126.000000	18.801500
2125.000000	18.845200
2124.000000	18.887500
2123.000000	18.943200
2122.000000	18.997400
2121.000000	19.031800
2120.000000	19.070400
2119.000000	19.097300
2118.000000	19.124300
2117.000000	19.160200
2116.000000	19.186400
2115.000000	19.219200
2114.000000	19.234200
2113.000000	19.251400
2112.000000	19.269600
2111.000000	19.276900
2110.000000	19.294700
2109.000000	19.312500
2108.000000	19.319600
2107.000000	19.321500
2106.000000	19.337600
2105.000000	19.347600
2104.000000	19.356400
2103.000000	19.365400
2102.000000	19.366400
2101.000000	19.385600
2100.000000	19.397900
2099.000000	19.411700
2098.000000	19.431800
2097.000000	19.436900
2096.000000	19.447300
2095.000000	19.474600
2094.000000	19.510400
2093.000000	19.533100
2092.000000	19.558900
2091.000000	19.594500
2090.000000	19.617300
2089.000000	19.630000
2088.000000	19.655500
2087.000000	19.676700
2086.000000	19.691000
2085.000000	19.715700
2084.000000	19.713300
2083.000000	19.714400
2082.000000	19.704000
2081.000000	19.683300
2080.000000	19.650700
2079.000000	19.610000
2078.000000	19.583400
2077.000000	19.547000
2076.000000	19.505500
2075.000000	19.432100
2074.000000	19.362200
2073.000000	19.292900
2072.000000	19.216600
2071.000000	19.116900
2070.000000	19.031900
2069.000000	18.940300
2068.000000	18.839700
2067.000000	18.742500
2066.000000	18.635400
2065.000000	18.525200
2064.000000	18.404800
2063.000000	18.294700
2062.000000	18.198500
2061.000000	18.096200
2060.000000	18.007500
2059.000000	17.926300
2058.000000	17.863000
2057.000000	17.796000
2056.000000	17.735300
2055.000000	17.702200
2054.000000	17.681000
2053.000000	17.666800
2052.000000	17.681900
2051.000000	17.743700
2050.000000	17.789600
2049.000000	17.845600
2048.000000	17.942800
2047.000000	18.045900
2046.000000	18.154000
2045.000000	18.273800
2044.000000	18.393600
2043.000000	18.528000
2042.000000	18.668300
2041.000000	18.808900
2040.000000	18.911800
2039.000000	19.026500
2038.000000	19.153500
2037.000000	19.269600
2036.000000	19.379100
2035.000000	19.505700
2034.000000	19.593800
2033.000000	19.684900
2032.000000	19.776200
2031.000000	19.853300
2030.000000	19.938700
2029.000000	20.027400
2028.000000	20.102600
2027.000000	20.159200
2026.000000	20.229800
2025.000000	20.281100
2024.000000	20.332300
2023.000000	20.399100
2022.000000	20.438500
2021.000000	20.492800
2020.000000	20.528800
2019.000000	20.573800
2018.000000	20.612500
2017.000000	20.649100
2016.000000	20.661100
2015.000000	20.670500
2014.000000	20.681200
2013.000000	20.689400
2012.000000	20.707700
2011.000000	20.700600
2010.000000	20.696100
2009.000000	20.689800
2008.000000	20.663500
2007.000000	20.628200
2006.000000	20.601300
2005.000000	20.562300
2004.000000	20.533700
2003.000000	20.476700
2002.000000	20.394000
2001.000000	20.353900
2000.000000	20.301200
1999.000000	20.242300
1998.000000	20.178500
1997.000000	20.103300
1996.000000	20.023200
1995.000000	19.946100
1994.000000	19.863800
1993.000000	19.785600
1992.000000	19.707200
1991.000000	19.596800
1990.000000	19.502500
1989.000000	19.406500
1988.000000	19.304900
1987.000000	19.210100
1986.000000	19.115800
1985.000000	19.014600
1984.000000	18.920100
1983.000000	18.810000
1982.000000	18.721800
1981.000000	18.612200
1980.000000	18.519400
1979.000000	18.410100
1978.000000	18.311000
1977.000000	18.228600
1976.000000	18.125900
1975.000000	18.032400
1974.000000	17.932500
1973.000000	17.836900
1972.000000	17.736200
1971.000000	17.648300
1970.000000	17.548600
1969.000000	17.464000
1968.000000	17.385800
1967.000000	17.291100
1966.000000	17.223400
1965.000000	17.122900
1964.000000	17.034100
1963.000000	16.959800
1962.000000	16.858300
1961.000000	16.772700
1960.000000	16.672600
1959.000000	16.597400
1958.000000	16.514400
1957.000000	16.422400
1956.000000	16.348800
1955.000000	16.251800
1954.000000	16.153800
1953.000000	16.066200
1952.000000	16.000500
1951.000000	15.924700
1950.000000	15.824900
1949.000000	15.769400
1948.000000	15.711900
1947.000000	15.647600
1946.000000	15.598800
1945.000000	15.531500
1944.000000	15.480200
1943.000000	15.423200
1942.000000	15.405200
1941.000000	15.395000
1940.000000	15.372800
1939.000000	15.354800
1938.000000	15.313800
1937.000000	15.276200
1936.000000	15.290600
1935.000000	15.304800
1934.000000	15.333100
1933.000000	15.356900
1932.000000	15.408000
1931.000000	15.456600
1930.000000	15.514400
1929.000000	15.570600
1928.000000	15.644100
1927.000000	15.720500
1926.000000	15.811000
1925.000000	15.920100
1924.000000	16.048300
1923.000000	16.182100
1922.000000	16.314700
1921.000000	16.465600
1920.000000	16.607000
1919.000000	16.781500
1918.000000	16.969100
1917.000000	17.182700
1916.000000	17.404200
1915.000000	17.652200
1914.000000	17.907700
1913.000000	18.200600
1912.000000	18.472500
1911.000000	18.751000
1910.000000	19.071200
1909.000000	19.408800
1908.000000	19.779500
1907.000000	20.177600
1906.000000	20.653100
1905.000000	21.124200
1904.000000	21.575000
1903.000000	22.057800
1902.000000	22.576200
1901.000000	23.121700
1900.000000	23.706500
1899.000000	24.283400
1898.000000	24.876900
1897.000000	25.505800
1896.000000	26.087200
1895.000000	26.675200
1894.000000	27.301900
1893.000000	27.956800
1892.000000	28.640100
1891.000000	29.300000
1890.000000	29.907200
1889.000000	30.484500
1888.000000	31.094500
1887.000000	31.662900
1886.000000	32.214100
1885.000000	32.754600
1884.000000	33.301400
1883.000000	33.800300
1882.000000	34.230900
1881.000000	34.681300
1880.000000	35.091500
1879.000000	35.482700
1878.000000	35.862100
1877.000000	36.220700
1876.000000	36.550800
1875.000000	36.866900
1874.000000	37.180100
1873.000000	37.472800
1872.000000	37.725700
1871.000000	37.953200
1870.000000	38.132000
1869.000000	38.325100
1868.000000	38.483100
1867.000000	38.609600
1866.000000	38.721600
1865.000000	38.837900
1864.000000	38.970300
1863.000000	39.093500
1862.000000	39.227700
1861.000000	39.342100
1860.000000	39.449000
1859.000000	39.532400
1858.000000	39.597200
1857.000000	39.664900
1856.000000	39.723900
1855.000000	39.767600
1854.000000	39.798500
1853.000000	39.796400
1852.000000	39.804700
1851.000000	39.862500
1850.000000	39.913100
1849.000000	39.960100
1848.000000	39.961700
1847.000000	39.892800
1846.000000	39.821400
1845.000000	39.803000
1844.000000	39.818500
1843.000000	39.844700
1842.000000	39.853100
1841.000000	39.810300
1840.000000	39.754500
1839.000000	39.708900
1838.000000	39.669900
1837.000000	39.633100
1836.000000	39.561700
1835.000000	39.487000
1834.000000	39.433000
1833.000000	39.400800
1832.000000	39.385100
1831.000000	39.363400
1830.000000	39.330900
1829.000000	39.299200
1828.000000	39.257200
1827.000000	39.226800
1826.000000	39.204700
1825.000000	39.178900
1824.000000	39.179600
1823.000000	39.217800
1822.000000	39.265100
1821.000000	39.282400
1820.000000	39.268300
1819.000000	39.240000
1818.000000	39.217200
1817.000000	39.221500
1816.000000	39.233300
1815.000000	39.214000
1814.000000	39.207300
1813.000000	39.215400
1812.000000	39.199800
1811.000000	39.163400
1810.000000	39.107400
1809.000000	39.088800
1808.000000	39.082300
1807.000000	39.076300
1806.000000	39.045300
1805.000000	39.007900
1804.000000	38.984200
1803.000000	38.999200
1802.000000	39.002500
1801.000000	38.976200
1800.000000	38.940100
1799.000000	38.907200
1798.000000	38.888500
1797.000000	38.890700
1796.000000	38.876800
1795.000000	38.848300
1794.000000	38.838100
1793.000000	38.820800
1792.000000	38.807600
1791.000000	38.810500
1790.000000	38.813800
1789.000000	38.821200
1788.000000	38.812400
1787.000000	38.829500
1786.000000	38.846400
1785.000000	38.862500
1784.000000	38.858700
1783.000000	38.855100
1782.000000	38.859700
1781.000000	38.842200
1780.000000	38.814400
1779.000000	38.789700
1778.000000	38.764600
1777.000000	38.729700
1776.000000	38.696300
1775.000000	38.652900
1774.000000	38.590500
1773.000000	38.560200
1772.000000	38.503800
1771.000000	38.462900
1770.000000	38.425800
1769.000000	38.385000
1768.000000	38.352600
1767.000000	38.318900
1766.000000	38.277400
1765.000000	38.248300
1764.000000	38.240700
1763.000000	38.221100
1762.000000	38.220200
1761.000000	38.215500
1760.000000	38.220400
1759.000000	38.234800
1758.000000	38.234100
1757.000000	38.240200
1756.000000	38.255000
1755.000000	38.256900
1754.000000	38.256800
1753.000000	38.268200
1752.000000	38.271500
1751.000000	38.263400
1750.000000	38.234800
1749.000000	38.194600
1748.000000	38.155300
1747.000000	38.094400
1746.000000	38.000000
1745.000000	37.939000
1744.000000	37.856500
1743.000000	37.744900
1742.000000	37.627200
1741.000000	37.524000
1740.000000	37.435200
1739.000000	37.325400
1738.000000	37.214400
1737.000000	37.139500
1736.000000	37.049000
1735.000000	36.959400
1734.000000	36.894100
1733.000000	36.804700
1732.000000	36.709800
1731.000000	36.608700
1730.000000	36.525300
1729.000000	36.437100
1728.000000	36.372900
1727.000000	36.297200
1726.000000	36.222000
1725.000000	36.196900
1724.000000	36.186000
1723.000000	36.243200
1722.000000	36.321600
1721.000000	36.481400
1720.000000	36.671100
1719.000000	36.917000
1718.000000	37.178000
1717.000000	37.435500
1716.000000	37.709200
1715.000000	37.954300
1714.000000	38.195500
1713.000000	38.405800
1712.000000	38.595600
1711.000000	38.752500
1710.000000	38.925900
1709.000000	39.064100
1708.000000	39.182200
1707.000000	39.284900
1706.000000	39.369300
1705.000000	39.443800
1704.000000	39.510900
1703.000000	39.568000
1702.000000	39.568000
1701.000000	39.601800
1700.000000	39.600300
1699.000000	39.601700
1698.000000	39.608000
1697.000000	39.575300
1696.000000	39.526400
1695.000000	39.453300
1694.000000	39.373700
1693.000000	39.263200
1692.000000	39.144000
1691.000000	39.029400
1690.000000	38.948400
1689.000000	38.888700
1688.000000	38.878300
1687.000000	38.935100
1686.000000	39.068100
1685.000000	39.245300
1684.000000	39.454500
1683.000000	39.695000
1682.000000	39.968800
1681.000000	40.240200
1680.000000	40.495200
1679.000000	40.725400
1678.000000	40.928200
1677.000000	41.151000
1676.000000	41.339600
1675.000000	41.516900
1674.000000	41.676400
1673.000000	41.872600
1672.000000	42.070600
1671.000000	42.274500
1670.000000	42.485700
1669.000000	42.670400
1668.000000	42.875900
1667.000000	43.133900
1666.000000	43.297000
1665.000000	43.474000
1664.000000	43.639500
1663.000000	43.821300
1662.000000	43.988800
1661.000000	44.131500
1660.000000	44.257400
1659.000000	44.383400
1658.000000	44.487800
1657.000000	44.584700
1656.000000	44.673200
1655.000000	44.730700
1654.000000	44.791400
1653.000000	44.841900
1652.000000	44.892000
1651.000000	44.915900
1650.000000	44.932700
1649.000000	44.953800
1648.000000	44.969400
1647.000000	44.959900
1646.000000	44.952300
1645.000000	44.961300
1644.000000	44.962400
1643.000000	44.952500
1642.000000	44.959600
1641.000000	44.949500
1640.000000	44.958600
1639.000000	44.955800
1638.000000	44.950400
1637.000000	44.916000
1636.000000	44.905100
1635.000000	44.886500
1634.000000	44.857900
1633.000000	44.812800
1632.000000	44.781100
1631.000000	44.745300
1630.000000	44.683600
1629.000000	44.648800
1628.000000	44.599700
1627.000000	44.566700
1626.000000	44.506200
1625.000000	44.457800
1624.000000	44.402000
1623.000000	44.352200
1622.000000	44.312200
1621.000000	44.267500
1620.000000	44.230300
1619.000000	44.184000
1618.000000	44.128100
1617.000000	44.090200
1616.000000	44.054700
1615.000000	43.992700
1614.000000	43.930600
1613.000000	43.870300
1612.000000	43.814900
1611.000000	43.741600
1610.000000	43.677200
1609.000000	43.612400
1608.000000	43.532500
1607.000000	43.438600
1606.000000	43.348800
1605.000000	43.249700
1604.000000	43.154800
1603.000000	43.072400
1602.000000	42.986600
1601.000000	42.885600
1600.000000	42.783800
1599.000000	42.700500
1598.000000	42.615000
1597.000000	42.539900
1596.000000	42.459500
1595.000000	42.366900
1594.000000	42.283600
1593.000000	42.213900
1592.000000	42.150400
1591.000000	42.092500
1590.000000	42.031800
1589.000000	41.951600
1588.000000	41.903300
1587.000000	41.863100
1586.000000	41.793100
1585.000000	41.729600
1584.000000	41.674800
1583.000000	41.639800
1582.000000	41.589600
1581.000000	41.539000
1580.000000	41.504500
1579.000000	41.476400
1578.000000	41.456900
1577.000000	41.433900
1576.000000	41.418100
1575.000000	41.423800
1574.000000	41.420200
1573.000000	41.418600
1572.000000	41.425000
1571.000000	41.424700
1570.000000	41.449400
1569.000000	41.475800
1568.000000	41.506400
1567.000000	41.538000
1566.000000	41.565000
1565.000000	41.586300
1564.000000	41.600900
1563.000000	41.613200
1562.000000	41.628400
1561.000000	41.639800
1560.000000	41.637900
1559.000000	41.626400
1558.000000	41.607000
1557.000000	41.576800
1556.000000	41.535300
1555.000000	41.495100
1554.000000	41.448000
1553.000000	41.394600
1552.000000	41.332200
1551.000000	41.255600
1550.000000	41.191200
1549.000000	41.119400
1548.000000	41.039700
1547.000000	40.965900
1546.000000	40.895100
1545.000000	40.839300
1544.000000	40.791300
1543.000000	40.754700
1542.000000	40.705800
1541.000000	40.667800
1540.000000	40.630300
1539.000000	40.588500
1538.000000	40.551500
1537.000000	40.518800
1536.000000	40.480900
1535.000000	40.425600
1534.000000	40.375500
1533.000000	40.328000
1532.000000	40.261000
1531.000000	40.193400
1530.000000	40.122100
1529.000000	40.059000
1528.000000	40.001600
1527.000000	39.910600
1526.000000	39.838000
1525.000000	39.767700
1524.000000	39.689000
1523.000000	39.606500
1522.000000	39.530000
1521.000000	39.446800
1520.000000	39.365800
1519.000000	39.285000
1518.000000	39.200300
1517.000000	39.101800
1516.000000	39.016800
1515.000000	38.920900
1514.000000	38.819700
1513.000000	38.723700
1512.000000	38.622900
1511.000000	38.515100
1510.000000	38.404300
1509.000000	38.315900
1508.000000	38.197600
1507.000000	38.100300
1506.000000	37.992100
1505.000000	37.910900
1504.000000	37.824300
1503.000000	37.721200
1502.000000	37.624500
1501.000000	37.544400
1500.000000	37.483300
1499.000000	37.436500
1498.000000	37.390400
1497.000000	37.331300
1496.000000	37.278800
1495.000000	37.255600
1494.000000	37.250200
1493.000000	37.230300
1492.000000	37.210100
1491.000000	37.210500
1490.000000	37.222000
1489.000000	37.224400
1488.000000	37.243100
1487.000000	37.247300
1486.000000	37.244500
1485.000000	37.256400
1484.000000	37.269400
1483.000000	37.298800
1482.000000	37.318300
1481.000000	37.348000
1480.000000	37.368500
1479.000000	37.398600
1478.000000	37.421000
1477.000000	37.470700
1476.000000	37.532200
1475.000000	37.586600
1474.000000	37.671700
1473.000000	37.755000
1472.000000	37.818200
1471.000000	37.936500
1470.000000	38.018000
1469.000000	38.062300
1468.000000	38.171200
1467.000000	38.296000
1466.000000	38.388300
1465.000000	38.489100
1464.000000	38.578400
1463.000000	38.701600
1462.000000	38.817100
1461.000000	38.940500
1460.000000	39.044800
1459.000000	39.145200
1458.000000	39.273100
1457.000000	39.404300
1456.000000	39.519300
1455.000000	39.628200
1454.000000	39.747200
1453.000000	39.867400
1452.000000	39.994200
1451.000000	40.114700
1450.000000	40.232700
1449.000000	40.291500
1448.000000	40.413700
1447.000000	40.555500
1446.000000	40.710200
1445.000000	40.779600
1444.000000	40.883900
1443.000000	41.019700
1442.000000	41.134600
1441.000000	41.242200
1440.000000	41.352700
1439.000000	41.482100
1438.000000	41.647900
1437.000000	41.756600
1436.000000	41.895400
1435.000000	42.037800
1434.000000	42.212600
1433.000000	42.383800
1432.000000	42.540100
1431.000000	42.677900
1430.000000	42.877000
1429.000000	43.069200
1428.000000	43.281100
1427.000000	43.486200
1426.000000	43.701500
1425.000000	43.949900
1424.000000	44.223900
1423.000000	44.441500
1422.000000	44.666800
1421.000000	44.993700
1420.000000	45.336100
1419.000000	45.655600
1418.000000	45.941300
1417.000000	46.182800
1416.000000	46.588400
1415.000000	47.005200
1414.000000	47.418900
1413.000000	47.778300
1412.000000	48.141100
1411.000000	48.611000
1410.000000	49.122000
1409.000000	49.596200
1408.000000	50.070700
1407.000000	50.511400
1406.000000	50.991400
1405.000000	51.514100
1404.000000	51.931800
1403.000000	52.429300
1402.000000	52.910900
1401.000000	53.522200
1400.000000	54.004000
1399.000000	54.329400
1398.000000	54.663300
1397.000000	55.133900
1396.000000	55.743100
1395.000000	56.130800
1394.000000	56.406800
1393.000000	56.746500
1392.000000	57.199000
1391.000000	57.558000
1390.000000	57.899200
1389.000000	58.309300
1388.000000	58.757700
1387.000000	59.069200
1386.000000	59.398200
1385.000000	59.777100
1384.000000	60.123800
1383.000000	60.403700
1382.000000	60.660900
1381.000000	60.838400
1380.000000	61.004000
1379.000000	61.151100
1378.000000	61.285800
1377.000000	61.436500
1376.000000	61.580000
1375.000000	61.707000
1374.000000	61.873500
1373.000000	62.068000
1372.000000	62.223200
1371.000000	62.374900
1370.000000	62.499300
1369.000000	62.661500
1368.000000	62.808500
1367.000000	62.893000
1366.000000	63.027000
1365.000000	63.168600
1364.000000	63.261700
1363.000000	63.368900
1362.000000	63.508600
1361.000000	63.548700
1360.000000	63.516300
1359.000000	63.639400
1358.000000	63.714700
1357.000000	63.808100
1356.000000	63.921100
1355.000000	64.063700
1354.000000	64.216100
1353.000000	64.343500
1352.000000	64.521600
1351.000000	64.736100
1350.000000	64.952100
1349.000000	65.164000
1348.000000	65.393900
1347.000000	65.570600
1346.000000	65.777900
1345.000000	66.018500
1344.000000	66.198200
1343.000000	66.356300
1342.000000	66.536400
1341.000000	66.711400
1340.000000	66.859100
1339.000000	67.015100
1338.000000	67.151200
1337.000000	67.286000
1336.000000	67.401200
1335.000000	67.498900
1334.000000	67.620200
1333.000000	67.739800
1332.000000	67.845600
1331.000000	67.938800
1330.000000	68.018900
1329.000000	68.109600
1328.000000	68.173300
1327.000000	68.237400
1326.000000	68.305100
1325.000000	68.371200
1324.000000	68.426700
1323.000000	68.497600
1322.000000	68.557000
1321.000000	68.597600
1320.000000	68.650400
1319.000000	68.693400
1318.000000	68.728200
1317.000000	68.788200
1316.000000	68.846300
1315.000000	68.881000
1314.000000	68.920900
1313.000000	68.958600
1312.000000	69.006500
1311.000000	69.053900
1310.000000	69.077000
1309.000000	69.106200
1308.000000	69.142700
1307.000000	69.180300
1306.000000	69.209700
1305.000000	69.226700
1304.000000	69.248100
1303.000000	69.272000
1302.000000	69.279800
1301.000000	69.280100
1300.000000	69.281000
1299.000000	69.284300
1298.000000	69.284700
1297.000000	69.276500
1296.000000	69.277600
1295.000000	69.274600
1294.000000	69.260000
1293.000000	69.252100
1292.000000	69.238200
1291.000000	69.206100
1290.000000	69.172500
1289.000000	69.143900
1288.000000	69.122900
1287.000000	69.092000
1286.000000	69.054900
1285.000000	69.008800
1284.000000	68.967100
1283.000000	68.919000
1282.000000	68.877400
1281.000000	68.840200
1280.000000	68.805700
1279.000000	68.778200
1278.000000	68.743700
1277.000000	68.722900
1276.000000	68.705300
1275.000000	68.680500
1274.000000	68.647000
1273.000000	68.622500
1272.000000	68.609700
1271.000000	68.583300
1270.000000	68.572000
1269.000000	68.563500
1268.000000	68.555500
1267.000000	68.527400
1266.000000	68.509700
1265.000000	68.499700
1264.000000	68.479000
1263.000000	68.444300
1262.000000	68.428800
1261.000000	68.415000
1260.000000	68.393700
1259.000000	68.384300
1258.000000	68.373600
1257.000000	68.336600
1256.000000	68.324100
1255.000000	68.288200
1254.000000	68.258400
1253.000000	68.240500
1252.000000	68.200000
1251.000000	68.150300
1250.000000	68.107600
1249.000000	68.061800
1248.000000	68.009300
1247.000000	67.938500
1246.000000	67.861900
1245.000000	67.799200
1244.000000	67.732100
1243.000000	67.672400
1242.000000	67.613000
1241.000000	67.531000
1240.000000	67.487600
1239.000000	67.426300
1238.000000	67.364300
1237.000000	67.315900
1236.000000	67.264700
1235.000000	67.214200
1234.000000	67.160400
1233.000000	67.112500
1232.000000	67.089100
1231.000000	67.039200
1230.000000	66.992000
1229.000000	66.953800
1228.000000	66.895400
1227.000000	66.854600
1226.000000	66.810000
1225.000000	66.766700
1224.000000	66.725300
1223.000000	66.673500
1222.000000	66.636600
1221.000000	66.604500
1220.000000	66.536700
1219.000000	66.499200
1218.000000	66.441600
1217.000000	66.398800
1216.000000	66.342500
1215.000000	66.301300
1214.000000	66.237100
1213.000000	66.172300
1212.000000	66.121100
1211.000000	66.064300
1210.000000	65.979700
1209.000000	65.890600
1208.000000	65.845500
1207.000000	65.748300
1206.000000	65.673400
1205.000000	65.602300
1204.000000	65.519600
1203.000000	65.438400
1202.000000	65.371600
1201.000000	65.271900
1200.000000	65.190500
1199.000000	65.101900
1198.000000	65.012400
1197.000000	64.896600
1196.000000	64.810200
1195.000000	64.704300
1194.000000	64.594400
1193.000000	64.490600
1192.000000	64.394900
1191.000000	64.269900
1190.000000	64.202100
1189.000000	64.117100
1188.000000	64.058200
1187.000000	63.998500
1186.000000	63.983800
1185.000000	63.957300
1184.000000	63.944800
1183.000000	63.970700
1182.000000	64.011800
1181.000000	64.025300
1180.000000	64.062800
1179.000000	64.074400
1178.000000	64.128800
1177.000000	64.163900
1176.000000	64.205500
1175.000000	64.249100
1174.000000	64.272500
1173.000000	64.323200
1172.000000	64.371800
1171.000000	64.449300
1170.000000	64.509800
1169.000000	64.629000
1168.000000	64.696300
1167.000000	64.803100
1166.000000	64.896600
1165.000000	65.013200
1164.000000	65.139900
1163.000000	65.251100
1162.000000	65.361400
1161.000000	65.455400
1160.000000	65.578100
1159.000000	65.679700
1158.000000	65.770100
1157.000000	65.882700
1156.000000	65.967600
1155.000000	66.033500
1154.000000	66.090800
1153.000000	66.153800
1152.000000	66.178100
1151.000000	66.211200
1150.000000	66.225500
1149.000000	66.252900
1148.000000	66.267000
1147.000000	66.309300
1146.000000	66.321300
1145.000000	66.334900
1144.000000	66.331700
1143.000000	66.347000
1142.000000	66.405600
1141.000000	66.432000
1140.000000	66.452600
1139.000000	66.484000
1138.000000	66.541500
1137.000000	66.643100
1136.000000	66.708400
1135.000000	66.754700
1134.000000	66.792100
1133.000000	66.799500
1132.000000	66.833900
1131.000000	66.861700
1130.000000	66.895900
1129.000000	66.944200
1128.000000	66.939400
1127.000000	66.910400
1126.000000	66.926800
1125.000000	66.914700
1124.000000	66.911800
1123.000000	66.880300
1122.000000	66.840400
1121.000000	66.785900
1120.000000	66.759700
1119.000000	66.717300
1118.000000	66.660100
1117.000000	66.611700
1116.000000	66.548300
1115.000000	66.510700
1114.000000	66.440700
1113.000000	66.386800
1112.000000	66.330400
1111.000000	66.272600
1110.000000	66.200800
1109.000000	66.144800
1108.000000	66.072700
1107.000000	66.023000
1106.000000	65.926900
1105.000000	65.868600
1104.000000	65.798400
1103.000000	65.729100
1102.000000	65.656000
1101.000000	65.563600
1100.000000	65.508000
1099.000000	65.426300
1098.000000	65.347000
1097.000000	65.267700
1096.000000	65.182900
1095.000000	65.108200
1094.000000	65.020700
1093.000000	64.934400
1092.000000	64.849800
1091.000000	64.773500
1090.000000	64.683400
1089.000000	64.591800
1088.000000	64.508300
1087.000000	64.429300
1086.000000	64.347100
1085.000000	64.264800
1084.000000	64.187200
1083.000000	64.102900
1082.000000	64.024200
1081.000000	63.939900
1080.000000	63.858000
1079.000000	63.778700
1078.000000	63.697600
1077.000000	63.626300
1076.000000	63.559600
1075.000000	63.489700
1074.000000	63.399400
1073.000000	63.314200
1072.000000	63.250300
1071.000000	63.175200
1070.000000	63.103300
1069.000000	63.038200
1068.000000	62.967900
1067.000000	62.900600
1066.000000	62.821300
1065.000000	62.742000
1064.000000	62.675400
1063.000000	62.599300
1062.000000	62.526200
1061.000000	62.452600
1060.000000	62.380600
1059.000000	62.295400
1058.000000	62.213200
1057.000000	62.140300
1056.000000	62.058500
1055.000000	61.978700
1054.000000	61.905000
1053.000000	61.831600
1052.000000	61.750400
1051.000000	61.671900
1050.000000	61.609200
1049.000000	61.525200
1048.000000	61.459000
1047.000000	61.385500
1046.000000	61.303300
1045.000000	61.239500
1044.000000	61.174700
1043.000000	61.098500
1042.000000	61.028700
1041.000000	60.967800
1040.000000	60.895000
1039.000000	60.832700
1038.000000	60.780600
1037.000000	60.717800
1036.000000	60.651200
1035.000000	60.597500
1034.000000	60.545000
1033.000000	60.484700
1032.000000	60.429900
1031.000000	60.376900
1030.000000	60.324700
1029.000000	60.265400
1028.000000	60.226600
1027.000000	60.205200
1026.000000	60.164200
1025.000000	60.138100
1024.000000	60.107900
1023.000000	60.053200
1022.000000	60.027400
1021.000000	60.018100
1020.000000	59.991300
1019.000000	59.971800
1018.000000	59.950400
1017.000000	59.927500
1016.000000	59.907000
1015.000000	59.894100
1014.000000	59.884100
1013.000000	59.881700
1012.000000	59.875800
1011.000000	59.871700
1010.000000	59.874300
1009.000000	59.881100
1008.000000	59.878900
1007.000000	59.893100
1006.000000	59.911600
1005.000000	59.929600
1004.000000	59.943900
1003.000000	59.965300
1002.000000	59.982500
1001.000000	59.984900
1000.000000	59.999400
999.000000	60.030500
998.000000	60.055600
997.000000	60.077000
996.000000	60.111700
995.000000	60.147400
994.000000	60.178900
993.000000	60.212400
992.000000	60.226700
991.000000	60.260000
990.000000	60.313600
989.000000	60.374900
988.000000	60.399400
987.000000	60.458700
986.000000	60.506900
985.000000	60.569900
984.000000	60.621500
983.000000	60.684000
982.000000	60.773800
981.000000	60.837500
980.000000	60.892800
979.000000	60.969100
978.000000	61.046600
977.000000	61.119500
976.000000	61.177600
975.000000	61.264900
974.000000	61.341700
973.000000	61.438200
972.000000	61.505100
971.000000	61.584400
970.000000	61.698200
969.000000	61.808000
968.000000	61.887900
967.000000	61.989500
966.000000	62.121400
965.000000	62.216600
964.000000	62.331600
963.000000	62.451600
962.000000	62.556100
961.000000	62.694300
960.000000	62.784300
959.000000	62.928800
958.000000	63.032800
957.000000	63.139400
956.000000	63.253000
955.000000	63.393300
954.000000	63.543400
953.000000	63.652900
952.000000	63.746600
951.000000	63.860100
950.000000	64.010700
949.000000	64.118400
948.000000	64.242100
947.000000	64.393900
946.000000	64.495700
945.000000	64.602300
944.000000	64.758800
943.000000	64.859500
942.000000	64.961000
941.000000	65.123800
940.000000	65.212200
939.000000	65.316200
938.000000	65.459200
937.000000	65.536500
936.000000	65.628700
935.000000	65.729700
934.000000	65.831000
933.000000	65.925400
932.000000	66.081400
931.000000	66.195400
930.000000	66.282400
929.000000	66.379400
928.000000	66.447700
927.000000	66.524800
926.000000	66.668300
925.000000	66.742500
924.000000	66.830600
923.000000	66.908800
922.000000	66.973700
921.000000	67.139600
920.000000	67.181200
919.000000	67.240900
918.000000	67.300800
917.000000	67.380000
916.000000	67.442500
915.000000	67.508200
914.000000	67.577200
913.000000	67.741900
912.000000	67.828800
911.000000	67.827200
910.000000	67.910500
909.000000	67.998300
908.000000	68.169100
907.000000	68.241200
906.000000	68.308600
905.000000	68.309700
904.000000	68.400300
903.000000	68.579700
902.000000	68.648800
901.000000	68.705800
900.000000	68.705000
899.000000	68.779100
898.000000	68.872100
897.000000	68.921800
896.000000	68.990400
895.000000	69.056700
894.000000	69.126000
893.000000	69.195200
892.000000	69.267300
891.000000	69.302300
890.000000	69.312000
889.000000	69.384100
888.000000	69.468600
887.000000	69.561900
886.000000	69.647600
885.000000	69.738500
884.000000	69.796300
883.000000	69.798900
882.000000	69.887900
881.000000	69.977800
880.000000	70.022800
879.000000	70.118500
878.000000	70.222700
877.000000	70.289300
876.000000	70.335200
875.000000	70.413300
874.000000	70.453100
873.000000	70.549600
872.000000	70.651800
871.000000	70.675400
870.000000	70.764400
869.000000	70.786300
868.000000	70.852100
867.000000	70.888000
866.000000	70.963900
865.000000	70.984100
864.000000	71.050300
863.000000	71.062600
862.000000	71.094600
861.000000	71.019100
860.000000	70.920100
859.000000	70.864700
858.000000	71.883600
857.000000	71.101720
856.000000	71.539106
855.000000	71.898999
854.000000	72.268660
853.000000	72.888137
852.000000	72.735618
851.000000	73.472839
850.000000	73.407031
849.000000	73.784814
848.000000	74.283901
847.000000	75.236620
846.000000	75.045492
845.000000	75.392608
844.000000	76.020026
843.000000	76.758981
842.000000	76.763363
841.000000	77.327619
840.000000	77.623439
839.000000	77.860386
838.000000	78.301240
837.000000	78.604635
836.000000	79.025500
835.000000	79.545215
834.000000	79.952389
833.000000	80.236160
832.000000	80.631560
831.000000	81.060274
830.000000	81.513268
829.000000	81.918160
828.000000	82.194082
827.000000	82.701109
826.000000	83.072321
825.000000	83.322504
824.000000	83.720002
823.000000	83.993642
822.000000	84.496380
821.000000	84.692802
820.000000	85.081995
819.000000	85.518650
818.000000	85.647073
817.000000	85.907843
816.000000	86.168248
815.000000	86.426736
814.000000	86.690884
813.000000	86.829164
812.000000	87.165874
811.000000	87.173359
810.000000	87.432577
809.000000	87.653461
808.000000	87.812825
807.000000	87.887031
806.000000	88.075695
805.000000	88.117316
804.000000	88.152000
803.000000	88.399809
802.000000	88.548038
801.000000	88.612843
800.000000	88.703661
799.000000	88.829254
798.000000	88.753405
797.000000	88.896432
796.000000	88.995555
795.000000	89.064376
794.000000	89.055705
793.000000	89.112204
792.000000	89.124617
791.000000	89.341576
790.000000	89.430842
789.000000	89.622791
788.000000	89.699096
787.000000	89.618866
786.000000	89.654737
785.000000	89.746011
784.000000	89.842214
783.000000	90.007512
782.000000	89.976387
781.000000	89.976022
780.000000	90.113755
779.000000	90.113937
778.000000	90.163864
777.000000	90.282703
776.000000	90.302053
775.000000	90.287906
774.000000	90.361290
773.000000	90.436226
772.000000	90.420710
771.000000	90.511345
770.000000	90.524032
769.000000	90.452017
768.000000	90.354718
767.000000	90.297672
766.000000	90.369231
765.000000	90.428742
764.000000	90.366219
763.000000	90.351889
762.000000	90.208954
761.000000	90.051323
760.000000	89.934127
759.000000	89.803879
758.000000	89.664047
757.000000	89.564193
756.000000	89.406563
755.000000	89.264266
754.000000	89.120692
753.000000	88.894332
752.000000	88.684128
751.000000	88.461328
750.000000	88.171533
749.000000	87.958042
748.000000	87.690244
747.000000	87.379821
746.000000	87.135480
745.000000	86.827977
744.000000	86.572501
743.000000	86.316751
742.000000	85.966167
741.000000	85.647803
740.000000	85.390775
739.000000	85.028052
738.000000	84.667245
737.000000	84.321225
736.000000	83.909214
735.000000	83.482598
734.000000	83.017192
733.000000	82.610657
732.000000	82.164874
731.000000	81.715258
730.000000	81.281979
729.000000	80.849614
728.000000	80.430757
727.000000	79.942440
726.000000	79.475847
725.000000	79.047132
724.000000	78.634665
723.000000	78.173000
722.000000	77.776962
721.000000	77.382749
720.000000	76.928021
719.000000	76.527419
718.000000	76.152830
717.000000	75.733973
716.000000	75.300056
715.000000	74.891148
714.000000	74.517654
713.000000	74.115044
712.000000	73.748304
711.000000	73.363493
710.000000	72.942080
709.000000	72.605005
708.000000	72.248762
707.000000	71.867510
706.000000	71.533994
705.000000	71.208967
704.000000	70.912509
703.000000	70.603637
702.000000	70.282170
701.000000	69.998033
700.000000	69.758713
699.000000	69.514554
698.000000	69.181860
697.000000	68.941262
696.000000	68.684416
695.000000	68.377918
694.000000	68.101905
693.000000	67.830182
692.000000	67.523044
691.000000	67.156670
690.000000	66.814666
689.000000	66.419905
688.000000	66.037923
687.000000	65.710066
686.000000	65.336755
685.000000	64.957785
684.000000	64.586756
683.000000	64.255248
682.000000	63.933598
681.000000	63.642890
680.000000	63.397180
679.000000	63.087669
678.000000	62.792124
677.000000	62.546505
676.000000	62.309558
675.000000	62.025786
674.000000	61.770219
673.000000	61.556911
672.000000	61.286283
671.000000	61.020037
670.000000	60.669635
669.000000	60.330370
668.000000	60.035463
667.000000	59.759724
666.000000	59.475952
665.000000	59.199666
664.000000	58.971115
663.000000	58.736450
662.000000	58.542583
661.000000	58.373179
660.000000	58.222394
659.000000	58.113869
658.000000	58.094062
657.000000	57.984077
656.000000	57.926848
655.000000	57.859305
654.000000	57.783091
653.000000	57.732708
652.000000	57.584661
651.000000	57.487272
650.000000	57.347075
649.000000	57.142986
648.000000	56.955235
647.000000	56.715275
646.000000	56.499960
645.000000	56.305911
644.000000	56.092056
643.000000	55.930592
642.000000	55.783458
641.000000	55.632399
640.000000	55.578274
639.000000	55.532271
638.000000	55.493297
637.000000	55.479789
636.000000	55.534827
635.000000	55.545506
634.000000	55.554816
633.000000	55.611041
632.000000	55.646364
631.000000	55.698482
630.000000	55.688259
629.000000	55.782089
628.000000	55.829369
627.000000	55.829277
626.000000	55.861771
625.000000	56.014929
624.000000	56.098171
623.000000	56.279350
622.000000	56.444282
621.000000	56.679952
620.000000	56.954687
619.000000	57.301255
618.000000	57.674658
617.000000	58.042310
616.000000	58.459980
615.000000	58.881575
614.000000	59.272411
613.000000	59.767938
612.000000	60.233893
611.000000	60.669727
610.000000	61.184330
609.000000	61.620712
608.000000	62.123815
607.000000	62.579090
606.000000	63.034000
605.000000	63.536191
604.000000	63.970747
603.000000	64.445737
602.000000	64.866967
601.000000	65.352363
600.000000	65.750775
599.000000	66.193910
598.000000	66.578540
597.000000	66.938068
596.000000	67.305629
595.000000	67.679032
594.000000	68.051430
593.000000	68.449477
592.000000	68.761725
591.000000	69.064390
590.000000	69.366416
589.000000	69.640969
588.000000	69.864499
587.000000	70.117329
586.000000	70.307818
585.000000	70.487263
584.000000	70.621618
583.000000	70.750497
582.000000	70.896901
581.000000	70.974484
580.000000	71.052797
579.000000	71.103272
578.000000	71.139234
577.000000	71.129011
576.000000	71.106466
575.000000	71.041662
574.000000	70.991461
573.000000	70.957051
572.000000	70.802980
571.000000	70.730326
570.000000	70.607653
569.000000	70.496207
568.000000	70.332097
567.000000	70.173919
566.000000	69.974667
565.000000	69.786916
564.000000	69.525325
563.000000	69.293123
562.000000	69.046318
561.000000	68.774230
560.000000	68.495114
559.000000	68.215632
558.000000	67.937976
557.000000	67.584198
556.000000	67.216089
555.000000	66.853822
554.000000	66.482337
553.000000	66.076441
552.000000	65.652655
551.000000	65.189074
550.000000	64.718008
549.000000	64.197928
548.000000	63.678122
547.000000	63.090408
546.000000	62.519397
545.000000	61.890244
544.000000	61.230789
543.000000	60.527613
542.000000	59.798241
541.000000	59.041488
540.000000	58.253975
539.000000	57.413705
538.000000	56.601457
537.000000	55.766846
536.000000	54.914619
535.000000	54.033277
534.000000	53.154215
533.000000	52.274698
532.000000	51.387970
531.000000	50.525795
530.000000	49.688081
529.000000	48.857486
528.000000	48.043504
527.000000	47.241113
526.000000	46.480525
525.000000	45.701866
524.000000	44.961633
523.000000	44.226328
522.000000	43.500243
521.000000	42.830382
520.000000	42.170926
519.000000	41.508003
518.000000	40.861325
517.000000	40.252618
516.000000	39.648931
515.000000	39.051998
514.000000	38.453331
513.000000	37.860597
512.000000	37.245136
511.000000	36.659156
510.000000	36.045611
509.000000	35.432614
508.000000	34.814962
507.000000	34.188183
506.000000	33.554193
505.000000	32.920568
504.000000	32.288768
503.000000	31.671299
502.000000	31.021792
501.000000	30.394100
500.000000	29.795068
499.000000	29.215751
498.000000	28.659344
497.000000	28.126851
496.000000	27.627582
495.000000	27.208360
494.000000	26.818071
493.000000	26.466666
492.000000	26.159072
491.000000	25.934538
490.000000	25.757740
489.000000	25.622380
488.000000	25.541694
487.000000	25.514677
486.000000	25.534392
485.000000	25.567707
484.000000	25.633972
483.000000	25.755458
482.000000	25.876031
481.000000	26.010295
480.000000	26.158890
479.000000	26.314603
478.000000	26.476250
477.000000	26.637714
476.000000	26.806388
475.000000	26.968948
474.000000	27.102573
473.000000	27.222963
472.000000	27.333861
471.000000	27.440013
470.000000	27.516227
469.000000	27.580667
468.000000	27.614895
467.000000	27.636618
466.000000	27.641912
465.000000	27.629133
464.000000	27.599560
463.000000	27.544431
462.000000	27.495234
461.000000	27.425409
460.000000	27.316519
459.000000	27.201879
458.000000	27.066063
457.000000	26.932073
456.000000	26.783022
455.000000	26.615169
454.000000	26.417743
453.000000	26.227710
452.000000	26.033570
451.000000	25.810770
450.000000	25.596459
449.000000	25.351388
448.000000	25.100019
447.000000	24.851936
446.000000	24.572089
445.000000	24.267051
444.000000	23.960826
443.000000	23.663912
442.000000	23.341896
441.000000	22.997793
440.000000	22.649491
439.000000	22.280287
438.000000	21.888174
437.000000	21.493869
436.000000	21.104585
435.000000	20.694582
434.000000	20.249620
433.000000	19.813330
432.000000	19.372567
431.000000	18.896299
430.000000	18.415011
429.000000	17.947505
428.000000	17.494511
427.000000	17.010302
426.000000	16.513406
425.000000	16.035038
424.000000	15.545535
423.000000	15.055028
422.000000	14.573283
421.000000	14.086153
420.000000	13.620563
419.000000	13.170400
418.000000	12.724891
417.000000	12.288144
416.000000	11.870017
415.000000	11.470145
414.000000	11.088254
413.000000	10.719963
412.000000	10.373578
411.000000	10.034221
410.000000	9.718960
409.000000	9.433911
408.000000	9.149957
407.000000	8.896124
406.000000	8.671863
405.000000	8.460746
404.000000	8.248351
403.000000	8.050286
402.000000	7.862535
401.000000	7.688293
400.000000	7.540064
399.000000	7.403244
398.000000	7.281393
397.000000	7.168578
396.000000	7.051656
395.000000	6.950524
394.000000	6.857881
393.000000	6.776191
392.000000	6.704084
391.000000	6.635081
390.000000	6.556311
389.000000	6.486304
388.000000	6.428893
387.000000	6.362537
386.000000	6.320733
385.000000	6.278747
384.000000	6.247622
383.000000	6.206093
382.000000	6.152789
381.000000	6.114453
380.000000	6.087801
379.000000	6.072924
378.000000	6.041891
377.000000	5.999174
376.000000	5.979824
375.000000	5.982015
374.000000	5.985848
373.000000	6.007480
372.000000	5.906166
371.000000	5.917119
370.000000	5.901328
369.000000	5.833694
368.000000	5.810328
367.000000	5.764143
366.000000	5.785775
365.000000	5.779386
364.000000	5.722614
363.000000	5.701073
362.000000	5.689846
361.000000	5.656349
360.000000	5.660547
359.000000	5.644027
358.000000	5.639280
357.000000	5.610894
356.000000	5.591270
355.000000	5.568269
354.000000	5.531668
353.000000	5.529751
352.000000	5.503282
351.000000	5.445962
350.000000	5.457827
349.000000	5.428437
348.000000	5.467959
347.000000	5.496619
346.000000	5.496801
345.000000	5.427890
344.000000	5.404615
343.000000	5.430536
342.000000	5.421592
341.000000	5.393114
340.000000	5.384626
339.000000	5.420131
338.000000	5.467685
337.000000	5.375681
336.000000	5.415111
335.000000	5.386634
334.000000	5.384443
333.000000	5.348755
332.000000	5.398317
331.000000	5.374677
330.000000	5.389554
329.000000	5.344465
328.000000	5.407718
327.000000	5.404615
326.000000	5.374585
325.000000	5.301840
324.000000	5.368105
323.000000	5.373399
322.000000	5.315805
321.000000	5.293351
320.000000	5.327944
319.000000	5.344465
318.000000	5.419036
317.000000	5.376046
316.000000	5.388459
315.000000	5.414746
314.000000	5.333056
313.000000	5.416024
312.000000	5.351858
311.000000	5.434187
310.000000	5.424786
309.000000	5.411369
308.000000	5.401785
307.000000	5.377506
306.000000	5.457462
305.000000	5.435739
304.000000	5.407809
303.000000	5.424147
302.000000	5.419218
301.000000	5.439938
300.000000	5.429806
299.000000	5.423873
298.000000	5.455089
297.000000	5.460383
296.000000	5.447970
295.000000	5.449339
294.000000	5.457189
293.000000	5.441124
292.000000	5.513231
291.000000	5.464217
290.000000	5.475991
289.000000	5.508028
288.000000	5.494611
287.000000	5.483293
286.000000	5.509123
285.000000	5.511405
284.000000	5.505746
283.000000	5.462574
282.000000	5.522084
281.000000	5.557864
280.000000	5.513048
279.000000	5.515969
278.000000	5.560693
277.000000	5.555947
276.000000	5.533220
275.000000	5.546272
274.000000	5.572559
273.000000	5.560420
272.000000	5.562428
271.000000	5.632982
270.000000	5.618196
269.000000	5.625589
268.000000	5.687656
267.000000	5.641471
266.000000	5.670770
265.000000	5.695688
264.000000	5.726904
263.000000	5.755290
262.000000	5.744428
261.000000	5.789061
260.000000	5.786506
259.000000	5.830865
258.000000	5.842274
257.000000	5.868105
256.000000	5.874403
255.000000	5.912555
254.000000	5.917940
253.000000	5.898316
252.000000	5.904340
251.000000	5.963942
250.000000	5.954541
