PE UV       SUBTECH     SPECTRUM    ASCII       PEDS        4.00        
   -1
CICIMAUCR0018-3.Sample.ASC
24/04/17
10:35:40.00
24/04/17
10:35:40.00
Vinicio Soto Monge
C. cupreomarginata
250,000000
1
Lambda 1050
1050L1511233
PerkinElmer UV WinLab 6.3.2.0749 / 2.02.05 Lambda 900 UV/VIS/NIR, Aug  7 2015 09:38:08

0
0
3350/servo 860,8/2
0
0
UV/VIS
1
1
1
DoubleDePol,CommonBeamDepol,RBeamAtt,SBeamAtt,60mm sphere, WB InGaAs Detector
0
0
0
0
Program
Program
3350/servo 860,8/2
3350/0,2 860,8/0,2
3350/0,2 860,8/0,2
0
15.00
 
 
 
0
 
860,8
319,2
860,8
Front
100
on
S:100 R:100
0
0
0
0
 
0
 
 
 
0
 
 
0
0
0
0
0
 
 
 
 
0
0


0
0
#HDR
-1
-1
#GR
nm
%R
1.0
0.0
2500,000000
-1,000000
2251
8
67,966100
4,192900
#DATA
2500.000000	15.283800
2499.000000	15.273900
2498.000000	15.100400
2497.000000	15.126100
2496.000000	15.100000
2495.000000	15.094900
2494.000000	15.075200
2493.000000	14.953900
2492.000000	14.937600
2491.000000	15.006000
2490.000000	15.069700
2489.000000	15.034100
2488.000000	14.980200
2487.000000	14.981300
2486.000000	14.966000
2485.000000	14.945800
2484.000000	15.001600
2483.000000	15.016700
2482.000000	15.003900
2481.000000	15.000900
2480.000000	15.041900
2479.000000	15.014100
2478.000000	15.128200
2477.000000	15.066500
2476.000000	15.038000
2475.000000	15.092900
2474.000000	15.180900
2473.000000	15.184200
2472.000000	15.197700
2471.000000	15.253500
2470.000000	15.320100
2469.000000	15.347900
2468.000000	15.397100
2467.000000	15.461000
2466.000000	15.476300
2465.000000	15.523800
2464.000000	15.574000
2463.000000	15.612900
2462.000000	15.657600
2461.000000	15.736100
2460.000000	15.777600
2459.000000	15.822500
2458.000000	15.921100
2457.000000	15.981400
2456.000000	16.044300
2455.000000	16.118600
2454.000000	16.204300
2453.000000	16.309500
2452.000000	16.377100
2451.000000	16.495900
2450.000000	16.581900
2449.000000	16.677400
2448.000000	16.772400
2447.000000	16.869100
2446.000000	16.969600
2445.000000	17.085600
2444.000000	17.192100
2443.000000	17.267900
2442.000000	17.379600
2441.000000	17.485900
2440.000000	17.589600
2439.000000	17.675900
2438.000000	17.759200
2437.000000	17.873100
2436.000000	17.966900
2435.000000	18.056300
2434.000000	18.133700
2433.000000	18.240500
2432.000000	18.314800
2431.000000	18.387900
2430.000000	18.481900
2429.000000	18.577200
2428.000000	18.636400
2427.000000	18.716000
2426.000000	18.801600
2425.000000	18.870900
2424.000000	18.929600
2423.000000	18.982200
2422.000000	19.055400
2421.000000	19.106300
2420.000000	19.156500
2419.000000	19.213800
2418.000000	19.283900
2417.000000	19.330000
2416.000000	19.379100
2415.000000	19.444900
2414.000000	19.499900
2413.000000	19.545900
2412.000000	19.597500
2411.000000	19.649000
2410.000000	19.673900
2409.000000	19.706100
2408.000000	19.743900
2407.000000	19.780200
2406.000000	19.807100
2405.000000	19.832800
2404.000000	19.859800
2403.000000	19.888400
2402.000000	19.905800
2401.000000	19.926500
2400.000000	19.970600
2399.000000	19.995500
2398.000000	19.999000
2397.000000	20.026700
2396.000000	20.036400
2395.000000	20.047200
2394.000000	20.065300
2393.000000	20.070600
2392.000000	20.078500
2391.000000	20.096300
2390.000000	20.097500
2389.000000	20.103400
2388.000000	20.107900
2387.000000	20.096700
2386.000000	20.090900
2385.000000	20.093400
2384.000000	20.092300
2383.000000	20.071400
2382.000000	20.069400
2381.000000	20.077800
2380.000000	20.055000
2379.000000	20.014200
2378.000000	20.007700
2377.000000	20.010300
2376.000000	19.987600
2375.000000	19.951900
2374.000000	19.927300
2373.000000	19.912800
2372.000000	19.904900
2371.000000	19.888400
2370.000000	19.871300
2369.000000	19.876700
2368.000000	19.872600
2367.000000	19.868900
2366.000000	19.873400
2365.000000	19.861500
2364.000000	19.853100
2363.000000	19.854400
2362.000000	19.851400
2361.000000	19.839800
2360.000000	19.847000
2359.000000	19.850000
2358.000000	19.831500
2357.000000	19.810000
2356.000000	19.791800
2355.000000	19.788300
2354.000000	19.774000
2353.000000	19.764300
2352.000000	19.768300
2351.000000	19.755400
2350.000000	19.739900
2349.000000	19.722900
2348.000000	19.715100
2347.000000	19.719500
2346.000000	19.700100
2345.000000	19.702800
2344.000000	19.692400
2343.000000	19.681100
2342.000000	19.683400
2341.000000	19.679600
2340.000000	19.684900
2339.000000	19.679200
2338.000000	19.686500
2337.000000	19.686100
2336.000000	19.693500
2335.000000	19.712900
2334.000000	19.716900
2333.000000	19.724900
2332.000000	19.737400
2331.000000	19.766700
2330.000000	19.809400
2329.000000	19.839800
2328.000000	19.846200
2327.000000	19.878300
2326.000000	19.895500
2325.000000	19.915400
2324.000000	19.959800
2323.000000	19.983500
2322.000000	19.985800
2321.000000	20.004000
2320.000000	20.013400
2319.000000	20.008000
2318.000000	19.991700
2317.000000	19.982200
2316.000000	19.967700
2315.000000	19.962200
2314.000000	19.939900
2313.000000	19.907500
2312.000000	19.883700
2311.000000	19.849000
2310.000000	19.822700
2309.000000	19.819100
2308.000000	19.793600
2307.000000	19.754100
2306.000000	19.722500
2305.000000	19.706400
2304.000000	19.696900
2303.000000	19.673800
2302.000000	19.683900
2301.000000	19.702300
2300.000000	19.700200
2299.000000	19.698300
2298.000000	19.722900
2297.000000	19.742700
2296.000000	19.742100
2295.000000	19.779100
2294.000000	19.794900
2293.000000	19.832700
2292.000000	19.857800
2291.000000	19.886400
2290.000000	19.934700
2289.000000	19.974300
2288.000000	20.001500
2287.000000	20.032600
2286.000000	20.061200
2285.000000	20.116500
2284.000000	20.180200
2283.000000	20.212300
2282.000000	20.248600
2281.000000	20.279900
2280.000000	20.332700
2279.000000	20.355200
2278.000000	20.363400
2277.000000	20.410200
2276.000000	20.467100
2275.000000	20.473100
2274.000000	20.524000
2273.000000	20.548300
2272.000000	20.599800
2271.000000	20.618700
2270.000000	20.680200
2269.000000	20.736700
2268.000000	20.790500
2267.000000	20.874900
2266.000000	20.936700
2265.000000	21.039100
2264.000000	21.139600
2263.000000	21.271800
2262.000000	21.392100
2261.000000	21.510900
2260.000000	21.652600
2259.000000	21.869000
2258.000000	22.003000
2257.000000	22.158800
2256.000000	22.327700
2255.000000	22.500400
2254.000000	22.721400
2253.000000	22.903300
2252.000000	23.061700
2251.000000	23.242400
2250.000000	23.410300
2249.000000	23.607700
2248.000000	23.753600
2247.000000	23.893200
2246.000000	24.033100
2245.000000	24.145900
2244.000000	24.299900
2243.000000	24.422000
2242.000000	24.526800
2241.000000	24.587100
2240.000000	24.700900
2239.000000	24.743400
2238.000000	24.807300
2237.000000	24.848300
2236.000000	24.875500
2235.000000	24.892100
2234.000000	24.933900
2233.000000	24.943700
2232.000000	24.922500
2231.000000	24.919600
2230.000000	24.902100
2229.000000	24.846700
2228.000000	24.831200
2227.000000	24.793000
2226.000000	24.736500
2225.000000	24.680500
2224.000000	24.637500
2223.000000	24.554900
2222.000000	24.486900
2221.000000	24.386400
2220.000000	24.328100
2219.000000	24.253200
2218.000000	24.167200
2217.000000	24.117500
2216.000000	24.045800
2215.000000	23.955400
2214.000000	23.891800
2213.000000	23.807300
2212.000000	23.725200
2211.000000	23.666300
2210.000000	23.615800
2209.000000	23.548000
2208.000000	23.494100
2207.000000	23.441400
2206.000000	23.393100
2205.000000	23.352200
2204.000000	23.304400
2203.000000	23.280800
2202.000000	23.246200
2201.000000	23.182200
2200.000000	23.152600
2199.000000	23.110200
2198.000000	23.106100
2197.000000	23.069100
2196.000000	23.007900
2195.000000	22.986400
2194.000000	22.963200
2193.000000	22.971300
2192.000000	22.940400
2191.000000	22.916200
2190.000000	22.876000
2189.000000	22.834900
2188.000000	22.821800
2187.000000	22.779300
2186.000000	22.745800
2185.000000	22.715900
2184.000000	22.685400
2183.000000	22.663200
2182.000000	22.655800
2181.000000	22.628600
2180.000000	22.608100
2179.000000	22.560600
2178.000000	22.560900
2177.000000	22.532800
2176.000000	22.525600
2175.000000	22.524800
2174.000000	22.500100
2173.000000	22.482800
2172.000000	22.499100
2171.000000	22.535400
2170.000000	22.550400
2169.000000	22.542500
2168.000000	22.551400
2167.000000	22.577600
2166.000000	22.599000
2165.000000	22.624700
2164.000000	22.649100
2163.000000	22.708800
2162.000000	22.770500
2161.000000	22.824200
2160.000000	22.883900
2159.000000	22.964600
2158.000000	23.029000
2157.000000	23.121000
2156.000000	23.222900
2155.000000	23.309300
2154.000000	23.393200
2153.000000	23.489900
2152.000000	23.611100
2151.000000	23.735000
2150.000000	23.826300
2149.000000	23.909500
2148.000000	24.032500
2147.000000	24.137900
2146.000000	24.253800
2145.000000	24.363200
2144.000000	24.470900
2143.000000	24.565700
2142.000000	24.672100
2141.000000	24.777700
2140.000000	24.882700
2139.000000	24.994700
2138.000000	25.102700
2137.000000	25.201000
2136.000000	25.299900
2135.000000	25.404800
2134.000000	25.505700
2133.000000	25.574300
2132.000000	25.653500
2131.000000	25.740100
2130.000000	25.822200
2129.000000	25.884000
2128.000000	25.957200
2127.000000	26.041100
2126.000000	26.105300
2125.000000	26.145100
2124.000000	26.220300
2123.000000	26.296400
2122.000000	26.353700
2121.000000	26.412000
2120.000000	26.438400
2119.000000	26.473300
2118.000000	26.512700
2117.000000	26.536200
2116.000000	26.574000
2115.000000	26.606500
2114.000000	26.624100
2113.000000	26.656700
2112.000000	26.668300
2111.000000	26.685300
2110.000000	26.704500
2109.000000	26.726300
2108.000000	26.741000
2107.000000	26.741500
2106.000000	26.762400
2105.000000	26.761900
2104.000000	26.754100
2103.000000	26.773200
2102.000000	26.796300
2101.000000	26.806800
2100.000000	26.810400
2099.000000	26.808300
2098.000000	26.813600
2097.000000	26.836300
2096.000000	26.869400
2095.000000	26.890200
2094.000000	26.902300
2093.000000	26.912100
2092.000000	26.936600
2091.000000	26.959900
2090.000000	26.977500
2089.000000	26.991800
2088.000000	27.005300
2087.000000	27.014500
2086.000000	27.012000
2085.000000	27.002000
2084.000000	26.992700
2083.000000	26.985100
2082.000000	26.973100
2081.000000	26.933700
2080.000000	26.906300
2079.000000	26.866500
2078.000000	26.796000
2077.000000	26.730500
2076.000000	26.673200
2075.000000	26.592000
2074.000000	26.514500
2073.000000	26.430400
2072.000000	26.326500
2071.000000	26.235800
2070.000000	26.145700
2069.000000	26.032200
2068.000000	25.911100
2067.000000	25.792700
2066.000000	25.661800
2065.000000	25.551200
2064.000000	25.440600
2063.000000	25.329400
2062.000000	25.237100
2061.000000	25.150200
2060.000000	25.059800
2059.000000	24.976700
2058.000000	24.909400
2057.000000	24.843300
2056.000000	24.815000
2055.000000	24.824800
2054.000000	24.826300
2053.000000	24.844900
2052.000000	24.899500
2051.000000	24.985400
2050.000000	25.060400
2049.000000	25.171600
2048.000000	25.284000
2047.000000	25.427200
2046.000000	25.564900
2045.000000	25.708200
2044.000000	25.873900
2043.000000	26.053400
2042.000000	26.222800
2041.000000	26.391400
2040.000000	26.563100
2039.000000	26.707100
2038.000000	26.841900
2037.000000	27.010800
2036.000000	27.166400
2035.000000	27.304600
2034.000000	27.436500
2033.000000	27.553300
2032.000000	27.686200
2031.000000	27.813300
2030.000000	27.894700
2029.000000	28.001900
2028.000000	28.083400
2027.000000	28.212900
2026.000000	28.335900
2025.000000	28.403800
2024.000000	28.468000
2023.000000	28.522700
2022.000000	28.619000
2021.000000	28.712900
2020.000000	28.757400
2019.000000	28.808100
2018.000000	28.857900
2017.000000	28.896600
2016.000000	28.936800
2015.000000	28.982800
2014.000000	29.007000
2013.000000	29.037900
2012.000000	29.045400
2011.000000	29.072300
2010.000000	29.059000
2009.000000	29.080600
2008.000000	29.059400
2007.000000	29.034600
2006.000000	29.022900
2005.000000	28.981500
2004.000000	28.962300
2003.000000	28.928200
2002.000000	28.904000
2001.000000	28.865700
2000.000000	28.778600
1999.000000	28.694400
1998.000000	28.666300
1997.000000	28.639100
1996.000000	28.532800
1995.000000	28.433700
1994.000000	28.389100
1993.000000	28.281500
1992.000000	28.196800
1991.000000	28.118300
1990.000000	28.039500
1989.000000	27.930000
1988.000000	27.838500
1987.000000	27.728700
1986.000000	27.617000
1985.000000	27.541900
1984.000000	27.429400
1983.000000	27.328800
1982.000000	27.240900
1981.000000	27.125800
1980.000000	27.016400
1979.000000	26.928000
1978.000000	26.839500
1977.000000	26.758600
1976.000000	26.663600
1975.000000	26.551200
1974.000000	26.438800
1973.000000	26.354700
1972.000000	26.280300
1971.000000	26.205000
1970.000000	26.109900
1969.000000	26.006100
1968.000000	25.927400
1967.000000	25.842400
1966.000000	25.726900
1965.000000	25.661500
1964.000000	25.561200
1963.000000	25.446100
1962.000000	25.346100
1961.000000	25.253600
1960.000000	25.168800
1959.000000	25.045200
1958.000000	24.931300
1957.000000	24.827000
1956.000000	24.722300
1955.000000	24.631700
1954.000000	24.569000
1953.000000	24.486100
1952.000000	24.368200
1951.000000	24.276300
1950.000000	24.197100
1949.000000	24.094800
1948.000000	23.994600
1947.000000	23.889300
1946.000000	23.788200
1945.000000	23.729900
1944.000000	23.667800
1943.000000	23.600900
1942.000000	23.519900
1941.000000	23.481100
1940.000000	23.381200
1939.000000	23.379200
1938.000000	23.361900
1937.000000	23.364900
1936.000000	23.366400
1935.000000	23.335900
1934.000000	23.326800
1933.000000	23.356800
1932.000000	23.361300
1931.000000	23.399700
1930.000000	23.420800
1929.000000	23.485300
1928.000000	23.573700
1927.000000	23.721200
1926.000000	23.846200
1925.000000	23.969700
1924.000000	24.063100
1923.000000	24.120900
1922.000000	24.256000
1921.000000	24.534600
1920.000000	24.848300
1919.000000	25.043900
1918.000000	25.304900
1917.000000	25.446200
1916.000000	25.549200
1915.000000	25.713900
1914.000000	26.078400
1913.000000	26.511400
1912.000000	26.926700
1911.000000	27.300300
1910.000000	27.653800
1909.000000	27.817000
1908.000000	28.065000
1907.000000	28.428000
1906.000000	28.939200
1905.000000	29.572400
1904.000000	30.141600
1903.000000	30.620700
1902.000000	31.076400
1901.000000	31.493200
1900.000000	32.130500
1899.000000	32.905300
1898.000000	33.609900
1897.000000	34.282300
1896.000000	34.724600
1895.000000	35.068800
1894.000000	35.543800
1893.000000	36.095600
1892.000000	36.770400
1891.000000	37.483900
1890.000000	38.115300
1889.000000	38.640100
1888.000000	39.177700
1887.000000	39.601100
1886.000000	40.056300
1885.000000	40.556400
1884.000000	41.118800
1883.000000	41.599600
1882.000000	42.007000
1881.000000	42.380400
1880.000000	42.621400
1879.000000	42.848400
1878.000000	43.117500
1877.000000	43.358500
1876.000000	43.541100
1875.000000	43.766800
1874.000000	43.986900
1873.000000	44.264200
1872.000000	44.555700
1871.000000	44.909900
1870.000000	45.340900
1869.000000	45.699400
1868.000000	45.918100
1867.000000	46.113500
1866.000000	46.107000
1865.000000	46.154800
1864.000000	46.139000
1863.000000	46.093000
1862.000000	46.123700
1861.000000	46.190400
1860.000000	46.312100
1859.000000	46.459000
1858.000000	46.606900
1857.000000	46.647800
1856.000000	46.561800
1855.000000	46.605800
1854.000000	46.785500
1853.000000	46.847400
1852.000000	46.879900
1851.000000	46.819200
1850.000000	46.598200
1849.000000	46.507300
1848.000000	46.746500
1847.000000	47.092400
1846.000000	47.198700
1845.000000	47.008300
1844.000000	46.665400
1843.000000	46.471000
1842.000000	46.582200
1841.000000	46.795800
1840.000000	46.821000
1839.000000	46.707100
1838.000000	46.605600
1837.000000	46.680500
1836.000000	46.848500
1835.000000	46.935400
1834.000000	46.837800
1833.000000	46.625400
1832.000000	46.490000
1831.000000	46.479800
1830.000000	46.551000
1829.000000	46.564000
1828.000000	46.493600
1827.000000	46.481700
1826.000000	46.574900
1825.000000	46.583000
1824.000000	46.474900
1823.000000	46.287000
1822.000000	46.246800
1821.000000	46.428200
1820.000000	46.623900
1819.000000	46.641400
1818.000000	46.518300
1817.000000	46.432800
1816.000000	46.466200
1815.000000	46.512700
1814.000000	46.505500
1813.000000	46.448900
1812.000000	46.416500
1811.000000	46.466400
1810.000000	46.471200
1809.000000	46.386700
1808.000000	46.296400
1807.000000	46.298300
1806.000000	46.319600
1805.000000	46.308800
1804.000000	46.267500
1803.000000	46.204600
1802.000000	46.181400
1801.000000	46.189600
1800.000000	46.208100
1799.000000	46.207800
1798.000000	46.158200
1797.000000	46.128800
1796.000000	46.112200
1795.000000	46.099100
1794.000000	46.085800
1793.000000	46.048300
1792.000000	46.027900
1791.000000	46.026600
1790.000000	46.013500
1789.000000	46.003200
1788.000000	46.001800
1787.000000	46.008500
1786.000000	46.008800
1785.000000	45.999000
1784.000000	46.000300
1783.000000	45.997200
1782.000000	45.982600
1781.000000	45.964600
1780.000000	45.966200
1779.000000	45.968200
1778.000000	45.920400
1777.000000	45.873400
1776.000000	45.826600
1775.000000	45.794000
1774.000000	45.744900
1773.000000	45.691700
1772.000000	45.675000
1771.000000	45.626900
1770.000000	45.587300
1769.000000	45.542200
1768.000000	45.502500
1767.000000	45.465300
1766.000000	45.449800
1765.000000	45.432700
1764.000000	45.415500
1763.000000	45.386900
1762.000000	45.382900
1761.000000	45.363500
1760.000000	45.336400
1759.000000	45.327600
1758.000000	45.309100
1757.000000	45.303000
1756.000000	45.303100
1755.000000	45.291400
1754.000000	45.271700
1753.000000	45.291400
1752.000000	45.290400
1751.000000	45.255900
1750.000000	45.217700
1749.000000	45.160000
1748.000000	45.118300
1747.000000	45.078100
1746.000000	45.017800
1745.000000	44.918300
1744.000000	44.863800
1743.000000	44.796200
1742.000000	44.702500
1741.000000	44.627600
1740.000000	44.585400
1739.000000	44.530100
1738.000000	44.454500
1737.000000	44.404700
1736.000000	44.363200
1735.000000	44.331200
1734.000000	44.275200
1733.000000	44.248000
1732.000000	44.216900
1731.000000	44.175400
1730.000000	44.150500
1729.000000	44.111100
1728.000000	44.060700
1727.000000	44.005300
1726.000000	43.970600
1725.000000	43.952100
1724.000000	43.951700
1723.000000	43.994200
1722.000000	44.076800
1721.000000	44.218400
1720.000000	44.366100
1719.000000	44.531900
1718.000000	44.726700
1717.000000	44.931300
1716.000000	45.136100
1715.000000	45.356500
1714.000000	45.515400
1713.000000	45.671200
1712.000000	45.855200
1711.000000	46.006700
1710.000000	46.125100
1709.000000	46.229500
1708.000000	46.326400
1707.000000	46.389100
1706.000000	46.436600
1705.000000	46.480300
1704.000000	46.540500
1703.000000	46.598800
1702.000000	46.585300
1701.000000	46.582800
1700.000000	46.585900
1699.000000	46.560100
1698.000000	46.549800
1697.000000	46.547000
1696.000000	46.517900
1695.000000	46.481700
1694.000000	46.450400
1693.000000	46.382100
1692.000000	46.345500
1691.000000	46.284400
1690.000000	46.209400
1689.000000	46.196700
1688.000000	46.189400
1687.000000	46.257100
1686.000000	46.381000
1685.000000	46.540900
1684.000000	46.719300
1683.000000	46.921600
1682.000000	47.134600
1681.000000	47.361500
1680.000000	47.582300
1679.000000	47.788700
1678.000000	47.978900
1677.000000	48.169400
1676.000000	48.360800
1675.000000	48.529700
1674.000000	48.720100
1673.000000	48.882000
1672.000000	49.052400
1671.000000	49.198600
1670.000000	49.381100
1669.000000	49.546300
1668.000000	49.719400
1667.000000	49.915900
1666.000000	50.045400
1665.000000	50.169800
1664.000000	50.297900
1663.000000	50.438100
1662.000000	50.549800
1661.000000	50.652100
1660.000000	50.766700
1659.000000	50.839500
1658.000000	50.940500
1657.000000	50.995700
1656.000000	51.048800
1655.000000	51.092000
1654.000000	51.120400
1653.000000	51.133400
1652.000000	51.150700
1651.000000	51.193200
1650.000000	51.227600
1649.000000	51.196100
1648.000000	51.187300
1647.000000	51.185300
1646.000000	51.185100
1645.000000	51.152900
1644.000000	51.145100
1643.000000	51.128700
1642.000000	51.115100
1641.000000	51.111100
1640.000000	51.122400
1639.000000	51.109300
1638.000000	51.089200
1637.000000	51.076600
1636.000000	51.060500
1635.000000	51.039200
1634.000000	51.015600
1633.000000	51.009300
1632.000000	50.975600
1631.000000	50.949200
1630.000000	50.910400
1629.000000	50.854400
1628.000000	50.818800
1627.000000	50.790000
1626.000000	50.744100
1625.000000	50.704300
1624.000000	50.676800
1623.000000	50.647500
1622.000000	50.612200
1621.000000	50.584500
1620.000000	50.551500
1619.000000	50.507000
1618.000000	50.473700
1617.000000	50.454400
1616.000000	50.434000
1615.000000	50.411900
1614.000000	50.367200
1613.000000	50.301300
1612.000000	50.252400
1611.000000	50.204300
1610.000000	50.155200
1609.000000	50.108200
1608.000000	50.038700
1607.000000	49.966600
1606.000000	49.907900
1605.000000	49.837800
1604.000000	49.766800
1603.000000	49.706300
1602.000000	49.636100
1601.000000	49.561900
1600.000000	49.494800
1599.000000	49.436000
1598.000000	49.376700
1597.000000	49.303400
1596.000000	49.241500
1595.000000	49.200600
1594.000000	49.147500
1593.000000	49.091400
1592.000000	49.042500
1591.000000	48.994800
1590.000000	48.956000
1589.000000	48.918200
1588.000000	48.866100
1587.000000	48.820700
1586.000000	48.774700
1585.000000	48.734700
1584.000000	48.701600
1583.000000	48.657200
1582.000000	48.623800
1581.000000	48.615500
1580.000000	48.600700
1579.000000	48.582700
1578.000000	48.561600
1577.000000	48.534200
1576.000000	48.499600
1575.000000	48.486000
1574.000000	48.468700
1573.000000	48.442000
1572.000000	48.445600
1571.000000	48.468900
1570.000000	48.465200
1569.000000	48.459600
1568.000000	48.477800
1567.000000	48.492500
1566.000000	48.517400
1565.000000	48.529300
1564.000000	48.526300
1563.000000	48.519000
1562.000000	48.503200
1561.000000	48.479600
1560.000000	48.468800
1559.000000	48.446000
1558.000000	48.421000
1557.000000	48.410900
1556.000000	48.379900
1555.000000	48.334500
1554.000000	48.300100
1553.000000	48.259000
1552.000000	48.182500
1551.000000	48.104100
1550.000000	48.022100
1549.000000	47.939600
1548.000000	47.848900
1547.000000	47.777800
1546.000000	47.718800
1545.000000	47.646700
1544.000000	47.582200
1543.000000	47.533300
1542.000000	47.495900
1541.000000	47.460100
1540.000000	47.411100
1539.000000	47.377100
1538.000000	47.325700
1537.000000	47.290500
1536.000000	47.269800
1535.000000	47.241700
1534.000000	47.180200
1533.000000	47.139700
1532.000000	47.113000
1531.000000	47.068200
1530.000000	47.015300
1529.000000	46.970700
1528.000000	46.910600
1527.000000	46.856400
1526.000000	46.810200
1525.000000	46.751900
1524.000000	46.683200
1523.000000	46.630900
1522.000000	46.583900
1521.000000	46.528000
1520.000000	46.474100
1519.000000	46.434400
1518.000000	46.370800
1517.000000	46.308200
1516.000000	46.244000
1515.000000	46.172900
1514.000000	46.104900
1513.000000	46.035100
1512.000000	45.978700
1511.000000	45.942200
1510.000000	45.887700
1509.000000	45.825200
1508.000000	45.754500
1507.000000	45.680800
1506.000000	45.629600
1505.000000	45.577400
1504.000000	45.532400
1503.000000	45.484400
1502.000000	45.435300
1501.000000	45.366200
1500.000000	45.309300
1499.000000	45.284700
1498.000000	45.295800
1497.000000	45.281500
1496.000000	45.255600
1495.000000	45.258900
1494.000000	45.268900
1493.000000	45.284300
1492.000000	45.306300
1491.000000	45.318900
1490.000000	45.346700
1489.000000	45.374700
1488.000000	45.401000
1487.000000	45.446700
1486.000000	45.474500
1485.000000	45.521200
1484.000000	45.567700
1483.000000	45.606400
1482.000000	45.639800
1481.000000	45.689900
1480.000000	45.714400
1479.000000	45.739900
1478.000000	45.764000
1477.000000	45.832700
1476.000000	45.891500
1475.000000	45.949000
1474.000000	45.988200
1473.000000	46.065000
1472.000000	46.127600
1471.000000	46.222900
1470.000000	46.296600
1469.000000	46.349000
1468.000000	46.395500
1467.000000	46.471400
1466.000000	46.555400
1465.000000	46.633600
1464.000000	46.714000
1463.000000	46.831600
1462.000000	46.887500
1461.000000	46.950200
1460.000000	47.058800
1459.000000	47.120700
1458.000000	47.202600
1457.000000	47.320900
1456.000000	47.422400
1455.000000	47.513200
1454.000000	47.602300
1453.000000	47.709700
1452.000000	47.802300
1451.000000	47.888800
1450.000000	47.974000
1449.000000	47.981100
1448.000000	48.045600
1447.000000	48.108300
1446.000000	48.283800
1445.000000	48.435400
1444.000000	48.512100
1443.000000	48.539600
1442.000000	48.619300
1441.000000	48.733500
1440.000000	48.858300
1439.000000	48.946000
1438.000000	49.035900
1437.000000	49.134300
1436.000000	49.262700
1435.000000	49.346900
1434.000000	49.489300
1433.000000	49.616000
1432.000000	49.752400
1431.000000	49.910100
1430.000000	49.998800
1429.000000	50.114700
1428.000000	50.366300
1427.000000	50.523500
1426.000000	50.653200
1425.000000	50.863800
1424.000000	51.114400
1423.000000	51.347000
1422.000000	51.510200
1421.000000	51.698000
1420.000000	51.970200
1419.000000	52.295800
1418.000000	52.563400
1417.000000	52.773600
1416.000000	52.918400
1415.000000	53.167100
1414.000000	53.638100
1413.000000	53.945600
1412.000000	54.096600
1411.000000	54.319900
1410.000000	54.662100
1409.000000	55.136600
1408.000000	55.417000
1407.000000	55.705000
1406.000000	55.991300
1405.000000	56.354600
1404.000000	56.689600
1403.000000	57.009300
1402.000000	57.109500
1401.000000	57.520800
1400.000000	58.190300
1399.000000	58.431400
1398.000000	58.339800
1397.000000	58.511800
1396.000000	58.997500
1395.000000	59.525000
1394.000000	59.573000
1393.000000	59.618000
1392.000000	59.983600
1391.000000	60.307700
1390.000000	60.372400
1389.000000	60.522700
1388.000000	60.969400
1387.000000	61.196500
1386.000000	61.269400
1385.000000	61.406900
1384.000000	61.621800
1383.000000	61.833700
1382.000000	62.095600
1381.000000	62.363100
1380.000000	62.324100
1379.000000	62.500200
1378.000000	62.495700
1377.000000	62.600600
1376.000000	62.637200
1375.000000	62.749400
1374.000000	62.791500
1373.000000	62.884400
1372.000000	62.988600
1371.000000	63.179100
1370.000000	63.244400
1369.000000	63.196200
1368.000000	63.335100
1367.000000	63.458200
1366.000000	63.423900
1365.000000	63.536800
1364.000000	63.704900
1363.000000	63.640800
1362.000000	63.728900
1361.000000	64.006900
1360.000000	64.043300
1359.000000	63.982500
1358.000000	64.017900
1357.000000	64.060800
1356.000000	64.124700
1355.000000	64.307900
1354.000000	64.467800
1353.000000	64.495800
1352.000000	64.559200
1351.000000	64.701300
1350.000000	64.849600
1349.000000	64.965600
1348.000000	65.126000
1347.000000	65.289100
1346.000000	65.370300
1345.000000	65.451600
1344.000000	65.566300
1343.000000	65.686600
1342.000000	65.766100
1341.000000	65.863800
1340.000000	65.965300
1339.000000	66.034300
1338.000000	66.095700
1337.000000	66.183300
1336.000000	66.297800
1335.000000	66.401800
1334.000000	66.473300
1333.000000	66.552400
1332.000000	66.594400
1331.000000	66.609600
1330.000000	66.666500
1329.000000	66.736100
1328.000000	66.802900
1327.000000	66.862000
1326.000000	66.909500
1325.000000	66.953000
1324.000000	67.026800
1323.000000	67.086900
1322.000000	67.146200
1321.000000	67.170500
1320.000000	67.176200
1319.000000	67.167300
1318.000000	67.182700
1317.000000	67.241500
1316.000000	67.299900
1315.000000	67.353600
1314.000000	67.397200
1313.000000	67.402900
1312.000000	67.389700
1311.000000	67.366300
1310.000000	67.365800
1309.000000	67.397300
1308.000000	67.411000
1307.000000	67.415400
1306.000000	67.432200
1305.000000	67.434500
1304.000000	67.445500
1303.000000	67.471700
1302.000000	67.484800
1301.000000	67.504400
1300.000000	67.509000
1299.000000	67.508900
1298.000000	67.506000
1297.000000	67.510800
1296.000000	67.527600
1295.000000	67.528800
1294.000000	67.500200
1293.000000	67.463300
1292.000000	67.452500
1291.000000	67.458500
1290.000000	67.484400
1289.000000	67.485400
1288.000000	67.456400
1287.000000	67.433400
1286.000000	67.391300
1285.000000	67.360600
1284.000000	67.353800
1283.000000	67.366300
1282.000000	67.374700
1281.000000	67.356500
1280.000000	67.313400
1279.000000	67.284100
1278.000000	67.260600
1277.000000	67.238800
1276.000000	67.240600
1275.000000	67.252100
1274.000000	67.247400
1273.000000	67.216500
1272.000000	67.185400
1271.000000	67.189100
1270.000000	67.213000
1269.000000	67.242900
1268.000000	67.263000
1267.000000	67.256500
1266.000000	67.258600
1265.000000	67.261000
1264.000000	67.234800
1263.000000	67.212600
1262.000000	67.200200
1261.000000	67.206600
1260.000000	67.243200
1259.000000	67.257600
1258.000000	67.276500
1257.000000	67.275000
1256.000000	67.243000
1255.000000	67.233700
1254.000000	67.227800
1253.000000	67.241800
1252.000000	67.202200
1251.000000	67.157500
1250.000000	67.153100
1249.000000	67.151500
1248.000000	67.108100
1247.000000	67.098800
1246.000000	67.082400
1245.000000	67.063300
1244.000000	66.996500
1243.000000	66.946400
1242.000000	66.921900
1241.000000	66.926100
1240.000000	66.914400
1239.000000	66.876600
1238.000000	66.837200
1237.000000	66.800400
1236.000000	66.803300
1235.000000	66.799400
1234.000000	66.796300
1233.000000	66.773500
1232.000000	66.747700
1231.000000	66.721100
1230.000000	66.704600
1229.000000	66.682000
1228.000000	66.668800
1227.000000	66.654300
1226.000000	66.643700
1225.000000	66.609100
1224.000000	66.596700
1223.000000	66.603600
1222.000000	66.588800
1221.000000	66.540100
1220.000000	66.550200
1219.000000	66.546500
1218.000000	66.523000
1217.000000	66.487900
1216.000000	66.463200
1215.000000	66.412700
1214.000000	66.395000
1213.000000	66.389100
1212.000000	66.368900
1211.000000	66.357200
1210.000000	66.285800
1209.000000	66.210100
1208.000000	66.181600
1207.000000	66.178900
1206.000000	66.151700
1205.000000	66.125100
1204.000000	66.046700
1203.000000	65.955900
1202.000000	65.930400
1201.000000	65.914400
1200.000000	65.841200
1199.000000	65.804900
1198.000000	65.763900
1197.000000	65.720900
1196.000000	65.677500
1195.000000	65.621400
1194.000000	65.557900
1193.000000	65.482700
1192.000000	65.435500
1191.000000	65.389300
1190.000000	65.300000
1189.000000	65.256500
1188.000000	65.244800
1187.000000	65.172800
1186.000000	65.146000
1185.000000	65.161800
1184.000000	65.183200
1183.000000	65.190500
1182.000000	65.204600
1181.000000	65.240000
1180.000000	65.282400
1179.000000	65.272800
1178.000000	65.324200
1177.000000	65.394800
1176.000000	65.455000
1175.000000	65.472300
1174.000000	65.477000
1173.000000	65.539200
1172.000000	65.545500
1171.000000	65.618300
1170.000000	65.651500
1169.000000	65.739500
1168.000000	65.839700
1167.000000	65.908700
1166.000000	65.991600
1165.000000	66.072200
1164.000000	66.182000
1163.000000	66.222600
1162.000000	66.280900
1161.000000	66.356200
1160.000000	66.457400
1159.000000	66.546000
1158.000000	66.605600
1157.000000	66.660100
1156.000000	66.731100
1155.000000	66.777600
1154.000000	66.822400
1153.000000	66.856400
1152.000000	66.909100
1151.000000	66.907700
1150.000000	66.938600
1149.000000	66.989700
1148.000000	67.025000
1147.000000	67.093200
1146.000000	67.128500
1145.000000	67.143900
1144.000000	67.201000
1143.000000	67.256700
1142.000000	67.257200
1141.000000	67.319500
1140.000000	67.347800
1139.000000	67.386200
1138.000000	67.416900
1137.000000	67.469400
1136.000000	67.516900
1135.000000	67.612600
1134.000000	67.734600
1133.000000	67.772100
1132.000000	67.734100
1131.000000	67.746500
1130.000000	67.820100
1129.000000	67.907600
1128.000000	67.958800
1127.000000	67.923300
1126.000000	67.938900
1125.000000	67.917900
1124.000000	67.938400
1123.000000	67.927600
1122.000000	67.966100
1121.000000	67.944200
1120.000000	67.945800
1119.000000	67.953500
1118.000000	67.964200
1117.000000	67.935400
1116.000000	67.920900
1115.000000	67.885100
1114.000000	67.868700
1113.000000	67.895300
1112.000000	67.868600
1111.000000	67.820500
1110.000000	67.801300
1109.000000	67.763600
1108.000000	67.761400
1107.000000	67.762500
1106.000000	67.751500
1105.000000	67.719900
1104.000000	67.679000
1103.000000	67.637400
1102.000000	67.617200
1101.000000	67.603600
1100.000000	67.585500
1099.000000	67.576900
1098.000000	67.523600
1097.000000	67.499600
1096.000000	67.486000
1095.000000	67.452600
1094.000000	67.426400
1093.000000	67.400400
1092.000000	67.360900
1091.000000	67.328800
1090.000000	67.260400
1089.000000	67.221900
1088.000000	67.179900
1087.000000	67.134400
1086.000000	67.109100
1085.000000	67.074400
1084.000000	67.049400
1083.000000	67.017500
1082.000000	66.969200
1081.000000	66.906000
1080.000000	66.861900
1079.000000	66.822300
1078.000000	66.784100
1077.000000	66.742200
1076.000000	66.713500
1075.000000	66.703000
1074.000000	66.673600
1073.000000	66.632400
1072.000000	66.564500
1071.000000	66.499700
1070.000000	66.459600
1069.000000	66.424800
1068.000000	66.380800
1067.000000	66.327400
1066.000000	66.300200
1065.000000	66.286300
1064.000000	66.245600
1063.000000	66.165900
1062.000000	66.111000
1061.000000	66.088500
1060.000000	66.058300
1059.000000	66.031800
1058.000000	65.967500
1057.000000	65.905100
1056.000000	65.860300
1055.000000	65.830600
1054.000000	65.790600
1053.000000	65.738800
1052.000000	65.718300
1051.000000	65.691000
1050.000000	65.652500
1049.000000	65.572300
1048.000000	65.520500
1047.000000	65.517700
1046.000000	65.474400
1045.000000	65.403300
1044.000000	65.344300
1043.000000	65.286300
1042.000000	65.252100
1041.000000	65.216100
1040.000000	65.176100
1039.000000	65.136300
1038.000000	65.082900
1037.000000	65.032600
1036.000000	64.991100
1035.000000	64.950700
1034.000000	64.904300
1033.000000	64.847300
1032.000000	64.804500
1031.000000	64.771400
1030.000000	64.720700
1029.000000	64.662800
1028.000000	64.612800
1027.000000	64.557600
1026.000000	64.507700
1025.000000	64.471900
1024.000000	64.429700
1023.000000	64.391000
1022.000000	64.351800
1021.000000	64.308000
1020.000000	64.274100
1019.000000	64.200200
1018.000000	64.151400
1017.000000	64.105700
1016.000000	64.047900
1015.000000	63.975700
1014.000000	63.906900
1013.000000	63.887900
1012.000000	63.860400
1011.000000	63.820400
1010.000000	63.779300
1009.000000	63.702800
1008.000000	63.625300
1007.000000	63.575500
1006.000000	63.549100
1005.000000	63.517600
1004.000000	63.466800
1003.000000	63.444900
1002.000000	63.404100
1001.000000	63.327000
1000.000000	63.271900
999.000000	63.219900
998.000000	63.148100
997.000000	63.100800
996.000000	63.021200
995.000000	62.971500
994.000000	62.924500
993.000000	62.837700
992.000000	62.784200
991.000000	62.709400
990.000000	62.660900
989.000000	62.611000
988.000000	62.525100
987.000000	62.442800
986.000000	62.408700
985.000000	62.359800
984.000000	62.298600
983.000000	62.256000
982.000000	62.197800
981.000000	62.173700
980.000000	62.105300
979.000000	62.005900
978.000000	61.969600
977.000000	61.957000
976.000000	61.865800
975.000000	61.779300
974.000000	61.727900
973.000000	61.674800
972.000000	61.601400
971.000000	61.545400
970.000000	61.490300
969.000000	61.443300
968.000000	61.344800
967.000000	61.262200
966.000000	61.175500
965.000000	61.126900
964.000000	61.077400
963.000000	61.008000
962.000000	60.890700
961.000000	60.803400
960.000000	60.770700
959.000000	60.738300
958.000000	60.660000
957.000000	60.565900
956.000000	60.483900
955.000000	60.452000
954.000000	60.454900
953.000000	60.379800
952.000000	60.313800
951.000000	60.238800
950.000000	60.112800
949.000000	60.056900
948.000000	60.012300
947.000000	59.917800
946.000000	59.857100
945.000000	59.781000
944.000000	59.694800
943.000000	59.676300
942.000000	59.609400
941.000000	59.488400
940.000000	59.370700
939.000000	59.236100
938.000000	59.133800
937.000000	59.075800
936.000000	59.063200
935.000000	58.972900
934.000000	58.893500
933.000000	58.831600
932.000000	58.798800
931.000000	58.692100
930.000000	58.584400
929.000000	58.541500
928.000000	58.411000
927.000000	58.301700
926.000000	58.261400
925.000000	58.162400
924.000000	58.029700
923.000000	57.917400
922.000000	57.874200
921.000000	57.737600
920.000000	57.624300
919.000000	57.531000
918.000000	57.453500
917.000000	57.369300
916.000000	57.274900
915.000000	57.239900
914.000000	57.117800
913.000000	57.007300
912.000000	56.893100
911.000000	56.831500
910.000000	56.738200
909.000000	56.644500
908.000000	56.546500
907.000000	56.544300
906.000000	56.396100
905.000000	56.232300
904.000000	56.091800
903.000000	55.970900
902.000000	55.853300
901.000000	55.774500
900.000000	55.679000
899.000000	55.571100
898.000000	55.429400
897.000000	55.335000
896.000000	55.234400
895.000000	55.105000
894.000000	54.949600
893.000000	54.829400
892.000000	54.674700
891.000000	54.577300
890.000000	54.448400
889.000000	54.346400
888.000000	54.223700
887.000000	54.098300
886.000000	53.964600
885.000000	53.840600
884.000000	53.668100
883.000000	53.505800
882.000000	53.397800
881.000000	53.270600
880.000000	53.106900
879.000000	53.010400
878.000000	52.873300
877.000000	52.705500
876.000000	52.559300
875.000000	52.460200
874.000000	52.289500
873.000000	52.179300
872.000000	52.045600
871.000000	51.905300
870.000000	51.814600
869.000000	51.680700
868.000000	51.548600
867.000000	51.393400
866.000000	51.294300
865.000000	51.142200
864.000000	51.054100
863.000000	50.920100
862.000000	50.767100
861.000000	50.604300
860.000000	50.469200
859.000000	50.351500
858.000000	51.402300
857.000000	50.632280
856.000000	50.411740
855.000000	50.334626
854.000000	50.406686
853.000000	50.250453
852.000000	50.203313
851.000000	50.366953
850.000000	50.494868
849.000000	50.460623
848.000000	50.237644
847.000000	50.136567
846.000000	50.121667
845.000000	50.036100
844.000000	50.042286
843.000000	50.070083
842.000000	49.866970
841.000000	49.857472
840.000000	49.906791
839.000000	49.945392
838.000000	49.685118
837.000000	49.694355
836.000000	49.744719
835.000000	49.707686
834.000000	49.610705
833.000000	49.557552
832.000000	49.484881
831.000000	49.468326
830.000000	49.451247
829.000000	49.420227
828.000000	49.251794
827.000000	49.184003
826.000000	49.145750
825.000000	49.204392
824.000000	49.165094
823.000000	49.092685
822.000000	49.007292
821.000000	48.878680
820.000000	48.800259
819.000000	48.817947
818.000000	48.724712
817.000000	48.624942
816.000000	48.561856
815.000000	48.460256
814.000000	48.489185
813.000000	48.393423
812.000000	48.374341
811.000000	48.273787
810.000000	48.201377
809.000000	48.109188
808.000000	47.916009
807.000000	47.887254
806.000000	47.811011
805.000000	47.808745
804.000000	47.773368
803.000000	47.592214
802.000000	47.517190
801.000000	47.465606
800.000000	47.334293
799.000000	47.341874
798.000000	47.313903
797.000000	47.259008
796.000000	47.087177
795.000000	47.020344
794.000000	46.935039
793.000000	46.803377
792.000000	46.747959
791.000000	46.711101
790.000000	46.585539
789.000000	46.525328
788.000000	46.463723
787.000000	46.328315
786.000000	46.228196
785.000000	46.136704
784.000000	46.111435
783.000000	46.090348
782.000000	45.946836
781.000000	45.888194
780.000000	45.862402
779.000000	45.764200
778.000000	45.651360
777.000000	45.553071
776.000000	45.539653
775.000000	45.437181
774.000000	45.350569
773.000000	45.257595
772.000000	45.155473
771.000000	45.058839
770.000000	44.964646
769.000000	44.894241
768.000000	44.860781
767.000000	44.750554
766.000000	44.627781
765.000000	44.553193
764.000000	44.422751
763.000000	44.279849
762.000000	44.232099
761.000000	44.206830
760.000000	44.133723
759.000000	44.075081
758.000000	43.969124
757.000000	43.836504
756.000000	43.738826
755.000000	43.644981
754.000000	43.523688
753.000000	43.428885
752.000000	43.353774
751.000000	43.252174
750.000000	43.174275
749.000000	43.102999
748.000000	42.967155
747.000000	42.874878
746.000000	42.815103
745.000000	42.701217
744.000000	42.583585
743.000000	42.493487
742.000000	42.429878
741.000000	42.369667
740.000000	42.260922
739.000000	42.179625
738.000000	42.091008
737.000000	41.956733
736.000000	41.880054
735.000000	41.834743
734.000000	41.781068
733.000000	41.697418
732.000000	41.603224
731.000000	41.517396
730.000000	41.399850
729.000000	41.297379
728.000000	41.221746
727.000000	41.178265
726.000000	41.123108
725.000000	41.035276
724.000000	40.919125
723.000000	40.799488
722.000000	40.710871
721.000000	40.651358
720.000000	40.555334
719.000000	40.467589
718.000000	40.394831
717.000000	40.285999
716.000000	40.175860
715.000000	40.060144
714.000000	39.956279
713.000000	39.891014
712.000000	39.792987
711.000000	39.672566
710.000000	39.574800
709.000000	39.470412
708.000000	39.373081
707.000000	39.281415
706.000000	39.126575
705.000000	39.005109
704.000000	38.920065
703.000000	38.800602
702.000000	38.667285
701.000000	38.525603
700.000000	38.440820
699.000000	38.370763
698.000000	38.242064
697.000000	38.142730
696.000000	38.011591
695.000000	37.899099
694.000000	37.790441
693.000000	37.689364
692.000000	37.608154
691.000000	37.507251
690.000000	37.378030
689.000000	37.259177
688.000000	37.208464
687.000000	37.155486
686.000000	37.086649
685.000000	37.035501
684.000000	36.993850
683.000000	36.919959
682.000000	36.847898
681.000000	36.780542
680.000000	36.714494
679.000000	36.647400
678.000000	36.592591
677.000000	36.574816
676.000000	36.509987
675.000000	36.450648
674.000000	36.390437
673.000000	36.329791
672.000000	36.255377
671.000000	36.222005
670.000000	36.183839
669.000000	36.073439
668.000000	36.027257
667.000000	35.985171
666.000000	35.941951
665.000000	35.854293
664.000000	35.784672
663.000000	35.694574
662.000000	35.632534
661.000000	35.580078
660.000000	35.495208
659.000000	35.413040
658.000000	35.336622
657.000000	35.277370
656.000000	35.154422
655.000000	35.079660
654.000000	34.987470
653.000000	34.904953
652.000000	34.796731
651.000000	34.675700
650.000000	34.545781
649.000000	34.434684
648.000000	34.327768
647.000000	34.213185
646.000000	34.058607
645.000000	33.954219
644.000000	33.871005
643.000000	33.662490
642.000000	33.505036
641.000000	33.342267
640.000000	33.178279
639.000000	33.020389
638.000000	32.853089
637.000000	32.670192
636.000000	32.526854
635.000000	32.409396
634.000000	32.255689
633.000000	32.133700
632.000000	32.067651
631.000000	31.977204
630.000000	31.865235
629.000000	31.771042
628.000000	31.710744
627.000000	31.646961
626.000000	31.565925
625.000000	31.537955
624.000000	31.524623
623.000000	31.532640
622.000000	31.563921
621.000000	31.588406
620.000000	31.607925
619.000000	31.638771
618.000000	31.695583
617.000000	31.782805
616.000000	31.882924
615.000000	31.942612
614.000000	32.074273
613.000000	32.139625
612.000000	32.234341
611.000000	32.380641
610.000000	32.482154
609.000000	32.657557
608.000000	32.760290
607.000000	32.878446
606.000000	32.981788
605.000000	33.131051
604.000000	33.287546
603.000000	33.359084
602.000000	33.451448
601.000000	33.592259
600.000000	33.681747
599.000000	33.801558
598.000000	33.903768
597.000000	34.018089
596.000000	34.061657
595.000000	34.147921
594.000000	34.202642
593.000000	34.273309
592.000000	34.363145
591.000000	34.457513
590.000000	34.556063
589.000000	34.602855
588.000000	34.638929
587.000000	34.688858
586.000000	34.709160
585.000000	34.832718
584.000000	34.886568
583.000000	34.916194
582.000000	34.966819
581.000000	35.042540
580.000000	35.133422
579.000000	35.174114
578.000000	35.206006
577.000000	35.271967
576.000000	35.318236
575.000000	35.394131
574.000000	35.433865
573.000000	35.450334
572.000000	35.496690
571.000000	35.542261
570.000000	35.624953
569.000000	35.690217
568.000000	35.751909
567.000000	35.815257
566.000000	35.858040
565.000000	35.929665
564.000000	35.946395
563.000000	35.986303
562.000000	36.000942
561.000000	35.999112
560.000000	35.999461
559.000000	36.146545
558.000000	36.143496
557.000000	36.145325
556.000000	36.144193
555.000000	36.171727
554.000000	36.160226
553.000000	36.135131
552.000000	36.117442
551.000000	36.031091
550.000000	35.998328
549.000000	35.896554
548.000000	35.787373
547.000000	35.736748
546.000000	35.603343
545.000000	35.489196
544.000000	35.408944
543.000000	35.276237
542.000000	35.078178
541.000000	34.869576
540.000000	34.662543
539.000000	34.448277
538.000000	34.172667
537.000000	33.925987
536.000000	33.666324
535.000000	33.338346
534.000000	33.006448
533.000000	32.677424
532.000000	32.338293
531.000000	31.948101
530.000000	31.563747
529.000000	31.156650
528.000000	30.746417
527.000000	30.335574
526.000000	29.922203
525.000000	29.489402
524.000000	29.035427
523.000000	28.566464
522.000000	28.118588
521.000000	27.651107
520.000000	27.153302
519.000000	26.687477
518.000000	26.214419
517.000000	25.719490
516.000000	25.262900
515.000000	24.809186
514.000000	24.365057
513.000000	23.906551
512.000000	23.466779
511.000000	23.037724
510.000000	22.630192
509.000000	22.195038
508.000000	21.775742
507.000000	21.357754
506.000000	20.966952
505.000000	20.584340
504.000000	20.217326
503.000000	19.857980
502.000000	19.501770
501.000000	19.137544
500.000000	18.801463
499.000000	18.475402
498.000000	18.168337
497.000000	17.870247
496.000000	17.582875
495.000000	17.298378
494.000000	17.018499
493.000000	16.738794
492.000000	16.459090
491.000000	16.199252
490.000000	15.951613
489.000000	15.698746
488.000000	15.455726
487.000000	15.233182
486.000000	15.008373
485.000000	14.797766
484.000000	14.576268
483.000000	14.339609
482.000000	14.083779
481.000000	13.804075
480.000000	13.531515
479.000000	13.286403
478.000000	13.086428
477.000000	12.897867
476.000000	12.711833
475.000000	12.513774
474.000000	12.320856
473.000000	12.141183
472.000000	11.961161
471.000000	11.781488
470.000000	11.603906
469.000000	11.430245
468.000000	11.267389
467.000000	11.114031
466.000000	10.952743
465.000000	10.796771
464.000000	10.652388
463.000000	10.510531
462.000000	10.366409
461.000000	10.230391
460.000000	10.105962
459.000000	9.991640
458.000000	9.880107
457.000000	9.781121
456.000000	9.701218
455.000000	9.622099
454.000000	9.546553
453.000000	9.475799
452.000000	9.412626
451.000000	9.359473
450.000000	9.298130
449.000000	9.237135
448.000000	9.185028
447.000000	9.144684
446.000000	9.105473
445.000000	9.070096
444.000000	9.026093
443.000000	8.967538
442.000000	8.913775
441.000000	8.860623
440.000000	8.812263
439.000000	8.758936
438.000000	8.700904
437.000000	8.648622
436.000000	8.593204
435.000000	8.537873
434.000000	8.480538
433.000000	8.442896
432.000000	8.398283
431.000000	8.338159
430.000000	8.290496
429.000000	8.253638
428.000000	8.201705
427.000000	8.145764
426.000000	8.102894
425.000000	8.065164
424.000000	8.016368
423.000000	7.961909
422.000000	7.923308
421.000000	7.897515
420.000000	7.858305
419.000000	7.808202
418.000000	7.764895
417.000000	7.715054
416.000000	7.661379
415.000000	7.615458
414.000000	7.572500
413.000000	7.523095
412.000000	7.470204
411.000000	7.406856
410.000000	7.336015
409.000000	7.269531
408.000000	7.206706
407.000000	7.143359
406.000000	7.066244
405.000000	6.991830
404.000000	6.925869
403.000000	6.847360
402.000000	6.759527
401.000000	6.679624
400.000000	6.588568
399.000000	6.504569
398.000000	6.411857
397.000000	6.330734
396.000000	6.241420
395.000000	6.148708
394.000000	6.064536
393.000000	5.976355
392.000000	5.883207
391.000000	5.780736
390.000000	5.691770
389.000000	5.592785
388.000000	5.510355
387.000000	5.433240
386.000000	5.350635
385.000000	5.259405
384.000000	5.183597
383.000000	5.128614
382.000000	5.040433
381.000000	4.953385
380.000000	4.884200
379.000000	4.816670
378.000000	4.750621
377.000000	4.689801
376.000000	4.689452
375.000000	4.598570
374.000000	4.503941
373.000000	4.479456
372.000000	4.352848
371.000000	4.365657
370.000000	4.342305
369.000000	4.281484
368.000000	4.248460
367.000000	4.181627
366.000000	4.186507
365.000000	4.157055
364.000000	4.104599
363.000000	4.089961
362.000000	4.084471
361.000000	4.092052
360.000000	4.047264
359.000000	4.032277
358.000000	4.005701
357.000000	3.980519
356.000000	3.948278
355.000000	3.896607
354.000000	3.895039
353.000000	3.886151
352.000000	3.904972
351.000000	3.871512
350.000000	3.914296
349.000000	3.879877
348.000000	3.847724
347.000000	3.856961
346.000000	3.848857
345.000000	3.833086
344.000000	3.853562
343.000000	3.821932
342.000000	3.872471
341.000000	3.816704
340.000000	3.862102
339.000000	3.864106
338.000000	3.810343
337.000000	3.787862
336.000000	3.873255
335.000000	3.823413
334.000000	3.705519
333.000000	3.857571
332.000000	3.782808
331.000000	3.823413
330.000000	3.772962
329.000000	3.814613
328.000000	3.772962
327.000000	3.720071
326.000000	3.766688
325.000000	3.653499
324.000000	3.735494
323.000000	3.807119
322.000000	3.841363
321.000000	3.853562
320.000000	3.870902
319.000000	3.769825
318.000000	3.790738
317.000000	3.683561
316.000000	3.829862
315.000000	3.823762
314.000000	3.808862
313.000000	3.828032
312.000000	3.836397
311.000000	3.804505
310.000000	3.860097
309.000000	3.794659
308.000000	3.835612
307.000000	3.815746
306.000000	3.818098
305.000000	3.828554
304.000000	3.829077
303.000000	3.795443
302.000000	3.794397
301.000000	3.813132
300.000000	3.836919
299.000000	3.808600
298.000000	3.812347
297.000000	3.824459
296.000000	3.830471
295.000000	3.796227
294.000000	3.847027
293.000000	3.868811
292.000000	3.812957
291.000000	3.853998
290.000000	3.853649
289.000000	3.814700
288.000000	3.861666
287.000000	3.817575
286.000000	3.858093
285.000000	3.863321
284.000000	3.805899
283.000000	3.809559
282.000000	3.832301
281.000000	3.832476
280.000000	3.840318
279.000000	3.874998
278.000000	3.879529
277.000000	3.849728
276.000000	3.871251
275.000000	3.899831
274.000000	3.892512
273.000000	3.875346
272.000000	3.853301
271.000000	3.918304
270.000000	3.938694
269.000000	3.963701
268.000000	3.939129
267.000000	3.952635
266.000000	3.969452
265.000000	3.982784
264.000000	4.008489
263.000000	4.045347
262.000000	4.048746
261.000000	4.049094
260.000000	4.061293
259.000000	4.094405
258.000000	4.109043
257.000000	4.117670
256.000000	4.097106
255.000000	4.149387
254.000000	4.115753
253.000000	4.147296
252.000000	4.145117
251.000000	4.171258
250.000000	4.188162
