PE UV       SUBTECH     SPECTRUM    ASCII       PEDS        4.00        
   -1
CICIMAUCR0013-4.Sample.ASC
24/04/23
10:18:00.00
24/04/23
10:18:00.00
Vinicio Soto Monge
C. resplendens
250,000000
1
Lambda 1050
1050L1511233
PerkinElmer UV WinLab 6.3.2.0749 / 2.02.05 Lambda 900 UV/VIS/NIR, Aug  7 2015 09:38:08

0
0
3350/servo 860,8/2
0
0
UV/VIS
1
1
1
DoubleDePol,CommonBeamDepol,RBeamAtt,SBeamAtt,60mm sphere, WB InGaAs Detector
0
0
0
0
Program
Program
3350/servo 860,8/2
3350/0,2 860,8/0,2
3350/0,2 860,8/0,2
0
15.00
 
 
 
0
 
860,8
319,2
860,8
Front
100
on
S:100 R:100
0
0
0
0
 
0
 
 
 
0
 
 
0
0
0
0
0
 
 
 
 
0
0


0
0
#HDR
-1
-1
#GR
nm
%R
1.0
0.0
2500,000000
-1,000000
2251
8
89,980400
5,750600
#DATA
2500.000000	7.525600
2499.000000	7.574800
2498.000000	7.630700
2497.000000	7.565700
2496.000000	7.491600
2495.000000	7.545900
2494.000000	7.404700
2493.000000	7.456200
2492.000000	7.427100
2491.000000	7.474100
2490.000000	7.500800
2489.000000	7.405300
2488.000000	7.371700
2487.000000	7.370400
2486.000000	7.387000
2485.000000	7.323200
2484.000000	7.334100
2483.000000	7.317700
2482.000000	7.363500
2481.000000	7.311900
2480.000000	7.391100
2479.000000	7.343800
2478.000000	7.353300
2477.000000	7.319400
2476.000000	7.302700
2475.000000	7.319900
2474.000000	7.306100
2473.000000	7.351000
2472.000000	7.310400
2471.000000	7.287800
2470.000000	7.295000
2469.000000	7.339700
2468.000000	7.341600
2467.000000	7.351300
2466.000000	7.354300
2465.000000	7.355400
2464.000000	7.353500
2463.000000	7.379900
2462.000000	7.404400
2461.000000	7.436700
2460.000000	7.485600
2459.000000	7.512800
2458.000000	7.520100
2457.000000	7.570700
2456.000000	7.603300
2455.000000	7.636200
2454.000000	7.693700
2453.000000	7.739800
2452.000000	7.798600
2451.000000	7.827500
2450.000000	7.886400
2449.000000	7.937900
2448.000000	7.990500
2447.000000	8.041600
2446.000000	8.112000
2445.000000	8.162000
2444.000000	8.211800
2443.000000	8.270000
2442.000000	8.313200
2441.000000	8.379900
2440.000000	8.410600
2439.000000	8.474500
2438.000000	8.507000
2437.000000	8.576900
2436.000000	8.594500
2435.000000	8.639700
2434.000000	8.670300
2433.000000	8.706600
2432.000000	8.742900
2431.000000	8.785500
2430.000000	8.805100
2429.000000	8.829300
2428.000000	8.861700
2427.000000	8.891100
2426.000000	8.930400
2425.000000	8.939800
2424.000000	8.984700
2423.000000	9.078900
2422.000000	9.155800
2421.000000	9.211100
2420.000000	9.251400
2419.000000	9.288200
2418.000000	9.292700
2417.000000	9.318700
2416.000000	9.337400
2415.000000	9.370100
2414.000000	9.396000
2413.000000	9.443400
2412.000000	9.451100
2411.000000	9.490500
2410.000000	9.526400
2409.000000	9.557000
2408.000000	9.574700
2407.000000	9.593800
2406.000000	9.632100
2405.000000	9.656700
2404.000000	9.686700
2403.000000	9.697800
2402.000000	9.724600
2401.000000	9.762900
2400.000000	9.783300
2399.000000	9.815400
2398.000000	9.843300
2397.000000	9.852200
2396.000000	9.878200
2395.000000	9.911000
2394.000000	9.939500
2393.000000	9.989200
2392.000000	9.998000
2391.000000	9.998000
2390.000000	10.034600
2389.000000	10.059100
2388.000000	10.056600
2387.000000	10.081600
2386.000000	10.100000
2385.000000	10.104200
2384.000000	10.109400
2383.000000	10.114400
2382.000000	10.114900
2381.000000	10.091500
2380.000000	10.090500
2379.000000	10.090500
2378.000000	10.069100
2377.000000	10.056900
2376.000000	10.043900
2375.000000	10.026200
2374.000000	10.004000
2373.000000	9.978800
2372.000000	9.968500
2371.000000	9.948700
2370.000000	9.915700
2369.000000	9.875300
2368.000000	9.841300
2367.000000	9.810000
2366.000000	9.751900
2365.000000	9.709000
2364.000000	9.675000
2363.000000	9.608100
2362.000000	9.539400
2361.000000	9.495900
2360.000000	9.449800
2359.000000	9.393000
2358.000000	9.327100
2357.000000	9.293800
2356.000000	9.268800
2355.000000	9.236900
2354.000000	9.213800
2353.000000	9.201300
2352.000000	9.218800
2351.000000	9.222600
2350.000000	9.244100
2349.000000	9.271300
2348.000000	9.301300
2347.000000	9.349200
2346.000000	9.386700
2345.000000	9.443700
2344.000000	9.477600
2343.000000	9.516600
2342.000000	9.558400
2341.000000	9.584400
2340.000000	9.612200
2339.000000	9.629400
2338.000000	9.651200
2337.000000	9.666700
2336.000000	9.641100
2335.000000	9.641900
2334.000000	9.629600
2333.000000	9.599300
2332.000000	9.577500
2331.000000	9.515600
2330.000000	9.472800
2329.000000	9.432500
2328.000000	9.370500
2327.000000	9.305700
2326.000000	9.241400
2325.000000	9.186100
2324.000000	9.119200
2323.000000	9.038900
2322.000000	8.960900
2321.000000	8.876100
2320.000000	8.785800
2319.000000	8.699400
2318.000000	8.604300
2317.000000	8.513100
2316.000000	8.422800
2315.000000	8.335900
2314.000000	8.244300
2313.000000	8.192200
2312.000000	8.110900
2311.000000	8.043900
2310.000000	7.992700
2309.000000	7.951900
2308.000000	7.926900
2307.000000	7.917200
2306.000000	7.916800
2305.000000	7.922300
2304.000000	7.963400
2303.000000	7.999800
2302.000000	8.069600
2301.000000	8.131700
2300.000000	8.193800
2299.000000	8.256600
2298.000000	8.335100
2297.000000	8.399800
2296.000000	8.491200
2295.000000	8.548300
2294.000000	8.616500
2293.000000	8.640900
2292.000000	8.703700
2291.000000	8.720400
2290.000000	8.735000
2289.000000	8.749600
2288.000000	8.740500
2287.000000	8.732600
2286.000000	8.714100
2285.000000	8.703100
2284.000000	8.674500
2283.000000	8.639400
2282.000000	8.583000
2281.000000	8.548200
2280.000000	8.510000
2279.000000	8.464700
2278.000000	8.422900
2277.000000	8.393300
2276.000000	8.375200
2275.000000	8.357400
2274.000000	8.342300
2273.000000	8.325700
2272.000000	8.302700
2271.000000	8.335000
2270.000000	8.358300
2269.000000	8.387100
2268.000000	8.444500
2267.000000	8.511300
2266.000000	8.587700
2265.000000	8.687600
2264.000000	8.809800
2263.000000	8.934600
2262.000000	9.067500
2261.000000	9.242400
2260.000000	9.431800
2259.000000	9.608200
2258.000000	9.796400
2257.000000	9.997300
2256.000000	10.222100
2255.000000	10.446800
2254.000000	10.597000
2253.000000	10.797400
2252.000000	10.994200
2251.000000	11.190800
2250.000000	11.378200
2249.000000	11.533300
2248.000000	11.680600
2247.000000	11.835600
2246.000000	11.987000
2245.000000	12.132600
2244.000000	12.238700
2243.000000	12.345600
2242.000000	12.450300
2241.000000	12.571300
2240.000000	12.655700
2239.000000	12.755200
2238.000000	12.837600
2237.000000	12.921300
2236.000000	12.984700
2235.000000	13.058600
2234.000000	13.125600
2233.000000	13.186600
2232.000000	13.236300
2231.000000	13.287600
2230.000000	13.332500
2229.000000	13.354800
2228.000000	13.384500
2227.000000	13.421200
2226.000000	13.431100
2225.000000	13.451300
2224.000000	13.462700
2223.000000	13.476600
2222.000000	13.490300
2221.000000	13.455700
2220.000000	13.466300
2219.000000	13.469300
2218.000000	13.466400
2217.000000	13.438800
2216.000000	13.427700
2215.000000	13.448700
2214.000000	13.419300
2213.000000	13.410200
2212.000000	13.415900
2211.000000	13.410400
2210.000000	13.386100
2209.000000	13.358400
2208.000000	13.383800
2207.000000	13.351700
2206.000000	13.374200
2205.000000	13.351400
2204.000000	13.337000
2203.000000	13.344900
2202.000000	13.341100
2201.000000	13.325300
2200.000000	13.327300
2199.000000	13.338200
2198.000000	13.338500
2197.000000	13.331200
2196.000000	13.329700
2195.000000	13.337600
2194.000000	13.319100
2193.000000	13.320300
2192.000000	13.317800
2191.000000	13.327100
2190.000000	13.308000
2189.000000	13.300100
2188.000000	13.297900
2187.000000	13.293500
2186.000000	13.277700
2185.000000	13.275700
2184.000000	13.268600
2183.000000	13.253600
2182.000000	13.248200
2181.000000	13.246100
2180.000000	13.243900
2179.000000	13.234800
2178.000000	13.241700
2177.000000	13.237000
2176.000000	13.223000
2175.000000	13.223400
2174.000000	13.232200
2173.000000	13.228300
2172.000000	13.240400
2171.000000	13.249400
2170.000000	13.259800
2169.000000	13.275200
2168.000000	13.298600
2167.000000	13.312400
2166.000000	13.321100
2165.000000	13.329700
2164.000000	13.338200
2163.000000	13.351400
2162.000000	13.369800
2161.000000	13.399500
2160.000000	13.419400
2159.000000	13.426800
2158.000000	13.432200
2157.000000	13.479300
2156.000000	13.517800
2155.000000	13.530400
2154.000000	13.548700
2153.000000	13.581800
2152.000000	13.611600
2151.000000	13.624900
2150.000000	13.647700
2149.000000	13.665800
2148.000000	13.688000
2147.000000	13.710900
2146.000000	13.746300
2145.000000	13.752900
2144.000000	13.779200
2143.000000	13.788000
2142.000000	13.804300
2141.000000	13.817100
2140.000000	13.834400
2139.000000	13.847200
2138.000000	13.868700
2137.000000	13.858700
2136.000000	13.871200
2135.000000	13.884800
2134.000000	13.891900
2133.000000	13.896600
2132.000000	13.901100
2131.000000	13.895100
2130.000000	13.890200
2129.000000	13.883100
2128.000000	13.880000
2127.000000	13.858600
2126.000000	13.858300
2125.000000	13.848700
2124.000000	13.822900
2123.000000	13.816000
2122.000000	13.795900
2121.000000	13.770800
2120.000000	13.758300
2119.000000	13.749900
2118.000000	13.725000
2117.000000	13.687200
2116.000000	13.651300
2115.000000	13.624000
2114.000000	13.610700
2113.000000	13.583300
2112.000000	13.565200
2111.000000	13.560300
2110.000000	13.522000
2109.000000	13.471000
2108.000000	13.441700
2107.000000	13.424000
2106.000000	13.400600
2105.000000	13.372300
2104.000000	13.356000
2103.000000	13.320200
2102.000000	13.280200
2101.000000	13.260700
2100.000000	13.242600
2099.000000	13.218700
2098.000000	13.198000
2097.000000	13.172000
2096.000000	13.138800
2095.000000	13.121900
2094.000000	13.109500
2093.000000	13.091800
2092.000000	13.061300
2091.000000	13.041700
2090.000000	13.030300
2089.000000	13.002200
2088.000000	12.986000
2087.000000	12.982600
2086.000000	12.978500
2085.000000	12.954300
2084.000000	12.929500
2083.000000	12.924400
2082.000000	12.907600
2081.000000	12.882600
2080.000000	12.859800
2079.000000	12.858200
2078.000000	12.847800
2077.000000	12.828900
2076.000000	12.806100
2075.000000	12.782400
2074.000000	12.762300
2073.000000	12.768500
2072.000000	12.756200
2071.000000	12.737600
2070.000000	12.718700
2069.000000	12.707500
2068.000000	12.688400
2067.000000	12.683800
2066.000000	12.693200
2065.000000	12.684000
2064.000000	12.659500
2063.000000	12.657600
2062.000000	12.650300
2061.000000	12.662800
2060.000000	12.680800
2059.000000	12.682000
2058.000000	12.691600
2057.000000	12.730000
2056.000000	12.758000
2055.000000	12.789400
2054.000000	12.826300
2053.000000	12.882400
2052.000000	12.932900
2051.000000	13.008300
2050.000000	13.072700
2049.000000	13.159700
2048.000000	13.247800
2047.000000	13.339900
2046.000000	13.431100
2045.000000	13.537100
2044.000000	13.624400
2043.000000	13.734900
2042.000000	13.823700
2041.000000	13.928700
2040.000000	14.037500
2039.000000	14.134700
2038.000000	14.232300
2037.000000	14.341600
2036.000000	14.423300
2035.000000	14.497400
2034.000000	14.592400
2033.000000	14.669100
2032.000000	14.751500
2031.000000	14.822000
2030.000000	14.885600
2029.000000	14.972000
2028.000000	15.027800
2027.000000	15.081200
2026.000000	15.155800
2025.000000	15.231900
2024.000000	15.265300
2023.000000	15.315100
2022.000000	15.365700
2021.000000	15.405500
2020.000000	15.463200
2019.000000	15.516900
2018.000000	15.541000
2017.000000	15.578500
2016.000000	15.622500
2015.000000	15.657700
2014.000000	15.678100
2013.000000	15.726000
2012.000000	15.723800
2011.000000	15.749500
2010.000000	15.767700
2009.000000	15.780900
2008.000000	15.786400
2007.000000	15.789100
2006.000000	15.784200
2005.000000	15.794100
2004.000000	15.771000
2003.000000	15.751100
2002.000000	15.742700
2001.000000	15.726800
2000.000000	15.716900
1999.000000	15.678400
1998.000000	15.653200
1997.000000	15.637200
1996.000000	15.611700
1995.000000	15.560600
1994.000000	15.535200
1993.000000	15.494300
1992.000000	15.451900
1991.000000	15.386600
1990.000000	15.343000
1989.000000	15.295900
1988.000000	15.233900
1987.000000	15.191100
1986.000000	15.140200
1985.000000	15.084400
1984.000000	15.024000
1983.000000	14.975700
1982.000000	14.911400
1981.000000	14.861700
1980.000000	14.791700
1979.000000	14.750900
1978.000000	14.694100
1977.000000	14.621800
1976.000000	14.552700
1975.000000	14.510900
1974.000000	14.457000
1973.000000	14.396000
1972.000000	14.347900
1971.000000	14.295200
1970.000000	14.244500
1969.000000	14.204000
1968.000000	14.147700
1967.000000	14.068400
1966.000000	14.045000
1965.000000	13.993700
1964.000000	13.956600
1963.000000	13.883400
1962.000000	13.848900
1961.000000	13.818500
1960.000000	13.760300
1959.000000	13.714200
1958.000000	13.660100
1957.000000	13.625600
1956.000000	13.580800
1955.000000	13.524300
1954.000000	13.476100
1953.000000	13.433200
1952.000000	13.402600
1951.000000	13.338800
1950.000000	13.326400
1949.000000	13.287800
1948.000000	13.257900
1947.000000	13.216200
1946.000000	13.178100
1945.000000	13.158200
1944.000000	13.145500
1943.000000	13.143500
1942.000000	13.159300
1941.000000	13.166400
1940.000000	13.160000
1939.000000	13.154000
1938.000000	13.156300
1937.000000	13.163400
1936.000000	13.175300
1935.000000	13.219300
1934.000000	13.272700
1933.000000	13.321400
1932.000000	13.384500
1931.000000	13.432800
1930.000000	13.493500
1929.000000	13.565000
1928.000000	13.653600
1927.000000	13.726700
1926.000000	13.803300
1925.000000	13.909200
1924.000000	14.034800
1923.000000	14.151500
1922.000000	14.266800
1921.000000	14.399700
1920.000000	14.532900
1919.000000	14.647000
1918.000000	14.785400
1917.000000	14.943700
1916.000000	15.104100
1915.000000	15.300100
1914.000000	15.475700
1913.000000	15.624000
1912.000000	15.800100
1911.000000	15.953400
1910.000000	16.130200
1909.000000	16.344700
1908.000000	16.525000
1907.000000	16.769900
1906.000000	16.987200
1905.000000	17.192000
1904.000000	17.399100
1903.000000	17.606600
1902.000000	17.819000
1901.000000	18.054700
1900.000000	18.284000
1899.000000	18.491000
1898.000000	18.713300
1897.000000	18.943000
1896.000000	19.172200
1895.000000	19.425500
1894.000000	19.669100
1893.000000	19.921300
1892.000000	20.179500
1891.000000	20.442000
1890.000000	20.679500
1889.000000	20.948500
1888.000000	21.250800
1887.000000	21.578700
1886.000000	21.917800
1885.000000	22.302200
1884.000000	22.744100
1883.000000	23.181900
1882.000000	23.636200
1881.000000	24.100600
1880.000000	24.570000
1879.000000	25.023800
1878.000000	25.459000
1877.000000	25.872000
1876.000000	26.245900
1875.000000	26.602100
1874.000000	26.922800
1873.000000	27.203800
1872.000000	27.469900
1871.000000	27.679200
1870.000000	27.839600
1869.000000	27.984100
1868.000000	28.095600
1867.000000	28.189200
1866.000000	28.276600
1865.000000	28.344400
1864.000000	28.411400
1863.000000	28.503400
1862.000000	28.578000
1861.000000	28.625700
1860.000000	28.637500
1859.000000	28.622000
1858.000000	28.603000
1857.000000	28.589000
1856.000000	28.562000
1855.000000	28.520800
1854.000000	28.463400
1853.000000	28.366400
1852.000000	28.304600
1851.000000	28.286000
1850.000000	28.287100
1849.000000	28.235200
1848.000000	28.107700
1847.000000	27.960000
1846.000000	27.862800
1845.000000	27.826200
1844.000000	27.832800
1843.000000	27.845500
1842.000000	27.810200
1841.000000	27.738900
1840.000000	27.679200
1839.000000	27.642200
1838.000000	27.612000
1837.000000	27.532200
1836.000000	27.416500
1835.000000	27.311000
1834.000000	27.238900
1833.000000	27.187500
1832.000000	27.121600
1831.000000	27.047700
1830.000000	26.954900
1829.000000	26.860900
1828.000000	26.761000
1827.000000	26.656800
1826.000000	26.570900
1825.000000	26.518700
1824.000000	26.498500
1823.000000	26.521800
1822.000000	26.516200
1821.000000	26.454300
1820.000000	26.372700
1819.000000	26.324200
1818.000000	26.329100
1817.000000	26.347200
1816.000000	26.353900
1815.000000	26.345200
1814.000000	26.340400
1813.000000	26.327200
1812.000000	26.300100
1811.000000	26.254100
1810.000000	26.213900
1809.000000	26.194100
1808.000000	26.166300
1807.000000	26.126200
1806.000000	26.062000
1805.000000	26.011100
1804.000000	25.977500
1803.000000	25.935400
1802.000000	25.892200
1801.000000	25.822300
1800.000000	25.756900
1799.000000	25.700900
1798.000000	25.661200
1797.000000	25.619800
1796.000000	25.575300
1795.000000	25.538200
1794.000000	25.466000
1793.000000	25.391300
1792.000000	25.347800
1791.000000	25.283900
1790.000000	25.210600
1789.000000	25.148700
1788.000000	25.082800
1787.000000	24.999800
1786.000000	24.914300
1785.000000	24.821400
1784.000000	24.736200
1783.000000	24.642300
1782.000000	24.563000
1781.000000	24.479400
1780.000000	24.365700
1779.000000	24.250300
1778.000000	24.155600
1777.000000	24.038700
1776.000000	23.920300
1775.000000	23.785300
1774.000000	23.648400
1773.000000	23.489300
1772.000000	23.347100
1771.000000	23.190600
1770.000000	23.052400
1769.000000	22.916700
1768.000000	22.785800
1767.000000	22.649900
1766.000000	22.558300
1765.000000	22.488900
1764.000000	22.437600
1763.000000	22.436300
1762.000000	22.441300
1761.000000	22.491000
1760.000000	22.559000
1759.000000	22.632000
1758.000000	22.720800
1757.000000	22.761300
1756.000000	22.796700
1755.000000	22.841300
1754.000000	22.840500
1753.000000	22.816600
1752.000000	22.800200
1751.000000	22.753600
1750.000000	22.675400
1749.000000	22.609600
1748.000000	22.508700
1747.000000	22.396000
1746.000000	22.256100
1745.000000	22.113800
1744.000000	21.920200
1743.000000	21.692300
1742.000000	21.444700
1741.000000	21.196400
1740.000000	20.934400
1739.000000	20.710400
1738.000000	20.475100
1737.000000	20.298300
1736.000000	20.150400
1735.000000	20.079100
1734.000000	20.053500
1733.000000	20.074300
1732.000000	20.133900
1731.000000	20.235900
1730.000000	20.373900
1729.000000	20.519200
1728.000000	20.615800
1727.000000	20.751200
1726.000000	20.870300
1725.000000	20.932700
1724.000000	20.987000
1723.000000	21.004500
1722.000000	21.015400
1721.000000	21.027600
1720.000000	21.012500
1719.000000	21.021600
1718.000000	21.049700
1717.000000	21.052300
1716.000000	21.106400
1715.000000	21.162000
1714.000000	21.193000
1713.000000	21.246600
1712.000000	21.293400
1711.000000	21.305300
1710.000000	21.307400
1709.000000	21.312900
1708.000000	21.267400
1707.000000	21.253500
1706.000000	21.192900
1705.000000	21.144900
1704.000000	21.054000
1703.000000	20.978000
1702.000000	20.868200
1701.000000	20.702200
1700.000000	20.546800
1699.000000	20.376700
1698.000000	20.242100
1697.000000	20.126000
1696.000000	20.075500
1695.000000	20.105300
1694.000000	20.192600
1693.000000	20.351800
1692.000000	20.516300
1691.000000	20.736500
1690.000000	20.887800
1689.000000	21.021600
1688.000000	21.068200
1687.000000	21.091000
1686.000000	21.090900
1685.000000	21.124700
1684.000000	21.238200
1683.000000	21.481100
1682.000000	21.859800
1681.000000	22.373200
1680.000000	22.965300
1679.000000	23.572700
1678.000000	24.215700
1677.000000	24.747500
1676.000000	25.255200
1675.000000	25.668000
1674.000000	26.043000
1673.000000	26.362500
1672.000000	26.627400
1671.000000	26.855100
1670.000000	27.069000
1669.000000	27.235000
1668.000000	27.393000
1667.000000	27.486300
1666.000000	27.595500
1665.000000	27.685500
1664.000000	27.769000
1663.000000	27.840200
1662.000000	27.896300
1661.000000	27.938500
1660.000000	27.985500
1659.000000	27.998000
1658.000000	28.029800
1657.000000	28.033100
1656.000000	28.021700
1655.000000	28.026300
1654.000000	28.013900
1653.000000	27.996700
1652.000000	27.966200
1651.000000	27.941000
1650.000000	27.921100
1649.000000	27.860900
1648.000000	27.823900
1647.000000	27.760500
1646.000000	27.708600
1645.000000	27.633800
1644.000000	27.576200
1643.000000	27.522500
1642.000000	27.425700
1641.000000	27.362200
1640.000000	27.281400
1639.000000	27.210900
1638.000000	27.142300
1637.000000	27.070900
1636.000000	26.982400
1635.000000	26.898800
1634.000000	26.809100
1633.000000	26.711300
1632.000000	26.633900
1631.000000	26.542700
1630.000000	26.447300
1629.000000	26.365500
1628.000000	26.262600
1627.000000	26.167700
1626.000000	26.067100
1625.000000	25.975700
1624.000000	25.873000
1623.000000	25.779400
1622.000000	25.691700
1621.000000	25.599800
1620.000000	25.502800
1619.000000	25.441000
1618.000000	25.342300
1617.000000	25.231000
1616.000000	25.155800
1615.000000	25.064500
1614.000000	24.983300
1613.000000	24.899300
1612.000000	24.818000
1611.000000	24.739100
1610.000000	24.663700
1609.000000	24.588700
1608.000000	24.524300
1607.000000	24.450100
1606.000000	24.359500
1605.000000	24.290500
1604.000000	24.217300
1603.000000	24.139300
1602.000000	24.065900
1601.000000	24.003300
1600.000000	23.928900
1599.000000	23.854700
1598.000000	23.800500
1597.000000	23.749800
1596.000000	23.701800
1595.000000	23.635200
1594.000000	23.574800
1593.000000	23.535300
1592.000000	23.487000
1591.000000	23.439200
1590.000000	23.394200
1589.000000	23.365500
1588.000000	23.331700
1587.000000	23.286400
1586.000000	23.267000
1585.000000	23.239600
1584.000000	23.201300
1583.000000	23.177400
1582.000000	23.160500
1581.000000	23.155500
1580.000000	23.151500
1579.000000	23.140000
1578.000000	23.132800
1577.000000	23.142800
1576.000000	23.146500
1575.000000	23.140600
1574.000000	23.159100
1573.000000	23.183100
1572.000000	23.195000
1571.000000	23.215100
1570.000000	23.243800
1569.000000	23.282100
1568.000000	23.321200
1567.000000	23.348000
1566.000000	23.377000
1565.000000	23.409800
1564.000000	23.439000
1563.000000	23.471500
1562.000000	23.502500
1561.000000	23.530100
1560.000000	23.552300
1559.000000	23.573700
1558.000000	23.599300
1557.000000	23.610900
1556.000000	23.622300
1555.000000	23.640400
1554.000000	23.643700
1553.000000	23.656900
1552.000000	23.665400
1551.000000	23.663900
1550.000000	23.652800
1549.000000	23.638500
1548.000000	23.644000
1547.000000	23.647600
1546.000000	23.651900
1545.000000	23.656000
1544.000000	23.665700
1543.000000	23.677200
1542.000000	23.678100
1541.000000	23.675700
1540.000000	23.680000
1539.000000	23.679600
1538.000000	23.667200
1537.000000	23.677900
1536.000000	23.668600
1535.000000	23.663600
1534.000000	23.666500
1533.000000	23.648600
1532.000000	23.632500
1531.000000	23.636200
1530.000000	23.620200
1529.000000	23.601700
1528.000000	23.573600
1527.000000	23.559100
1526.000000	23.535300
1525.000000	23.518300
1524.000000	23.495900
1523.000000	23.464200
1522.000000	23.447300
1521.000000	23.432100
1520.000000	23.399800
1519.000000	23.372100
1518.000000	23.346000
1517.000000	23.315200
1516.000000	23.280800
1515.000000	23.259900
1514.000000	23.246100
1513.000000	23.203100
1512.000000	23.183200
1511.000000	23.150200
1510.000000	23.120700
1509.000000	23.090000
1508.000000	23.048300
1507.000000	23.024100
1506.000000	22.983600
1505.000000	22.942700
1504.000000	22.933800
1503.000000	22.891600
1502.000000	22.874600
1501.000000	22.842400
1500.000000	22.821100
1499.000000	22.808900
1498.000000	22.792800
1497.000000	22.777800
1496.000000	22.750900
1495.000000	22.745800
1494.000000	22.741300
1493.000000	22.737800
1492.000000	22.725400
1491.000000	22.747400
1490.000000	22.743000
1489.000000	22.739000
1488.000000	22.745500
1487.000000	22.751300
1486.000000	22.750300
1485.000000	22.750100
1484.000000	22.782200
1483.000000	22.794100
1482.000000	22.822900
1481.000000	22.840000
1480.000000	22.866500
1479.000000	22.878700
1478.000000	22.932000
1477.000000	22.964200
1476.000000	22.981600
1475.000000	23.021300
1474.000000	23.054300
1473.000000	23.108000
1472.000000	23.135000
1471.000000	23.171500
1470.000000	23.181300
1469.000000	23.240400
1468.000000	23.278200
1467.000000	23.332700
1466.000000	23.378300
1465.000000	23.408200
1464.000000	23.473800
1463.000000	23.522700
1462.000000	23.629400
1461.000000	23.697400
1460.000000	23.777600
1459.000000	23.858400
1458.000000	23.962500
1457.000000	24.051600
1456.000000	24.162200
1455.000000	24.251500
1454.000000	24.364200
1453.000000	24.507400
1452.000000	24.632200
1451.000000	24.737500
1450.000000	24.842200
1449.000000	24.945500
1448.000000	25.110600
1447.000000	25.266300
1446.000000	25.425500
1445.000000	25.539100
1444.000000	25.669400
1443.000000	25.820700
1442.000000	25.950800
1441.000000	26.102600
1440.000000	26.238900
1439.000000	26.399200
1438.000000	26.541400
1437.000000	26.658100
1436.000000	26.803900
1435.000000	26.941200
1434.000000	27.098800
1433.000000	27.257100
1432.000000	27.400600
1431.000000	27.522200
1430.000000	27.698400
1429.000000	27.918800
1428.000000	28.072500
1427.000000	28.270100
1426.000000	28.531900
1425.000000	28.762200
1424.000000	29.014400
1423.000000	29.233000
1422.000000	29.447500
1421.000000	29.719100
1420.000000	29.962700
1419.000000	30.208100
1418.000000	30.410400
1417.000000	30.610100
1416.000000	30.898700
1415.000000	31.152900
1414.000000	31.338800
1413.000000	31.555200
1412.000000	31.763300
1411.000000	32.081700
1410.000000	32.416900
1409.000000	32.726500
1408.000000	33.094900
1407.000000	33.474700
1406.000000	33.863300
1405.000000	34.238600
1404.000000	34.601600
1403.000000	35.003900
1402.000000	35.460300
1401.000000	35.851500
1400.000000	36.111700
1399.000000	36.353400
1398.000000	36.585900
1397.000000	36.911200
1396.000000	37.140600
1395.000000	37.239300
1394.000000	37.394800
1393.000000	37.571300
1392.000000	37.737200
1391.000000	37.922600
1390.000000	38.167000
1389.000000	38.473500
1388.000000	38.777700
1387.000000	39.104200
1386.000000	39.507900
1385.000000	39.991700
1384.000000	40.400100
1383.000000	40.800900
1382.000000	41.072100
1381.000000	41.247500
1380.000000	41.342400
1379.000000	41.435600
1378.000000	41.501400
1377.000000	41.601400
1376.000000	41.782900
1375.000000	42.022600
1374.000000	42.355000
1373.000000	42.760100
1372.000000	43.203900
1371.000000	43.591600
1370.000000	43.969800
1369.000000	44.334100
1368.000000	44.629400
1367.000000	44.893100
1366.000000	45.154200
1365.000000	45.387200
1364.000000	45.573900
1363.000000	45.805800
1362.000000	45.956700
1361.000000	46.000400
1360.000000	46.021900
1359.000000	46.164200
1358.000000	46.307300
1357.000000	46.566100
1356.000000	46.957600
1355.000000	47.473500
1354.000000	48.046900
1353.000000	48.634300
1352.000000	49.314800
1351.000000	49.908700
1350.000000	50.456800
1349.000000	50.951400
1348.000000	51.390100
1347.000000	51.792200
1346.000000	52.153600
1345.000000	52.543100
1344.000000	52.892600
1343.000000	53.205000
1342.000000	53.511600
1341.000000	53.813200
1340.000000	54.094800
1339.000000	54.358200
1338.000000	54.603600
1337.000000	54.841400
1336.000000	55.076900
1335.000000	55.291100
1334.000000	55.501900
1333.000000	55.689400
1332.000000	55.864300
1331.000000	56.045600
1330.000000	56.218600
1329.000000	56.370900
1328.000000	56.510100
1327.000000	56.648400
1326.000000	56.774900
1325.000000	56.894400
1324.000000	57.009300
1323.000000	57.121200
1322.000000	57.234400
1321.000000	57.328400
1320.000000	57.424000
1319.000000	57.524800
1318.000000	57.601600
1317.000000	57.680700
1316.000000	57.763800
1315.000000	57.842100
1314.000000	57.905900
1313.000000	57.960700
1312.000000	58.015300
1311.000000	58.070900
1310.000000	58.134500
1309.000000	58.185700
1308.000000	58.217800
1307.000000	58.253900
1306.000000	58.282100
1305.000000	58.297000
1304.000000	58.307100
1303.000000	58.315900
1302.000000	58.314200
1301.000000	58.308000
1300.000000	58.306300
1299.000000	58.293000
1298.000000	58.283200
1297.000000	58.279900
1296.000000	58.265300
1295.000000	58.253400
1294.000000	58.242600
1293.000000	58.214300
1292.000000	58.186000
1291.000000	58.163700
1290.000000	58.130500
1289.000000	58.080000
1288.000000	58.021200
1287.000000	57.962000
1286.000000	57.901900
1285.000000	57.838000
1284.000000	57.770700
1283.000000	57.696600
1282.000000	57.626100
1281.000000	57.563600
1280.000000	57.493800
1279.000000	57.426400
1278.000000	57.362200
1277.000000	57.294300
1276.000000	57.243400
1275.000000	57.195600
1274.000000	57.137900
1273.000000	57.100200
1272.000000	57.058800
1271.000000	57.009600
1270.000000	56.964900
1269.000000	56.929000
1268.000000	56.894200
1267.000000	56.854000
1266.000000	56.792900
1265.000000	56.742600
1264.000000	56.695800
1263.000000	56.637500
1262.000000	56.582900
1261.000000	56.527800
1260.000000	56.492600
1259.000000	56.431700
1258.000000	56.366800
1257.000000	56.312400
1256.000000	56.235400
1255.000000	56.148000
1254.000000	56.082100
1253.000000	56.000700
1252.000000	55.901600
1251.000000	55.810600
1250.000000	55.719900
1249.000000	55.626000
1248.000000	55.502500
1247.000000	55.374700
1246.000000	55.256300
1245.000000	55.101800
1244.000000	54.955700
1243.000000	54.801200
1242.000000	54.639800
1241.000000	54.467500
1240.000000	54.277200
1239.000000	54.104800
1238.000000	53.933200
1237.000000	53.739400
1236.000000	53.552300
1235.000000	53.364100
1234.000000	53.168500
1233.000000	52.972400
1232.000000	52.770400
1231.000000	52.558900
1230.000000	52.375100
1229.000000	52.162600
1228.000000	51.946700
1227.000000	51.747400
1226.000000	51.544700
1225.000000	51.349600
1224.000000	51.151000
1223.000000	50.949300
1222.000000	50.754400
1221.000000	50.568700
1220.000000	50.404100
1219.000000	50.236000
1218.000000	50.081500
1217.000000	49.932400
1216.000000	49.786500
1215.000000	49.641400
1214.000000	49.505400
1213.000000	49.381500
1212.000000	49.262400
1211.000000	49.147600
1210.000000	49.053300
1209.000000	48.947800
1208.000000	48.843100
1207.000000	48.804200
1206.000000	48.743100
1205.000000	48.710500
1204.000000	48.683700
1203.000000	48.670700
1202.000000	48.629300
1201.000000	48.588700
1200.000000	48.521700
1199.000000	48.404100
1198.000000	48.290900
1197.000000	48.106100
1196.000000	47.860000
1195.000000	47.548200
1194.000000	47.140500
1193.000000	46.674300
1192.000000	46.144900
1191.000000	45.597900
1190.000000	45.117200
1189.000000	44.711200
1188.000000	44.399500
1187.000000	44.258600
1186.000000	44.274100
1185.000000	44.414100
1184.000000	44.718800
1183.000000	45.150800
1182.000000	45.702100
1181.000000	46.258000
1180.000000	46.818300
1179.000000	47.323600
1178.000000	47.772400
1177.000000	48.151300
1176.000000	48.485600
1175.000000	48.830300
1174.000000	49.141100
1173.000000	49.489300
1172.000000	49.844500
1171.000000	50.200000
1170.000000	50.582300
1169.000000	50.965700
1168.000000	51.361000
1167.000000	51.732100
1166.000000	52.135500
1165.000000	52.551900
1164.000000	52.911600
1163.000000	53.319600
1162.000000	53.711500
1161.000000	54.064500
1160.000000	54.426600
1159.000000	54.776500
1158.000000	55.111200
1157.000000	55.373100
1156.000000	55.628100
1155.000000	55.783000
1154.000000	55.900900
1153.000000	55.947800
1152.000000	55.961200
1151.000000	55.943900
1150.000000	55.936100
1149.000000	55.911600
1148.000000	55.908100
1147.000000	55.974200
1146.000000	56.122100
1145.000000	56.330300
1144.000000	56.613700
1143.000000	56.925800
1142.000000	57.268200
1141.000000	57.634000
1140.000000	57.955300
1139.000000	58.319800
1138.000000	58.690200
1137.000000	59.108200
1136.000000	59.471800
1135.000000	59.832500
1134.000000	60.128500
1133.000000	60.379300
1132.000000	60.641900
1131.000000	60.889500
1130.000000	61.093900
1129.000000	61.271000
1128.000000	61.381400
1127.000000	61.499800
1126.000000	61.580300
1125.000000	61.628100
1124.000000	61.704000
1123.000000	61.756400
1122.000000	61.779200
1121.000000	61.801500
1120.000000	61.816500
1119.000000	61.824700
1118.000000	61.836400
1117.000000	61.820500
1116.000000	61.795100
1115.000000	61.776700
1114.000000	61.756700
1113.000000	61.728600
1112.000000	61.714100
1111.000000	61.701500
1110.000000	61.678200
1109.000000	61.661500
1108.000000	61.645300
1107.000000	61.623800
1106.000000	61.590400
1105.000000	61.560900
1104.000000	61.532000
1103.000000	61.508500
1102.000000	61.477100
1101.000000	61.444800
1100.000000	61.404500
1099.000000	61.369600
1098.000000	61.334300
1097.000000	61.296900
1096.000000	61.244200
1095.000000	61.191900
1094.000000	61.142600
1093.000000	61.093800
1092.000000	61.046600
1091.000000	60.983800
1090.000000	60.919500
1089.000000	60.862500
1088.000000	60.806500
1087.000000	60.738700
1086.000000	60.673700
1085.000000	60.611300
1084.000000	60.549500
1083.000000	60.479900
1082.000000	60.412600
1081.000000	60.343700
1080.000000	60.284100
1079.000000	60.212600
1078.000000	60.163400
1077.000000	60.101800
1076.000000	60.032700
1075.000000	59.987900
1074.000000	59.931200
1073.000000	59.861200
1072.000000	59.791300
1071.000000	59.745300
1070.000000	59.688000
1069.000000	59.628000
1068.000000	59.574400
1067.000000	59.509900
1066.000000	59.453300
1065.000000	59.397400
1064.000000	59.339000
1063.000000	59.282400
1062.000000	59.211700
1061.000000	59.154500
1060.000000	59.109600
1059.000000	59.053400
1058.000000	58.988100
1057.000000	58.921000
1056.000000	58.856400
1055.000000	58.804800
1054.000000	58.749100
1053.000000	58.697500
1052.000000	58.659600
1051.000000	58.599300
1050.000000	58.538800
1049.000000	58.501100
1048.000000	58.466000
1047.000000	58.417100
1046.000000	58.374100
1045.000000	58.331800
1044.000000	58.302200
1043.000000	58.264000
1042.000000	58.215400
1041.000000	58.180300
1040.000000	58.146300
1039.000000	58.102900
1038.000000	58.053800
1037.000000	58.004500
1036.000000	57.968600
1035.000000	57.926000
1034.000000	57.874400
1033.000000	57.826700
1032.000000	57.785700
1031.000000	57.738800
1030.000000	57.701000
1029.000000	57.670000
1028.000000	57.614900
1027.000000	57.561300
1026.000000	57.518800
1025.000000	57.477300
1024.000000	57.436200
1023.000000	57.396400
1022.000000	57.355800
1021.000000	57.311000
1020.000000	57.275100
1019.000000	57.258600
1018.000000	57.240800
1017.000000	57.223700
1016.000000	57.213600
1015.000000	57.211200
1014.000000	57.201200
1013.000000	57.207500
1012.000000	57.225000
1011.000000	57.248300
1010.000000	57.277900
1009.000000	57.315100
1008.000000	57.355800
1007.000000	57.397800
1006.000000	57.423400
1005.000000	57.469200
1004.000000	57.506000
1003.000000	57.546500
1002.000000	57.587600
1001.000000	57.620400
1000.000000	57.665300
999.000000	57.709100
998.000000	57.750900
997.000000	57.806100
996.000000	57.868800
995.000000	57.931000
994.000000	57.981300
993.000000	58.040800
992.000000	58.103700
991.000000	58.157100
990.000000	58.212300
989.000000	58.297900
988.000000	58.383700
987.000000	58.448500
986.000000	58.518700
985.000000	58.593400
984.000000	58.672400
983.000000	58.764500
982.000000	58.843100
981.000000	58.930700
980.000000	59.021500
979.000000	59.098200
978.000000	59.193000
977.000000	59.257000
976.000000	59.342100
975.000000	59.434600
974.000000	59.520100
973.000000	59.601400
972.000000	59.677400
971.000000	59.757500
970.000000	59.848900
969.000000	59.903300
968.000000	59.976900
967.000000	60.069500
966.000000	60.152800
965.000000	60.236000
964.000000	60.333200
963.000000	60.422700
962.000000	60.503500
961.000000	60.608200
960.000000	60.712600
959.000000	60.830400
958.000000	60.936500
957.000000	61.047200
956.000000	61.131900
955.000000	61.226900
954.000000	61.329600
953.000000	61.455200
952.000000	61.542900
951.000000	61.651600
950.000000	61.749700
949.000000	61.839100
948.000000	61.947800
947.000000	62.035200
946.000000	62.141600
945.000000	62.226800
944.000000	62.325400
943.000000	62.402500
942.000000	62.513800
941.000000	62.572300
940.000000	62.670100
939.000000	62.739200
938.000000	62.824300
937.000000	62.913600
936.000000	62.969400
935.000000	63.039000
934.000000	63.111700
933.000000	63.208100
932.000000	63.236700
931.000000	63.310900
930.000000	63.413200
929.000000	63.467900
928.000000	63.540100
927.000000	63.613600
926.000000	63.719800
925.000000	63.791600
924.000000	63.867000
923.000000	63.962600
922.000000	64.082800
921.000000	64.175000
920.000000	64.297900
919.000000	64.386900
918.000000	64.502400
917.000000	64.580300
916.000000	64.704700
915.000000	64.838600
914.000000	64.920900
913.000000	65.042400
912.000000	65.171300
911.000000	65.272700
910.000000	65.410700
909.000000	65.531900
908.000000	65.657700
907.000000	65.802100
906.000000	65.940700
905.000000	66.070700
904.000000	66.209100
903.000000	66.348800
902.000000	66.500400
901.000000	66.633700
900.000000	66.746200
899.000000	66.879300
898.000000	66.999600
897.000000	67.103400
896.000000	67.208100
895.000000	67.295800
894.000000	67.405800
893.000000	67.506200
892.000000	67.607200
891.000000	67.708600
890.000000	67.806500
889.000000	67.908200
888.000000	67.990100
887.000000	68.031600
886.000000	68.152400
885.000000	68.237300
884.000000	68.315100
883.000000	68.354500
882.000000	68.431900
881.000000	68.516900
880.000000	68.563900
879.000000	68.599100
878.000000	68.657700
877.000000	68.737900
876.000000	68.744400
875.000000	68.768600
874.000000	68.751400
873.000000	68.812900
872.000000	68.818300
871.000000	68.768000
870.000000	68.761600
869.000000	68.679800
868.000000	68.647800
867.000000	68.527300
866.000000	68.453400
865.000000	68.316100
864.000000	68.171800
863.000000	67.872700
862.000000	67.542800
861.000000	67.258100
860.000000	66.999700
859.000000	66.676200
858.000000	67.865100
857.000000	67.108080
856.000000	67.384828
855.000000	67.869225
854.000000	67.955597
853.000000	68.697331
852.000000	68.997497
851.000000	69.225448
850.000000	69.363288
849.000000	69.658289
848.000000	69.967716
847.000000	70.545787
846.000000	70.786027
845.000000	71.077734
844.000000	71.530788
843.000000	71.685812
842.000000	71.953210
841.000000	72.333783
840.000000	72.633237
839.000000	72.753802
838.000000	72.919334
837.000000	73.460541
836.000000	73.704788
835.000000	73.798907
834.000000	74.128724
833.000000	74.456405
832.000000	74.558093
831.000000	74.936617
830.000000	75.124321
829.000000	75.484146
828.000000	75.759380
827.000000	75.980653
826.000000	76.218400
825.000000	76.590424
824.000000	76.779820
823.000000	77.004032
822.000000	77.356199
821.000000	77.653160
820.000000	77.743183
819.000000	78.014143
818.000000	78.181812
817.000000	78.479574
816.000000	78.589275
815.000000	78.723998
814.000000	78.863619
813.000000	78.882585
812.000000	79.022472
811.000000	78.869050
810.000000	78.986944
809.000000	78.945005
808.000000	78.951950
807.000000	78.828714
806.000000	78.648756
805.000000	78.526143
804.000000	78.504417
803.000000	78.450901
802.000000	78.275753
801.000000	78.203805
800.000000	78.134529
799.000000	78.039075
798.000000	77.983244
797.000000	77.890550
796.000000	77.862234
795.000000	77.875234
794.000000	77.783074
793.000000	77.827952
792.000000	77.884851
791.000000	78.058130
790.000000	77.951367
789.000000	77.962052
788.000000	78.066856
787.000000	78.140763
786.000000	78.290000
785.000000	78.232834
784.000000	78.396229
783.000000	78.514746
782.000000	78.540746
781.000000	78.572090
780.000000	78.655791
779.000000	78.687223
778.000000	78.705388
777.000000	78.777246
776.000000	78.795233
775.000000	78.755787
774.000000	78.722128
773.000000	78.642167
772.000000	78.538164
771.000000	78.459984
770.000000	78.300418
769.000000	78.173798
768.000000	78.149489
767.000000	77.987875
766.000000	77.779780
765.000000	77.614248
764.000000	77.439010
763.000000	77.241244
762.000000	77.118275
761.000000	77.062533
760.000000	76.902700
759.000000	76.683475
758.000000	76.545279
757.000000	76.438872
756.000000	76.294799
755.000000	76.212879
754.000000	76.038888
753.000000	75.808354
752.000000	75.631246
751.000000	75.419055
750.000000	75.187097
749.000000	74.972502
748.000000	74.709734
747.000000	74.450795
746.000000	74.229165
745.000000	73.921876
744.000000	73.552790
743.000000	73.197239
742.000000	72.871072
741.000000	72.504480
740.000000	72.057837
739.000000	71.671387
738.000000	71.290459
737.000000	70.877207
736.000000	70.432969
735.000000	69.991312
734.000000	69.533628
733.000000	69.054128
732.000000	68.556909
731.000000	68.048113
730.000000	67.577785
729.000000	67.120190
728.000000	66.707740
727.000000	66.241686
726.000000	65.773583
725.000000	65.404943
724.000000	64.995075
723.000000	64.609338
722.000000	64.246040
721.000000	63.899037
720.000000	63.614721
719.000000	63.356405
718.000000	63.082507
717.000000	62.807629
716.000000	62.661954
715.000000	62.467038
714.000000	62.256093
713.000000	62.227777
712.000000	62.215489
711.000000	62.162508
710.000000	62.122350
709.000000	62.207921
708.000000	62.313882
707.000000	62.452969
706.000000	62.571129
705.000000	62.748861
704.000000	63.046088
703.000000	63.259971
702.000000	63.465662
701.000000	63.666811
700.000000	63.965464
699.000000	64.206861
698.000000	64.441669
697.000000	64.653504
696.000000	64.864893
695.000000	65.128729
694.000000	65.300851
693.000000	65.465938
692.000000	65.680889
691.000000	65.844996
690.000000	66.021837
689.000000	66.102421
688.000000	66.140799
687.000000	66.236877
686.000000	66.287365
685.000000	66.301256
684.000000	66.279974
683.000000	66.212212
682.000000	66.116401
681.000000	65.990583
680.000000	65.842058
679.000000	65.669046
678.000000	65.429608
677.000000	65.228013
676.000000	64.973793
675.000000	64.658579
674.000000	64.402668
673.000000	64.079172
672.000000	63.747663
671.000000	63.409564
670.000000	63.058465
669.000000	62.705140
668.000000	62.301327
667.000000	61.918974
666.000000	61.498599
665.000000	61.061662
664.000000	60.626506
663.000000	60.151547
662.000000	59.640793
661.000000	59.148115
660.000000	58.518398
659.000000	57.964191
658.000000	57.378907
657.000000	56.759252
656.000000	56.163640
655.000000	55.487977
654.000000	54.846596
653.000000	54.228811
652.000000	53.564456
651.000000	52.935452
650.000000	52.336100
649.000000	51.758563
648.000000	51.229377
647.000000	50.732780
646.000000	50.258801
645.000000	49.858906
644.000000	49.530246
643.000000	49.255992
642.000000	49.063925
641.000000	48.926263
640.000000	48.868474
639.000000	48.921099
638.000000	49.044869
637.000000	49.305767
636.000000	49.610653
635.000000	50.033521
634.000000	50.514089
633.000000	51.064735
632.000000	51.679136
631.000000	52.388101
630.000000	53.130013
629.000000	53.926953
628.000000	54.693440
627.000000	55.526265
626.000000	56.345734
625.000000	57.227711
624.000000	58.091879
623.000000	58.947410
622.000000	59.802763
621.000000	60.606115
620.000000	61.385870
619.000000	62.235791
618.000000	62.992128
617.000000	63.747841
616.000000	64.498122
615.000000	65.216704
614.000000	65.966452
613.000000	66.616381
612.000000	67.314216
611.000000	67.977591
610.000000	68.661980
609.000000	69.212448
608.000000	69.800492
607.000000	70.335555
606.000000	70.888338
605.000000	71.334892
604.000000	71.790528
603.000000	72.227732
602.000000	72.656210
601.000000	73.052187
600.000000	73.413704
599.000000	73.817695
598.000000	74.176630
597.000000	74.510276
596.000000	74.826292
595.000000	75.154507
594.000000	75.519051
593.000000	75.851629
592.000000	76.149035
591.000000	76.521237
590.000000	76.830219
589.000000	77.077047
588.000000	77.363323
587.000000	77.632056
586.000000	77.882002
585.000000	78.121084
584.000000	78.337905
583.000000	78.529616
582.000000	78.755787
581.000000	78.933073
580.000000	79.094865
579.000000	79.246862
578.000000	79.407141
577.000000	79.550145
576.000000	79.663230
575.000000	79.769370
574.000000	79.856010
573.000000	79.914511
572.000000	80.054399
571.000000	80.049056
570.000000	80.088592
569.000000	80.120915
568.000000	80.121805
567.000000	80.059653
566.000000	80.004802
565.000000	79.918073
564.000000	79.849777
563.000000	79.752096
562.000000	79.648538
561.000000	79.516397
560.000000	79.352468
559.000000	79.240095
558.000000	79.080885
557.000000	78.901640
556.000000	78.708327
555.000000	78.489724
554.000000	78.273527
553.000000	78.055103
552.000000	77.769273
551.000000	77.474093
550.000000	77.201441
549.000000	76.878391
548.000000	76.546615
547.000000	76.158652
546.000000	75.765346
545.000000	75.363314
544.000000	74.903404
543.000000	74.434678
542.000000	73.925705
541.000000	73.376484
540.000000	72.825393
539.000000	72.217403
538.000000	71.600776
537.000000	70.945860
536.000000	70.220867
535.000000	69.453222
534.000000	68.693413
533.000000	67.861567
532.000000	66.966055
531.000000	66.045790
530.000000	65.059721
529.000000	64.041863
528.000000	62.976634
527.000000	61.932865
526.000000	60.798805
525.000000	59.646314
524.000000	58.450547
523.000000	57.265644
522.000000	56.052068
521.000000	54.828342
520.000000	53.623403
519.000000	52.399143
518.000000	51.199992
517.000000	50.019363
516.000000	48.856008
515.000000	47.701914
514.000000	46.556011
513.000000	45.432459
512.000000	44.342298
511.000000	43.303782
510.000000	42.287883
509.000000	41.308582
508.000000	40.391432
507.000000	39.485592
506.000000	38.648404
505.000000	37.792338
504.000000	36.994864
503.000000	36.235500
502.000000	35.470704
501.000000	34.761293
500.000000	34.069514
499.000000	33.420831
498.000000	32.789601
497.000000	32.199598
496.000000	31.624910
495.000000	31.075867
494.000000	30.571613
493.000000	30.096565
492.000000	29.675300
491.000000	29.294638
490.000000	28.959923
489.000000	28.625119
488.000000	28.348817
487.000000	28.124872
486.000000	27.941710
485.000000	27.768876
484.000000	27.621865
483.000000	27.510382
482.000000	27.412702
481.000000	27.335323
480.000000	27.237464
479.000000	27.154475
478.000000	27.093747
477.000000	27.016725
476.000000	26.902927
475.000000	26.770608
474.000000	26.627515
473.000000	26.469641
472.000000	26.281580
471.000000	26.052115
470.000000	25.785429
469.000000	25.506189
468.000000	25.204242
467.000000	24.877363
466.000000	24.520387
465.000000	24.151301
464.000000	23.752385
463.000000	23.323106
462.000000	22.887060
461.000000	22.450212
460.000000	22.004904
459.000000	21.570817
458.000000	21.140202
457.000000	20.728375
456.000000	20.347981
455.000000	19.996348
454.000000	19.674722
453.000000	19.383460
452.000000	19.133604
451.000000	18.914200
450.000000	18.737716
449.000000	18.603794
448.000000	18.521785
447.000000	18.476462
446.000000	18.466845
445.000000	18.501572
444.000000	18.559094
443.000000	18.646090
442.000000	18.755079
441.000000	18.874487
440.000000	19.001997
439.000000	19.119713
438.000000	19.253902
437.000000	19.390940
436.000000	19.521745
435.000000	19.663592
434.000000	19.771423
433.000000	19.862070
432.000000	19.948798
431.000000	20.013444
430.000000	20.051911
429.000000	20.074706
428.000000	20.092426
427.000000	20.083521
426.000000	20.070432
425.000000	20.028314
424.000000	19.961710
423.000000	19.884242
422.000000	19.787985
421.000000	19.687455
420.000000	19.583096
419.000000	19.431544
418.000000	19.263340
417.000000	19.109829
416.000000	18.930763
415.000000	18.739764
414.000000	18.549122
413.000000	18.313156
412.000000	18.085650
411.000000	17.870609
410.000000	17.614075
409.000000	17.353444
408.000000	17.065922
407.000000	16.768783
406.000000	16.477789
405.000000	16.177801
404.000000	15.868018
403.000000	15.553605
402.000000	15.231000
401.000000	14.898066
400.000000	14.543138
399.000000	14.188210
398.000000	13.821618
397.000000	13.467491
396.000000	13.123249
395.000000	12.755855
394.000000	12.393180
393.000000	12.029437
392.000000	11.671749
391.000000	11.298478
390.000000	10.957797
389.000000	10.605540
388.000000	10.274209
387.000000	9.975913
386.000000	9.674589
385.000000	9.364361
384.000000	9.074524
383.000000	8.793859
382.000000	8.526372
381.000000	8.295838
380.000000	8.055420
379.000000	7.845544
378.000000	7.638251
377.000000	7.453752
376.000000	7.225445
375.000000	7.059467
374.000000	6.896072
373.000000	6.729293
372.000000	6.676045
371.000000	6.603653
370.000000	6.469019
369.000000	6.370181
368.000000	6.268582
367.000000	6.263150
366.000000	6.196189
365.000000	6.122372
364.000000	6.058973
363.000000	5.947045
362.000000	5.853015
361.000000	5.814994
360.000000	5.816863
359.000000	5.791575
358.000000	5.715977
357.000000	5.621502
356.000000	5.598974
355.000000	5.565939
354.000000	5.517410
353.000000	5.480457
352.000000	5.453298
351.000000	5.433976
350.000000	5.350542
349.000000	5.338699
348.000000	5.332466
347.000000	5.356419
346.000000	5.337987
345.000000	5.284116
344.000000	5.253128
343.000000	5.260074
342.000000	5.279485
341.000000	5.277437
340.000000	5.227840
339.000000	5.245025
338.000000	5.154379
337.000000	5.235498
336.000000	5.235943
335.000000	5.168359
334.000000	5.254553
333.000000	5.216709
332.000000	5.189195
331.000000	5.151173
330.000000	5.177619
329.000000	5.123303
328.000000	5.120542
327.000000	5.178065
326.000000	5.125885
325.000000	5.120988
324.000000	5.231046
323.000000	5.187681
322.000000	5.169160
321.000000	5.172900
320.000000	5.294712
319.000000	5.231580
318.000000	5.236032
317.000000	5.272095
316.000000	5.192044
315.000000	5.210744
314.000000	5.262033
313.000000	5.196586
312.000000	5.224367
311.000000	5.203353
310.000000	5.236744
309.000000	5.248498
308.000000	5.238080
307.000000	5.250991
306.000000	5.193291
305.000000	5.272896
304.000000	5.232915
303.000000	5.280910
302.000000	5.308335
301.000000	5.264259
300.000000	5.267553
299.000000	5.306020
298.000000	5.291239
297.000000	5.299787
296.000000	5.251882
295.000000	5.322849
294.000000	5.308781
293.000000	5.300143
292.000000	5.329261
291.000000	5.325254
290.000000	5.344042
289.000000	5.341192
288.000000	5.335316
287.000000	5.353748
286.000000	5.342350
285.000000	5.347604
284.000000	5.359892
283.000000	5.368529
282.000000	5.412784
281.000000	5.400674
280.000000	5.409489
279.000000	5.408777
278.000000	5.393639
277.000000	5.430859
276.000000	5.427031
275.000000	5.422311
274.000000	5.462025
273.000000	5.472977
272.000000	5.450627
271.000000	5.489628
270.000000	5.505923
269.000000	5.535931
268.000000	5.523821
267.000000	5.582590
266.000000	5.577692
265.000000	5.588289
264.000000	5.611885
263.000000	5.652044
262.000000	5.683565
261.000000	5.678401
260.000000	5.724436
259.000000	5.766910
258.000000	5.755156
257.000000	5.792376
256.000000	5.810274
255.000000	5.806445
254.000000	5.811699
253.000000	5.845357
252.000000	5.828172
251.000000	5.874475
250.000000	5.897537
