PE UV       SUBTECH     SPECTRUM    ASCII       PEDS        4.00        
   -1
CICIMAUCR0014-1.Sample.ASC
24/04/12
10:26:09.00
24/04/12
10:26:09.00
Vinicio Soto Monge
C. cupreomarginata
250,000000
1
Lambda 1050
1050L1511233
PerkinElmer UV WinLab 6.3.2.0749 / 2.02.05 Lambda 900 UV/VIS/NIR, Aug  7 2015 09:38:08

0
0
3350/servo 860,8/2
0
0
UV/VIS
1
1
1
DoubleDePol,CommonBeamDepol,RBeamAtt,SBeamAtt,60mm sphere, WB InGaAs Detector
0
0
0
0
Program
Program
3350/servo 860,8/2
3350/0,2 860,8/0,2
3350/0,2 860,8/0,2
0
15.00
 
 
 
0
 
860,8
319,2
860,8
Front
100
on
S:100 R:100
0
0
0
0
 
0
 
 
 
0
 
 
0
0
0
0
0
 
 
 
 
0
0


0
0
#HDR
-1
-1
#GR
nm
%R
1.0
0.0
2500,000000
-1,000000
2251
8
75,639400
5,339800
#DATA
2500.000000	12.566900
2499.000000	12.677500
2498.000000	12.563000
2497.000000	12.493100
2496.000000	12.567100
2495.000000	12.443000
2494.000000	12.393000
2493.000000	12.423500
2492.000000	12.423000
2491.000000	12.433200
2490.000000	12.353700
2489.000000	12.334100
2488.000000	12.263800
2487.000000	12.279700
2486.000000	12.360300
2485.000000	12.337000
2484.000000	12.320100
2483.000000	12.296000
2482.000000	12.356400
2481.000000	12.319900
2480.000000	12.317500
2479.000000	12.330500
2478.000000	12.347000
2477.000000	12.337200
2476.000000	12.341200
2475.000000	12.335300
2474.000000	12.338500
2473.000000	12.377900
2472.000000	12.357300
2471.000000	12.368400
2470.000000	12.386000
2469.000000	12.417600
2468.000000	12.410100
2467.000000	12.444600
2466.000000	12.469000
2465.000000	12.498100
2464.000000	12.559700
2463.000000	12.606000
2462.000000	12.621000
2461.000000	12.691400
2460.000000	12.714100
2459.000000	12.798900
2458.000000	12.869600
2457.000000	12.945700
2456.000000	13.036700
2455.000000	13.123100
2454.000000	13.225700
2453.000000	13.316600
2452.000000	13.410200
2451.000000	13.539700
2450.000000	13.655300
2449.000000	13.755500
2448.000000	13.863700
2447.000000	13.964900
2446.000000	14.066700
2445.000000	14.169700
2444.000000	14.274700
2443.000000	14.375300
2442.000000	14.488100
2441.000000	14.585500
2440.000000	14.666700
2439.000000	14.759400
2438.000000	14.848700
2437.000000	14.945200
2436.000000	15.037900
2435.000000	15.113900
2434.000000	15.202200
2433.000000	15.296100
2432.000000	15.362900
2431.000000	15.437700
2430.000000	15.519400
2429.000000	15.566700
2428.000000	15.588600
2427.000000	15.582200
2426.000000	15.618100
2425.000000	15.640100
2424.000000	15.666800
2423.000000	15.717400
2422.000000	15.768100
2421.000000	15.803600
2420.000000	15.828100
2419.000000	15.869400
2418.000000	15.923200
2417.000000	15.965800
2416.000000	16.001900
2415.000000	16.045700
2414.000000	16.083000
2413.000000	16.105800
2412.000000	16.152900
2411.000000	16.192000
2410.000000	16.225300
2409.000000	16.264700
2408.000000	16.307900
2407.000000	16.332000
2406.000000	16.376600
2405.000000	16.417400
2404.000000	16.438500
2403.000000	16.483400
2402.000000	16.522600
2401.000000	16.557800
2400.000000	16.597800
2399.000000	16.644700
2398.000000	16.682300
2397.000000	16.716000
2396.000000	16.754300
2395.000000	16.781300
2394.000000	16.816400
2393.000000	16.857900
2392.000000	16.879100
2391.000000	16.910100
2390.000000	16.943000
2389.000000	16.956500
2388.000000	16.978100
2387.000000	16.993900
2386.000000	17.001100
2385.000000	16.993700
2384.000000	16.983600
2383.000000	16.996900
2382.000000	16.987300
2381.000000	16.981500
2380.000000	16.967400
2379.000000	16.942800
2378.000000	16.922200
2377.000000	16.896800
2376.000000	16.875200
2375.000000	16.852000
2374.000000	16.821200
2373.000000	16.792500
2372.000000	16.770000
2371.000000	16.730900
2370.000000	16.675900
2369.000000	16.629400
2368.000000	16.578600
2367.000000	16.498900
2366.000000	16.425400
2365.000000	16.348100
2364.000000	16.270400
2363.000000	16.203400
2362.000000	16.118100
2361.000000	16.027900
2360.000000	15.948600
2359.000000	15.875100
2358.000000	15.804200
2357.000000	15.736400
2356.000000	15.676800
2355.000000	15.648100
2354.000000	15.612200
2353.000000	15.596700
2352.000000	15.601300
2351.000000	15.616700
2350.000000	15.647900
2349.000000	15.702200
2348.000000	15.750700
2347.000000	15.802300
2346.000000	15.874300
2345.000000	15.952500
2344.000000	16.018600
2343.000000	16.085100
2342.000000	16.150100
2341.000000	16.187500
2340.000000	16.218400
2339.000000	16.242700
2338.000000	16.266300
2337.000000	16.280600
2336.000000	16.268700
2335.000000	16.247900
2334.000000	16.229600
2333.000000	16.188100
2332.000000	16.127300
2331.000000	16.093600
2330.000000	16.059000
2329.000000	15.992700
2328.000000	15.927100
2327.000000	15.830800
2326.000000	15.728800
2325.000000	15.636900
2324.000000	15.532700
2323.000000	15.405200
2322.000000	15.285600
2321.000000	15.157500
2320.000000	15.011500
2319.000000	14.865200
2318.000000	14.703400
2317.000000	14.554200
2316.000000	14.414800
2315.000000	14.272200
2314.000000	14.113100
2313.000000	13.974000
2312.000000	13.847200
2311.000000	13.732000
2310.000000	13.625200
2309.000000	13.540200
2308.000000	13.507500
2307.000000	13.495200
2306.000000	13.480800
2305.000000	13.517500
2304.000000	13.569600
2303.000000	13.652100
2302.000000	13.741100
2301.000000	13.849700
2300.000000	13.981600
2299.000000	14.110500
2298.000000	14.233500
2297.000000	14.382800
2296.000000	14.498400
2295.000000	14.605000
2294.000000	14.698500
2293.000000	14.808500
2292.000000	14.893000
2291.000000	14.928400
2290.000000	14.986900
2289.000000	14.978600
2288.000000	14.980800
2287.000000	14.961400
2286.000000	14.965100
2285.000000	14.921900
2284.000000	14.870900
2283.000000	14.803500
2282.000000	14.766700
2281.000000	14.710100
2280.000000	14.638400
2279.000000	14.574500
2278.000000	14.526100
2277.000000	14.467900
2276.000000	14.433200
2275.000000	14.398600
2274.000000	14.376400
2273.000000	14.356800
2272.000000	14.376200
2271.000000	14.420200
2270.000000	14.458100
2269.000000	14.527700
2268.000000	14.608800
2267.000000	14.713200
2266.000000	14.895700
2265.000000	15.082500
2264.000000	15.273000
2263.000000	15.525400
2262.000000	15.761300
2261.000000	16.088000
2260.000000	16.371600
2259.000000	16.680700
2258.000000	17.040900
2257.000000	17.385000
2256.000000	17.717800
2255.000000	18.040700
2254.000000	18.348000
2253.000000	18.667600
2252.000000	19.008200
2251.000000	19.280600
2250.000000	19.520100
2249.000000	19.794600
2248.000000	20.054400
2247.000000	20.270100
2246.000000	20.476900
2245.000000	20.676400
2244.000000	20.849100
2243.000000	21.017100
2242.000000	21.156400
2241.000000	21.314700
2240.000000	21.407100
2239.000000	21.582000
2238.000000	21.670400
2237.000000	21.762100
2236.000000	21.845400
2235.000000	21.916300
2234.000000	22.024700
2233.000000	22.077100
2232.000000	22.118500
2231.000000	22.160400
2230.000000	22.191400
2229.000000	22.218600
2228.000000	22.216600
2227.000000	22.243200
2226.000000	22.248900
2225.000000	22.229300
2224.000000	22.214700
2223.000000	22.199700
2222.000000	22.150100
2221.000000	22.117700
2220.000000	22.088300
2219.000000	22.048100
2218.000000	21.997700
2217.000000	21.958600
2216.000000	21.915900
2215.000000	21.869000
2214.000000	21.840900
2213.000000	21.803000
2212.000000	21.775000
2211.000000	21.728200
2210.000000	21.707000
2209.000000	21.640500
2208.000000	21.629200
2207.000000	21.599900
2206.000000	21.568300
2205.000000	21.548400
2204.000000	21.515100
2203.000000	21.495100
2202.000000	21.464200
2201.000000	21.467100
2200.000000	21.465000
2199.000000	21.424300
2198.000000	21.409000
2197.000000	21.392100
2196.000000	21.379300
2195.000000	21.363600
2194.000000	21.345500
2193.000000	21.329800
2192.000000	21.299500
2191.000000	21.296900
2190.000000	21.281900
2189.000000	21.274100
2188.000000	21.245700
2187.000000	21.229900
2186.000000	21.210300
2185.000000	21.171800
2184.000000	21.160600
2183.000000	21.140900
2182.000000	21.127700
2181.000000	21.102900
2180.000000	21.093700
2179.000000	21.058700
2178.000000	21.063000
2177.000000	21.058100
2176.000000	21.048700
2175.000000	21.029500
2174.000000	21.032100
2173.000000	21.043000
2172.000000	21.063000
2171.000000	21.064700
2170.000000	21.078300
2169.000000	21.089200
2168.000000	21.105500
2167.000000	21.137300
2166.000000	21.159000
2165.000000	21.183100
2164.000000	21.211100
2163.000000	21.257400
2162.000000	21.303100
2161.000000	21.342500
2160.000000	21.390700
2159.000000	21.427700
2158.000000	21.480000
2157.000000	21.533800
2156.000000	21.587300
2155.000000	21.638300
2154.000000	21.702200
2153.000000	21.757400
2152.000000	21.832500
2151.000000	21.905000
2150.000000	21.977700
2149.000000	22.040700
2148.000000	22.111100
2147.000000	22.170400
2146.000000	22.213000
2145.000000	22.276800
2144.000000	22.332700
2143.000000	22.395600
2142.000000	22.444000
2141.000000	22.502500
2140.000000	22.537300
2139.000000	22.579100
2138.000000	22.633300
2137.000000	22.688600
2136.000000	22.728300
2135.000000	22.761500
2134.000000	22.810200
2133.000000	22.826900
2132.000000	22.855200
2131.000000	22.886900
2130.000000	22.916500
2129.000000	22.925200
2128.000000	22.934400
2127.000000	22.947100
2126.000000	22.962200
2125.000000	22.969800
2124.000000	22.976300
2123.000000	22.968200
2122.000000	22.954000
2121.000000	22.951900
2120.000000	22.945300
2119.000000	22.933600
2118.000000	22.922800
2117.000000	22.903300
2116.000000	22.889800
2115.000000	22.865400
2114.000000	22.836800
2113.000000	22.805100
2112.000000	22.755400
2111.000000	22.739700
2110.000000	22.739900
2109.000000	22.710500
2108.000000	22.684300
2107.000000	22.662900
2106.000000	22.633100
2105.000000	22.603100
2104.000000	22.567200
2103.000000	22.530700
2102.000000	22.495000
2101.000000	22.463800
2100.000000	22.442900
2099.000000	22.412600
2098.000000	22.381600
2097.000000	22.361500
2096.000000	22.344100
2095.000000	22.318800
2094.000000	22.305800
2093.000000	22.284900
2092.000000	22.266000
2091.000000	22.253900
2090.000000	22.229400
2089.000000	22.209100
2088.000000	22.207400
2087.000000	22.202900
2086.000000	22.165600
2085.000000	22.144800
2084.000000	22.122500
2083.000000	22.089500
2082.000000	22.069200
2081.000000	22.036600
2080.000000	22.002000
2079.000000	21.974700
2078.000000	21.935000
2077.000000	21.895900
2076.000000	21.852600
2075.000000	21.803200
2074.000000	21.753200
2073.000000	21.709000
2072.000000	21.662800
2071.000000	21.621300
2070.000000	21.565000
2069.000000	21.516300
2068.000000	21.458600
2067.000000	21.404800
2066.000000	21.362100
2065.000000	21.318700
2064.000000	21.278500
2063.000000	21.249500
2062.000000	21.211000
2061.000000	21.173400
2060.000000	21.160600
2059.000000	21.161400
2058.000000	21.160300
2057.000000	21.163600
2056.000000	21.187100
2055.000000	21.223500
2054.000000	21.280200
2053.000000	21.352100
2052.000000	21.413500
2051.000000	21.515500
2050.000000	21.622600
2049.000000	21.729600
2048.000000	21.874200
2047.000000	22.033800
2046.000000	22.178300
2045.000000	22.307600
2044.000000	22.466300
2043.000000	22.639000
2042.000000	22.811200
2041.000000	22.964500
2040.000000	23.122000
2039.000000	23.281100
2038.000000	23.436900
2037.000000	23.584500
2036.000000	23.715500
2035.000000	23.860200
2034.000000	23.995100
2033.000000	24.139700
2032.000000	24.250300
2031.000000	24.340300
2030.000000	24.452900
2029.000000	24.552500
2028.000000	24.659400
2027.000000	24.767700
2026.000000	24.850800
2025.000000	24.931200
2024.000000	25.021700
2023.000000	25.120700
2022.000000	25.185500
2021.000000	25.237700
2020.000000	25.298200
2019.000000	25.369700
2018.000000	25.436100
2017.000000	25.460400
2016.000000	25.522100
2015.000000	25.555100
2014.000000	25.625500
2013.000000	25.650300
2012.000000	25.662200
2011.000000	25.667100
2010.000000	25.688800
2009.000000	25.689300
2008.000000	25.700900
2007.000000	25.689300
2006.000000	25.672300
2005.000000	25.672200
2004.000000	25.638100
2003.000000	25.598600
2002.000000	25.571200
2001.000000	25.541500
2000.000000	25.502900
1999.000000	25.455700
1998.000000	25.420800
1997.000000	25.340200
1996.000000	25.277000
1995.000000	25.210100
1994.000000	25.147700
1993.000000	25.073900
1992.000000	24.994700
1991.000000	24.925800
1990.000000	24.837300
1989.000000	24.751400
1988.000000	24.663100
1987.000000	24.577900
1986.000000	24.456700
1985.000000	24.378700
1984.000000	24.277700
1983.000000	24.189100
1982.000000	24.085000
1981.000000	23.959100
1980.000000	23.859800
1979.000000	23.755600
1978.000000	23.666400
1977.000000	23.558300
1976.000000	23.463800
1975.000000	23.357700
1974.000000	23.269100
1973.000000	23.188700
1972.000000	23.076300
1971.000000	22.969200
1970.000000	22.873200
1969.000000	22.780200
1968.000000	22.670100
1967.000000	22.599400
1966.000000	22.505300
1965.000000	22.405200
1964.000000	22.358600
1963.000000	22.258700
1962.000000	22.146700
1961.000000	22.074000
1960.000000	21.953200
1959.000000	21.870200
1958.000000	21.767500
1957.000000	21.683900
1956.000000	21.585400
1955.000000	21.489000
1954.000000	21.389200
1953.000000	21.300200
1952.000000	21.228400
1951.000000	21.137000
1950.000000	21.049500
1949.000000	20.997300
1948.000000	20.918000
1947.000000	20.832600
1946.000000	20.781400
1945.000000	20.743100
1944.000000	20.695200
1943.000000	20.641800
1942.000000	20.587800
1941.000000	20.576100
1940.000000	20.568400
1939.000000	20.542200
1938.000000	20.540700
1937.000000	20.574300
1936.000000	20.588500
1935.000000	20.601700
1934.000000	20.640100
1933.000000	20.714800
1932.000000	20.787500
1931.000000	20.866600
1930.000000	20.960100
1929.000000	21.044500
1928.000000	21.162400
1927.000000	21.320600
1926.000000	21.458700
1925.000000	21.622500
1924.000000	21.768100
1923.000000	21.918500
1922.000000	22.119700
1921.000000	22.374100
1920.000000	22.621100
1919.000000	22.815100
1918.000000	23.057400
1917.000000	23.291200
1916.000000	23.495800
1915.000000	23.743300
1914.000000	24.080100
1913.000000	24.421600
1912.000000	24.739900
1911.000000	25.041300
1910.000000	25.314900
1909.000000	25.560600
1908.000000	25.857700
1907.000000	26.197700
1906.000000	26.593200
1905.000000	27.035700
1904.000000	27.433900
1903.000000	27.767200
1902.000000	28.119200
1901.000000	28.499000
1900.000000	28.920300
1899.000000	29.372700
1898.000000	29.792500
1897.000000	30.216000
1896.000000	30.550000
1895.000000	30.884300
1894.000000	31.262100
1893.000000	31.658900
1892.000000	32.111100
1891.000000	32.578400
1890.000000	32.992200
1889.000000	33.373900
1888.000000	33.794300
1887.000000	34.201400
1886.000000	34.644500
1885.000000	35.145900
1884.000000	35.712400
1883.000000	36.230000
1882.000000	36.737500
1881.000000	37.263700
1880.000000	37.723500
1879.000000	38.166800
1878.000000	38.602100
1877.000000	39.013800
1876.000000	39.386500
1875.000000	39.757400
1874.000000	40.099600
1873.000000	40.426200
1872.000000	40.718300
1871.000000	40.984800
1870.000000	41.200600
1869.000000	41.401000
1868.000000	41.581100
1867.000000	41.653500
1866.000000	41.674700
1865.000000	41.727100
1864.000000	41.758300
1863.000000	41.784600
1862.000000	41.839700
1861.000000	41.903500
1860.000000	41.953900
1859.000000	41.992600
1858.000000	42.006100
1857.000000	41.989200
1856.000000	41.932700
1855.000000	41.901000
1854.000000	41.875200
1853.000000	41.809600
1852.000000	41.744100
1851.000000	41.676700
1850.000000	41.606600
1849.000000	41.596200
1848.000000	41.593900
1847.000000	41.555700
1846.000000	41.456100
1845.000000	41.325700
1844.000000	41.206500
1843.000000	41.166400
1842.000000	41.179300
1841.000000	41.173400
1840.000000	41.134900
1839.000000	41.048500
1838.000000	40.971700
1837.000000	40.935000
1836.000000	40.883400
1835.000000	40.804300
1834.000000	40.681600
1833.000000	40.557800
1832.000000	40.462600
1831.000000	40.373700
1830.000000	40.297300
1829.000000	40.213400
1828.000000	40.110200
1827.000000	40.028700
1826.000000	39.967300
1825.000000	39.877900
1824.000000	39.784900
1823.000000	39.724400
1822.000000	39.725500
1821.000000	39.753700
1820.000000	39.743900
1819.000000	39.682200
1818.000000	39.616800
1817.000000	39.592600
1816.000000	39.591200
1815.000000	39.579500
1814.000000	39.549700
1813.000000	39.521900
1812.000000	39.502700
1811.000000	39.468500
1810.000000	39.397400
1809.000000	39.347500
1808.000000	39.308800
1807.000000	39.273700
1806.000000	39.227800
1805.000000	39.151400
1804.000000	39.079200
1803.000000	39.019800
1802.000000	38.982900
1801.000000	38.941000
1800.000000	38.874100
1799.000000	38.800000
1798.000000	38.743300
1797.000000	38.694200
1796.000000	38.653000
1795.000000	38.613700
1794.000000	38.542600
1793.000000	38.475700
1792.000000	38.408600
1791.000000	38.354800
1790.000000	38.306500
1789.000000	38.239300
1788.000000	38.162400
1787.000000	38.103800
1786.000000	38.036100
1785.000000	37.959300
1784.000000	37.864300
1783.000000	37.776300
1782.000000	37.689800
1781.000000	37.614700
1780.000000	37.512100
1779.000000	37.438500
1778.000000	37.336300
1777.000000	37.220500
1776.000000	37.100100
1775.000000	36.980800
1774.000000	36.824400
1773.000000	36.682800
1772.000000	36.531500
1771.000000	36.377300
1770.000000	36.235500
1769.000000	36.089900
1768.000000	35.981600
1767.000000	35.861300
1766.000000	35.749700
1765.000000	35.670800
1764.000000	35.614600
1763.000000	35.593300
1762.000000	35.603600
1761.000000	35.631800
1760.000000	35.693700
1759.000000	35.759400
1758.000000	35.802600
1757.000000	35.853300
1756.000000	35.880500
1755.000000	35.911700
1754.000000	35.912500
1753.000000	35.896700
1752.000000	35.869100
1751.000000	35.807900
1750.000000	35.744700
1749.000000	35.664400
1748.000000	35.569900
1747.000000	35.447800
1746.000000	35.331000
1745.000000	35.175700
1744.000000	34.984300
1743.000000	34.775700
1742.000000	34.546800
1741.000000	34.290100
1740.000000	34.052600
1739.000000	33.818900
1738.000000	33.584000
1737.000000	33.396300
1736.000000	33.285600
1735.000000	33.196000
1734.000000	33.146900
1733.000000	33.132700
1732.000000	33.193600
1731.000000	33.288900
1730.000000	33.410900
1729.000000	33.527400
1728.000000	33.643000
1727.000000	33.751000
1726.000000	33.828000
1725.000000	33.915700
1724.000000	33.973000
1723.000000	34.023300
1722.000000	34.064000
1721.000000	34.094400
1720.000000	34.127500
1719.000000	34.175000
1718.000000	34.246500
1717.000000	34.329400
1716.000000	34.402200
1715.000000	34.495600
1714.000000	34.580200
1713.000000	34.653900
1712.000000	34.724000
1711.000000	34.772200
1710.000000	34.790300
1709.000000	34.797100
1708.000000	34.790300
1707.000000	34.762700
1706.000000	34.740800
1705.000000	34.687800
1704.000000	34.640700
1703.000000	34.532800
1702.000000	34.409800
1701.000000	34.273100
1700.000000	34.074600
1699.000000	33.928000
1698.000000	33.757200
1697.000000	33.629800
1696.000000	33.596800
1695.000000	33.600200
1694.000000	33.662800
1693.000000	33.760000
1692.000000	33.925600
1691.000000	34.130900
1690.000000	34.265500
1689.000000	34.404700
1688.000000	34.494300
1687.000000	34.535800
1686.000000	34.559700
1685.000000	34.622900
1684.000000	34.775800
1683.000000	35.039300
1682.000000	35.421200
1681.000000	35.918600
1680.000000	36.508200
1679.000000	37.146400
1678.000000	37.703100
1677.000000	38.265600
1676.000000	38.741000
1675.000000	39.161400
1674.000000	39.522900
1673.000000	39.851300
1672.000000	40.159800
1671.000000	40.424300
1670.000000	40.620500
1669.000000	40.832900
1668.000000	41.016200
1667.000000	41.207400
1666.000000	41.318600
1665.000000	41.447600
1664.000000	41.552900
1663.000000	41.666000
1662.000000	41.729800
1661.000000	41.805700
1660.000000	41.868900
1659.000000	41.903900
1658.000000	41.940000
1657.000000	41.986600
1656.000000	42.003200
1655.000000	41.997200
1654.000000	42.017800
1653.000000	41.985000
1652.000000	41.967300
1651.000000	41.961200
1650.000000	41.918000
1649.000000	41.867800
1648.000000	41.814100
1647.000000	41.783900
1646.000000	41.724300
1645.000000	41.655600
1644.000000	41.591900
1643.000000	41.553700
1642.000000	41.480300
1641.000000	41.422200
1640.000000	41.362800
1639.000000	41.285900
1638.000000	41.211500
1637.000000	41.148200
1636.000000	41.066400
1635.000000	40.989400
1634.000000	40.911300
1633.000000	40.825600
1632.000000	40.741400
1631.000000	40.649000
1630.000000	40.562900
1629.000000	40.467600
1628.000000	40.368100
1627.000000	40.274700
1626.000000	40.170800
1625.000000	40.079600
1624.000000	39.980200
1623.000000	39.894800
1622.000000	39.803700
1621.000000	39.717100
1620.000000	39.616200
1619.000000	39.537200
1618.000000	39.454300
1617.000000	39.371500
1616.000000	39.287200
1615.000000	39.201800
1614.000000	39.124300
1613.000000	39.037300
1612.000000	38.941700
1611.000000	38.867100
1610.000000	38.783700
1609.000000	38.694200
1608.000000	38.604400
1607.000000	38.513000
1606.000000	38.432300
1605.000000	38.350600
1604.000000	38.263100
1603.000000	38.174100
1602.000000	38.096800
1601.000000	38.014900
1600.000000	37.933700
1599.000000	37.852200
1598.000000	37.765700
1597.000000	37.689500
1596.000000	37.617600
1595.000000	37.544600
1594.000000	37.478500
1593.000000	37.416200
1592.000000	37.362700
1591.000000	37.313800
1590.000000	37.268400
1589.000000	37.209000
1588.000000	37.148400
1587.000000	37.103700
1586.000000	37.052400
1585.000000	37.015500
1584.000000	36.981300
1583.000000	36.924500
1582.000000	36.887000
1581.000000	36.861600
1580.000000	36.843800
1579.000000	36.831000
1578.000000	36.818900
1577.000000	36.797300
1576.000000	36.787700
1575.000000	36.794800
1574.000000	36.794200
1573.000000	36.806600
1572.000000	36.814700
1571.000000	36.829500
1570.000000	36.863400
1569.000000	36.882600
1568.000000	36.900300
1567.000000	36.939400
1566.000000	36.968600
1565.000000	36.981800
1564.000000	37.007800
1563.000000	37.038300
1562.000000	37.059900
1561.000000	37.079400
1560.000000	37.085500
1559.000000	37.094600
1558.000000	37.113300
1557.000000	37.106800
1556.000000	37.097700
1555.000000	37.097200
1554.000000	37.083600
1553.000000	37.067400
1552.000000	37.055300
1551.000000	37.031000
1550.000000	37.002300
1549.000000	36.978500
1548.000000	36.958400
1547.000000	36.935200
1546.000000	36.898800
1545.000000	36.892700
1544.000000	36.879600
1543.000000	36.867500
1542.000000	36.855700
1541.000000	36.845000
1540.000000	36.846400
1539.000000	36.855600
1538.000000	36.841100
1537.000000	36.835800
1536.000000	36.838300
1535.000000	36.827700
1534.000000	36.813600
1533.000000	36.794400
1532.000000	36.784000
1531.000000	36.774500
1530.000000	36.753800
1529.000000	36.729400
1528.000000	36.716400
1527.000000	36.700000
1526.000000	36.681600
1525.000000	36.647900
1524.000000	36.610500
1523.000000	36.582800
1522.000000	36.564200
1521.000000	36.527400
1520.000000	36.499200
1519.000000	36.474400
1518.000000	36.443300
1517.000000	36.420400
1516.000000	36.385800
1515.000000	36.355100
1514.000000	36.309200
1513.000000	36.283800
1512.000000	36.260800
1511.000000	36.231900
1510.000000	36.207100
1509.000000	36.177200
1508.000000	36.149200
1507.000000	36.101700
1506.000000	36.076600
1505.000000	36.057900
1504.000000	36.041300
1503.000000	36.024000
1502.000000	35.987500
1501.000000	35.969600
1500.000000	35.963900
1499.000000	35.958600
1498.000000	35.959600
1497.000000	35.964000
1496.000000	35.962000
1495.000000	35.949600
1494.000000	35.956800
1493.000000	35.975100
1492.000000	36.000900
1491.000000	36.023500
1490.000000	36.047700
1489.000000	36.087100
1488.000000	36.108200
1487.000000	36.135900
1486.000000	36.140500
1485.000000	36.182200
1484.000000	36.207200
1483.000000	36.238600
1482.000000	36.299900
1481.000000	36.348500
1480.000000	36.378300
1479.000000	36.438600
1478.000000	36.485500
1477.000000	36.539300
1476.000000	36.583000
1475.000000	36.602300
1474.000000	36.673100
1473.000000	36.738500
1472.000000	36.789700
1471.000000	36.851700
1470.000000	36.887500
1469.000000	36.938100
1468.000000	36.992700
1467.000000	37.047000
1466.000000	37.115300
1465.000000	37.168600
1464.000000	37.229400
1463.000000	37.319500
1462.000000	37.384300
1461.000000	37.475300
1460.000000	37.576800
1459.000000	37.660700
1458.000000	37.762900
1457.000000	37.875500
1456.000000	37.968400
1455.000000	38.093600
1454.000000	38.199300
1453.000000	38.331000
1452.000000	38.480200
1451.000000	38.611000
1450.000000	38.738900
1449.000000	38.837600
1448.000000	38.962400
1447.000000	39.123600
1446.000000	39.284000
1445.000000	39.428800
1444.000000	39.555100
1443.000000	39.693800
1442.000000	39.837800
1441.000000	40.007600
1440.000000	40.124700
1439.000000	40.286000
1438.000000	40.448800
1437.000000	40.578700
1436.000000	40.715500
1435.000000	40.866000
1434.000000	41.024200
1433.000000	41.183400
1432.000000	41.360700
1431.000000	41.506500
1430.000000	41.672100
1429.000000	41.913700
1428.000000	42.136900
1427.000000	42.331800
1426.000000	42.554200
1425.000000	42.825100
1424.000000	43.096900
1423.000000	43.314900
1422.000000	43.566100
1421.000000	43.857700
1420.000000	44.171300
1419.000000	44.440700
1418.000000	44.704200
1417.000000	44.870900
1416.000000	45.155500
1415.000000	45.467800
1414.000000	45.781200
1413.000000	45.998700
1412.000000	46.185800
1411.000000	46.513100
1410.000000	46.873600
1409.000000	47.281900
1408.000000	47.652800
1407.000000	48.038000
1406.000000	48.433500
1405.000000	48.863800
1404.000000	49.244200
1403.000000	49.598800
1402.000000	49.978300
1401.000000	50.536000
1400.000000	50.886300
1399.000000	51.108600
1398.000000	51.258000
1397.000000	51.518900
1396.000000	51.900700
1395.000000	52.111600
1394.000000	52.171300
1393.000000	52.302700
1392.000000	52.536700
1391.000000	52.703300
1390.000000	52.871100
1389.000000	53.117200
1388.000000	53.488500
1387.000000	53.742900
1386.000000	54.037600
1385.000000	54.405400
1384.000000	54.778500
1383.000000	55.167900
1382.000000	55.462100
1381.000000	55.666800
1380.000000	55.756700
1379.000000	55.847400
1378.000000	55.888400
1377.000000	55.982000
1376.000000	56.112600
1375.000000	56.308500
1374.000000	56.560100
1373.000000	56.884900
1372.000000	57.263500
1371.000000	57.618600
1370.000000	57.911400
1369.000000	58.210600
1368.000000	58.510600
1367.000000	58.729500
1366.000000	58.908400
1365.000000	59.146900
1364.000000	59.328200
1363.000000	59.473800
1362.000000	59.676600
1361.000000	59.774000
1360.000000	59.754300
1359.000000	59.894100
1358.000000	60.010300
1357.000000	60.188200
1356.000000	60.488600
1355.000000	60.901500
1354.000000	61.415000
1353.000000	61.872700
1352.000000	62.378200
1351.000000	62.884700
1350.000000	63.355000
1349.000000	63.773800
1348.000000	64.169400
1347.000000	64.521100
1346.000000	64.805900
1345.000000	65.143500
1344.000000	65.490200
1343.000000	65.777400
1342.000000	66.032700
1341.000000	66.305100
1340.000000	66.544500
1339.000000	66.763700
1338.000000	66.988800
1337.000000	67.200900
1336.000000	67.385300
1335.000000	67.568700
1334.000000	67.748900
1333.000000	67.922100
1332.000000	68.091700
1331.000000	68.244000
1330.000000	68.393300
1329.000000	68.523300
1328.000000	68.651100
1327.000000	68.763800
1326.000000	68.860400
1325.000000	68.978100
1324.000000	69.077600
1323.000000	69.171500
1322.000000	69.253500
1321.000000	69.329300
1320.000000	69.428400
1319.000000	69.513400
1318.000000	69.567300
1317.000000	69.629900
1316.000000	69.690700
1315.000000	69.757400
1314.000000	69.819400
1313.000000	69.871600
1312.000000	69.920800
1311.000000	69.959300
1310.000000	69.998200
1309.000000	70.040300
1308.000000	70.067400
1307.000000	70.094700
1306.000000	70.120300
1305.000000	70.130900
1304.000000	70.139900
1303.000000	70.131700
1302.000000	70.126300
1301.000000	70.125500
1300.000000	70.111100
1299.000000	70.095300
1298.000000	70.090200
1297.000000	70.074600
1296.000000	70.049800
1295.000000	70.033300
1294.000000	70.020800
1293.000000	69.999600
1292.000000	69.974600
1291.000000	69.933000
1290.000000	69.889000
1289.000000	69.847100
1288.000000	69.793400
1287.000000	69.734900
1286.000000	69.668200
1285.000000	69.602500
1284.000000	69.531600
1283.000000	69.466700
1282.000000	69.402800
1281.000000	69.332800
1280.000000	69.272700
1279.000000	69.208200
1278.000000	69.146700
1277.000000	69.104300
1276.000000	69.063400
1275.000000	69.017700
1274.000000	68.977900
1273.000000	68.928300
1272.000000	68.900900
1271.000000	68.877500
1270.000000	68.829400
1269.000000	68.795200
1268.000000	68.777400
1267.000000	68.740400
1266.000000	68.705600
1265.000000	68.663200
1264.000000	68.611500
1263.000000	68.578700
1262.000000	68.528900
1261.000000	68.491100
1260.000000	68.443000
1259.000000	68.395700
1258.000000	68.369300
1257.000000	68.318200
1256.000000	68.246900
1255.000000	68.193700
1254.000000	68.144300
1253.000000	68.068000
1252.000000	67.982500
1251.000000	67.924800
1250.000000	67.821800
1249.000000	67.733700
1248.000000	67.644000
1247.000000	67.528800
1246.000000	67.423200
1245.000000	67.305800
1244.000000	67.176700
1243.000000	67.061400
1242.000000	66.932300
1241.000000	66.793900
1240.000000	66.665500
1239.000000	66.525800
1238.000000	66.385500
1237.000000	66.241500
1236.000000	66.094100
1235.000000	65.952700
1234.000000	65.800500
1233.000000	65.631100
1232.000000	65.486200
1231.000000	65.330600
1230.000000	65.173700
1229.000000	65.013500
1228.000000	64.857900
1227.000000	64.694700
1226.000000	64.523100
1225.000000	64.357400
1224.000000	64.195300
1223.000000	64.044300
1222.000000	63.876700
1221.000000	63.717500
1220.000000	63.580400
1219.000000	63.437100
1218.000000	63.309800
1217.000000	63.179400
1216.000000	63.055300
1215.000000	62.918600
1214.000000	62.802100
1213.000000	62.697600
1212.000000	62.578300
1211.000000	62.474900
1210.000000	62.374700
1209.000000	62.273100
1208.000000	62.190800
1207.000000	62.120200
1206.000000	62.083200
1205.000000	62.013200
1204.000000	61.964200
1203.000000	61.947400
1202.000000	61.901100
1201.000000	61.858900
1200.000000	61.796300
1199.000000	61.692300
1198.000000	61.596400
1197.000000	61.460400
1196.000000	61.246800
1195.000000	60.999000
1194.000000	60.711200
1193.000000	60.354800
1192.000000	59.946700
1191.000000	59.530500
1190.000000	59.131100
1189.000000	58.806100
1188.000000	58.560300
1187.000000	58.439900
1186.000000	58.442400
1185.000000	58.550500
1184.000000	58.781200
1183.000000	59.126400
1182.000000	59.547400
1181.000000	60.010300
1180.000000	60.453200
1179.000000	60.890700
1178.000000	61.265400
1177.000000	61.615800
1176.000000	61.906600
1175.000000	62.168000
1174.000000	62.447600
1173.000000	62.741700
1172.000000	63.027400
1171.000000	63.359900
1170.000000	63.660800
1169.000000	63.983400
1168.000000	64.298000
1167.000000	64.642900
1166.000000	64.979000
1165.000000	65.329600
1164.000000	65.665400
1163.000000	65.989000
1162.000000	66.349800
1161.000000	66.649600
1160.000000	66.950400
1159.000000	67.270200
1158.000000	67.540000
1157.000000	67.774100
1156.000000	67.997200
1155.000000	68.146700
1154.000000	68.250800
1153.000000	68.319800
1152.000000	68.338200
1151.000000	68.336700
1150.000000	68.339300
1149.000000	68.330900
1148.000000	68.334900
1147.000000	68.380000
1146.000000	68.483300
1145.000000	68.629400
1144.000000	68.840500
1143.000000	69.087600
1142.000000	69.367400
1141.000000	69.638300
1140.000000	69.931500
1139.000000	70.207500
1138.000000	70.511700
1137.000000	70.854000
1136.000000	71.170700
1135.000000	71.517500
1134.000000	71.769900
1133.000000	71.960100
1132.000000	72.179100
1131.000000	72.396600
1130.000000	72.627300
1129.000000	72.761600
1128.000000	72.884500
1127.000000	72.959400
1126.000000	73.073500
1125.000000	73.135900
1124.000000	73.201300
1123.000000	73.248000
1122.000000	73.288800
1121.000000	73.301600
1120.000000	73.313600
1119.000000	73.337100
1118.000000	73.335900
1117.000000	73.336800
1116.000000	73.328800
1115.000000	73.302400
1114.000000	73.282400
1113.000000	73.286300
1112.000000	73.261100
1111.000000	73.266300
1110.000000	73.243600
1109.000000	73.210500
1108.000000	73.209400
1107.000000	73.198600
1106.000000	73.180400
1105.000000	73.169600
1104.000000	73.163800
1103.000000	73.152800
1102.000000	73.125600
1101.000000	73.110000
1100.000000	73.087100
1099.000000	73.064500
1098.000000	73.056800
1097.000000	73.042500
1096.000000	73.004800
1095.000000	72.981000
1094.000000	72.944100
1093.000000	72.911500
1092.000000	72.863600
1091.000000	72.842800
1090.000000	72.816400
1089.000000	72.753300
1088.000000	72.720300
1087.000000	72.709600
1086.000000	72.656400
1085.000000	72.612500
1084.000000	72.580900
1083.000000	72.532200
1082.000000	72.488600
1081.000000	72.468900
1080.000000	72.437300
1079.000000	72.398600
1078.000000	72.363000
1077.000000	72.326500
1076.000000	72.297900
1075.000000	72.262500
1074.000000	72.215700
1073.000000	72.181700
1072.000000	72.156200
1071.000000	72.131600
1070.000000	72.086900
1069.000000	72.046700
1068.000000	72.001400
1067.000000	71.972800
1066.000000	71.937600
1065.000000	71.894000
1064.000000	71.852500
1063.000000	71.821100
1062.000000	71.782900
1061.000000	71.730300
1060.000000	71.686700
1059.000000	71.649400
1058.000000	71.600900
1057.000000	71.571800
1056.000000	71.530400
1055.000000	71.484800
1054.000000	71.452600
1053.000000	71.416000
1052.000000	71.389200
1051.000000	71.364600
1050.000000	71.346700
1049.000000	71.337900
1048.000000	71.311500
1047.000000	71.282500
1046.000000	71.270700
1045.000000	71.266200
1044.000000	71.256000
1043.000000	71.243000
1042.000000	71.251700
1041.000000	71.255800
1040.000000	71.238800
1039.000000	71.224300
1038.000000	71.236600
1037.000000	71.228500
1036.000000	71.209100
1035.000000	71.208800
1034.000000	71.214900
1033.000000	71.204300
1032.000000	71.189000
1031.000000	71.175100
1030.000000	71.159400
1029.000000	71.156300
1028.000000	71.156900
1027.000000	71.147900
1026.000000	71.139400
1025.000000	71.122600
1024.000000	71.115000
1023.000000	71.106300
1022.000000	71.116500
1021.000000	71.128400
1020.000000	71.141500
1019.000000	71.161500
1018.000000	71.167000
1017.000000	71.177800
1016.000000	71.214100
1015.000000	71.257500
1014.000000	71.299200
1013.000000	71.333900
1012.000000	71.382600
1011.000000	71.448500
1010.000000	71.504100
1009.000000	71.575000
1008.000000	71.642900
1007.000000	71.708300
1006.000000	71.772800
1005.000000	71.838100
1004.000000	71.891900
1003.000000	71.950900
1002.000000	72.025200
1001.000000	72.059200
1000.000000	72.107100
999.000000	72.162400
998.000000	72.215800
997.000000	72.277900
996.000000	72.339600
995.000000	72.366800
994.000000	72.418700
993.000000	72.489700
992.000000	72.532500
991.000000	72.596700
990.000000	72.645200
989.000000	72.709000
988.000000	72.773400
987.000000	72.858000
986.000000	72.930000
985.000000	72.992700
984.000000	73.045500
983.000000	73.119000
982.000000	73.201300
981.000000	73.262600
980.000000	73.315900
979.000000	73.399700
978.000000	73.454300
977.000000	73.501800
976.000000	73.565800
975.000000	73.647200
974.000000	73.723500
973.000000	73.760500
972.000000	73.822000
971.000000	73.906600
970.000000	73.964000
969.000000	74.034000
968.000000	74.084600
967.000000	74.143400
966.000000	74.218000
965.000000	74.287500
964.000000	74.333700
963.000000	74.389800
962.000000	74.457000
961.000000	74.552100
960.000000	74.635800
959.000000	74.677600
958.000000	74.732200
957.000000	74.791100
956.000000	74.866400
955.000000	74.908200
954.000000	74.958000
953.000000	75.028400
952.000000	75.043300
951.000000	75.105500
950.000000	75.184400
949.000000	75.212200
948.000000	75.222800
947.000000	75.281300
946.000000	75.299400
945.000000	75.355900
944.000000	75.371200
943.000000	75.380000
942.000000	75.408500
941.000000	75.457600
940.000000	75.443000
939.000000	75.451800
938.000000	75.465600
937.000000	75.537400
936.000000	75.540900
935.000000	75.549100
934.000000	75.567700
933.000000	75.620100
932.000000	75.608500
931.000000	75.588700
930.000000	75.639400
929.000000	75.598900
928.000000	75.588600
927.000000	75.562300
926.000000	75.615200
925.000000	75.581700
924.000000	75.552500
923.000000	75.543800
922.000000	75.509200
921.000000	75.498600
920.000000	75.546900
919.000000	75.489300
918.000000	75.436200
917.000000	75.411600
916.000000	75.385500
915.000000	75.338200
914.000000	75.278000
913.000000	75.266600
912.000000	75.189800
911.000000	75.155300
910.000000	75.189800
909.000000	75.141500
908.000000	75.055300
907.000000	74.993500
906.000000	74.958600
905.000000	74.915200
904.000000	74.965600
903.000000	74.896800
902.000000	74.858300
901.000000	74.778200
900.000000	74.736800
899.000000	74.684700
898.000000	74.665500
897.000000	74.598100
896.000000	74.539100
895.000000	74.492600
894.000000	74.445700
893.000000	74.394500
892.000000	74.323100
891.000000	74.243300
890.000000	74.131200
889.000000	74.058700
888.000000	74.001500
887.000000	73.924700
886.000000	73.824400
885.000000	73.749900
884.000000	73.661000
883.000000	73.498800
882.000000	73.396400
881.000000	73.301500
880.000000	73.150100
879.000000	72.989300
878.000000	72.859100
877.000000	72.764800
876.000000	72.601500
875.000000	72.391800
874.000000	72.231900
873.000000	72.045500
872.000000	71.912000
871.000000	71.759200
870.000000	71.550000
869.000000	71.309100
868.000000	71.124300
867.000000	70.867700
866.000000	70.626200
865.000000	70.339700
864.000000	70.101300
863.000000	69.786000
862.000000	69.487600
861.000000	69.063800
860.000000	68.700200
859.000000	68.357300
858.000000	68.984300
857.000000	68.688440
856.000000	68.787220
855.000000	68.556367
854.000000	68.639050
853.000000	68.127314
852.000000	68.275393
851.000000	68.347374
850.000000	68.150729
849.000000	68.063290
848.000000	67.868108
847.000000	67.880456
846.000000	67.825578
845.000000	67.589146
844.000000	67.453872
843.000000	67.237837
842.000000	67.210306
841.000000	67.083264
840.000000	66.892930
839.000000	67.145185
838.000000	67.002777
837.000000	66.807412
836.000000	66.710370
835.000000	66.543724
834.000000	66.480157
833.000000	66.223421
832.000000	66.103970
831.000000	66.082476
830.000000	66.004824
829.000000	65.892050
828.000000	65.718362
827.000000	65.659643
826.000000	65.474247
825.000000	65.407937
824.000000	65.271474
823.000000	65.105834
822.000000	64.972390
821.000000	64.813884
820.000000	64.672574
819.000000	64.444923
818.000000	64.383185
817.000000	64.294649
816.000000	64.193216
815.000000	64.069284
814.000000	63.951571
813.000000	63.859742
812.000000	63.683219
811.000000	63.645262
810.000000	63.572823
809.000000	63.406177
808.000000	63.286544
807.000000	63.288647
806.000000	63.052673
805.000000	62.972002
804.000000	62.895814
803.000000	62.795204
802.000000	62.706119
801.000000	62.701821
800.000000	62.591608
799.000000	62.538651
798.000000	62.457432
797.000000	62.288316
796.000000	62.216335
795.000000	62.178104
794.000000	62.007891
793.000000	61.945879
792.000000	61.892739
791.000000	61.775758
790.000000	61.719965
789.000000	61.706703
788.000000	61.585240
787.000000	61.414662
786.000000	61.371400
785.000000	61.268230
784.000000	61.067651
783.000000	60.954511
782.000000	60.868445
781.000000	60.677927
780.000000	60.581434
779.000000	60.512013
778.000000	60.323142
777.000000	60.225277
776.000000	60.096314
775.000000	59.940644
774.000000	59.830980
773.000000	59.663328
772.000000	59.491652
771.000000	59.420037
770.000000	59.310098
769.000000	59.220830
768.000000	59.083636
767.000000	58.920923
766.000000	58.820863
765.000000	58.668668
764.000000	58.462053
763.000000	58.344157
762.000000	58.157939
761.000000	57.935775
760.000000	57.859678
759.000000	57.718002
758.000000	57.483308
757.000000	57.272943
756.000000	57.063858
755.000000	56.889987
754.000000	56.713829
753.000000	56.528983
752.000000	56.303435
751.000000	56.096546
750.000000	55.892492
749.000000	55.700694
748.000000	55.543835
747.000000	55.379567
746.000000	55.185300
745.000000	54.961581
744.000000	54.761369
743.000000	54.604052
742.000000	54.412712
741.000000	54.183414
740.000000	54.020244
739.000000	53.843903
738.000000	53.581039
737.000000	53.330796
736.000000	53.173114
735.000000	52.957535
734.000000	52.695494
733.000000	52.501135
732.000000	52.267264
731.000000	51.991046
730.000000	51.751230
729.000000	51.552389
728.000000	51.311842
727.000000	51.057483
726.000000	50.797088
725.000000	50.587455
724.000000	50.447882
723.000000	50.246938
722.000000	50.063555
721.000000	49.835812
720.000000	49.659197
719.000000	49.522368
718.000000	49.353619
717.000000	49.223375
716.000000	49.079321
715.000000	48.943224
714.000000	48.837219
713.000000	48.726000
712.000000	48.564842
711.000000	48.480970
710.000000	48.386946
709.000000	48.300880
708.000000	48.183167
707.000000	48.107161
706.000000	48.024113
705.000000	47.906034
704.000000	47.853717
703.000000	47.788778
702.000000	47.663931
701.000000	47.529755
700.000000	47.442682
699.000000	47.351494
698.000000	47.232134
697.000000	47.135915
696.000000	47.020763
695.000000	46.902776
694.000000	46.808478
693.000000	46.710247
692.000000	46.563540
691.000000	46.494760
690.000000	46.392047
689.000000	46.224852
688.000000	46.072292
687.000000	45.936561
686.000000	45.790677
685.000000	45.634916
684.000000	45.460130
683.000000	45.318911
682.000000	45.071961
681.000000	44.889584
680.000000	44.692664
679.000000	44.491537
678.000000	44.243672
677.000000	44.037789
676.000000	43.828705
675.000000	43.610382
674.000000	43.356481
673.000000	43.104409
672.000000	42.929623
671.000000	42.732795
670.000000	42.519229
669.000000	42.295968
668.000000	42.104719
667.000000	41.927555
666.000000	41.746732
665.000000	41.591885
664.000000	41.443167
663.000000	41.310911
662.000000	41.180576
661.000000	41.060943
660.000000	40.956766
659.000000	40.854145
658.000000	40.807590
657.000000	40.789115
656.000000	40.812895
655.000000	40.866858
654.000000	40.924754
653.000000	41.085912
652.000000	41.270576
651.000000	41.441154
650.000000	41.673836
649.000000	41.972920
648.000000	42.293224
647.000000	42.665112
646.000000	43.059592
645.000000	43.457639
644.000000	43.910838
643.000000	44.366507
642.000000	44.839645
641.000000	45.379917
640.000000	45.883330
639.000000	46.400919
638.000000	46.946313
637.000000	47.440396
636.000000	47.927528
635.000000	48.480696
634.000000	48.943956
633.000000	49.452033
632.000000	49.923891
631.000000	50.412029
630.000000	50.880776
629.000000	51.336537
628.000000	51.771718
627.000000	52.210466
626.000000	52.638787
625.000000	52.996041
624.000000	53.371040
623.000000	53.791678
622.000000	54.178932
621.000000	54.467315
620.000000	54.834082
619.000000	55.157769
618.000000	55.468012
617.000000	55.766913
616.000000	56.027674
615.000000	56.353557
614.000000	56.622183
613.000000	56.839865
612.000000	57.151480
611.000000	57.374192
610.000000	57.601844
609.000000	57.817148
608.000000	58.062634
607.000000	58.274371
606.000000	58.507876
605.000000	58.719705
604.000000	59.007996
603.000000	59.209763
602.000000	59.424335
601.000000	59.627566
600.000000	59.865187
599.000000	60.059637
598.000000	60.188326
597.000000	60.413965
596.000000	60.524544
595.000000	60.695305
594.000000	60.814207
593.000000	60.871829
592.000000	60.958170
591.000000	60.982956
590.000000	61.029694
589.000000	61.027133
588.000000	61.077712
587.000000	61.084663
586.000000	61.079084
585.000000	61.063444
584.000000	61.049176
583.000000	61.050639
582.000000	61.025029
581.000000	61.076340
580.000000	61.066828
579.000000	61.112011
578.000000	61.129114
577.000000	61.137712
576.000000	61.132681
575.000000	61.134053
574.000000	61.117864
573.000000	61.081919
572.000000	61.065365
571.000000	60.999420
570.000000	60.848506
569.000000	60.711403
568.000000	60.497562
567.000000	60.308508
566.000000	60.032564
565.000000	59.791194
564.000000	59.449213
563.000000	59.157172
562.000000	58.825893
561.000000	58.458486
560.000000	58.084220
559.000000	57.747636
558.000000	57.338796
557.000000	56.960139
556.000000	56.490843
555.000000	56.033345
554.000000	55.523621
553.000000	54.994142
552.000000	54.401187
551.000000	53.784818
550.000000	53.145492
549.000000	52.470038
548.000000	51.737236
547.000000	50.987697
546.000000	50.256267
545.000000	49.453771
544.000000	48.693988
543.000000	47.885912
542.000000	47.096861
541.000000	46.308724
540.000000	45.533849
539.000000	44.766658
538.000000	44.029283
537.000000	43.284408
536.000000	42.581424
535.000000	41.865543
534.000000	41.190271
533.000000	40.538598
532.000000	39.881436
531.000000	39.240920
530.000000	38.631685
529.000000	38.031688
528.000000	37.458855
527.000000	36.901388
526.000000	36.381147
525.000000	35.844991
524.000000	35.317066
523.000000	34.804508
522.000000	34.300638
521.000000	33.773537
520.000000	33.254850
519.000000	32.754639
518.000000	32.254885
517.000000	31.759338
516.000000	31.286292
515.000000	30.802452
514.000000	30.318522
513.000000	29.831298
512.000000	29.328892
511.000000	28.820541
510.000000	28.316762
509.000000	27.837313
508.000000	27.363169
507.000000	26.917744
506.000000	26.475246
505.000000	26.018937
504.000000	25.565647
503.000000	25.119490
502.000000	24.714949
501.000000	24.305653
500.000000	23.921142
499.000000	23.555290
498.000000	23.219255
497.000000	22.900598
496.000000	22.593008
495.000000	22.315326
494.000000	22.039565
493.000000	21.801396
492.000000	21.581153
491.000000	21.385513
490.000000	21.204691
489.000000	21.049112
488.000000	20.920424
487.000000	20.792376
486.000000	20.686919
485.000000	20.612011
484.000000	20.536645
483.000000	20.469511
482.000000	20.391402
481.000000	20.314939
480.000000	20.249634
479.000000	20.179939
478.000000	20.146830
477.000000	20.114635
476.000000	20.063233
475.000000	20.022989
474.000000	19.981282
473.000000	19.912959
472.000000	19.860368
471.000000	19.798173
470.000000	19.728204
469.000000	19.670399
468.000000	19.598235
467.000000	19.509607
466.000000	19.424181
465.000000	19.324943
464.000000	19.222962
463.000000	19.137810
462.000000	19.038756
461.000000	18.919030
460.000000	18.782110
459.000000	18.652324
458.000000	18.524551
457.000000	18.383240
456.000000	18.220802
455.000000	18.062479
454.000000	17.905986
453.000000	17.734676
452.000000	17.556963
451.000000	17.370105
450.000000	17.164404
449.000000	16.944802
448.000000	16.726845
447.000000	16.498188
446.000000	16.266695
445.000000	16.030354
444.000000	15.794106
443.000000	15.519168
442.000000	15.248529
441.000000	14.985938
440.000000	14.706610
439.000000	14.435148
438.000000	14.155546
437.000000	13.855547
436.000000	13.562042
435.000000	13.289666
434.000000	13.012807
433.000000	12.727900
432.000000	12.435401
431.000000	12.138878
430.000000	11.856989
429.000000	11.589094
428.000000	11.307754
427.000000	11.025316
426.000000	10.756049
425.000000	10.476904
424.000000	10.214131
423.000000	9.956662
422.000000	9.694987
421.000000	9.449409
420.000000	9.212885
419.000000	8.974899
418.000000	8.749259
417.000000	8.540266
416.000000	8.342706
415.000000	8.140482
414.000000	7.944842
413.000000	7.753319
412.000000	7.573868
411.000000	7.407040
410.000000	7.248534
409.000000	7.094511
408.000000	6.947713
407.000000	6.817561
406.000000	6.703964
405.000000	6.579117
404.000000	6.466068
403.000000	6.373233
402.000000	6.276740
401.000000	6.190399
400.000000	6.105887
399.000000	6.034089
398.000000	5.963662
397.000000	5.899089
396.000000	5.836163
395.000000	5.776986
394.000000	5.728328
393.000000	5.675462
392.000000	5.631194
391.000000	5.591682
390.000000	5.558938
389.000000	5.531591
388.000000	5.495189
387.000000	5.469213
386.000000	5.430890
385.000000	5.404640
384.000000	5.382415
383.000000	5.354061
382.000000	5.337872
381.000000	5.318208
380.000000	5.296165
379.000000	5.280708
378.000000	5.259031
377.000000	5.247415
376.000000	5.216409
375.000000	5.185678
374.000000	5.144885
373.000000	5.080312
372.000000	5.083331
371.000000	5.111776
370.000000	5.096593
369.000000	5.105648
368.000000	5.108300
367.000000	5.067050
366.000000	5.102081
365.000000	5.030282
364.000000	5.056806
363.000000	5.059367
362.000000	5.059184
361.000000	5.096593
360.000000	5.149733
359.000000	5.059459
358.000000	5.071989
357.000000	5.058819
356.000000	5.020679
355.000000	5.013179
354.000000	5.103453
353.000000	5.073636
352.000000	4.986837
351.000000	5.026898
350.000000	5.045282
349.000000	4.967996
348.000000	5.000191
347.000000	4.983728
346.000000	5.015374
345.000000	5.047111
344.000000	5.010709
343.000000	4.968819
342.000000	4.959856
341.000000	5.026441
340.000000	4.950618
339.000000	4.909368
338.000000	5.030191
337.000000	4.975770
336.000000	4.939642
335.000000	5.019215
334.000000	4.931228
333.000000	4.991045
332.000000	4.989124
331.000000	5.093757
330.000000	4.921899
329.000000	4.967264
328.000000	4.883941
327.000000	5.111867
326.000000	5.023240
325.000000	4.962965
324.000000	5.030557
323.000000	5.012630
322.000000	4.900588
321.000000	4.966258
320.000000	5.017660
319.000000	5.167843
318.000000	5.108575
317.000000	5.185586
316.000000	4.960862
315.000000	4.980892
314.000000	4.997173
313.000000	5.037233
312.000000	4.997904
311.000000	5.004855
310.000000	5.017112
309.000000	4.962691
308.000000	5.044733
307.000000	5.020953
306.000000	5.025800
305.000000	4.976228
304.000000	5.046746
303.000000	5.019032
302.000000	5.019124
301.000000	5.012173
300.000000	5.034215
299.000000	5.022142
298.000000	5.106562
297.000000	5.075739
296.000000	5.050770
295.000000	5.085343
294.000000	5.049581
293.000000	5.088270
292.000000	5.091379
291.000000	5.104093
290.000000	5.099520
289.000000	5.103270
288.000000	5.123757
287.000000	5.135556
286.000000	5.134459
285.000000	5.132080
284.000000	5.155312
283.000000	5.197294
282.000000	5.159336
281.000000	5.212385
280.000000	5.162446
279.000000	5.222080
278.000000	5.170038
277.000000	5.205891
276.000000	5.233239
275.000000	5.197385
274.000000	5.279427
273.000000	5.243665
272.000000	5.292872
271.000000	5.284458
270.000000	5.321317
269.000000	5.304946
268.000000	5.385524
267.000000	5.368329
266.000000	5.357628
265.000000	5.447171
264.000000	5.409579
263.000000	5.442506
262.000000	5.534335
261.000000	5.556926
260.000000	5.523908
259.000000	5.547780
258.000000	5.545402
257.000000	5.599822
256.000000	5.609975
255.000000	5.605584
254.000000	5.646011
253.000000	5.640889
252.000000	5.668877
251.000000	5.665584
250.000000	5.686712
