PE UV       SUBTECH     SPECTRUM    ASCII       PEDS        4.00        
   -1
CICIMAUCR0020-5.Sample.ASC
24/04/25
10:32:19.00
24/04/25
10:32:19.00
Vinicio Soto Monge
C. resplendens
250,000000
1
Lambda 1050
1050L1511233
PerkinElmer UV WinLab 6.3.2.0749 / 2.02.05 Lambda 900 UV/VIS/NIR, Aug  7 2015 09:38:08

0
0
3350/servo 860,8/2
0
0
UV/VIS
1
1
1
DoubleDePol,CommonBeamDepol,RBeamAtt,SBeamAtt,60mm sphere, WB InGaAs Detector
0
0
0
0
Program
Program
3350/servo 860,8/2
3350/0,2 860,8/0,2
3350/0,2 860,8/0,2
0
15.00
 
 
 
0
 
860,8
319,2
860,8
Front
100
on
S:100 R:100
0
0
0
0
 
0
 
 
 
0
 
 
0
0
0
0
0
 
 
 
 
0
0


0
0
#HDR
-1
-1
#GR
nm
%R
1.0
0.0
2500,000000
-1,000000
2251
8
88,766800
5,704900
#DATA
2500.000000	8.821700
2499.000000	8.818200
2498.000000	8.674300
2497.000000	8.703700
2496.000000	8.658800
2495.000000	8.645000
2494.000000	8.663100
2493.000000	8.667800
2492.000000	8.645400
2491.000000	8.580400
2490.000000	8.641300
2489.000000	8.570300
2488.000000	8.605000
2487.000000	8.592600
2486.000000	8.505300
2485.000000	8.543000
2484.000000	8.530800
2483.000000	8.545300
2482.000000	8.570900
2481.000000	8.547300
2480.000000	8.557900
2479.000000	8.532900
2478.000000	8.472600
2477.000000	8.544900
2476.000000	8.533000
2475.000000	8.545900
2474.000000	8.545400
2473.000000	8.558500
2472.000000	8.521200
2471.000000	8.507600
2470.000000	8.566900
2469.000000	8.558100
2468.000000	8.570000
2467.000000	8.583400
2466.000000	8.592500
2465.000000	8.622600
2464.000000	8.641600
2463.000000	8.667800
2462.000000	8.695200
2461.000000	8.686300
2460.000000	8.740400
2459.000000	8.785800
2458.000000	8.835100
2457.000000	8.881900
2456.000000	8.935900
2455.000000	9.007000
2454.000000	9.057800
2453.000000	9.103300
2452.000000	9.203100
2451.000000	9.239100
2450.000000	9.311700
2449.000000	9.364200
2448.000000	9.446600
2447.000000	9.535400
2446.000000	9.579700
2445.000000	9.669600
2444.000000	9.749100
2443.000000	9.812700
2442.000000	9.881300
2441.000000	9.932000
2440.000000	10.007100
2439.000000	10.069500
2438.000000	10.156000
2437.000000	10.199500
2436.000000	10.262300
2435.000000	10.315400
2434.000000	10.368700
2433.000000	10.415700
2432.000000	10.477300
2431.000000	10.522300
2430.000000	10.560700
2429.000000	10.605200
2428.000000	10.646400
2427.000000	10.684000
2426.000000	10.728100
2425.000000	10.761800
2424.000000	10.805600
2423.000000	10.818500
2422.000000	10.864500
2421.000000	10.911500
2420.000000	10.930100
2419.000000	10.954900
2418.000000	11.000500
2417.000000	11.013000
2416.000000	11.013800
2415.000000	11.050200
2414.000000	11.085200
2413.000000	11.110000
2412.000000	11.139800
2411.000000	11.198800
2410.000000	11.267200
2409.000000	11.328100
2408.000000	11.376900
2407.000000	11.424400
2406.000000	11.446000
2405.000000	11.466200
2404.000000	11.488200
2403.000000	11.536800
2402.000000	11.593800
2401.000000	11.638700
2400.000000	11.666800
2399.000000	11.685700
2398.000000	11.730800
2397.000000	11.787000
2396.000000	11.825500
2395.000000	11.860100
2394.000000	11.899100
2393.000000	11.931000
2392.000000	11.967800
2391.000000	11.984100
2390.000000	12.013900
2389.000000	12.058700
2388.000000	12.066400
2387.000000	12.084400
2386.000000	12.107200
2385.000000	12.125300
2384.000000	12.154500
2383.000000	12.166000
2382.000000	12.168500
2381.000000	12.164900
2380.000000	12.166000
2379.000000	12.166700
2378.000000	12.160700
2377.000000	12.158000
2376.000000	12.154500
2375.000000	12.154200
2374.000000	12.144400
2373.000000	12.133100
2372.000000	12.118300
2371.000000	12.091700
2370.000000	12.070600
2369.000000	12.047400
2368.000000	12.000900
2367.000000	11.966400
2366.000000	11.930000
2365.000000	11.863500
2364.000000	11.808600
2363.000000	11.768500
2362.000000	11.708600
2361.000000	11.654600
2360.000000	11.607300
2359.000000	11.548800
2358.000000	11.512400
2357.000000	11.471000
2356.000000	11.427600
2355.000000	11.411800
2354.000000	11.398200
2353.000000	11.403200
2352.000000	11.428000
2351.000000	11.435400
2350.000000	11.451100
2349.000000	11.502700
2348.000000	11.561200
2347.000000	11.613200
2346.000000	11.669500
2345.000000	11.733600
2344.000000	11.785400
2343.000000	11.849500
2342.000000	11.902200
2341.000000	11.950100
2340.000000	11.991000
2339.000000	12.029700
2338.000000	12.056900
2337.000000	12.068000
2336.000000	12.075800
2335.000000	12.073700
2334.000000	12.087100
2333.000000	12.066900
2332.000000	12.013200
2331.000000	11.968800
2330.000000	11.938100
2329.000000	11.905000
2328.000000	11.845200
2327.000000	11.763900
2326.000000	11.677200
2325.000000	11.616800
2324.000000	11.537700
2323.000000	11.444600
2322.000000	11.347500
2321.000000	11.247000
2320.000000	11.142900
2319.000000	11.030500
2318.000000	10.909900
2317.000000	10.802500
2316.000000	10.669500
2315.000000	10.550200
2314.000000	10.465000
2313.000000	10.377400
2312.000000	10.274800
2311.000000	10.177900
2310.000000	10.129400
2309.000000	10.082900
2308.000000	10.041800
2307.000000	10.021200
2306.000000	10.015900
2305.000000	10.038400
2304.000000	10.088700
2303.000000	10.150500
2302.000000	10.206200
2301.000000	10.303900
2300.000000	10.405400
2299.000000	10.503100
2298.000000	10.606700
2297.000000	10.708700
2296.000000	10.787100
2295.000000	10.889600
2294.000000	10.976300
2293.000000	11.045800
2292.000000	11.098500
2291.000000	11.150400
2290.000000	11.159300
2289.000000	11.176300
2288.000000	11.158300
2287.000000	11.175700
2286.000000	11.141500
2285.000000	11.100500
2284.000000	11.056000
2283.000000	11.016800
2282.000000	10.958700
2281.000000	10.900900
2280.000000	10.854400
2279.000000	10.797500
2278.000000	10.733300
2277.000000	10.687200
2276.000000	10.652300
2275.000000	10.615100
2274.000000	10.572300
2273.000000	10.555100
2272.000000	10.565800
2271.000000	10.571400
2270.000000	10.593300
2269.000000	10.656100
2268.000000	10.697400
2267.000000	10.794100
2266.000000	10.899500
2265.000000	11.028300
2264.000000	11.188600
2263.000000	11.378800
2262.000000	11.580400
2261.000000	11.798600
2260.000000	12.019100
2259.000000	12.255000
2258.000000	12.509600
2257.000000	12.767400
2256.000000	13.025500
2255.000000	13.285300
2254.000000	13.564800
2253.000000	13.797000
2252.000000	14.023500
2251.000000	14.253900
2250.000000	14.485500
2249.000000	14.687900
2248.000000	14.864000
2247.000000	15.036000
2246.000000	15.225200
2245.000000	15.361900
2244.000000	15.492900
2243.000000	15.625700
2242.000000	15.756300
2241.000000	15.884700
2240.000000	15.974400
2239.000000	16.087000
2238.000000	16.168200
2237.000000	16.260600
2236.000000	16.329800
2235.000000	16.398200
2234.000000	16.455100
2233.000000	16.489500
2232.000000	16.553600
2231.000000	16.577600
2230.000000	16.625600
2229.000000	16.651600
2228.000000	16.668900
2227.000000	16.674500
2226.000000	16.671400
2225.000000	16.690000
2224.000000	16.668500
2223.000000	16.640200
2222.000000	16.660000
2221.000000	16.639400
2220.000000	16.609500
2219.000000	16.590100
2218.000000	16.554400
2217.000000	16.555800
2216.000000	16.506600
2215.000000	16.499000
2214.000000	16.462100
2213.000000	16.425700
2212.000000	16.414500
2211.000000	16.370100
2210.000000	16.342200
2209.000000	16.313600
2208.000000	16.316100
2207.000000	16.290400
2206.000000	16.277100
2205.000000	16.271300
2204.000000	16.242900
2203.000000	16.225800
2202.000000	16.188100
2201.000000	16.183000
2200.000000	16.165300
2199.000000	16.170900
2198.000000	16.157600
2197.000000	16.125400
2196.000000	16.117300
2195.000000	16.122800
2194.000000	16.089600
2193.000000	16.084400
2192.000000	16.079900
2191.000000	16.058700
2190.000000	16.046700
2189.000000	16.042200
2188.000000	16.014500
2187.000000	15.990900
2186.000000	15.979800
2185.000000	15.972700
2184.000000	15.950600
2183.000000	15.928900
2182.000000	15.915000
2181.000000	15.913000
2180.000000	15.884300
2179.000000	15.874800
2178.000000	15.871800
2177.000000	15.845900
2176.000000	15.853900
2175.000000	15.870900
2174.000000	15.874100
2173.000000	15.864300
2172.000000	15.865600
2171.000000	15.855400
2170.000000	15.881400
2169.000000	15.904700
2168.000000	15.888900
2167.000000	15.920600
2166.000000	15.943800
2165.000000	15.958400
2164.000000	15.991800
2163.000000	16.015400
2162.000000	16.063900
2161.000000	16.082900
2160.000000	16.099600
2159.000000	16.117200
2158.000000	16.172100
2157.000000	16.204900
2156.000000	16.210600
2155.000000	16.269100
2154.000000	16.327600
2153.000000	16.346800
2152.000000	16.381400
2151.000000	16.433600
2150.000000	16.474600
2149.000000	16.514200
2148.000000	16.566600
2147.000000	16.606400
2146.000000	16.633200
2145.000000	16.678600
2144.000000	16.720400
2143.000000	16.760500
2142.000000	16.790900
2141.000000	16.823700
2140.000000	16.851300
2139.000000	16.884300
2138.000000	16.910100
2137.000000	16.920900
2136.000000	16.965100
2135.000000	17.000700
2134.000000	17.006200
2133.000000	17.024400
2132.000000	17.035700
2131.000000	17.047300
2130.000000	17.048200
2129.000000	17.073400
2128.000000	17.094100
2127.000000	17.075100
2126.000000	17.085100
2125.000000	17.097000
2124.000000	17.080200
2123.000000	17.062400
2122.000000	17.061700
2121.000000	17.060500
2120.000000	17.050100
2119.000000	17.031400
2118.000000	16.998300
2117.000000	16.979000
2116.000000	16.974900
2115.000000	16.957200
2114.000000	16.939700
2113.000000	16.909500
2112.000000	16.877400
2111.000000	16.865300
2110.000000	16.838100
2109.000000	16.805500
2108.000000	16.779200
2107.000000	16.753800
2106.000000	16.744100
2105.000000	16.712300
2104.000000	16.676000
2103.000000	16.649400
2102.000000	16.617800
2101.000000	16.588300
2100.000000	16.556900
2099.000000	16.527500
2098.000000	16.502900
2097.000000	16.482800
2096.000000	16.460000
2095.000000	16.436000
2094.000000	16.407000
2093.000000	16.379700
2092.000000	16.353400
2091.000000	16.325200
2090.000000	16.311900
2089.000000	16.288900
2088.000000	16.262600
2087.000000	16.249100
2086.000000	16.218400
2085.000000	16.193800
2084.000000	16.175800
2083.000000	16.146600
2082.000000	16.107200
2081.000000	16.071600
2080.000000	16.046400
2079.000000	16.011800
2078.000000	15.969300
2077.000000	15.927600
2076.000000	15.902700
2075.000000	15.879200
2074.000000	15.854100
2073.000000	15.804100
2072.000000	15.750500
2071.000000	15.723100
2070.000000	15.688500
2069.000000	15.650500
2068.000000	15.609600
2067.000000	15.569800
2066.000000	15.545100
2065.000000	15.519600
2064.000000	15.489500
2063.000000	15.453400
2062.000000	15.418000
2061.000000	15.409300
2060.000000	15.390600
2059.000000	15.384700
2058.000000	15.369100
2057.000000	15.381100
2056.000000	15.396900
2055.000000	15.403300
2054.000000	15.441200
2053.000000	15.476400
2052.000000	15.523100
2051.000000	15.585400
2050.000000	15.639900
2049.000000	15.688700
2048.000000	15.764300
2047.000000	15.844100
2046.000000	15.908300
2045.000000	16.007600
2044.000000	16.101100
2043.000000	16.180900
2042.000000	16.256200
2041.000000	16.338400
2040.000000	16.446600
2039.000000	16.524400
2038.000000	16.596700
2037.000000	16.663800
2036.000000	16.738900
2035.000000	16.793700
2034.000000	16.886000
2033.000000	16.941700
2032.000000	16.979200
2031.000000	17.032400
2030.000000	17.085300
2029.000000	17.120300
2028.000000	17.172600
2027.000000	17.204100
2026.000000	17.230400
2025.000000	17.255300
2024.000000	17.270400
2023.000000	17.310900
2022.000000	17.342200
2021.000000	17.347400
2020.000000	17.363600
2019.000000	17.377000
2018.000000	17.381200
2017.000000	17.391900
2016.000000	17.384200
2015.000000	17.391400
2014.000000	17.395700
2013.000000	17.390200
2012.000000	17.371900
2011.000000	17.355900
2010.000000	17.338500
2009.000000	17.294900
2008.000000	17.280000
2007.000000	17.261300
2006.000000	17.209200
2005.000000	17.185700
2004.000000	17.130500
2003.000000	17.082600
2002.000000	17.036900
2001.000000	16.975900
2000.000000	16.941700
1999.000000	16.896600
1998.000000	16.821100
1997.000000	16.782900
1996.000000	16.729900
1995.000000	16.640600
1994.000000	16.594000
1993.000000	16.522700
1992.000000	16.443900
1991.000000	16.371800
1990.000000	16.320600
1989.000000	16.237100
1988.000000	16.147800
1987.000000	16.084000
1986.000000	15.989400
1985.000000	15.908300
1984.000000	15.843900
1983.000000	15.743700
1982.000000	15.683100
1981.000000	15.604600
1980.000000	15.530800
1979.000000	15.461000
1978.000000	15.381900
1977.000000	15.304700
1976.000000	15.229800
1975.000000	15.149300
1974.000000	15.069800
1973.000000	14.986000
1972.000000	14.917300
1971.000000	14.839300
1970.000000	14.790100
1969.000000	14.708600
1968.000000	14.618800
1967.000000	14.590800
1966.000000	14.518800
1965.000000	14.432200
1964.000000	14.391100
1963.000000	14.323900
1962.000000	14.254200
1961.000000	14.234400
1960.000000	14.145000
1959.000000	14.083800
1958.000000	14.014900
1957.000000	13.956000
1956.000000	13.913700
1955.000000	13.855000
1954.000000	13.795500
1953.000000	13.748800
1952.000000	13.696700
1951.000000	13.636900
1950.000000	13.588500
1949.000000	13.554000
1948.000000	13.506900
1947.000000	13.464800
1946.000000	13.443500
1945.000000	13.423200
1944.000000	13.404900
1943.000000	13.392500
1942.000000	13.375200
1941.000000	13.378600
1940.000000	13.369400
1939.000000	13.375000
1938.000000	13.375200
1937.000000	13.372000
1936.000000	13.401000
1935.000000	13.440900
1934.000000	13.463300
1933.000000	13.532700
1932.000000	13.570600
1931.000000	13.649300
1930.000000	13.720600
1929.000000	13.802000
1928.000000	13.875700
1927.000000	13.959600
1926.000000	14.072100
1925.000000	14.176100
1924.000000	14.298600
1923.000000	14.422800
1922.000000	14.569500
1921.000000	14.715000
1920.000000	14.857000
1919.000000	15.012400
1918.000000	15.177800
1917.000000	15.352800
1916.000000	15.510100
1915.000000	15.719800
1914.000000	15.929500
1913.000000	16.113100
1912.000000	16.299300
1911.000000	16.519600
1910.000000	16.739700
1909.000000	16.961800
1908.000000	17.205700
1907.000000	17.460300
1906.000000	17.732300
1905.000000	18.008000
1904.000000	18.285100
1903.000000	18.550500
1902.000000	18.827800
1901.000000	19.128800
1900.000000	19.444700
1899.000000	19.742000
1898.000000	20.082900
1897.000000	20.387200
1896.000000	20.709500
1895.000000	21.036200
1894.000000	21.392700
1893.000000	21.762400
1892.000000	22.172300
1891.000000	22.584200
1890.000000	22.968200
1889.000000	23.393600
1888.000000	23.815800
1887.000000	24.234900
1886.000000	24.714300
1885.000000	25.253600
1884.000000	25.808200
1883.000000	26.310600
1882.000000	26.865600
1881.000000	27.412500
1880.000000	27.918300
1879.000000	28.398700
1878.000000	28.897400
1877.000000	29.350300
1876.000000	29.777400
1875.000000	30.187800
1874.000000	30.571900
1873.000000	30.921500
1872.000000	31.243400
1871.000000	31.520600
1870.000000	31.771400
1869.000000	32.026000
1868.000000	32.200700
1867.000000	32.334700
1866.000000	32.462500
1865.000000	32.588100
1864.000000	32.709800
1863.000000	32.825500
1862.000000	32.931000
1861.000000	33.028300
1860.000000	33.098900
1859.000000	33.147000
1858.000000	33.193500
1857.000000	33.213100
1856.000000	33.215800
1855.000000	33.233800
1854.000000	33.221200
1853.000000	33.192500
1852.000000	33.185000
1851.000000	33.195600
1850.000000	33.185300
1849.000000	33.157700
1848.000000	33.107600
1847.000000	33.021900
1846.000000	32.952400
1845.000000	32.933600
1844.000000	32.923300
1843.000000	32.942800
1842.000000	32.941200
1841.000000	32.883500
1840.000000	32.841600
1839.000000	32.796200
1838.000000	32.743400
1837.000000	32.685500
1836.000000	32.621400
1835.000000	32.547500
1834.000000	32.470300
1833.000000	32.400000
1832.000000	32.343000
1831.000000	32.294400
1830.000000	32.216400
1829.000000	32.134900
1828.000000	32.054400
1827.000000	31.975300
1826.000000	31.909600
1825.000000	31.859800
1824.000000	31.841000
1823.000000	31.840300
1822.000000	31.821900
1821.000000	31.781300
1820.000000	31.727100
1819.000000	31.685600
1818.000000	31.651600
1817.000000	31.644600
1816.000000	31.642100
1815.000000	31.618500
1814.000000	31.609600
1813.000000	31.598800
1812.000000	31.578500
1811.000000	31.537500
1810.000000	31.493600
1809.000000	31.453500
1808.000000	31.426200
1807.000000	31.379100
1806.000000	31.320600
1805.000000	31.258800
1804.000000	31.225200
1803.000000	31.197500
1802.000000	31.150000
1801.000000	31.088200
1800.000000	31.031400
1799.000000	30.972600
1798.000000	30.935900
1797.000000	30.907900
1796.000000	30.862900
1795.000000	30.810100
1794.000000	30.754500
1793.000000	30.689900
1792.000000	30.637000
1791.000000	30.596400
1790.000000	30.537600
1789.000000	30.489200
1788.000000	30.436000
1787.000000	30.378800
1786.000000	30.305500
1785.000000	30.224500
1784.000000	30.156100
1783.000000	30.081700
1782.000000	30.013600
1781.000000	29.957200
1780.000000	29.862500
1779.000000	29.779700
1778.000000	29.707700
1777.000000	29.610200
1776.000000	29.508400
1775.000000	29.405500
1774.000000	29.298000
1773.000000	29.178400
1772.000000	29.060000
1771.000000	28.943700
1770.000000	28.825900
1769.000000	28.713900
1768.000000	28.622500
1767.000000	28.546100
1766.000000	28.471900
1765.000000	28.411600
1764.000000	28.384400
1763.000000	28.381300
1762.000000	28.414800
1761.000000	28.469600
1760.000000	28.529500
1759.000000	28.595200
1758.000000	28.679500
1757.000000	28.748300
1756.000000	28.796700
1755.000000	28.827300
1754.000000	28.846500
1753.000000	28.853100
1752.000000	28.847300
1751.000000	28.812700
1750.000000	28.780900
1749.000000	28.730000
1748.000000	28.642700
1747.000000	28.566000
1746.000000	28.463000
1745.000000	28.334100
1744.000000	28.177800
1743.000000	28.001500
1742.000000	27.790200
1741.000000	27.583900
1740.000000	27.361200
1739.000000	27.150500
1738.000000	26.974900
1737.000000	26.812700
1736.000000	26.703000
1735.000000	26.644300
1734.000000	26.606300
1733.000000	26.634900
1732.000000	26.702100
1731.000000	26.795500
1730.000000	26.922300
1729.000000	27.039400
1728.000000	27.164600
1727.000000	27.277100
1726.000000	27.377400
1725.000000	27.456200
1724.000000	27.507900
1723.000000	27.551800
1722.000000	27.593700
1721.000000	27.617000
1720.000000	27.647900
1719.000000	27.686900
1718.000000	27.742000
1717.000000	27.794700
1716.000000	27.848300
1715.000000	27.929600
1714.000000	27.997500
1713.000000	28.047800
1712.000000	28.103000
1711.000000	28.140400
1710.000000	28.160400
1709.000000	28.145800
1708.000000	28.100800
1707.000000	28.070500
1706.000000	28.031000
1705.000000	27.980000
1704.000000	27.881800
1703.000000	27.774000
1702.000000	27.664100
1701.000000	27.509100
1700.000000	27.333500
1699.000000	27.149700
1698.000000	27.014000
1697.000000	26.916000
1696.000000	26.867600
1695.000000	26.879900
1694.000000	26.936700
1693.000000	27.084100
1692.000000	27.217200
1691.000000	27.393400
1690.000000	27.548600
1689.000000	27.642300
1688.000000	27.711000
1687.000000	27.770900
1686.000000	27.780100
1685.000000	27.851100
1684.000000	27.992700
1683.000000	28.250900
1682.000000	28.608600
1681.000000	29.078800
1680.000000	29.615800
1679.000000	30.150900
1678.000000	30.648600
1677.000000	31.159700
1676.000000	31.540700
1675.000000	31.926300
1674.000000	32.220700
1673.000000	32.494900
1672.000000	32.735500
1671.000000	32.927700
1670.000000	33.122000
1669.000000	33.285900
1668.000000	33.428400
1667.000000	33.569700
1666.000000	33.655300
1665.000000	33.749700
1664.000000	33.819500
1663.000000	33.902900
1662.000000	33.961100
1661.000000	33.988600
1660.000000	34.043700
1659.000000	34.063000
1658.000000	34.091200
1657.000000	34.093200
1656.000000	34.112300
1655.000000	34.100000
1654.000000	34.075600
1653.000000	34.085700
1652.000000	34.058300
1651.000000	34.042000
1650.000000	34.013100
1649.000000	33.968800
1648.000000	33.910500
1647.000000	33.871200
1646.000000	33.820200
1645.000000	33.773500
1644.000000	33.712400
1643.000000	33.675400
1642.000000	33.614900
1641.000000	33.557200
1640.000000	33.504600
1639.000000	33.429500
1638.000000	33.366400
1637.000000	33.297800
1636.000000	33.226900
1635.000000	33.166800
1634.000000	33.096800
1633.000000	33.026100
1632.000000	32.936700
1631.000000	32.864100
1630.000000	32.784600
1629.000000	32.713100
1628.000000	32.620500
1627.000000	32.530600
1626.000000	32.455900
1625.000000	32.383800
1624.000000	32.303400
1623.000000	32.232300
1622.000000	32.154000
1621.000000	32.062900
1620.000000	32.010700
1619.000000	31.925700
1618.000000	31.843300
1617.000000	31.782900
1616.000000	31.702000
1615.000000	31.640200
1614.000000	31.567600
1613.000000	31.486500
1612.000000	31.421500
1611.000000	31.366600
1610.000000	31.291500
1609.000000	31.223800
1608.000000	31.155100
1607.000000	31.078300
1606.000000	31.008100
1605.000000	30.942400
1604.000000	30.873600
1603.000000	30.783200
1602.000000	30.717400
1601.000000	30.658000
1600.000000	30.580500
1599.000000	30.513300
1598.000000	30.448100
1597.000000	30.396100
1596.000000	30.342200
1595.000000	30.279700
1594.000000	30.218500
1593.000000	30.164800
1592.000000	30.121900
1591.000000	30.074300
1590.000000	30.024100
1589.000000	29.966700
1588.000000	29.918700
1587.000000	29.867100
1586.000000	29.829200
1585.000000	29.795700
1584.000000	29.764000
1583.000000	29.733300
1582.000000	29.701900
1581.000000	29.661000
1580.000000	29.624600
1579.000000	29.614400
1578.000000	29.605100
1577.000000	29.586700
1576.000000	29.570000
1575.000000	29.551000
1574.000000	29.544100
1573.000000	29.548900
1572.000000	29.557700
1571.000000	29.561100
1570.000000	29.551400
1569.000000	29.556900
1568.000000	29.576300
1567.000000	29.574200
1566.000000	29.584400
1565.000000	29.603200
1564.000000	29.599100
1563.000000	29.597100
1562.000000	29.600400
1561.000000	29.603500
1560.000000	29.598400
1559.000000	29.586700
1558.000000	29.584100
1557.000000	29.577000
1556.000000	29.565200
1555.000000	29.542900
1554.000000	29.514900
1553.000000	29.485700
1552.000000	29.451900
1551.000000	29.429400
1550.000000	29.406800
1549.000000	29.373500
1548.000000	29.339800
1547.000000	29.314600
1546.000000	29.290700
1545.000000	29.255300
1544.000000	29.223200
1543.000000	29.206900
1542.000000	29.175400
1541.000000	29.143300
1540.000000	29.130000
1539.000000	29.119800
1538.000000	29.100100
1537.000000	29.068700
1536.000000	29.039900
1535.000000	29.006000
1534.000000	28.974700
1533.000000	28.965100
1532.000000	28.916200
1531.000000	28.872500
1530.000000	28.837300
1529.000000	28.801800
1528.000000	28.785900
1527.000000	28.738000
1526.000000	28.705300
1525.000000	28.655400
1524.000000	28.606100
1523.000000	28.572800
1522.000000	28.533400
1521.000000	28.485800
1520.000000	28.445500
1519.000000	28.386600
1518.000000	28.342000
1517.000000	28.302500
1516.000000	28.258600
1515.000000	28.211800
1514.000000	28.170900
1513.000000	28.123100
1512.000000	28.074600
1511.000000	28.032200
1510.000000	27.969600
1509.000000	27.932300
1508.000000	27.886700
1507.000000	27.836200
1506.000000	27.794800
1505.000000	27.755600
1504.000000	27.710000
1503.000000	27.678900
1502.000000	27.660700
1501.000000	27.613700
1500.000000	27.569600
1499.000000	27.542900
1498.000000	27.524100
1497.000000	27.500700
1496.000000	27.469500
1495.000000	27.440400
1494.000000	27.441700
1493.000000	27.440700
1492.000000	27.414200
1491.000000	27.404400
1490.000000	27.401900
1489.000000	27.389200
1488.000000	27.389500
1487.000000	27.390500
1486.000000	27.371100
1485.000000	27.370900
1484.000000	27.379400
1483.000000	27.399300
1482.000000	27.387500
1481.000000	27.396100
1480.000000	27.407300
1479.000000	27.416900
1478.000000	27.421500
1477.000000	27.429600
1476.000000	27.451200
1475.000000	27.469300
1474.000000	27.508900
1473.000000	27.546300
1472.000000	27.565000
1471.000000	27.571300
1470.000000	27.583600
1469.000000	27.599100
1468.000000	27.661000
1467.000000	27.683200
1466.000000	27.708800
1465.000000	27.741800
1464.000000	27.786800
1463.000000	27.831600
1462.000000	27.866000
1461.000000	27.939800
1460.000000	28.015900
1459.000000	28.078800
1458.000000	28.144900
1457.000000	28.239600
1456.000000	28.331200
1455.000000	28.410400
1454.000000	28.503200
1453.000000	28.595500
1452.000000	28.701400
1451.000000	28.785300
1450.000000	28.872600
1449.000000	28.991800
1448.000000	29.107600
1447.000000	29.235700
1446.000000	29.359500
1445.000000	29.447900
1444.000000	29.544900
1443.000000	29.693900
1442.000000	29.821400
1441.000000	29.938800
1440.000000	30.089900
1439.000000	30.186700
1438.000000	30.344400
1437.000000	30.437400
1436.000000	30.571100
1435.000000	30.745000
1434.000000	30.887500
1433.000000	31.041900
1432.000000	31.174800
1431.000000	31.330200
1430.000000	31.490100
1429.000000	31.702200
1428.000000	31.885600
1427.000000	32.076300
1426.000000	32.305800
1425.000000	32.539000
1424.000000	32.779600
1423.000000	32.988700
1422.000000	33.217800
1421.000000	33.505100
1420.000000	33.795800
1419.000000	34.006900
1418.000000	34.256800
1417.000000	34.502700
1416.000000	34.797800
1415.000000	35.096900
1414.000000	35.331100
1413.000000	35.573300
1412.000000	35.852100
1411.000000	36.192500
1410.000000	36.559600
1409.000000	36.913700
1408.000000	37.307600
1407.000000	37.671800
1406.000000	38.070200
1405.000000	38.438700
1404.000000	38.848700
1403.000000	39.222700
1402.000000	39.659400
1401.000000	40.061900
1400.000000	40.374700
1399.000000	40.632000
1398.000000	40.925800
1397.000000	41.261700
1396.000000	41.568700
1395.000000	41.791700
1394.000000	42.003900
1393.000000	42.246400
1392.000000	42.504800
1391.000000	42.752600
1390.000000	43.012600
1389.000000	43.369100
1388.000000	43.701200
1387.000000	44.043600
1386.000000	44.434900
1385.000000	44.847500
1384.000000	45.217300
1383.000000	45.586400
1382.000000	45.855300
1381.000000	46.038800
1380.000000	46.151800
1379.000000	46.283300
1378.000000	46.376300
1377.000000	46.540200
1376.000000	46.699300
1375.000000	46.891000
1374.000000	47.132200
1373.000000	47.441600
1372.000000	47.710700
1371.000000	47.980600
1370.000000	48.248600
1369.000000	48.502500
1368.000000	48.725200
1367.000000	48.908400
1366.000000	49.071200
1365.000000	49.250800
1364.000000	49.375400
1363.000000	49.522300
1362.000000	49.648800
1361.000000	49.703900
1360.000000	49.697300
1359.000000	49.808700
1358.000000	49.943300
1357.000000	50.136800
1356.000000	50.412500
1355.000000	50.723900
1354.000000	51.060300
1353.000000	51.425700
1352.000000	51.810600
1351.000000	52.184300
1350.000000	52.509500
1349.000000	52.802100
1348.000000	53.085100
1347.000000	53.333200
1346.000000	53.588000
1345.000000	53.845300
1344.000000	54.071300
1343.000000	54.269900
1342.000000	54.479200
1341.000000	54.684700
1340.000000	54.868800
1339.000000	55.037300
1338.000000	55.216300
1337.000000	55.392700
1336.000000	55.554600
1335.000000	55.701900
1334.000000	55.848200
1333.000000	55.983500
1332.000000	56.119300
1331.000000	56.235200
1330.000000	56.351000
1329.000000	56.467500
1328.000000	56.571600
1327.000000	56.664800
1326.000000	56.773700
1325.000000	56.862200
1324.000000	56.951400
1323.000000	57.046600
1322.000000	57.117500
1321.000000	57.189800
1320.000000	57.262100
1319.000000	57.324500
1318.000000	57.387300
1317.000000	57.453100
1316.000000	57.509300
1315.000000	57.564100
1314.000000	57.608200
1313.000000	57.660800
1312.000000	57.705700
1311.000000	57.734300
1310.000000	57.767200
1309.000000	57.804000
1308.000000	57.838500
1307.000000	57.861100
1306.000000	57.875100
1305.000000	57.895800
1304.000000	57.903800
1303.000000	57.908400
1302.000000	57.909300
1301.000000	57.906900
1300.000000	57.904800
1299.000000	57.895800
1298.000000	57.884200
1297.000000	57.873600
1296.000000	57.857900
1295.000000	57.840500
1294.000000	57.827600
1293.000000	57.797600
1292.000000	57.754300
1291.000000	57.728500
1290.000000	57.701400
1289.000000	57.666500
1288.000000	57.618600
1287.000000	57.567100
1286.000000	57.500900
1285.000000	57.451700
1284.000000	57.405400
1283.000000	57.355100
1282.000000	57.310500
1281.000000	57.259400
1280.000000	57.199100
1279.000000	57.151200
1278.000000	57.119100
1277.000000	57.061800
1276.000000	57.015100
1275.000000	56.982500
1274.000000	56.950800
1273.000000	56.921800
1272.000000	56.893700
1271.000000	56.853700
1270.000000	56.824800
1269.000000	56.804300
1268.000000	56.774300
1267.000000	56.738700
1266.000000	56.701000
1265.000000	56.661600
1264.000000	56.629400
1263.000000	56.596000
1262.000000	56.551300
1261.000000	56.521500
1260.000000	56.496700
1259.000000	56.453100
1258.000000	56.421500
1257.000000	56.382300
1256.000000	56.317800
1255.000000	56.273100
1254.000000	56.223600
1253.000000	56.163900
1252.000000	56.120300
1251.000000	56.080100
1250.000000	56.004500
1249.000000	55.956200
1248.000000	55.891000
1247.000000	55.802600
1246.000000	55.729600
1245.000000	55.653200
1244.000000	55.545900
1243.000000	55.465000
1242.000000	55.372100
1241.000000	55.287400
1240.000000	55.196300
1239.000000	55.101800
1238.000000	55.017100
1237.000000	54.926800
1236.000000	54.835300
1235.000000	54.731200
1234.000000	54.639700
1233.000000	54.539000
1232.000000	54.427200
1231.000000	54.326200
1230.000000	54.232800
1229.000000	54.130500
1228.000000	54.033500
1227.000000	53.922700
1226.000000	53.812100
1225.000000	53.702200
1224.000000	53.596900
1223.000000	53.493600
1222.000000	53.381800
1221.000000	53.273100
1220.000000	53.180400
1219.000000	53.078600
1218.000000	52.981700
1217.000000	52.902400
1216.000000	52.818300
1215.000000	52.740700
1214.000000	52.657100
1213.000000	52.565300
1212.000000	52.509300
1211.000000	52.434800
1210.000000	52.337500
1209.000000	52.259000
1208.000000	52.206200
1207.000000	52.155300
1206.000000	52.098200
1205.000000	52.075200
1204.000000	52.042400
1203.000000	52.014300
1202.000000	51.971500
1201.000000	51.935400
1200.000000	51.870400
1199.000000	51.800300
1198.000000	51.700000
1197.000000	51.568200
1196.000000	51.407200
1195.000000	51.206600
1194.000000	50.952700
1193.000000	50.638700
1192.000000	50.335100
1191.000000	50.001000
1190.000000	49.716100
1189.000000	49.489500
1188.000000	49.302700
1187.000000	49.244100
1186.000000	49.263800
1185.000000	49.366300
1184.000000	49.553500
1183.000000	49.804800
1182.000000	50.118100
1181.000000	50.454300
1180.000000	50.769800
1179.000000	51.056400
1178.000000	51.322600
1177.000000	51.534100
1176.000000	51.720300
1175.000000	51.934400
1174.000000	52.110400
1173.000000	52.314400
1172.000000	52.516100
1171.000000	52.734300
1170.000000	52.969900
1169.000000	53.166100
1168.000000	53.396200
1167.000000	53.625900
1166.000000	53.849100
1165.000000	54.097100
1164.000000	54.318000
1163.000000	54.546200
1162.000000	54.776300
1161.000000	55.006000
1160.000000	55.202200
1159.000000	55.409500
1158.000000	55.597500
1157.000000	55.769300
1156.000000	55.918800
1155.000000	56.022000
1154.000000	56.103100
1153.000000	56.163900
1152.000000	56.191600
1151.000000	56.213200
1150.000000	56.220300
1149.000000	56.268400
1148.000000	56.287000
1147.000000	56.372600
1146.000000	56.514100
1145.000000	56.621600
1144.000000	56.787600
1143.000000	56.964800
1142.000000	57.157600
1141.000000	57.379700
1140.000000	57.577500
1139.000000	57.787400
1138.000000	58.016300
1137.000000	58.251500
1136.000000	58.466100
1135.000000	58.685400
1134.000000	58.858100
1133.000000	58.992000
1132.000000	59.139600
1131.000000	59.304500
1130.000000	59.426800
1129.000000	59.515000
1128.000000	59.603900
1127.000000	59.662100
1126.000000	59.737700
1125.000000	59.784500
1124.000000	59.820200
1123.000000	59.859800
1122.000000	59.872500
1121.000000	59.900600
1120.000000	59.919500
1119.000000	59.920900
1118.000000	59.935100
1117.000000	59.948300
1116.000000	59.943700
1115.000000	59.953100
1114.000000	59.955400
1113.000000	59.958100
1112.000000	59.973800
1111.000000	59.986600
1110.000000	59.987100
1109.000000	59.996600
1108.000000	59.997700
1107.000000	60.022300
1106.000000	60.046100
1105.000000	60.064500
1104.000000	60.091600
1103.000000	60.111200
1102.000000	60.108000
1101.000000	60.128400
1100.000000	60.158900
1099.000000	60.174200
1098.000000	60.205500
1097.000000	60.223400
1096.000000	60.248800
1095.000000	60.262900
1094.000000	60.273100
1093.000000	60.310600
1092.000000	60.319600
1091.000000	60.327200
1090.000000	60.339500
1089.000000	60.355400
1088.000000	60.368300
1087.000000	60.372400
1086.000000	60.360100
1085.000000	60.367100
1084.000000	60.374300
1083.000000	60.361300
1082.000000	60.346300
1081.000000	60.339600
1080.000000	60.323100
1079.000000	60.305300
1078.000000	60.289800
1077.000000	60.257900
1076.000000	60.230800
1075.000000	60.193500
1074.000000	60.160700
1073.000000	60.132900
1072.000000	60.085200
1071.000000	60.042900
1070.000000	60.004900
1069.000000	59.937800
1068.000000	59.885000
1067.000000	59.831100
1066.000000	59.769400
1065.000000	59.721400
1064.000000	59.664600
1063.000000	59.605800
1062.000000	59.551900
1061.000000	59.514200
1060.000000	59.475000
1059.000000	59.420600
1058.000000	59.373800
1057.000000	59.344500
1056.000000	59.307900
1055.000000	59.271800
1054.000000	59.245800
1053.000000	59.239900
1052.000000	59.241300
1051.000000	59.226300
1050.000000	59.223200
1049.000000	59.245000
1048.000000	59.275900
1047.000000	59.300800
1046.000000	59.330100
1045.000000	59.374800
1044.000000	59.425600
1043.000000	59.473500
1042.000000	59.527700
1041.000000	59.585800
1040.000000	59.650100
1039.000000	59.712400
1038.000000	59.779900
1037.000000	59.853800
1036.000000	59.913900
1035.000000	59.986600
1034.000000	60.069000
1033.000000	60.137200
1032.000000	60.211300
1031.000000	60.282000
1030.000000	60.333200
1029.000000	60.403600
1028.000000	60.464100
1027.000000	60.519500
1026.000000	60.583700
1025.000000	60.613800
1024.000000	60.647700
1023.000000	60.699300
1022.000000	60.745800
1021.000000	60.785800
1020.000000	60.820400
1019.000000	60.844800
1018.000000	60.861300
1017.000000	60.881300
1016.000000	60.903100
1015.000000	60.914400
1014.000000	60.935400
1013.000000	60.955600
1012.000000	60.960200
1011.000000	60.980700
1010.000000	61.003400
1009.000000	61.010100
1008.000000	61.013800
1007.000000	61.038300
1006.000000	61.048100
1005.000000	61.035100
1004.000000	61.056800
1003.000000	61.070800
1002.000000	61.070900
1001.000000	61.076000
1000.000000	61.096300
999.000000	61.114100
998.000000	61.123400
997.000000	61.142600
996.000000	61.169800
995.000000	61.187100
994.000000	61.220800
993.000000	61.260400
992.000000	61.287600
991.000000	61.332300
990.000000	61.388200
989.000000	61.430300
988.000000	61.472500
987.000000	61.522100
986.000000	61.578200
985.000000	61.625100
984.000000	61.689100
983.000000	61.745200
982.000000	61.802200
981.000000	61.869000
980.000000	61.929000
979.000000	61.990200
978.000000	62.057200
977.000000	62.138100
976.000000	62.185600
975.000000	62.245300
974.000000	62.314200
973.000000	62.391900
972.000000	62.469000
971.000000	62.513900
970.000000	62.589700
969.000000	62.654100
968.000000	62.741000
967.000000	62.824400
966.000000	62.893300
965.000000	62.959600
964.000000	63.062300
963.000000	63.176900
962.000000	63.267100
961.000000	63.362400
960.000000	63.474100
959.000000	63.598700
958.000000	63.713500
957.000000	63.840400
956.000000	63.959400
955.000000	64.083700
954.000000	64.212600
953.000000	64.364600
952.000000	64.507700
951.000000	64.644500
950.000000	64.777600
949.000000	64.914100
948.000000	65.067900
947.000000	65.217700
946.000000	65.355200
945.000000	65.487600
944.000000	65.635000
943.000000	65.793800
942.000000	65.924600
941.000000	66.049300
940.000000	66.227600
939.000000	66.338500
938.000000	66.472100
937.000000	66.608500
936.000000	66.743500
935.000000	66.877800
934.000000	67.017700
933.000000	67.125400
932.000000	67.227500
931.000000	67.342300
930.000000	67.452200
929.000000	67.554700
928.000000	67.635000
927.000000	67.741200
926.000000	67.812700
925.000000	67.882700
924.000000	67.957200
923.000000	68.019300
922.000000	68.081000
921.000000	68.153800
920.000000	68.194300
919.000000	68.245800
918.000000	68.278300
917.000000	68.314600
916.000000	68.350800
915.000000	68.385300
914.000000	68.413700
913.000000	68.430700
912.000000	68.482600
911.000000	68.507300
910.000000	68.538000
909.000000	68.581300
908.000000	68.623300
907.000000	68.670400
906.000000	68.711200
905.000000	68.777100
904.000000	68.842100
903.000000	68.886100
902.000000	68.961800
901.000000	69.031000
900.000000	69.096300
899.000000	69.167500
898.000000	69.260900
897.000000	69.324600
896.000000	69.417300
895.000000	69.484900
894.000000	69.539600
893.000000	69.623200
892.000000	69.725100
891.000000	69.825000
890.000000	69.927600
889.000000	69.998700
888.000000	70.095700
887.000000	70.230900
886.000000	70.303000
885.000000	70.418500
884.000000	70.533200
883.000000	70.608800
882.000000	70.717700
881.000000	70.794200
880.000000	70.886900
879.000000	70.942400
878.000000	71.091400
877.000000	71.174500
876.000000	71.235600
875.000000	71.286400
874.000000	71.276700
873.000000	71.268300
872.000000	71.287500
871.000000	71.126000
870.000000	70.925100
869.000000	70.662600
868.000000	70.409800
867.000000	70.284400
866.000000	70.387400
865.000000	70.632000
864.000000	70.904800
863.000000	71.170300
862.000000	71.414500
861.000000	71.661200
860.000000	71.897900
859.000000	72.158900
858.000000	73.316000
857.000000	72.233720
856.000000	72.235275
855.000000	72.488859
854.000000	72.616475
853.000000	72.804925
852.000000	72.766229
851.000000	73.105622
850.000000	73.331670
849.000000	73.331579
848.000000	73.366799
847.000000	73.516827
846.000000	73.550034
845.000000	73.525060
844.000000	73.470629
843.000000	73.851646
842.000000	73.845517
841.000000	73.893727
840.000000	73.923824
839.000000	74.171828
838.000000	73.918152
837.000000	74.124990
836.000000	74.241445
835.000000	74.496401
834.000000	74.787126
833.000000	74.810180
832.000000	74.962495
831.000000	75.283866
830.000000	75.396753
829.000000	75.490155
828.000000	75.571938
827.000000	75.936672
826.000000	76.075082
825.000000	76.298477
824.000000	76.447865
823.000000	76.676384
822.000000	76.766218
821.000000	76.941037
820.000000	77.181631
819.000000	77.404295
818.000000	77.518463
817.000000	77.558989
816.000000	77.800406
815.000000	78.066157
814.000000	78.139890
813.000000	78.296780
812.000000	78.410947
811.000000	78.663068
810.000000	78.816755
809.000000	78.986909
808.000000	79.045365
807.000000	79.162277
806.000000	79.335908
805.000000	79.516765
804.000000	79.623248
803.000000	79.569183
802.000000	79.711618
801.000000	79.854054
800.000000	79.877473
799.000000	80.092544
798.000000	80.119713
797.000000	80.082664
796.000000	80.249524
795.000000	80.330485
794.000000	80.329936
793.000000	80.339633
792.000000	80.401474
791.000000	80.637677
790.000000	80.553789
789.000000	80.565132
788.000000	80.637219
787.000000	80.599621
786.000000	80.678385
785.000000	80.675550
784.000000	80.634383
783.000000	80.527259
782.000000	80.475573
781.000000	80.502011
780.000000	80.492863
779.000000	80.363601
778.000000	80.387203
777.000000	80.261325
776.000000	80.162252
775.000000	80.034453
774.000000	79.926049
773.000000	79.795323
772.000000	79.640812
771.000000	79.564975
770.000000	79.395462
769.000000	79.088087
768.000000	78.857464
767.000000	78.767630
766.000000	78.690786
765.000000	78.469312
764.000000	78.260004
763.000000	78.135225
762.000000	77.968822
761.000000	77.795557
760.000000	77.554049
759.000000	77.354438
758.000000	77.178612
757.000000	76.955400
756.000000	76.748105
755.000000	76.592222
754.000000	76.488300
753.000000	76.257677
752.000000	75.970702
751.000000	75.796981
750.000000	75.620698
749.000000	75.452373
748.000000	75.286702
747.000000	75.108955
746.000000	74.930751
745.000000	74.722816
744.000000	74.525400
743.000000	74.376104
742.000000	74.214092
741.000000	74.062326
740.000000	73.874059
739.000000	73.716346
738.000000	73.641698
737.000000	73.526249
736.000000	73.483985
735.000000	73.420498
734.000000	73.351155
733.000000	73.348137
732.000000	73.287119
731.000000	73.263609
730.000000	73.298005
729.000000	73.281996
728.000000	73.285015
727.000000	73.275410
726.000000	73.353443
725.000000	73.463128
724.000000	73.486364
723.000000	73.602819
722.000000	73.652310
721.000000	73.695671
720.000000	73.812401
719.000000	73.866100
718.000000	73.907723
717.000000	73.961606
716.000000	74.032960
715.000000	74.085745
714.000000	74.086659
713.000000	74.105230
712.000000	74.154447
711.000000	74.100382
710.000000	74.095442
709.000000	74.037077
708.000000	74.040370
707.000000	74.005516
706.000000	73.984842
705.000000	73.891165
704.000000	73.773521
703.000000	73.646363
702.000000	73.531281
701.000000	73.505026
700.000000	73.346490
699.000000	73.143495
698.000000	73.017251
697.000000	72.835754
696.000000	72.612084
695.000000	72.372222
694.000000	72.136842
693.000000	71.830291
692.000000	71.566643
691.000000	71.238777
690.000000	70.918229
689.000000	70.548190
688.000000	70.123446
687.000000	69.702909
686.000000	69.256392
685.000000	68.762306
684.000000	68.270140
683.000000	67.730679
682.000000	67.135872
681.000000	66.555885
680.000000	65.924944
679.000000	65.322727
678.000000	64.646136
677.000000	63.873766
676.000000	63.196352
675.000000	62.477040
674.000000	61.772914
673.000000	61.015729
672.000000	60.244273
671.000000	59.490564
670.000000	58.707856
669.000000	57.996778
668.000000	57.239959
667.000000	56.516622
666.000000	55.741049
665.000000	55.067386
664.000000	54.403420
663.000000	53.685937
662.000000	53.015293
661.000000	52.452139
660.000000	51.922832
659.000000	51.406607
658.000000	50.978661
657.000000	50.552178
656.000000	50.243614
655.000000	49.984084
654.000000	49.780997
653.000000	49.662712
652.000000	49.597487
651.000000	49.681557
650.000000	49.764713
649.000000	50.006679
648.000000	50.323934
647.000000	50.758284
646.000000	51.157322
645.000000	51.768504
644.000000	52.377490
643.000000	53.096345
642.000000	53.878870
641.000000	54.759462
640.000000	55.615812
639.000000	56.504821
638.000000	57.496562
637.000000	58.390053
636.000000	59.400090
635.000000	60.392014
634.000000	61.345150
633.000000	62.250076
632.000000	63.217392
631.000000	64.118019
630.000000	64.971350
629.000000	65.817637
628.000000	66.625685
627.000000	67.370703
626.000000	68.058820
625.000000	68.776211
624.000000	69.394437
623.000000	70.051816
622.000000	70.635462
621.000000	71.187639
620.000000	71.769182
619.000000	72.373319
618.000000	72.899058
617.000000	73.435226
616.000000	73.920714
615.000000	74.434194
614.000000	74.964690
613.000000	75.485489
612.000000	75.983967
611.000000	76.508974
610.000000	77.018887
609.000000	77.439332
608.000000	77.907804
607.000000	78.322943
606.000000	78.723994
605.000000	79.113335
604.000000	79.420527
603.000000	79.741990
602.000000	80.065740
601.000000	80.292703
600.000000	80.470816
599.000000	80.662559
598.000000	80.869397
597.000000	81.024822
596.000000	81.068825
595.000000	81.086114
594.000000	81.203027
593.000000	81.204399
592.000000	81.186286
591.000000	81.200465
590.000000	81.124719
589.000000	81.098190
588.000000	81.003782
587.000000	80.938556
586.000000	80.826401
585.000000	80.723485
584.000000	80.560741
583.000000	80.449684
582.000000	80.297277
581.000000	80.121269
580.000000	79.985237
579.000000	79.791024
578.000000	79.642825
577.000000	79.502128
576.000000	79.322734
575.000000	79.188075
574.000000	79.029722
573.000000	78.839534
572.000000	78.703868
571.000000	78.501330
570.000000	78.340233
569.000000	78.152423
568.000000	78.010903
567.000000	77.762167
566.000000	77.529166
565.000000	77.277503
564.000000	77.082192
563.000000	76.845531
562.000000	76.476865
561.000000	76.163178
560.000000	75.808233
559.000000	75.388520
558.000000	74.981523
557.000000	74.504543
556.000000	74.026648
555.000000	73.505758
554.000000	72.928058
553.000000	72.328860
552.000000	71.612201
551.000000	70.956010
550.000000	70.151988
549.000000	69.363333
548.000000	68.534245
547.000000	67.670485
546.000000	66.784038
545.000000	65.804281
544.000000	64.802294
543.000000	63.756305
542.000000	62.740778
541.000000	61.686007
540.000000	60.655661
539.000000	59.616990
538.000000	58.550693
537.000000	57.565538
536.000000	56.595844
535.000000	55.631547
534.000000	54.700366
533.000000	53.788487
532.000000	52.908718
531.000000	52.066456
530.000000	51.247522
529.000000	50.483385
528.000000	49.739190
527.000000	49.009998
526.000000	48.267359
525.000000	47.581437
524.000000	46.891399
523.000000	46.160926
522.000000	45.477292
521.000000	44.787528
520.000000	44.078920
519.000000	43.376714
518.000000	42.667648
517.000000	41.977702
516.000000	41.287389
515.000000	40.575030
514.000000	39.883345
513.000000	39.191386
512.000000	38.481588
511.000000	37.761910
510.000000	37.040677
509.000000	36.343686
508.000000	35.614403
507.000000	34.900031
506.000000	34.179438
505.000000	33.432682
504.000000	32.688670
503.000000	31.943927
502.000000	31.177319
501.000000	30.425989
500.000000	29.672647
499.000000	28.932020
498.000000	28.194503
497.000000	27.484980
496.000000	26.774175
495.000000	26.092828
494.000000	25.433710
493.000000	24.788772
492.000000	24.184543
491.000000	23.613978
490.000000	23.107724
489.000000	22.645656
488.000000	22.247532
487.000000	21.897528
486.000000	21.603783
485.000000	21.380296
484.000000	21.217918
483.000000	21.082618
482.000000	21.006049
481.000000	20.976318
480.000000	20.994706
479.000000	21.052338
478.000000	21.166232
477.000000	21.289365
476.000000	21.436008
475.000000	21.621714
474.000000	21.832119
473.000000	22.050392
472.000000	22.288790
471.000000	22.515936
470.000000	22.736954
469.000000	22.964832
468.000000	23.175969
467.000000	23.371006
466.000000	23.568604
465.000000	23.751382
464.000000	23.903972
463.000000	24.044852
462.000000	24.180060
461.000000	24.300906
460.000000	24.391472
459.000000	24.453496
458.000000	24.489630
457.000000	24.512409
456.000000	24.516068
455.000000	24.515245
454.000000	24.507195
453.000000	24.493473
452.000000	24.449104
451.000000	24.355428
450.000000	24.256721
449.000000	24.163959
448.000000	24.051255
447.000000	23.934709
446.000000	23.789255
445.000000	23.619375
444.000000	23.458918
443.000000	23.261503
442.000000	23.035546
441.000000	22.814895
440.000000	22.589395
439.000000	22.338373
438.000000	22.083233
437.000000	21.806321
436.000000	21.530965
435.000000	21.263567
434.000000	20.972476
433.000000	20.658880
432.000000	20.336960
431.000000	19.976710
430.000000	19.628077
429.000000	19.279261
428.000000	18.905289
427.000000	18.539092
426.000000	18.157709
425.000000	17.757939
424.000000	17.367225
423.000000	16.982824
422.000000	16.562379
421.000000	16.135622
420.000000	15.745549
419.000000	15.321079
418.000000	14.899994
417.000000	14.492448
416.000000	14.100636
415.000000	13.697390
414.000000	13.277677
413.000000	12.903064
412.000000	12.543362
411.000000	12.166005
410.000000	11.806028
409.000000	11.457121
408.000000	11.136391
407.000000	10.833224
406.000000	10.518439
405.000000	10.230001
404.000000	9.952266
403.000000	9.696943
402.000000	9.451409
401.000000	9.224355
400.000000	9.008552
399.000000	8.808392
398.000000	8.628541
397.000000	8.444665
396.000000	8.282653
395.000000	8.128691
394.000000	7.982780
393.000000	7.830831
392.000000	7.709893
391.000000	7.594445
390.000000	7.483387
389.000000	7.358699
388.000000	7.259992
387.000000	7.182416
386.000000	7.090753
385.000000	7.011713
384.000000	6.927460
383.000000	6.855373
382.000000	6.773681
381.000000	6.699673
380.000000	6.634630
379.000000	6.587609
378.000000	6.565562
377.000000	6.519456
376.000000	6.477009
375.000000	6.155363
374.000000	6.083917
373.000000	6.112916
372.000000	6.181344
371.000000	6.073671
370.000000	6.099469
369.000000	6.166158
368.000000	6.158199
367.000000	6.083460
366.000000	6.007165
365.000000	6.046959
364.000000	6.039549
363.000000	5.899035
362.000000	5.961059
361.000000	5.999206
360.000000	5.915501
359.000000	5.844055
358.000000	5.840579
357.000000	5.896931
356.000000	5.915227
355.000000	5.815056
354.000000	5.766205
353.000000	5.714244
352.000000	5.699699
351.000000	5.767486
350.000000	5.701711
349.000000	5.540248
348.000000	5.633558
347.000000	5.601631
346.000000	5.686159
345.000000	5.698326
344.000000	5.658898
343.000000	5.547566
342.000000	5.571809
341.000000	5.549396
340.000000	5.668504
339.000000	5.596051
338.000000	5.473376
337.000000	5.535308
336.000000	5.525794
335.000000	5.593673
334.000000	5.590379
333.000000	5.613158
332.000000	5.629624
331.000000	5.785416
330.000000	5.594862
329.000000	5.347590
328.000000	5.456177
327.000000	5.945050
326.000000	5.700979
325.000000	5.753855
324.000000	5.670516
323.000000	5.699333
322.000000	5.762363
321.000000	6.055467
320.000000	5.619745
319.000000	5.462672
318.000000	5.370003
317.000000	6.336129
316.000000	5.409339
315.000000	5.290506
314.000000	5.218877
313.000000	5.301118
312.000000	5.293982
311.000000	5.312004
310.000000	5.363965
309.000000	5.300569
308.000000	5.319231
307.000000	5.396075
306.000000	5.354359
305.000000	5.323164
304.000000	5.308162
303.000000	5.383267
302.000000	5.341278
301.000000	5.391500
300.000000	5.341003
299.000000	5.325634
298.000000	5.361495
297.000000	5.317310
296.000000	5.389213
295.000000	5.365154
294.000000	5.366801
293.000000	5.363050
292.000000	5.300111
291.000000	5.416200
290.000000	5.382718
289.000000	5.347224
288.000000	5.398453
287.000000	5.345760
286.000000	5.409156
285.000000	5.390037
284.000000	5.466057
283.000000	5.407967
282.000000	5.383542
281.000000	5.438887
280.000000	5.410620
279.000000	5.430288
278.000000	5.398636
277.000000	5.428184
276.000000	5.394245
275.000000	5.427361
274.000000	5.415926
273.000000	5.431935
272.000000	5.496063
271.000000	5.498350
270.000000	5.482707
269.000000	5.447304
268.000000	5.496978
267.000000	5.522775
266.000000	5.535674
265.000000	5.550768
264.000000	5.568424
263.000000	5.613432
262.000000	5.620659
261.000000	5.606480
260.000000	5.671706
259.000000	5.726868
258.000000	5.736565
257.000000	5.752208
256.000000	5.710127
255.000000	5.740133
254.000000	5.742969
253.000000	5.820819
252.000000	5.823380
251.000000	5.756417
250.000000	5.855947
