PE UV       SUBTECH     SPECTRUM    ASCII       PEDS        4.00        
   -1
CICIMAUCR0018-1.Sample.ASC
24/04/12
14:04:58.00
24/04/12
14:04:58.00
Vinicio Soto Monge
c. cupreomarginata
250,000000
1
Lambda 1050
1050L1511233
PerkinElmer UV WinLab 6.3.2.0749 / 2.02.05 Lambda 900 UV/VIS/NIR, Aug  7 2015 09:38:08

0
0
3350/servo 860,8/2
0
0
UV/VIS
1
1
1
DoubleDePol,CommonBeamDepol,RBeamAtt,SBeamAtt,60mm sphere, WB InGaAs Detector
0
0
0
0
Program
Program
3350/servo 860,8/2
3350/0,2 860,8/0,2
3350/0,2 860,8/0,2
0
15.00
 
 
 
0
 
860,8
319,2
860,8
Front
100
on
S:100 R:100
0
0
0
0
 
0
 
 
 
0
 
 
0
0
0
0
0
 
 
 
 
0
0


0
0
#HDR
-1
-1
#GR
nm
%R
1.0
0.0
2500,000000
-1,000000
2251
8
31,513900
1,645900
#DATA
2500.000000	6.129600
2499.000000	6.004700
2498.000000	6.109500
2497.000000	6.044900
2496.000000	5.958800
2495.000000	6.134100
2494.000000	6.008400
2493.000000	5.965800
2492.000000	6.004200
2491.000000	5.984800
2490.000000	5.946900
2489.000000	6.011800
2488.000000	6.012100
2487.000000	5.981200
2486.000000	5.938100
2485.000000	5.982900
2484.000000	5.972300
2483.000000	5.957400
2482.000000	6.002900
2481.000000	6.032200
2480.000000	6.019200
2479.000000	6.069200
2478.000000	6.022100
2477.000000	6.028000
2476.000000	6.053400
2475.000000	6.105600
2474.000000	6.087100
2473.000000	6.125400
2472.000000	6.137900
2471.000000	6.123000
2470.000000	6.147200
2469.000000	6.184900
2468.000000	6.201500
2467.000000	6.266500
2466.000000	6.255700
2465.000000	6.298400
2464.000000	6.347500
2463.000000	6.383100
2462.000000	6.396500
2461.000000	6.419800
2460.000000	6.455100
2459.000000	6.465900
2458.000000	6.506200
2457.000000	6.507100
2456.000000	6.545300
2455.000000	6.572300
2454.000000	6.600300
2453.000000	6.637800
2452.000000	6.661700
2451.000000	6.690100
2450.000000	6.713500
2449.000000	6.736600
2448.000000	6.749400
2447.000000	6.801300
2446.000000	6.848100
2445.000000	6.860000
2444.000000	6.884300
2443.000000	6.916500
2442.000000	6.972300
2441.000000	6.993200
2440.000000	7.000900
2439.000000	7.028100
2438.000000	7.074800
2437.000000	7.113700
2436.000000	7.120300
2435.000000	7.148600
2434.000000	7.169500
2433.000000	7.196400
2432.000000	7.229300
2431.000000	7.240700
2430.000000	7.249100
2429.000000	7.267500
2428.000000	7.298400
2427.000000	7.329100
2426.000000	7.429800
2425.000000	7.567000
2424.000000	7.654200
2423.000000	7.737500
2422.000000	7.794600
2421.000000	7.790400
2420.000000	7.799700
2419.000000	7.816600
2418.000000	7.834100
2417.000000	7.886700
2416.000000	7.959100
2415.000000	7.997300
2414.000000	8.036900
2413.000000	8.095600
2412.000000	8.099600
2411.000000	8.100100
2410.000000	8.155700
2409.000000	8.229200
2408.000000	8.268700
2407.000000	8.292700
2406.000000	8.302800
2405.000000	8.325600
2404.000000	8.392100
2403.000000	8.438900
2402.000000	8.439400
2401.000000	8.436600
2400.000000	8.483900
2399.000000	8.518700
2398.000000	8.511400
2397.000000	8.548000
2396.000000	8.592700
2395.000000	8.577400
2394.000000	8.597900
2393.000000	8.639400
2392.000000	8.634100
2391.000000	8.657300
2390.000000	8.699000
2389.000000	8.704100
2388.000000	8.740600
2387.000000	8.763600
2386.000000	8.749700
2385.000000	8.746500
2384.000000	8.779000
2383.000000	8.825300
2382.000000	8.815500
2381.000000	8.832800
2380.000000	8.872800
2379.000000	8.874900
2378.000000	8.865700
2377.000000	8.896500
2376.000000	8.928100
2375.000000	8.912200
2374.000000	8.907300
2373.000000	8.937200
2372.000000	8.958000
2371.000000	8.955500
2370.000000	8.950800
2369.000000	8.982100
2368.000000	9.053700
2367.000000	9.072400
2366.000000	9.068800
2365.000000	9.058500
2364.000000	9.041200
2363.000000	9.026300
2362.000000	9.066900
2361.000000	9.092600
2360.000000	9.066700
2359.000000	9.055500
2358.000000	9.094400
2357.000000	9.118200
2356.000000	9.104300
2355.000000	9.097900
2354.000000	9.137500
2353.000000	9.168200
2352.000000	9.163600
2351.000000	9.163900
2350.000000	9.207000
2349.000000	9.234700
2348.000000	9.233800
2347.000000	9.284200
2346.000000	9.319000
2345.000000	9.313600
2344.000000	9.368400
2343.000000	9.405100
2342.000000	9.388500
2341.000000	9.385500
2340.000000	9.439300
2339.000000	9.520200
2338.000000	9.561900
2337.000000	9.567200
2336.000000	9.562500
2335.000000	9.612000
2334.000000	9.701300
2333.000000	9.749500
2332.000000	9.755800
2331.000000	9.763400
2330.000000	9.830400
2329.000000	9.912100
2328.000000	9.945400
2327.000000	9.969700
2326.000000	9.985600
2325.000000	10.046000
2324.000000	10.082500
2323.000000	10.142700
2322.000000	10.174900
2321.000000	10.164400
2320.000000	10.172200
2319.000000	10.254100
2318.000000	10.339300
2317.000000	10.365600
2316.000000	10.376300
2315.000000	10.373300
2314.000000	10.396300
2313.000000	10.465900
2312.000000	10.485600
2311.000000	10.508100
2310.000000	10.528000
2309.000000	10.623100
2308.000000	10.664300
2307.000000	10.702700
2306.000000	10.795900
2305.000000	10.857200
2304.000000	10.881000
2303.000000	10.903300
2302.000000	10.995300
2301.000000	11.062100
2300.000000	11.084000
2299.000000	11.185000
2298.000000	11.230400
2297.000000	11.245300
2296.000000	11.270900
2295.000000	11.353100
2294.000000	11.384000
2293.000000	11.390100
2292.000000	11.378400
2291.000000	11.456300
2290.000000	11.479200
2289.000000	11.463900
2288.000000	11.511200
2287.000000	11.515700
2286.000000	11.498000
2285.000000	11.459700
2284.000000	11.533000
2283.000000	11.519500
2282.000000	11.477400
2281.000000	11.443700
2280.000000	11.490200
2279.000000	11.484900
2278.000000	11.464600
2277.000000	11.519000
2276.000000	11.533300
2275.000000	11.535900
2274.000000	11.537400
2273.000000	11.550100
2272.000000	11.646900
2271.000000	11.679000
2270.000000	11.716200
2269.000000	11.750700
2268.000000	11.906900
2267.000000	11.985600
2266.000000	12.046000
2265.000000	12.106300
2264.000000	12.274300
2263.000000	12.366700
2262.000000	12.447900
2261.000000	12.520300
2260.000000	12.599900
2259.000000	12.794200
2258.000000	12.909800
2257.000000	12.970200
2256.000000	13.064000
2255.000000	13.230100
2254.000000	13.301800
2253.000000	13.399400
2252.000000	13.456100
2251.000000	13.644000
2250.000000	13.710800
2249.000000	13.769800
2248.000000	13.846300
2247.000000	14.007200
2246.000000	14.060100
2245.000000	14.125600
2244.000000	14.186100
2243.000000	14.242100
2242.000000	14.376700
2241.000000	14.427300
2240.000000	14.458200
2239.000000	14.511300
2238.000000	14.632900
2237.000000	14.668600
2236.000000	14.703400
2235.000000	14.727300
2234.000000	14.756100
2233.000000	14.883000
2232.000000	14.904500
2231.000000	14.920500
2230.000000	14.938500
2229.000000	14.973100
2228.000000	14.976400
2227.000000	14.983100
2226.000000	15.104400
2225.000000	15.105500
2224.000000	15.127800
2223.000000	15.130700
2222.000000	15.140000
2221.000000	15.117500
2220.000000	15.127800
2219.000000	15.085700
2218.000000	15.093900
2217.000000	15.091000
2216.000000	15.078700
2215.000000	15.085600
2214.000000	15.157800
2213.000000	15.144800
2212.000000	15.143500
2211.000000	15.050000
2210.000000	15.039500
2209.000000	15.028100
2208.000000	15.038300
2207.000000	15.023800
2206.000000	15.010000
2205.000000	14.991200
2204.000000	14.974900
2203.000000	14.986700
2202.000000	15.082900
2201.000000	15.066900
2200.000000	15.048800
2199.000000	15.046100
2198.000000	15.027000
2197.000000	15.003800
2196.000000	15.087100
2195.000000	15.065000
2194.000000	15.063400
2193.000000	15.029400
2192.000000	15.039900
2191.000000	14.985700
2190.000000	14.980800
2189.000000	14.969300
2188.000000	14.949200
2187.000000	14.934600
2186.000000	14.913900
2185.000000	14.895100
2184.000000	14.889800
2183.000000	14.849800
2182.000000	14.754600
2181.000000	14.733900
2180.000000	14.717800
2179.000000	14.710100
2178.000000	14.697000
2177.000000	14.667600
2176.000000	14.539200
2175.000000	14.539500
2174.000000	14.536500
2173.000000	14.499800
2172.000000	14.481200
2171.000000	14.462600
2170.000000	14.378800
2169.000000	14.354200
2168.000000	14.340100
2167.000000	14.318400
2166.000000	14.283200
2165.000000	14.197400
2164.000000	14.182800
2163.000000	14.177800
2162.000000	14.167000
2161.000000	14.160600
2160.000000	14.117800
2159.000000	14.044200
2158.000000	14.026200
2157.000000	14.023300
2156.000000	14.020400
2155.000000	13.977500
2154.000000	13.897100
2153.000000	13.898100
2152.000000	13.893700
2151.000000	13.877300
2150.000000	13.854900
2149.000000	13.861300
2148.000000	13.844600
2147.000000	13.819500
2146.000000	13.801900
2145.000000	13.797000
2144.000000	13.786900
2143.000000	13.767900
2142.000000	13.755100
2141.000000	13.741700
2140.000000	13.733400
2139.000000	13.712600
2138.000000	13.699700
2137.000000	13.676600
2136.000000	13.700100
2135.000000	13.747400
2134.000000	13.715400
2133.000000	13.699500
2132.000000	13.676900
2131.000000	13.679300
2130.000000	13.725700
2129.000000	13.714900
2128.000000	13.711400
2127.000000	13.734400
2126.000000	13.712700
2125.000000	13.694500
2124.000000	13.717800
2123.000000	13.779800
2122.000000	13.833400
2121.000000	13.808000
2120.000000	13.764100
2119.000000	13.740100
2118.000000	13.754500
2117.000000	13.825700
2116.000000	13.857800
2115.000000	13.826200
2114.000000	13.843800
2113.000000	13.887600
2112.000000	13.859100
2111.000000	13.888500
2110.000000	13.934100
2109.000000	13.941600
2108.000000	13.955500
2107.000000	13.953100
2106.000000	13.996000
2105.000000	14.040200
2104.000000	14.044100
2103.000000	14.045100
2102.000000	14.040200
2101.000000	14.078100
2100.000000	14.112700
2099.000000	14.109600
2098.000000	14.172300
2097.000000	14.229400
2096.000000	14.267400
2095.000000	14.324000
2094.000000	14.339000
2093.000000	14.340100
2092.000000	14.390200
2091.000000	14.440700
2090.000000	14.501100
2089.000000	14.559100
2088.000000	14.565600
2087.000000	14.584400
2086.000000	14.649000
2085.000000	14.702000
2084.000000	14.721700
2083.000000	14.782500
2082.000000	14.830100
2081.000000	14.844100
2080.000000	14.910200
2079.000000	14.968100
2078.000000	14.998300
2077.000000	15.074700
2076.000000	15.127800
2075.000000	15.152600
2074.000000	15.245300
2073.000000	15.312200
2072.000000	15.345300
2071.000000	15.412700
2070.000000	15.466300
2069.000000	15.559900
2068.000000	15.632200
2067.000000	15.669500
2066.000000	15.705600
2065.000000	15.793800
2064.000000	15.846300
2063.000000	15.881800
2062.000000	15.990300
2061.000000	16.049800
2060.000000	16.106400
2059.000000	16.206400
2058.000000	16.276200
2057.000000	16.315400
2056.000000	16.364800
2055.000000	16.471400
2054.000000	16.592100
2053.000000	16.663300
2052.000000	16.729100
2051.000000	16.795800
2050.000000	16.855100
2049.000000	16.951300
2048.000000	17.104300
2047.000000	17.172200
2046.000000	17.223500
2045.000000	17.282000
2044.000000	17.336400
2043.000000	17.478500
2042.000000	17.557500
2041.000000	17.603100
2040.000000	17.703600
2039.000000	17.782800
2038.000000	17.904400
2037.000000	17.965200
2036.000000	18.017400
2035.000000	18.105800
2034.000000	18.183800
2033.000000	18.209000
2032.000000	18.315700
2031.000000	18.365300
2030.000000	18.473700
2029.000000	18.542500
2028.000000	18.582300
2027.000000	18.650400
2026.000000	18.718000
2025.000000	18.752200
2024.000000	18.785800
2023.000000	18.803700
2022.000000	18.891100
2021.000000	18.972900
2020.000000	18.992400
2019.000000	19.003700
2018.000000	19.035700
2017.000000	19.052400
2016.000000	19.061600
2015.000000	19.106300
2014.000000	19.185800
2013.000000	19.205800
2012.000000	19.180300
2011.000000	19.223400
2010.000000	19.217300
2009.000000	19.257500
2008.000000	19.254100
2007.000000	19.214300
2006.000000	19.256100
2005.000000	19.230700
2004.000000	19.209400
2003.000000	19.238000
2002.000000	19.206100
2001.000000	19.244100
2000.000000	19.207700
1999.000000	19.176400
1998.000000	19.196400
1997.000000	19.215400
1996.000000	19.179600
1995.000000	19.141900
1994.000000	19.098800
1993.000000	19.112300
1992.000000	19.046400
1991.000000	19.053300
1990.000000	19.015200
1989.000000	18.970700
1988.000000	18.927400
1987.000000	18.932000
1986.000000	18.883100
1985.000000	18.871800
1984.000000	18.837100
1983.000000	18.800000
1982.000000	18.761000
1981.000000	18.708600
1980.000000	18.658900
1979.000000	18.605700
1978.000000	18.593200
1977.000000	18.588800
1976.000000	18.529100
1975.000000	18.483700
1974.000000	18.434600
1973.000000	18.346000
1972.000000	18.343500
1971.000000	18.298600
1970.000000	18.254200
1969.000000	18.185600
1968.000000	18.123500
1967.000000	18.137300
1966.000000	18.074000
1965.000000	18.019800
1964.000000	17.964000
1963.000000	17.931700
1962.000000	17.874100
1961.000000	17.802800
1960.000000	17.775700
1959.000000	17.710200
1958.000000	17.690700
1957.000000	17.634700
1956.000000	17.562600
1955.000000	17.525200
1954.000000	17.484000
1953.000000	17.449100
1952.000000	17.381900
1951.000000	17.312600
1950.000000	17.246100
1949.000000	17.184900
1948.000000	17.158300
1947.000000	17.106800
1946.000000	17.005300
1945.000000	16.925400
1944.000000	16.903300
1943.000000	16.856200
1942.000000	16.801200
1941.000000	16.762900
1940.000000	16.621000
1939.000000	16.550800
1938.000000	16.526700
1937.000000	16.494300
1936.000000	16.517600
1935.000000	16.486900
1934.000000	16.467600
1933.000000	16.465000
1932.000000	16.446800
1931.000000	16.438100
1930.000000	16.381700
1929.000000	16.344300
1928.000000	16.375700
1927.000000	16.374200
1926.000000	16.418600
1925.000000	16.498800
1924.000000	16.590800
1923.000000	16.549600
1922.000000	16.475800
1921.000000	16.567100
1920.000000	16.756000
1919.000000	16.829400
1918.000000	16.923200
1917.000000	17.116000
1916.000000	17.193000
1915.000000	17.182500
1914.000000	17.284300
1913.000000	17.477300
1912.000000	17.650300
1911.000000	17.869400
1910.000000	18.099800
1909.000000	18.184700
1908.000000	18.246100
1907.000000	18.318100
1906.000000	18.459000
1905.000000	18.670400
1904.000000	18.951800
1903.000000	19.205500
1902.000000	19.408400
1901.000000	19.484800
1900.000000	19.728200
1899.000000	20.091900
1898.000000	20.438200
1897.000000	20.840100
1896.000000	21.092400
1895.000000	21.181500
1894.000000	21.382900
1893.000000	21.540900
1892.000000	21.713000
1891.000000	21.913300
1890.000000	22.120000
1889.000000	22.321200
1888.000000	22.530300
1887.000000	22.674300
1886.000000	22.821300
1885.000000	22.944200
1884.000000	23.161000
1883.000000	23.287300
1882.000000	23.421900
1881.000000	23.582300
1880.000000	23.688400
1879.000000	23.704200
1878.000000	23.736300
1877.000000	23.732800
1876.000000	23.668600
1875.000000	23.578400
1874.000000	23.549500
1873.000000	23.552800
1872.000000	23.564000
1871.000000	23.711100
1870.000000	23.956100
1869.000000	24.160100
1868.000000	24.425300
1867.000000	24.658500
1866.000000	24.705100
1865.000000	24.834100
1864.000000	24.892700
1863.000000	24.841700
1862.000000	24.800700
1861.000000	24.755700
1860.000000	24.743200
1859.000000	24.747300
1858.000000	24.789300
1857.000000	24.873700
1856.000000	24.837600
1855.000000	24.817200
1854.000000	24.944500
1853.000000	25.022100
1852.000000	25.003200
1851.000000	24.942900
1850.000000	24.725900
1849.000000	24.519100
1848.000000	24.616300
1847.000000	24.873200
1846.000000	25.010800
1845.000000	24.985900
1844.000000	24.845000
1843.000000	24.652400
1842.000000	24.654800
1841.000000	24.738300
1840.000000	24.741700
1839.000000	24.670700
1838.000000	24.511500
1837.000000	24.540800
1836.000000	24.725400
1835.000000	24.910000
1834.000000	24.932200
1833.000000	24.834700
1832.000000	24.775600
1831.000000	24.772300
1830.000000	24.822300
1829.000000	24.839400
1828.000000	24.804100
1827.000000	24.769900
1826.000000	24.840400
1825.000000	24.924200
1824.000000	24.937900
1823.000000	24.797200
1822.000000	24.689900
1821.000000	24.744900
1820.000000	24.838600
1819.000000	24.881900
1818.000000	24.853400
1817.000000	24.813700
1816.000000	24.895300
1815.000000	24.981700
1814.000000	24.967200
1813.000000	24.924200
1812.000000	24.910600
1811.000000	24.964700
1810.000000	25.007200
1809.000000	25.007000
1808.000000	24.970900
1807.000000	24.954900
1806.000000	24.990400
1805.000000	25.016800
1804.000000	25.007200
1803.000000	24.942800
1802.000000	24.924700
1801.000000	24.958000
1800.000000	24.994500
1799.000000	24.983400
1798.000000	24.980900
1797.000000	24.961700
1796.000000	24.958100
1795.000000	24.972900
1794.000000	24.950500
1793.000000	24.915200
1792.000000	24.883700
1791.000000	24.876600
1790.000000	24.882400
1789.000000	24.863000
1788.000000	24.830000
1787.000000	24.809200
1786.000000	24.785600
1785.000000	24.781000
1784.000000	24.777600
1783.000000	24.752400
1782.000000	24.682500
1781.000000	24.635500
1780.000000	24.623200
1779.000000	24.651000
1778.000000	24.650300
1777.000000	24.644000
1776.000000	24.602700
1775.000000	24.587900
1774.000000	24.574900
1773.000000	24.560300
1772.000000	24.586000
1771.000000	24.579400
1770.000000	24.558800
1769.000000	24.535300
1768.000000	24.508600
1767.000000	24.498800
1766.000000	24.461500
1765.000000	24.479700
1764.000000	24.475400
1763.000000	24.549000
1762.000000	24.568600
1761.000000	24.562000
1760.000000	24.574800
1759.000000	24.592700
1758.000000	24.615800
1757.000000	24.607700
1756.000000	24.628100
1755.000000	24.636900
1754.000000	24.659500
1753.000000	24.676000
1752.000000	24.700300
1751.000000	24.706500
1750.000000	24.739800
1749.000000	24.730100
1748.000000	24.715200
1747.000000	24.713100
1746.000000	24.710400
1745.000000	24.696600
1744.000000	24.672900
1743.000000	24.670800
1742.000000	24.648000
1741.000000	24.620900
1740.000000	24.597800
1739.000000	24.584500
1738.000000	24.573400
1737.000000	24.571600
1736.000000	24.566700
1735.000000	24.540100
1734.000000	24.507500
1733.000000	24.497000
1732.000000	24.504800
1731.000000	24.507800
1730.000000	24.540100
1729.000000	24.554400
1728.000000	24.612800
1727.000000	24.623600
1726.000000	24.629200
1725.000000	24.636700
1724.000000	24.638500
1723.000000	24.665900
1722.000000	24.657000
1721.000000	24.664800
1720.000000	24.673800
1719.000000	24.690700
1718.000000	24.713800
1717.000000	24.722900
1716.000000	24.726800
1715.000000	24.719000
1714.000000	24.742700
1713.000000	24.743200
1712.000000	24.755100
1711.000000	24.764000
1710.000000	24.764200
1709.000000	24.770200
1708.000000	24.796800
1707.000000	24.770300
1706.000000	24.766900
1705.000000	24.777600
1704.000000	24.761900
1703.000000	24.791900
1702.000000	24.792800
1701.000000	24.788200
1700.000000	24.820300
1699.000000	24.786200
1698.000000	24.784800
1697.000000	24.791700
1696.000000	24.797600
1695.000000	24.781200
1694.000000	24.836000
1693.000000	24.886000
1692.000000	24.923700
1691.000000	24.982000
1690.000000	25.025100
1689.000000	25.029100
1688.000000	25.037700
1687.000000	25.032000
1686.000000	25.028300
1685.000000	25.059700
1684.000000	25.099700
1683.000000	25.135900
1682.000000	25.184000
1681.000000	25.272900
1680.000000	25.333000
1679.000000	25.407900
1678.000000	25.470500
1677.000000	25.518700
1676.000000	25.579600
1675.000000	25.607300
1674.000000	25.703700
1673.000000	25.736600
1672.000000	25.736900
1671.000000	25.777500
1670.000000	25.811100
1669.000000	25.835200
1668.000000	25.895100
1667.000000	25.957100
1666.000000	25.968300
1665.000000	25.978400
1664.000000	25.960400
1663.000000	25.973500
1662.000000	25.963600
1661.000000	26.002800
1660.000000	26.014100
1659.000000	26.015800
1658.000000	26.026500
1657.000000	26.036600
1656.000000	26.025100
1655.000000	26.016800
1654.000000	26.008900
1653.000000	26.022400
1652.000000	26.038000
1651.000000	26.013600
1650.000000	26.000500
1649.000000	25.958000
1648.000000	25.922700
1647.000000	25.921600
1646.000000	25.929300
1645.000000	25.916000
1644.000000	25.909300
1643.000000	25.898100
1642.000000	25.897200
1641.000000	25.869800
1640.000000	25.837300
1639.000000	25.798100
1638.000000	25.780900
1637.000000	25.752200
1636.000000	25.713400
1635.000000	25.695900
1634.000000	25.681900
1633.000000	25.642500
1632.000000	25.630300
1631.000000	25.612500
1630.000000	25.564600
1629.000000	25.535600
1628.000000	25.530800
1627.000000	25.507800
1626.000000	25.496000
1625.000000	25.453700
1624.000000	25.413400
1623.000000	25.394200
1622.000000	25.379800
1621.000000	25.312800
1620.000000	25.272400
1619.000000	25.248700
1618.000000	25.233000
1617.000000	25.206400
1616.000000	25.171300
1615.000000	25.128200
1614.000000	25.065500
1613.000000	25.025900
1612.000000	25.015700
1611.000000	24.975900
1610.000000	24.946600
1609.000000	24.908300
1608.000000	24.860900
1607.000000	24.816800
1606.000000	24.785700
1605.000000	24.748100
1604.000000	24.693600
1603.000000	24.626000
1602.000000	24.590700
1601.000000	24.570000
1600.000000	24.510900
1599.000000	24.476700
1598.000000	24.458300
1597.000000	24.426500
1596.000000	24.424200
1595.000000	24.402000
1594.000000	24.358100
1593.000000	24.319300
1592.000000	24.283700
1591.000000	24.255400
1590.000000	24.243300
1589.000000	24.220900
1588.000000	24.184800
1587.000000	24.181100
1586.000000	24.188600
1585.000000	24.183400
1584.000000	24.199400
1583.000000	24.209100
1582.000000	24.168700
1581.000000	24.141400
1580.000000	24.134500
1579.000000	24.120400
1578.000000	24.121100
1577.000000	24.116400
1576.000000	24.114300
1575.000000	24.115500
1574.000000	24.098800
1573.000000	24.042800
1572.000000	24.002900
1571.000000	24.008600
1570.000000	24.012100
1569.000000	24.000300
1568.000000	23.994700
1567.000000	23.991700
1566.000000	23.985900
1565.000000	23.983300
1564.000000	23.973700
1563.000000	23.970400
1562.000000	23.987300
1561.000000	24.005200
1560.000000	24.013000
1559.000000	24.004500
1558.000000	24.000200
1557.000000	23.987800
1556.000000	23.965700
1555.000000	23.961100
1554.000000	23.953000
1553.000000	23.943400
1552.000000	23.936300
1551.000000	23.934900
1550.000000	23.924500
1549.000000	23.906800
1548.000000	23.895200
1547.000000	23.893300
1546.000000	23.889900
1545.000000	23.878600
1544.000000	23.867800
1543.000000	23.850000
1542.000000	23.843900
1541.000000	23.831100
1540.000000	23.823800
1539.000000	23.822900
1538.000000	23.805400
1537.000000	23.796100
1536.000000	23.816800
1535.000000	23.829600
1534.000000	23.820300
1533.000000	23.833800
1532.000000	23.827100
1531.000000	23.817900
1530.000000	23.812400
1529.000000	23.806500
1528.000000	23.804500
1527.000000	23.796900
1526.000000	23.776300
1525.000000	23.764200
1524.000000	23.752400
1523.000000	23.740800
1522.000000	23.755000
1521.000000	23.753600
1520.000000	23.717100
1519.000000	23.689100
1518.000000	23.655800
1517.000000	23.616500
1516.000000	23.596900
1515.000000	23.587400
1514.000000	23.572400
1513.000000	23.547300
1512.000000	23.562900
1511.000000	23.571000
1510.000000	23.538000
1509.000000	23.528300
1508.000000	23.498200
1507.000000	23.476600
1506.000000	23.454600
1505.000000	23.435800
1504.000000	23.396500
1503.000000	23.362600
1502.000000	23.363500
1501.000000	23.366400
1500.000000	23.332300
1499.000000	23.282400
1498.000000	23.268600
1497.000000	23.261400
1496.000000	23.236400
1495.000000	23.257500
1494.000000	23.261200
1493.000000	23.246100
1492.000000	23.189400
1491.000000	23.186300
1490.000000	23.192400
1489.000000	23.210700
1488.000000	23.202200
1487.000000	23.209300
1486.000000	23.207300
1485.000000	23.213600
1484.000000	23.209500
1483.000000	23.187300
1482.000000	23.177000
1481.000000	23.178300
1480.000000	23.177400
1479.000000	23.206000
1478.000000	23.230100
1477.000000	23.270500
1476.000000	23.273600
1475.000000	23.276300
1474.000000	23.278800
1473.000000	23.336700
1472.000000	23.348500
1471.000000	23.371600
1470.000000	23.400500
1469.000000	23.402300
1468.000000	23.419400
1467.000000	23.453700
1466.000000	23.498100
1465.000000	23.537300
1464.000000	23.563300
1463.000000	23.592100
1462.000000	23.615100
1461.000000	23.614000
1460.000000	23.647400
1459.000000	23.670000
1458.000000	23.705200
1457.000000	23.776200
1456.000000	23.793900
1455.000000	23.830400
1454.000000	23.846200
1453.000000	23.884600
1452.000000	23.913300
1451.000000	23.938600
1450.000000	23.978100
1449.000000	23.985000
1448.000000	23.992500
1447.000000	24.025700
1446.000000	24.124600
1445.000000	24.215100
1444.000000	24.212800
1443.000000	24.214300
1442.000000	24.221900
1441.000000	24.296900
1440.000000	24.337900
1439.000000	24.381700
1438.000000	24.427000
1437.000000	24.484600
1436.000000	24.560500
1435.000000	24.586900
1434.000000	24.645100
1433.000000	24.721500
1432.000000	24.792500
1431.000000	24.873200
1430.000000	24.922000
1429.000000	24.960000
1428.000000	25.067400
1427.000000	25.174400
1426.000000	25.239400
1425.000000	25.309600
1424.000000	25.392600
1423.000000	25.499200
1422.000000	25.634500
1421.000000	25.674300
1420.000000	25.774600
1419.000000	25.931300
1418.000000	26.053500
1417.000000	26.129000
1416.000000	26.114500
1415.000000	26.167900
1414.000000	26.399200
1413.000000	26.599200
1412.000000	26.641100
1411.000000	26.634700
1410.000000	26.699700
1409.000000	26.929800
1408.000000	27.025600
1407.000000	27.130600
1406.000000	27.181000
1405.000000	27.298900
1404.000000	27.450900
1403.000000	27.554600
1402.000000	27.420000
1401.000000	27.529800
1400.000000	27.839700
1399.000000	27.995000
1398.000000	27.804000
1397.000000	27.639700
1396.000000	27.816100
1395.000000	28.164400
1394.000000	28.160400
1393.000000	28.058200
1392.000000	28.187400
1391.000000	28.374800
1390.000000	28.408200
1389.000000	28.336700
1388.000000	28.501800
1387.000000	28.606700
1386.000000	28.575900
1385.000000	28.515200
1384.000000	28.544600
1383.000000	28.586600
1382.000000	28.695200
1381.000000	28.845800
1380.000000	28.923000
1379.000000	28.967000
1378.000000	29.013000
1377.000000	29.047600
1376.000000	29.103000
1375.000000	29.173900
1374.000000	29.145200
1373.000000	29.122500
1372.000000	29.089500
1371.000000	29.170800
1370.000000	29.253700
1369.000000	29.203200
1368.000000	29.326700
1367.000000	29.458000
1366.000000	29.415000
1365.000000	29.403800
1364.000000	29.507400
1363.000000	29.427600
1362.000000	29.435700
1361.000000	29.632700
1360.000000	29.739400
1359.000000	29.698800
1358.000000	29.752900
1357.000000	29.818500
1356.000000	29.846400
1355.000000	29.964200
1354.000000	30.106300
1353.000000	30.136600
1352.000000	30.136400
1351.000000	30.261600
1350.000000	30.412200
1349.000000	30.447300
1348.000000	30.499400
1347.000000	30.566100
1346.000000	30.608500
1345.000000	30.630100
1344.000000	30.677300
1343.000000	30.723400
1342.000000	30.779700
1341.000000	30.842400
1340.000000	30.914900
1339.000000	30.955200
1338.000000	30.988200
1337.000000	31.022300
1336.000000	31.032700
1335.000000	31.024700
1334.000000	31.018100
1333.000000	31.030300
1332.000000	31.066600
1331.000000	31.109900
1330.000000	31.133100
1329.000000	31.140200
1328.000000	31.158300
1327.000000	31.176500
1326.000000	31.178100
1325.000000	31.188900
1324.000000	31.238700
1323.000000	31.289800
1322.000000	31.278200
1321.000000	31.263300
1320.000000	31.296200
1319.000000	31.335600
1318.000000	31.349200
1317.000000	31.361500
1316.000000	31.373500
1315.000000	31.402000
1314.000000	31.430700
1313.000000	31.449100
1312.000000	31.456900
1311.000000	31.463700
1310.000000	31.466600
1309.000000	31.477300
1308.000000	31.494100
1307.000000	31.513200
1306.000000	31.510700
1305.000000	31.508100
1304.000000	31.513900
1303.000000	31.487800
1302.000000	31.472900
1301.000000	31.475900
1300.000000	31.475400
1299.000000	31.468800
1298.000000	31.439900
1297.000000	31.409800
1296.000000	31.399700
1295.000000	31.400400
1294.000000	31.401300
1293.000000	31.355600
1292.000000	31.321800
1291.000000	31.322000
1290.000000	31.322100
1289.000000	31.340400
1288.000000	31.339800
1287.000000	31.302600
1286.000000	31.268500
1285.000000	31.246200
1284.000000	31.227600
1283.000000	31.210000
1282.000000	31.196200
1281.000000	31.198800
1280.000000	31.188400
1279.000000	31.169400
1278.000000	31.162300
1277.000000	31.148300
1276.000000	31.153600
1275.000000	31.170700
1274.000000	31.157100
1273.000000	31.140000
1272.000000	31.121200
1271.000000	31.119100
1270.000000	31.107400
1269.000000	31.091900
1268.000000	31.082200
1267.000000	31.083600
1266.000000	31.079300
1265.000000	31.066600
1264.000000	31.054400
1263.000000	31.033900
1262.000000	31.033200
1261.000000	31.047300
1260.000000	31.030000
1259.000000	31.006100
1258.000000	31.003900
1257.000000	30.987700
1256.000000	30.966000
1255.000000	30.941100
1254.000000	30.917900
1253.000000	30.909200
1252.000000	30.864000
1251.000000	30.839300
1250.000000	30.838400
1249.000000	30.797900
1248.000000	30.772800
1247.000000	30.752800
1246.000000	30.733500
1245.000000	30.691100
1244.000000	30.702200
1243.000000	30.697500
1242.000000	30.684800
1241.000000	30.663900
1240.000000	30.638000
1239.000000	30.606800
1238.000000	30.580400
1237.000000	30.545400
1236.000000	30.531400
1235.000000	30.490200
1234.000000	30.477100
1233.000000	30.483800
1232.000000	30.459300
1231.000000	30.426500
1230.000000	30.409200
1229.000000	30.385100
1228.000000	30.352100
1227.000000	30.369200
1226.000000	30.334600
1225.000000	30.284900
1224.000000	30.262200
1223.000000	30.221900
1222.000000	30.180800
1221.000000	30.165600
1220.000000	30.170800
1219.000000	30.153800
1218.000000	30.150400
1217.000000	30.110400
1216.000000	30.076000
1215.000000	30.044400
1214.000000	30.012500
1213.000000	29.993800
1212.000000	29.976600
1211.000000	29.966400
1210.000000	29.944500
1209.000000	29.957300
1208.000000	29.937700
1207.000000	29.909000
1206.000000	29.912100
1205.000000	29.910900
1204.000000	29.923700
1203.000000	29.866600
1202.000000	29.899700
1201.000000	29.882800
1200.000000	29.866000
1199.000000	29.849600
1198.000000	29.826400
1197.000000	29.859300
1196.000000	29.839900
1195.000000	29.831800
1194.000000	29.784300
1193.000000	29.754100
1192.000000	29.690500
1191.000000	29.598500
1190.000000	29.556200
1189.000000	29.524300
1188.000000	29.481600
1187.000000	29.489400
1186.000000	29.468400
1185.000000	29.465000
1184.000000	29.485000
1183.000000	29.526000
1182.000000	29.554600
1181.000000	29.634600
1180.000000	29.740600
1179.000000	29.788600
1178.000000	29.831000
1177.000000	29.876800
1176.000000	29.908300
1175.000000	29.937300
1174.000000	29.960300
1173.000000	30.000900
1172.000000	30.062500
1171.000000	30.096600
1170.000000	30.123200
1169.000000	30.208800
1168.000000	30.248100
1167.000000	30.273700
1166.000000	30.300400
1165.000000	30.320400
1164.000000	30.334700
1163.000000	30.364100
1162.000000	30.376600
1161.000000	30.419700
1160.000000	30.488800
1159.000000	30.536100
1158.000000	30.549100
1157.000000	30.607600
1156.000000	30.636800
1155.000000	30.657300
1154.000000	30.634200
1153.000000	30.634500
1152.000000	30.634800
1151.000000	30.602400
1150.000000	30.641400
1149.000000	30.633300
1148.000000	30.656000
1147.000000	30.678500
1146.000000	30.699800
1145.000000	30.751500
1144.000000	30.754600
1143.000000	30.765000
1142.000000	30.782500
1141.000000	30.834700
1140.000000	30.866000
1139.000000	30.908900
1138.000000	30.891400
1137.000000	30.941500
1136.000000	30.942500
1135.000000	30.941600
1134.000000	31.031400
1133.000000	31.059500
1132.000000	31.036600
1131.000000	31.058100
1130.000000	31.092400
1129.000000	31.141300
1128.000000	31.139500
1127.000000	31.078100
1126.000000	31.062600
1125.000000	31.083400
1124.000000	31.092300
1123.000000	31.133000
1122.000000	31.143600
1121.000000	31.126500
1120.000000	31.086400
1119.000000	31.066200
1118.000000	31.071900
1117.000000	31.091200
1116.000000	31.109900
1115.000000	31.081000
1114.000000	31.059000
1113.000000	31.064600
1112.000000	31.043600
1111.000000	31.044700
1110.000000	31.063300
1109.000000	31.046200
1108.000000	31.023000
1107.000000	31.003400
1106.000000	30.989400
1105.000000	30.954800
1104.000000	30.939200
1103.000000	30.917800
1102.000000	30.914800
1101.000000	30.909600
1100.000000	30.861000
1099.000000	30.853000
1098.000000	30.833000
1097.000000	30.825300
1096.000000	30.793900
1095.000000	30.773900
1094.000000	30.805300
1093.000000	30.761900
1092.000000	30.751100
1091.000000	30.728300
1090.000000	30.684600
1089.000000	30.683600
1088.000000	30.683700
1087.000000	30.678700
1086.000000	30.634500
1085.000000	30.628400
1084.000000	30.611200
1083.000000	30.599400
1082.000000	30.587400
1081.000000	30.574400
1080.000000	30.558700
1079.000000	30.544100
1078.000000	30.525300
1077.000000	30.485500
1076.000000	30.437700
1075.000000	30.409800
1074.000000	30.391500
1073.000000	30.405400
1072.000000	30.393600
1071.000000	30.359800
1070.000000	30.322400
1069.000000	30.320200
1068.000000	30.318800
1067.000000	30.303200
1066.000000	30.271500
1065.000000	30.258400
1064.000000	30.269600
1063.000000	30.237100
1062.000000	30.192100
1061.000000	30.177400
1060.000000	30.137100
1059.000000	30.125500
1058.000000	30.105700
1057.000000	30.062700
1056.000000	30.063200
1055.000000	30.068400
1054.000000	30.040000
1053.000000	29.990700
1052.000000	29.979000
1051.000000	29.953800
1050.000000	29.931500
1049.000000	29.902500
1048.000000	29.865500
1047.000000	29.853500
1046.000000	29.812000
1045.000000	29.769800
1044.000000	29.780300
1043.000000	29.780800
1042.000000	29.762700
1041.000000	29.725500
1040.000000	29.702400
1039.000000	29.711500
1038.000000	29.694500
1037.000000	29.641600
1036.000000	29.596500
1035.000000	29.593400
1034.000000	29.591100
1033.000000	29.535900
1032.000000	29.479100
1031.000000	29.478300
1030.000000	29.443600
1029.000000	29.402900
1028.000000	29.398100
1027.000000	29.393400
1026.000000	29.355600
1025.000000	29.311900
1024.000000	29.269900
1023.000000	29.239300
1022.000000	29.240000
1021.000000	29.226200
1020.000000	29.177000
1019.000000	29.133900
1018.000000	29.083300
1017.000000	29.033100
1016.000000	29.026900
1015.000000	29.023600
1014.000000	28.958300
1013.000000	28.886600
1012.000000	28.872500
1011.000000	28.875900
1010.000000	28.844300
1009.000000	28.813200
1008.000000	28.765700
1007.000000	28.724800
1006.000000	28.699800
1005.000000	28.704500
1004.000000	28.710500
1003.000000	28.655400
1002.000000	28.606500
1001.000000	28.557300
1000.000000	28.532400
999.000000	28.515500
998.000000	28.508300
997.000000	28.478000
996.000000	28.405600
995.000000	28.374800
994.000000	28.368000
993.000000	28.375400
992.000000	28.319100
991.000000	28.238800
990.000000	28.225500
989.000000	28.225800
988.000000	28.213300
987.000000	28.161600
986.000000	28.066900
985.000000	28.039400
984.000000	27.997800
983.000000	27.981800
982.000000	27.986000
981.000000	27.928600
980.000000	27.823500
979.000000	27.787700
978.000000	27.800100
977.000000	27.743500
976.000000	27.655100
975.000000	27.634500
974.000000	27.587300
973.000000	27.571400
972.000000	27.510200
971.000000	27.473300
970.000000	27.397500
969.000000	27.375000
968.000000	27.300200
967.000000	27.205500
966.000000	27.180700
965.000000	27.160500
964.000000	27.093200
963.000000	27.011100
962.000000	26.941000
961.000000	26.907000
960.000000	26.904800
959.000000	26.820400
958.000000	26.730100
957.000000	26.636100
956.000000	26.606400
955.000000	26.527300
954.000000	26.507600
953.000000	26.424100
952.000000	26.346100
951.000000	26.261700
950.000000	26.223800
949.000000	26.203200
948.000000	26.088700
947.000000	25.974600
946.000000	25.855000
945.000000	25.826200
944.000000	25.726500
943.000000	25.651400
942.000000	25.664900
941.000000	25.538400
940.000000	25.415300
939.000000	25.266900
938.000000	25.226800
937.000000	25.102000
936.000000	25.003500
935.000000	24.895700
934.000000	24.797200
933.000000	24.819200
932.000000	24.721100
931.000000	24.579600
930.000000	24.568700
929.000000	24.447600
928.000000	24.396500
927.000000	24.287900
926.000000	24.140100
925.000000	24.056800
924.000000	23.911600
923.000000	23.868400
922.000000	23.768200
921.000000	23.605700
920.000000	23.471700
919.000000	23.342600
918.000000	23.205700
917.000000	23.057700
916.000000	23.041200
915.000000	22.905000
914.000000	22.666200
913.000000	22.554500
912.000000	22.405600
911.000000	22.376000
910.000000	22.243200
909.000000	22.119800
908.000000	21.967000
907.000000	21.815400
906.000000	21.684400
905.000000	21.556700
904.000000	21.379200
903.000000	21.274300
902.000000	21.124700
901.000000	20.979300
900.000000	20.847800
899.000000	20.687600
898.000000	20.548000
897.000000	20.420600
896.000000	20.263600
895.000000	20.144500
894.000000	19.991600
893.000000	19.750200
892.000000	19.608000
891.000000	19.487100
890.000000	19.340900
889.000000	19.188400
888.000000	19.053500
887.000000	18.937200
886.000000	18.747800
885.000000	18.535400
884.000000	18.395400
883.000000	18.271700
882.000000	18.164500
881.000000	18.001200
880.000000	17.809000
879.000000	17.649100
878.000000	17.526500
877.000000	17.341600
876.000000	17.221200
875.000000	17.107600
874.000000	16.972200
873.000000	16.796700
872.000000	16.642700
871.000000	16.473000
870.000000	16.383200
869.000000	16.270700
868.000000	16.104400
867.000000	15.993500
866.000000	15.850700
865.000000	15.748300
864.000000	15.643600
863.000000	15.527900
862.000000	15.425300
861.000000	15.366000
860.000000	15.314600
859.000000	15.245900
858.000000	16.124900
857.000000	15.462920
856.000000	15.462198
855.000000	15.559500
854.000000	15.468988
853.000000	15.385482
852.000000	15.381870
851.000000	15.413727
850.000000	15.416183
849.000000	15.364028
848.000000	15.300098
847.000000	15.241731
846.000000	15.177296
845.000000	15.255962
844.000000	15.218399
843.000000	15.139299
842.000000	15.132293
841.000000	15.138144
840.000000	15.085411
839.000000	15.075514
838.000000	14.999955
837.000000	14.969688
836.000000	14.940432
835.000000	14.924179
834.000000	14.886688
833.000000	14.885965
832.000000	14.857937
831.000000	14.858154
830.000000	14.773059
829.000000	14.700317
828.000000	14.676696
827.000000	14.627502
826.000000	14.550642
825.000000	14.557360
824.000000	14.538001
823.000000	14.498704
822.000000	14.477756
821.000000	14.406747
820.000000	14.388327
819.000000	14.347441
818.000000	14.297308
817.000000	14.258878
816.000000	14.211491
815.000000	14.192782
814.000000	14.185775
813.000000	14.135426
812.000000	14.053726
811.000000	14.030032
810.000000	13.985824
809.000000	13.968198
808.000000	13.946888
807.000000	13.923267
806.000000	13.866922
805.000000	13.848429
804.000000	13.798730
803.000000	13.747587
802.000000	13.758422
801.000000	13.704606
800.000000	13.645155
799.000000	13.627024
798.000000	13.564395
797.000000	13.523797
796.000000	13.500176
795.000000	13.468825
794.000000	13.409230
793.000000	13.376579
792.000000	13.328686
791.000000	13.301019
790.000000	13.271980
789.000000	13.232828
788.000000	13.184285
787.000000	13.142749
786.000000	13.102368
785.000000	13.059893
784.000000	13.025436
783.000000	12.979783
782.000000	12.968153
781.000000	12.925244
780.000000	12.862109
779.000000	12.846000
778.000000	12.820790
777.000000	12.779109
776.000000	12.739379
775.000000	12.696398
774.000000	12.650167
773.000000	12.612604
772.000000	12.575185
771.000000	12.538055
770.000000	12.498469
769.000000	12.461195
768.000000	12.420165
767.000000	12.379785
766.000000	12.341860
765.000000	12.287972
764.000000	12.246508
763.000000	12.204249
762.000000	12.167120
761.000000	12.123922
760.000000	12.100734
759.000000	12.072562
758.000000	12.011233
757.000000	11.968902
756.000000	11.933000
755.000000	11.893126
754.000000	11.860619
753.000000	11.818144
752.000000	11.765050
751.000000	11.715929
750.000000	11.653878
749.000000	11.605262
748.000000	11.566977
747.000000	11.526091
746.000000	11.501314
745.000000	11.464979
744.000000	11.416219
743.000000	11.372082
742.000000	11.328813
741.000000	11.273190
740.000000	11.238589
739.000000	11.205649
738.000000	11.159995
737.000000	11.132184
736.000000	11.099605
735.000000	11.052001
734.000000	11.002664
733.000000	10.972830
732.000000	10.924937
731.000000	10.877839
730.000000	10.850389
729.000000	10.810586
728.000000	10.762766
727.000000	10.725491
726.000000	10.690240
725.000000	10.658672
724.000000	10.623782
723.000000	10.586580
722.000000	10.548945
721.000000	10.510370
720.000000	10.484510
719.000000	10.459299
718.000000	10.409022
717.000000	10.372832
716.000000	10.348199
715.000000	10.310780
714.000000	10.258481
713.000000	10.228936
712.000000	10.200692
711.000000	10.160384
710.000000	10.119931
709.000000	10.092048
708.000000	10.050367
707.000000	10.018800
706.000000	9.996767
705.000000	9.967078
704.000000	9.939773
703.000000	9.898742
702.000000	9.858145
701.000000	9.832573
700.000000	9.803029
699.000000	9.764237
698.000000	9.724002
697.000000	9.696118
696.000000	9.660433
695.000000	9.633995
694.000000	9.580467
693.000000	9.552150
692.000000	9.539726
691.000000	9.493422
690.000000	9.456509
689.000000	9.430648
688.000000	9.411289
687.000000	9.372281
686.000000	9.342230
685.000000	9.317164
684.000000	9.284297
683.000000	9.250129
682.000000	9.223979
681.000000	9.190461
680.000000	9.163878
679.000000	9.139679
678.000000	9.101610
677.000000	9.057762
676.000000	9.035224
675.000000	9.017599
674.000000	8.988198
673.000000	8.958654
672.000000	8.915095
671.000000	8.892629
670.000000	8.858533
669.000000	8.830939
668.000000	8.795471
667.000000	8.760075
666.000000	8.733636
665.000000	8.702574
664.000000	8.672885
663.000000	8.643701
662.000000	8.609822
661.000000	8.588079
660.000000	8.558029
659.000000	8.521549
658.000000	8.481674
657.000000	8.453213
656.000000	8.433565
655.000000	8.399686
654.000000	8.364001
653.000000	8.341535
652.000000	8.305345
651.000000	8.273994
650.000000	8.250445
649.000000	8.211365
648.000000	8.187238
647.000000	8.151191
646.000000	8.112184
645.000000	8.088634
644.000000	8.072526
643.000000	8.037491
642.000000	7.999061
641.000000	7.974356
640.000000	7.945822
639.000000	7.919095
638.000000	7.888683
637.000000	7.862100
636.000000	7.824681
635.000000	7.808139
634.000000	7.775705
633.000000	7.747677
632.000000	7.713148
631.000000	7.691910
630.000000	7.663810
629.000000	7.636071
628.000000	7.604504
627.000000	7.575898
626.000000	7.549098
625.000000	7.523599
624.000000	7.494198
623.000000	7.474333
622.000000	7.435326
621.000000	7.403180
620.000000	7.378475
619.000000	7.356371
618.000000	7.332966
617.000000	7.305877
616.000000	7.271493
615.000000	7.251339
614.000000	7.221722
613.000000	7.199039
612.000000	7.172239
611.000000	7.142189
610.000000	7.123335
609.000000	7.092418
608.000000	7.062729
607.000000	7.042430
606.000000	7.001761
605.000000	6.981173
604.000000	6.964414
603.000000	6.929885
602.000000	6.907492
601.000000	6.888349
600.000000	6.858588
599.000000	6.818641
598.000000	6.800509
597.000000	6.775732
596.000000	6.753917
595.000000	6.728850
594.000000	6.703134
593.000000	6.667738
592.000000	6.650979
591.000000	6.622446
590.000000	6.587050
589.000000	6.560394
588.000000	6.533667
587.000000	6.502099
586.000000	6.473855
585.000000	6.449728
584.000000	6.410503
583.000000	6.380381
582.000000	6.352497
581.000000	6.312622
580.000000	6.276649
579.000000	6.251655
578.000000	6.214308
577.000000	6.188664
576.000000	6.149367
575.000000	6.118017
574.000000	6.082765
573.000000	6.046069
572.000000	6.012696
571.000000	5.978094
570.000000	5.942626
569.000000	5.910336
568.000000	5.872412
567.000000	5.840556
566.000000	5.806171
565.000000	5.772147
564.000000	5.732634
563.000000	5.693843
562.000000	5.658230
561.000000	5.623701
560.000000	5.596034
559.000000	5.584982
558.000000	5.548719
557.000000	5.519752
556.000000	5.485945
555.000000	5.460229
554.000000	5.425194
553.000000	5.396733
552.000000	5.359098
551.000000	5.337643
550.000000	5.296396
549.000000	5.275664
548.000000	5.240124
547.000000	5.213830
546.000000	5.183129
545.000000	5.161530
544.000000	5.133286
543.000000	5.104536
542.000000	5.074196
541.000000	5.048263
540.000000	5.023775
539.000000	4.995314
538.000000	4.969236
537.000000	4.942436
536.000000	4.920982
535.000000	4.891365
534.000000	4.865649
533.000000	4.842316
532.000000	4.818406
531.000000	4.787561
530.000000	4.759461
529.000000	4.733383
528.000000	4.706800
527.000000	4.676750
526.000000	4.651178
525.000000	4.625389
524.000000	4.595339
523.000000	4.569912
522.000000	4.546579
521.000000	4.518840
520.000000	4.495147
519.000000	4.468708
518.000000	4.441258
517.000000	4.412580
516.000000	4.383974
515.000000	4.364904
514.000000	4.337093
513.000000	4.311015
512.000000	4.284432
511.000000	4.259655
510.000000	4.238273
509.000000	4.212340
508.000000	4.187346
507.000000	4.161991
506.000000	4.136419
505.000000	4.110269
504.000000	4.086215
503.000000	4.065772
502.000000	4.040778
501.000000	4.016289
500.000000	3.988189
499.000000	3.972442
498.000000	3.952938
497.000000	3.927872
496.000000	3.904828
495.000000	3.883013
494.000000	3.865893
493.000000	3.844799
492.000000	3.819661
491.000000	3.799724
490.000000	3.774007
489.000000	3.751759
488.000000	3.734494
487.000000	3.712678
486.000000	3.688335
485.000000	3.666591
484.000000	3.644126
483.000000	3.625128
482.000000	3.602879
481.000000	3.572684
480.000000	3.541116
479.000000	3.514967
478.000000	3.498280
477.000000	3.482027
476.000000	3.465557
475.000000	3.444969
474.000000	3.424671
473.000000	3.410657
472.000000	3.396498
471.000000	3.372732
470.000000	3.356335
469.000000	3.343043
468.000000	3.327223
467.000000	3.308803
466.000000	3.292694
465.000000	3.277813
464.000000	3.263005
463.000000	3.248485
462.000000	3.232954
461.000000	3.217857
460.000000	3.204060
459.000000	3.186867
458.000000	3.171553
457.000000	3.159490
456.000000	3.150460
455.000000	3.138541
454.000000	3.119254
453.000000	3.103289
452.000000	3.090865
451.000000	3.079740
450.000000	3.073022
449.000000	3.057997
448.000000	3.038349
447.000000	3.030836
446.000000	3.022240
445.000000	3.004831
444.000000	2.993490
443.000000	2.985038
442.000000	2.968568
441.000000	2.952170
440.000000	2.934978
439.000000	2.922264
438.000000	2.914752
437.000000	2.906155
436.000000	2.890986
435.000000	2.875455
434.000000	2.867437
433.000000	2.854434
432.000000	2.840059
431.000000	2.827779
430.000000	2.811381
429.000000	2.801051
428.000000	2.789204
427.000000	2.777068
426.000000	2.768111
425.000000	2.756192
424.000000	2.744634
423.000000	2.729103
422.000000	2.714078
421.000000	2.703604
420.000000	2.686339
419.000000	2.679043
418.000000	2.670375
417.000000	2.652821
416.000000	2.640180
415.000000	2.627755
414.000000	2.615330
413.000000	2.601389
412.000000	2.587014
411.000000	2.572711
410.000000	2.562959
409.000000	2.544466
408.000000	2.529441
407.000000	2.513404
406.000000	2.501774
405.000000	2.491083
404.000000	2.471579
403.000000	2.454026
402.000000	2.431849
401.000000	2.415957
400.000000	2.400065
399.000000	2.388435
398.000000	2.374927
397.000000	2.350944
396.000000	2.328912
395.000000	2.315981
394.000000	2.296911
393.000000	2.274807
392.000000	2.262960
391.000000	2.244901
390.000000	2.229442
389.000000	2.203364
388.000000	2.183210
387.000000	2.166740
386.000000	2.151860
385.000000	2.127877
384.000000	2.112852
383.000000	2.092770
382.000000	2.075216
381.000000	2.051884
380.000000	2.024651
379.000000	2.007025
378.000000	2.004497
377.000000	1.980514
376.000000	1.996045
375.000000	1.994817
374.000000	1.961660
373.000000	1.961733
372.000000	1.953642
371.000000	1.908711
370.000000	1.890363
369.000000	1.891952
368.000000	1.865008
367.000000	1.808735
366.000000	1.822821
365.000000	1.813864
364.000000	1.784825
363.000000	1.767488
362.000000	1.751957
361.000000	1.767055
360.000000	1.705798
359.000000	1.702114
358.000000	1.702331
357.000000	1.710493
356.000000	1.688100
355.000000	1.691567
354.000000	1.642735
353.000000	1.628505
352.000000	1.595203
351.000000	1.624243
350.000000	1.608278
349.000000	1.600332
348.000000	1.562552
347.000000	1.567754
346.000000	1.586968
345.000000	1.595420
344.000000	1.539292
343.000000	1.502090
342.000000	1.527734
341.000000	1.512709
340.000000	1.507508
339.000000	1.513793
338.000000	1.507942
337.000000	1.474063
336.000000	1.478830
335.000000	1.451741
334.000000	1.469584
333.000000	1.466405
332.000000	1.439822
331.000000	1.430215
330.000000	1.437077
329.000000	1.413022
328.000000	1.420680
327.000000	1.394819
326.000000	1.371486
325.000000	1.399875
324.000000	1.423497
323.000000	1.362890
322.000000	1.325905
321.000000	1.374159
320.000000	1.418296
319.000000	1.341797
318.000000	1.399153
317.000000	1.281407
316.000000	1.320993
315.000000	1.337824
314.000000	1.320632
313.000000	1.320848
312.000000	1.314347
311.000000	1.286536
310.000000	1.309363
309.000000	1.321210
308.000000	1.309724
307.000000	1.296143
306.000000	1.315214
305.000000	1.283574
304.000000	1.308207
303.000000	1.282635
302.000000	1.287620
301.000000	1.274328
300.000000	1.264432
299.000000	1.267682
298.000000	1.259881
297.000000	1.259592
296.000000	1.266815
295.000000	1.256774
294.000000	1.238860
293.000000	1.231853
292.000000	1.217333
291.000000	1.206714
290.000000	1.241460
289.000000	1.212204
288.000000	1.208882
287.000000	1.215888
286.000000	1.217911
285.000000	1.206498
284.000000	1.191256
283.000000	1.188944
282.000000	1.203897
281.000000	1.203608
280.000000	1.201802
279.000000	1.219573
278.000000	1.205053
277.000000	1.216683
276.000000	1.223690
275.000000	1.215961
274.000000	1.217983
273.000000	1.225857
272.000000	1.224196
271.000000	1.226146
270.000000	1.219573
269.000000	1.226435
268.000000	1.254824
267.000000	1.249406
266.000000	1.249190
265.000000	1.229469
264.000000	1.251935
263.000000	1.249984
262.000000	1.246083
261.000000	1.253957
260.000000	1.245361
259.000000	1.262337
258.000000	1.255474
257.000000	1.259808
256.000000	1.251790
255.000000	1.252224
254.000000	1.263059
253.000000	1.246445
252.000000	1.245361
251.000000	1.245217
250.000000	1.224268
