PE UV       SUBTECH     SPECTRUM    ASCII       PEDS        4.00        
   -1
CICIMAUCR0009-3.Sample.ASC
24/04/17
14:06:27.00
24/04/17
14:06:27.00
Vinicio Soto Monge
C. kalinini
250,000000
1
Lambda 1050
1050L1511233
PerkinElmer UV WinLab 6.3.2.0749 / 2.02.05 Lambda 900 UV/VIS/NIR, Aug  7 2015 09:38:08

0
0
3350/servo 860,8/2
0
0
UV/VIS
1
1
1
DoubleDePol,CommonBeamDepol,RBeamAtt,SBeamAtt,60mm sphere, WB InGaAs Detector
0
0
0
0
Program
Program
3350/servo 860,8/2
3350/0,2 860,8/0,2
3350/0,2 860,8/0,2
0
15.00
 
 
 
0
 
860,8
319,2
860,8
Front
100
on
S:100 R:100
0
0
0
0
 
0
 
 
 
0
 
 
0
0
0
0
0
 
 
 
 
0
0


0
0
#HDR
-1
-1
#GR
nm
%R
1.0
0.0
2500,000000
-1,000000
2251
8
78,444600
4,431300
#DATA
2500.000000	10.577661
2499.000000	10.544091
2498.000000	10.502512
2497.000000	10.449744
2496.000000	10.441625
2495.000000	10.469930
2494.000000	10.328079
2493.000000	10.259184
2492.000000	10.275750
2491.000000	10.210365
2490.000000	10.175149
2489.000000	10.217934
2488.000000	10.167579
2487.000000	10.187765
2486.000000	10.160229
2485.000000	10.151672
2484.000000	10.123697
2483.000000	10.150246
2482.000000	10.178659
2481.000000	10.116456
2480.000000	10.097038
2479.000000	10.165934
2478.000000	10.134558
2477.000000	10.132802
2476.000000	10.120296
2475.000000	10.113933
2474.000000	10.159351
2473.000000	10.142566
2472.000000	10.148710
2471.000000	10.144760
2470.000000	10.184474
2469.000000	10.132802
2468.000000	10.165056
2467.000000	10.163959
2466.000000	10.214533
2465.000000	10.252821
2464.000000	10.288805
2463.000000	10.341464
2462.000000	10.364283
2461.000000	10.411017
2460.000000	10.455668
2459.000000	10.546505
2458.000000	10.608269
2457.000000	10.694389
2456.000000	10.774803
2455.000000	10.858729
2454.000000	10.968545
2453.000000	11.073095
2452.000000	11.139796
2451.000000	11.241055
2450.000000	11.322786
2449.000000	11.448620
2448.000000	11.536933
2447.000000	11.661340
2446.000000	11.763367
2445.000000	11.838845
2444.000000	11.944821
2443.000000	12.030173
2442.000000	12.131980
2441.000000	12.217002
2440.000000	12.338996
2439.000000	12.408769
2438.000000	12.495766
2437.000000	12.587481
2436.000000	12.671186
2435.000000	12.755002
2434.000000	12.830151
2433.000000	12.910346
2432.000000	12.972879
2431.000000	13.017090
2430.000000	13.101564
2429.000000	13.156527
2428.000000	13.206224
2427.000000	13.270293
2426.000000	13.308580
2425.000000	13.375830
2424.000000	13.399088
2423.000000	13.449662
2422.000000	13.495849
2421.000000	13.531393
2420.000000	13.573960
2419.000000	13.606871
2418.000000	13.653497
2417.000000	13.714054
2416.000000	13.740603
2415.000000	13.787667
2414.000000	13.813339
2413.000000	13.867972
2412.000000	13.917011
2411.000000	13.956725
2410.000000	13.976362
2409.000000	14.000607
2408.000000	14.040979
2407.000000	14.085081
2406.000000	14.129293
2405.000000	14.157487
2404.000000	14.187876
2403.000000	14.223201
2402.000000	14.267632
2401.000000	14.295278
2400.000000	14.321169
2399.000000	14.356165
2398.000000	14.403778
2397.000000	14.451829
2396.000000	14.510522
2395.000000	14.530598
2394.000000	14.556818
2393.000000	14.602675
2392.000000	14.641182
2391.000000	14.650069
2390.000000	14.669925
2389.000000	14.694609
2388.000000	14.722804
2387.000000	14.727411
2386.000000	14.736737
2385.000000	14.740905
2384.000000	14.736407
2383.000000	14.742112
2382.000000	14.741015
2381.000000	14.710188
2380.000000	14.697023
2379.000000	14.685065
2378.000000	14.656761
2377.000000	14.642718
2376.000000	14.629883
2375.000000	14.609368
2374.000000	14.567350
2373.000000	14.513155
2372.000000	14.478378
2371.000000	14.458960
2370.000000	14.414858
2369.000000	14.368891
2368.000000	14.314258
2367.000000	14.241632
2366.000000	14.166483
2365.000000	14.103951
2364.000000	14.037030
2363.000000	13.948497
2362.000000	13.873238
2361.000000	13.797870
2360.000000	13.710873
2359.000000	13.637260
2358.000000	13.559807
2357.000000	13.490034
2356.000000	13.440666
2355.000000	13.394590
2354.000000	13.381644
2353.000000	13.371661
2352.000000	13.360142
2351.000000	13.364421
2350.000000	13.394261
2349.000000	13.445932
2348.000000	13.496397
2347.000000	13.552128
2346.000000	13.613893
2345.000000	13.662602
2344.000000	13.718443
2343.000000	13.790520
2342.000000	13.838023
2341.000000	13.882344
2340.000000	13.920302
2339.000000	13.939830
2338.000000	13.980750
2337.000000	13.980970
2336.000000	13.956067
2335.000000	13.953543
2334.000000	13.949594
2333.000000	13.923374
2332.000000	13.853162
2331.000000	13.796224
2330.000000	13.744114
2329.000000	13.690029
2328.000000	13.620585
2327.000000	13.529199
2326.000000	13.433097
2325.000000	13.336226
2324.000000	13.228056
2323.000000	13.106501
2322.000000	12.969039
2321.000000	12.845071
2320.000000	12.705195
2319.000000	12.551607
2318.000000	12.391216
2317.000000	12.227534
2316.000000	12.074165
2315.000000	11.900280
2314.000000	11.735940
2313.000000	11.605938
2312.000000	11.472426
2311.000000	11.349884
2310.000000	11.244127
2309.000000	11.135408
2308.000000	11.090648
2307.000000	11.065306
2306.000000	11.057736
2305.000000	11.073753
2304.000000	11.120159
2303.000000	11.174683
2302.000000	11.254001
2301.000000	11.371496
2300.000000	11.503363
2299.000000	11.608571
2298.000000	11.723214
2297.000000	11.868246
2296.000000	12.001868
2295.000000	12.109271
2294.000000	12.215137
2293.000000	12.296101
2292.000000	12.368287
2291.000000	12.443107
2290.000000	12.463512
2289.000000	12.489513
2288.000000	12.485893
2287.000000	12.479200
2286.000000	12.437622
2285.000000	12.417436
2284.000000	12.381562
2283.000000	12.324076
2282.000000	12.249256
2281.000000	12.196487
2280.000000	12.146461
2279.000000	12.072629
2278.000000	12.030611
2277.000000	11.968956
2276.000000	11.912787
2275.000000	11.872525
2274.000000	11.847402
2273.000000	11.821292
2272.000000	11.817452
2271.000000	11.820853
2270.000000	11.874828
2269.000000	11.932205
2268.000000	12.039717
2267.000000	12.132748
2266.000000	12.282716
2265.000000	12.442888
2264.000000	12.649245
2263.000000	12.868219
2262.000000	13.122079
2261.000000	13.411704
2260.000000	13.697818
2259.000000	14.015966
2258.000000	14.344317
2257.000000	14.708761
2256.000000	15.010783
2255.000000	15.365792
2254.000000	15.689536
2253.000000	16.021397
2252.000000	16.347444
2251.000000	16.618858
2250.000000	16.884895
2249.000000	17.136781
2248.000000	17.392397
2247.000000	17.628594
2246.000000	17.862817
2245.000000	18.034617
2244.000000	18.203675
2243.000000	18.384690
2242.000000	18.552321
2241.000000	18.697463
2240.000000	18.820444
2239.000000	18.927736
2238.000000	19.090760
2237.000000	19.145613
2236.000000	19.247640
2235.000000	19.323337
2234.000000	19.362283
2233.000000	19.462884
2232.000000	19.475939
2231.000000	19.545712
2230.000000	19.559425
2229.000000	19.589704
2228.000000	19.582793
2227.000000	19.623164
2226.000000	19.611206
2225.000000	19.568750
2224.000000	19.554817
2223.000000	19.553940
2222.000000	19.526733
2221.000000	19.480766
2220.000000	19.453120
2219.000000	19.411870
2218.000000	19.347692
2217.000000	19.304468
2216.000000	19.257623
2215.000000	19.246982
2214.000000	19.184778
2213.000000	19.155377
2212.000000	19.124878
2211.000000	19.062236
2210.000000	19.011771
2209.000000	19.003543
2208.000000	18.942766
2207.000000	18.922141
2206.000000	18.886926
2205.000000	18.875955
2204.000000	18.844250
2203.000000	18.835254
2202.000000	18.810241
2201.000000	18.795650
2200.000000	18.787532
2199.000000	18.751877
2198.000000	18.736738
2197.000000	18.719514
2196.000000	18.707117
2195.000000	18.693075
2194.000000	18.667952
2193.000000	18.662357
2192.000000	18.663564
2191.000000	18.649631
2190.000000	18.629884
2189.000000	18.624289
2188.000000	18.587318
2187.000000	18.576566
2186.000000	18.552541
2185.000000	18.537072
2184.000000	18.527747
2183.000000	18.498894
2182.000000	18.483426
2181.000000	18.457206
2180.000000	18.434168
2179.000000	18.408716
2178.000000	18.406083
2177.000000	18.376462
2176.000000	18.364285
2175.000000	18.371196
2174.000000	18.359677
2173.000000	18.364175
2172.000000	18.369222
2171.000000	18.392479
2170.000000	18.391931
2169.000000	18.407728
2168.000000	18.414311
2167.000000	18.445467
2166.000000	18.461704
2165.000000	18.465544
2164.000000	18.481122
2163.000000	18.516557
2162.000000	18.554625
2161.000000	18.594558
2160.000000	18.621217
2159.000000	18.652483
2158.000000	18.710079
2157.000000	18.766249
2156.000000	18.817043
2155.000000	18.869043
2154.000000	18.915998
2153.000000	18.995425
2152.000000	19.048962
2151.000000	19.099865
2150.000000	19.189934
2149.000000	19.248737
2148.000000	19.303151
2147.000000	19.379287
2146.000000	19.437651
2145.000000	19.490968
2144.000000	19.554927
2143.000000	19.601881
2142.000000	19.646751
2141.000000	19.704347
2140.000000	19.763918
2139.000000	19.809885
2138.000000	19.855522
2137.000000	19.908511
2136.000000	19.949321
2135.000000	20.000554
2134.000000	20.051677
2133.000000	20.070327
2132.000000	20.107957
2131.000000	20.138674
2130.000000	20.162042
2129.000000	20.179704
2128.000000	20.211190
2127.000000	20.230499
2126.000000	20.248271
2125.000000	20.251672
2124.000000	20.259900
2123.000000	20.270870
2122.000000	20.272297
2121.000000	20.262862
2120.000000	20.247174
2119.000000	20.250794
2118.000000	20.244321
2117.000000	20.218979
2116.000000	20.216785
2115.000000	20.199890
2114.000000	20.169502
2113.000000	20.150523
2112.000000	20.131543
2111.000000	20.116404
2110.000000	20.091281
2109.000000	20.066488
2108.000000	20.056065
2107.000000	20.029626
2106.000000	19.997592
2105.000000	19.969068
2104.000000	19.936376
2103.000000	19.920139
2102.000000	19.883497
2101.000000	19.856181
2100.000000	19.838847
2099.000000	19.823269
2098.000000	19.804838
2097.000000	19.778070
2096.000000	19.766441
2095.000000	19.734955
2094.000000	19.720474
2093.000000	19.710162
2092.000000	19.687672
2091.000000	19.685587
2090.000000	19.681967
2089.000000	19.671106
2088.000000	19.643241
2087.000000	19.627224
2086.000000	19.607586
2085.000000	19.594312
2084.000000	19.586084
2083.000000	19.565240
2082.000000	19.536496
2081.000000	19.503365
2080.000000	19.483179
2079.000000	19.447964
2078.000000	19.425583
2077.000000	19.405397
2076.000000	19.353726
2075.000000	19.313025
2074.000000	19.271227
2073.000000	19.211656
2072.000000	19.160204
2071.000000	19.124111
2070.000000	19.067831
2069.000000	19.025814
2068.000000	18.974471
2067.000000	18.944521
2066.000000	18.903381
2065.000000	18.829769
2064.000000	18.794114
2063.000000	18.764822
2062.000000	18.712931
2061.000000	18.682982
2060.000000	18.677057
2059.000000	18.667074
2058.000000	18.663783
2057.000000	18.679910
2056.000000	18.682433
2055.000000	18.731033
2054.000000	18.801355
2053.000000	18.839752
2052.000000	18.928395
2051.000000	19.021316
2050.000000	19.124111
2049.000000	19.244458
2048.000000	19.366232
2047.000000	19.528488
2046.000000	19.696777
2045.000000	19.839505
2044.000000	20.048496
2043.000000	20.220735
2042.000000	20.384526
2041.000000	20.565651
2040.000000	20.748532
2039.000000	20.926804
2038.000000	21.073701
2037.000000	21.223231
2036.000000	21.377807
2035.000000	21.533041
2034.000000	21.697710
2033.000000	21.840219
2032.000000	21.970440
2031.000000	22.086071
2030.000000	22.200165
2029.000000	22.312834
2028.000000	22.430110
2027.000000	22.548263
2026.000000	22.657421
2025.000000	22.744857
2024.000000	22.835913
2023.000000	22.904151
2022.000000	23.010785
2021.000000	23.075073
2020.000000	23.164374
2019.000000	23.226358
2018.000000	23.311819
2017.000000	23.386529
2016.000000	23.459594
2015.000000	23.512691
2014.000000	23.563156
2013.000000	23.604406
2012.000000	23.649605
2011.000000	23.670449
2010.000000	23.699521
2009.000000	23.728922
2008.000000	23.735724
2007.000000	23.744940
2006.000000	23.763590
2005.000000	23.758763
2004.000000	23.756239
2003.000000	23.760518
2002.000000	23.718062
2001.000000	23.682846
2000.000000	23.663647
1999.000000	23.655858
1998.000000	23.616912
1997.000000	23.579173
1996.000000	23.514008
1995.000000	23.476488
1994.000000	23.422513
1993.000000	23.378191
1992.000000	23.314123
1991.000000	23.219776
1990.000000	23.165910
1989.000000	23.100635
1988.000000	23.010566
1987.000000	22.926969
1986.000000	22.848091
1985.000000	22.770089
1984.000000	22.672890
1983.000000	22.615952
1982.000000	22.515461
1981.000000	22.407181
1980.000000	22.342893
1979.000000	22.255896
1978.000000	22.156283
1977.000000	22.062155
1976.000000	21.971976
1975.000000	21.885747
1974.000000	21.789206
1973.000000	21.709010
1972.000000	21.639786
1971.000000	21.534577
1970.000000	21.457454
1969.000000	21.366836
1968.000000	21.300025
1967.000000	21.210615
1966.000000	21.119119
1965.000000	21.044848
1964.000000	20.977708
1963.000000	20.874584
1962.000000	20.799435
1961.000000	20.714742
1960.000000	20.651990
1959.000000	20.570259
1958.000000	20.457042
1957.000000	20.384416
1956.000000	20.321006
1955.000000	20.225671
1954.000000	20.140101
1953.000000	20.072521
1952.000000	19.989913
1951.000000	19.895017
1950.000000	19.841590
1949.000000	19.771049
1948.000000	19.729470
1947.000000	19.648068
1946.000000	19.589814
1945.000000	19.547028
1944.000000	19.484167
1943.000000	19.455424
1942.000000	19.452352
1941.000000	19.420537
1940.000000	19.394756
1939.000000	19.412858
1938.000000	19.425474
1937.000000	19.432276
1936.000000	19.445769
1935.000000	19.479998
1934.000000	19.525745
1933.000000	19.612304
1932.000000	19.654102
1931.000000	19.750972
1930.000000	19.831058
1929.000000	19.927929
1928.000000	20.052006
1927.000000	20.176084
1926.000000	20.310365
1925.000000	20.465380
1924.000000	20.599550
1923.000000	20.745350
1922.000000	20.916821
1921.000000	21.143474
1920.000000	21.363545
1919.000000	21.572645
1918.000000	21.774615
1917.000000	22.004998
1916.000000	22.206748
1915.000000	22.426051
1914.000000	22.722367
1913.000000	23.026144
1912.000000	23.332992
1911.000000	23.599359
1910.000000	23.873077
1909.000000	24.095012
1908.000000	24.351067
1907.000000	24.632025
1906.000000	24.991313
1905.000000	25.387791
1904.000000	25.747299
1903.000000	26.064789
1902.000000	26.373941
1901.000000	26.705254
1900.000000	27.063445
1899.000000	27.445991
1898.000000	27.780595
1897.000000	28.143613
1896.000000	28.437187
1895.000000	28.692693
1894.000000	28.990546
1893.000000	29.295968
1892.000000	29.666995
1891.000000	30.061499
1890.000000	30.394128
1889.000000	30.692200
1888.000000	31.019235
1887.000000	31.327729
1886.000000	31.678569
1885.000000	32.082069
1884.000000	32.524295
1883.000000	32.974749
1882.000000	33.420486
1881.000000	33.825960
1880.000000	34.268735
1879.000000	34.651281
1878.000000	35.045456
1877.000000	35.433487
1876.000000	35.783011
1875.000000	36.125733
1874.000000	36.436202
1873.000000	36.731202
1872.000000	36.989451
1871.000000	37.228172
1870.000000	37.427947
1869.000000	37.593384
1868.000000	37.744340
1867.000000	37.828704
1866.000000	37.851413
1865.000000	37.869186
1864.000000	37.896942
1863.000000	37.905828
1862.000000	37.949271
1861.000000	37.997542
1860.000000	38.038353
1859.000000	38.076970
1858.000000	38.104616
1857.000000	38.074008
1856.000000	38.017948
1855.000000	37.988656
1854.000000	37.981196
1853.000000	37.913836
1852.000000	37.850426
1851.000000	37.801387
1850.000000	37.732492
1849.000000	37.691571
1848.000000	37.691242
1847.000000	37.675335
1846.000000	37.577257
1845.000000	37.475889
1844.000000	37.384503
1843.000000	37.319557
1842.000000	37.318460
1841.000000	37.333929
1840.000000	37.324823
1839.000000	37.270189
1838.000000	37.209193
1837.000000	37.149732
1836.000000	37.106617
1835.000000	37.042000
1834.000000	36.942387
1833.000000	36.828183
1832.000000	36.725717
1831.000000	36.652653
1830.000000	36.601639
1829.000000	36.541081
1828.000000	36.443333
1827.000000	36.362370
1826.000000	36.297753
1825.000000	36.228089
1824.000000	36.177405
1823.000000	36.112349
1822.000000	36.105218
1821.000000	36.135278
1820.000000	36.133303
1819.000000	36.113995
1818.000000	36.066163
1817.000000	36.013175
1816.000000	36.008019
1815.000000	35.996938
1814.000000	35.986736
1813.000000	35.987284
1812.000000	35.962820
1811.000000	35.938245
1810.000000	35.893046
1809.000000	35.843569
1808.000000	35.800125
1807.000000	35.772589
1806.000000	35.739567
1805.000000	35.668368
1804.000000	35.621085
1803.000000	35.598595
1802.000000	35.554822
1801.000000	35.515108
1800.000000	35.453453
1799.000000	35.387300
1798.000000	35.351975
1797.000000	35.311713
1796.000000	35.255433
1795.000000	35.210125
1794.000000	35.167339
1793.000000	35.118410
1792.000000	35.067397
1791.000000	35.014518
1790.000000	34.956923
1789.000000	34.910956
1788.000000	34.847984
1787.000000	34.790937
1786.000000	34.734767
1785.000000	34.684961
1784.000000	34.604985
1783.000000	34.522266
1782.000000	34.451067
1781.000000	34.391387
1780.000000	34.307352
1779.000000	34.219806
1778.000000	34.142353
1777.000000	34.053930
1776.000000	33.927000
1775.000000	33.811150
1774.000000	33.680600
1773.000000	33.554986
1772.000000	33.415110
1771.000000	33.269969
1770.000000	33.147756
1769.000000	33.033332
1768.000000	32.915727
1767.000000	32.822367
1766.000000	32.705420
1765.000000	32.638390
1764.000000	32.590668
1763.000000	32.570591
1762.000000	32.574431
1761.000000	32.625554
1760.000000	32.668669
1759.000000	32.727362
1758.000000	32.792417
1757.000000	32.868225
1756.000000	32.925930
1755.000000	32.955331
1754.000000	32.975737
1753.000000	32.969483
1752.000000	32.964437
1751.000000	32.928563
1750.000000	32.875246
1749.000000	32.813810
1748.000000	32.723522
1747.000000	32.636196
1746.000000	32.529781
1745.000000	32.371913
1744.000000	32.211742
1743.000000	32.018878
1742.000000	31.817458
1741.000000	31.569631
1740.000000	31.309847
1739.000000	31.071016
1738.000000	30.846996
1737.000000	30.660824
1736.000000	30.503176
1735.000000	30.380634
1734.000000	30.338836
1733.000000	30.322051
1732.000000	30.361875
1731.000000	30.416508
1730.000000	30.539489
1729.000000	30.623743
1728.000000	30.757695
1727.000000	30.857418
1726.000000	30.952314
1725.000000	31.023623
1724.000000	31.075624
1723.000000	31.123565
1722.000000	31.151540
1721.000000	31.183794
1720.000000	31.212647
1719.000000	31.278361
1718.000000	31.336176
1717.000000	31.394650
1716.000000	31.485925
1715.000000	31.581041
1714.000000	31.689101
1713.000000	31.766773
1712.000000	31.804622
1711.000000	31.846640
1710.000000	31.898860
1709.000000	31.917510
1708.000000	31.936160
1707.000000	31.921130
1706.000000	31.906759
1705.000000	31.870556
1704.000000	31.791896
1703.000000	31.733094
1702.000000	31.631944
1701.000000	31.481537
1700.000000	31.334311
1699.000000	31.171617
1698.000000	31.010897
1697.000000	30.874313
1696.000000	30.805307
1695.000000	30.783366
1694.000000	30.822422
1693.000000	30.890659
1692.000000	31.040847
1691.000000	31.205077
1690.000000	31.328716
1689.000000	31.446321
1688.000000	31.541327
1687.000000	31.555479
1686.000000	31.582686
1685.000000	31.610661
1684.000000	31.724098
1683.000000	31.918168
1682.000000	32.243557
1681.000000	32.677006
1680.000000	33.204803
1679.000000	33.803142
1678.000000	34.320407
1677.000000	34.855225
1676.000000	35.305240
1675.000000	35.712580
1674.000000	36.059361
1673.000000	36.371476
1672.000000	36.642889
1671.000000	36.886985
1670.000000	37.093233
1669.000000	37.288401
1668.000000	37.443635
1667.000000	37.627942
1666.000000	37.752239
1665.000000	37.851084
1664.000000	37.953111
1663.000000	38.036488
1662.000000	38.121730
1661.000000	38.227706
1660.000000	38.279378
1659.000000	38.311302
1658.000000	38.336754
1657.000000	38.377345
1656.000000	38.400932
1655.000000	38.418814
1654.000000	38.440756
1653.000000	38.423312
1652.000000	38.414536
1651.000000	38.404882
1650.000000	38.394350
1649.000000	38.375261
1648.000000	38.337851
1647.000000	38.284095
1646.000000	38.263141
1645.000000	38.226499
1644.000000	38.158810
1643.000000	38.133359
1642.000000	38.074117
1641.000000	38.022007
1640.000000	37.987340
1639.000000	37.925904
1638.000000	37.878950
1637.000000	37.817295
1636.000000	37.756847
1635.000000	37.713842
1634.000000	37.631233
1633.000000	37.576380
1632.000000	37.506607
1631.000000	37.436614
1630.000000	37.351811
1629.000000	37.293228
1628.000000	37.236290
1627.000000	37.173867
1626.000000	37.081385
1625.000000	37.012599
1624.000000	36.936134
1623.000000	36.875027
1622.000000	36.815457
1621.000000	36.740089
1620.000000	36.662307
1619.000000	36.602188
1618.000000	36.535816
1617.000000	36.464177
1616.000000	36.407569
1615.000000	36.356446
1614.000000	36.295998
1613.000000	36.207245
1612.000000	36.142080
1611.000000	36.084264
1610.000000	36.030289
1609.000000	35.961174
1608.000000	35.905224
1607.000000	35.835560
1606.000000	35.765239
1605.000000	35.703035
1604.000000	35.633591
1603.000000	35.580164
1602.000000	35.528163
1601.000000	35.454770
1600.000000	35.377427
1599.000000	35.320380
1598.000000	35.273206
1597.000000	35.203981
1596.000000	35.138596
1595.000000	35.081988
1594.000000	35.041506
1593.000000	35.004096
1592.000000	34.955716
1591.000000	34.902728
1590.000000	34.856212
1589.000000	34.821435
1588.000000	34.788853
1587.000000	34.740692
1586.000000	34.702843
1585.000000	34.671467
1584.000000	34.637129
1583.000000	34.613652
1582.000000	34.586335
1581.000000	34.575035
1580.000000	34.554959
1579.000000	34.534883
1578.000000	34.533895
1577.000000	34.527971
1576.000000	34.526325
1575.000000	34.543659
1574.000000	34.553971
1573.000000	34.554301
1572.000000	34.570537
1571.000000	34.584031
1570.000000	34.600158
1569.000000	34.638665
1568.000000	34.651720
1567.000000	34.673551
1566.000000	34.722590
1565.000000	34.752320
1564.000000	34.779308
1563.000000	34.818144
1562.000000	34.850178
1561.000000	34.865428
1560.000000	34.871681
1559.000000	34.876398
1558.000000	34.897352
1557.000000	34.912272
1556.000000	34.906677
1555.000000	34.911065
1554.000000	34.908871
1553.000000	34.906129
1552.000000	34.898230
1551.000000	34.877166
1550.000000	34.858516
1549.000000	34.847545
1548.000000	34.833174
1547.000000	34.816828
1546.000000	34.798507
1545.000000	34.778650
1544.000000	34.780076
1543.000000	34.773384
1542.000000	34.773603
1541.000000	34.764498
1540.000000	34.760658
1539.000000	34.764278
1538.000000	34.775907
1537.000000	34.777772
1536.000000	34.773603
1535.000000	34.765485
1534.000000	34.747713
1533.000000	34.728624
1532.000000	34.733670
1531.000000	34.721054
1530.000000	34.712826
1529.000000	34.697687
1528.000000	34.676623
1527.000000	34.661484
1526.000000	34.635593
1525.000000	34.619356
1524.000000	34.589845
1523.000000	34.586444
1522.000000	34.566917
1521.000000	34.541904
1520.000000	34.510967
1519.000000	34.490890
1518.000000	34.463903
1517.000000	34.423202
1516.000000	34.405210
1515.000000	34.378222
1514.000000	34.351015
1513.000000	34.324466
1512.000000	34.283216
1511.000000	34.248769
1510.000000	34.220245
1509.000000	34.209274
1508.000000	34.182396
1507.000000	34.118876
1506.000000	34.112404
1505.000000	34.082563
1504.000000	34.058538
1503.000000	34.031331
1502.000000	34.013887
1501.000000	33.996993
1500.000000	33.973077
1499.000000	33.976148
1498.000000	33.963203
1497.000000	33.949380
1496.000000	33.962545
1495.000000	33.971321
1494.000000	33.969456
1493.000000	33.976368
1492.000000	33.994469
1491.000000	34.004672
1490.000000	34.038023
1489.000000	34.049103
1488.000000	34.083880
1487.000000	34.095509
1486.000000	34.100446
1485.000000	34.122497
1484.000000	34.154970
1483.000000	34.185687
1482.000000	34.222220
1481.000000	34.263359
1480.000000	34.293967
1479.000000	34.320078
1478.000000	34.358914
1477.000000	34.408062
1476.000000	34.450080
1475.000000	34.501203
1474.000000	34.548157
1473.000000	34.609593
1472.000000	34.652926
1471.000000	34.725991
1470.000000	34.763510
1469.000000	34.798726
1468.000000	34.842280
1467.000000	34.908542
1466.000000	34.954399
1465.000000	35.029329
1464.000000	35.081110
1463.000000	35.144082
1462.000000	35.216707
1461.000000	35.297012
1460.000000	35.373587
1459.000000	35.423503
1458.000000	35.536282
1457.000000	35.626131
1456.000000	35.722343
1455.000000	35.827113
1454.000000	35.930895
1453.000000	36.042576
1452.000000	36.161937
1451.000000	36.275263
1450.000000	36.388699
1449.000000	36.482279
1448.000000	36.550845
1447.000000	36.698729
1446.000000	36.833888
1445.000000	36.970143
1444.000000	37.085554
1443.000000	37.174745
1442.000000	37.342267
1441.000000	37.461517
1440.000000	37.591739
1439.000000	37.725909
1438.000000	37.847354
1437.000000	37.967592
1436.000000	38.106700
1435.000000	38.201047
1434.000000	38.375480
1433.000000	38.511626
1432.000000	38.657426
1431.000000	38.790938
1430.000000	38.901303
1429.000000	39.088791
1428.000000	39.277156
1427.000000	39.431513
1426.000000	39.624377
1425.000000	39.834355
1424.000000	40.087666
1423.000000	40.286783
1422.000000	40.493360
1421.000000	40.715954
1420.000000	40.960599
1419.000000	41.222468
1418.000000	41.414893
1417.000000	41.617630
1416.000000	41.809616
1415.000000	42.014438
1414.000000	42.304392
1413.000000	42.510420
1412.000000	42.682330
1411.000000	42.890223
1410.000000	43.140134
1409.000000	43.522900
1408.000000	43.801554
1407.000000	44.137255
1406.000000	44.466264
1405.000000	44.846725
1404.000000	45.172882
1403.000000	45.542592
1402.000000	45.829913
1401.000000	46.227379
1400.000000	46.611680
1399.000000	46.873549
1398.000000	46.994775
1397.000000	47.174144
1396.000000	47.446106
1395.000000	47.696237
1394.000000	47.788829
1393.000000	47.847302
1392.000000	47.999575
1391.000000	48.133965
1390.000000	48.221620
1389.000000	48.402416
1388.000000	48.675475
1387.000000	48.900044
1386.000000	49.140630
1385.000000	49.426305
1384.000000	49.811813
1383.000000	50.089809
1382.000000	50.404007
1381.000000	50.619471
1380.000000	50.687379
1379.000000	50.768671
1378.000000	50.807397
1377.000000	50.851609
1376.000000	50.932792
1375.000000	51.070912
1374.000000	51.263008
1373.000000	51.554497
1372.000000	51.851033
1371.000000	52.189038
1370.000000	52.461000
1369.000000	52.720565
1368.000000	52.999768
1367.000000	53.226421
1366.000000	53.406559
1365.000000	53.567059
1364.000000	53.752024
1363.000000	53.853502
1362.000000	54.003800
1361.000000	54.146089
1360.000000	54.188874
1359.000000	54.206318
1358.000000	54.251846
1357.000000	54.357383
1356.000000	54.573395
1355.000000	54.926540
1354.000000	55.390926
1353.000000	55.854326
1352.000000	56.328257
1351.000000	56.830163
1350.000000	57.301242
1349.000000	57.709020
1348.000000	58.098916
1347.000000	58.474880
1346.000000	58.759348
1345.000000	59.085505
1344.000000	59.421865
1343.000000	59.692839
1342.000000	59.959864
1341.000000	60.226780
1340.000000	60.473399
1339.000000	60.709707
1338.000000	60.947111
1337.000000	61.173874
1336.000000	61.363885
1335.000000	61.563880
1334.000000	61.760364
1333.000000	61.946645
1332.000000	62.136766
1331.000000	62.293646
1330.000000	62.454366
1329.000000	62.599946
1328.000000	62.730497
1327.000000	62.854684
1326.000000	62.979091
1325.000000	63.090772
1324.000000	63.196310
1323.000000	63.285391
1322.000000	63.376886
1321.000000	63.473318
1320.000000	63.569640
1319.000000	63.642156
1318.000000	63.703043
1317.000000	63.784335
1316.000000	63.851695
1315.000000	63.912363
1314.000000	63.975115
1313.000000	64.036331
1312.000000	64.092061
1311.000000	64.121902
1310.000000	64.161286
1309.000000	64.209557
1308.000000	64.220966
1307.000000	64.233802
1306.000000	64.255085
1305.000000	64.266824
1304.000000	64.260570
1303.000000	64.237971
1302.000000	64.230620
1301.000000	64.225135
1300.000000	64.204072
1299.000000	64.168307
1298.000000	64.140552
1297.000000	64.128265
1296.000000	64.109724
1295.000000	64.080652
1294.000000	64.047301
1293.000000	64.018229
1292.000000	63.978296
1291.000000	63.933536
1290.000000	63.888008
1289.000000	63.842480
1288.000000	63.783129
1287.000000	63.720157
1286.000000	63.664975
1285.000000	63.599261
1284.000000	63.511605
1283.000000	63.419672
1282.000000	63.343645
1281.000000	63.270032
1280.000000	63.193677
1279.000000	63.115785
1278.000000	63.049852
1277.000000	62.963732
1276.000000	62.895605
1275.000000	62.844152
1274.000000	62.786776
1273.000000	62.722269
1272.000000	62.656993
1271.000000	62.606419
1270.000000	62.556173
1269.000000	62.496493
1268.000000	62.448003
1267.000000	62.400281
1266.000000	62.343014
1265.000000	62.282566
1264.000000	62.221679
1263.000000	62.168800
1262.000000	62.096943
1261.000000	62.038469
1260.000000	61.989869
1259.000000	61.934687
1258.000000	61.879615
1257.000000	61.810829
1256.000000	61.756634
1255.000000	61.699806
1254.000000	61.623780
1253.000000	61.551044
1252.000000	61.492132
1251.000000	61.428722
1250.000000	61.353354
1249.000000	61.254837
1248.000000	61.163233
1247.000000	61.060218
1246.000000	60.965322
1245.000000	60.868342
1244.000000	60.750737
1243.000000	60.604169
1242.000000	60.480969
1241.000000	60.348444
1240.000000	60.204180
1239.000000	60.081419
1238.000000	59.940007
1237.000000	59.768646
1236.000000	59.629758
1235.000000	59.483958
1234.000000	59.335416
1233.000000	59.167895
1232.000000	59.021217
1231.000000	58.847552
1230.000000	58.669389
1229.000000	58.504610
1228.000000	58.334566
1227.000000	58.192496
1226.000000	57.994805
1225.000000	57.821140
1224.000000	57.658117
1223.000000	57.485439
1222.000000	57.325487
1221.000000	57.171679
1220.000000	57.025331
1219.000000	56.867573
1218.000000	56.733292
1217.000000	56.593636
1216.000000	56.472630
1215.000000	56.346029
1214.000000	56.240602
1213.000000	56.127494
1212.000000	56.018995
1211.000000	55.915761
1210.000000	55.816916
1209.000000	55.726737
1208.000000	55.655757
1207.000000	55.570406
1206.000000	55.519063
1205.000000	55.465417
1204.000000	55.438758
1203.000000	55.427897
1202.000000	55.406066
1201.000000	55.382589
1200.000000	55.346386
1199.000000	55.284292
1198.000000	55.178425
1197.000000	55.055225
1196.000000	54.898016
1195.000000	54.709760
1194.000000	54.460178
1193.000000	54.125025
1192.000000	53.735349
1191.000000	53.340406
1190.000000	52.960713
1189.000000	52.625889
1188.000000	52.372138
1187.000000	52.205494
1186.000000	52.148776
1185.000000	52.214381
1184.000000	52.379818
1183.000000	52.663299
1182.000000	53.027962
1181.000000	53.447150
1180.000000	53.884220
1179.000000	54.292657
1178.000000	54.640974
1177.000000	54.937400
1176.000000	55.235802
1175.000000	55.484396
1174.000000	55.740560
1173.000000	56.008134
1172.000000	56.286020
1171.000000	56.555678
1170.000000	56.860771
1169.000000	57.148641
1168.000000	57.426417
1167.000000	57.746650
1166.000000	58.038029
1165.000000	58.351899
1164.000000	58.667414
1163.000000	58.972946
1162.000000	59.296470
1161.000000	59.592238
1160.000000	59.893492
1159.000000	60.176973
1158.000000	60.446741
1157.000000	60.699943
1156.000000	60.903229
1155.000000	61.063510
1154.000000	61.155663
1153.000000	61.222693
1152.000000	61.237613
1151.000000	61.222145
1150.000000	61.189233
1149.000000	61.144912
1148.000000	61.125274
1147.000000	61.115291
1146.000000	61.185174
1145.000000	61.327682
1144.000000	61.470410
1143.000000	61.692017
1142.000000	61.949717
1141.000000	62.202700
1140.000000	62.462374
1139.000000	62.741248
1138.000000	63.032628
1137.000000	63.329822
1136.000000	63.623945
1135.000000	63.941435
1134.000000	64.265178
1133.000000	64.444219
1132.000000	64.647175
1131.000000	64.837077
1130.000000	65.019738
1129.000000	65.175630
1128.000000	65.287860
1127.000000	65.376612
1126.000000	65.444740
1125.000000	65.488513
1124.000000	65.528994
1123.000000	65.573864
1122.000000	65.607873
1121.000000	65.646819
1120.000000	65.641992
1119.000000	65.619612
1118.000000	65.604802
1117.000000	65.577923
1116.000000	65.549290
1115.000000	65.519889
1114.000000	65.471947
1113.000000	65.436293
1112.000000	65.392739
1111.000000	65.356756
1110.000000	65.307497
1109.000000	65.260324
1108.000000	65.221817
1107.000000	65.190551
1106.000000	65.143596
1105.000000	65.091486
1104.000000	65.035536
1103.000000	64.989569
1102.000000	64.944918
1101.000000	64.889955
1100.000000	64.837077
1099.000000	64.781346
1098.000000	64.722214
1097.000000	64.677674
1096.000000	64.602196
1095.000000	64.528692
1094.000000	64.476692
1093.000000	64.431712
1092.000000	64.355247
1091.000000	64.279440
1090.000000	64.195734
1089.000000	64.118610
1088.000000	64.047192
1087.000000	63.967216
1086.000000	63.879889
1085.000000	63.796184
1084.000000	63.714123
1083.000000	63.646434
1082.000000	63.588071
1081.000000	63.488128
1080.000000	63.412321
1079.000000	63.332126
1078.000000	63.243264
1077.000000	63.173162
1076.000000	63.094502
1075.000000	63.022974
1074.000000	62.950348
1073.000000	62.882330
1072.000000	62.810363
1071.000000	62.741467
1070.000000	62.658200
1069.000000	62.568460
1068.000000	62.491776
1067.000000	62.407631
1066.000000	62.324803
1065.000000	62.235392
1064.000000	62.148834
1063.000000	62.059862
1062.000000	61.964527
1061.000000	61.870838
1060.000000	61.791301
1059.000000	61.709899
1058.000000	61.611054
1057.000000	61.511660
1056.000000	61.419836
1055.000000	61.330973
1054.000000	61.239588
1053.000000	61.155773
1052.000000	61.053855
1051.000000	60.961154
1050.000000	60.885347
1049.000000	60.802628
1048.000000	60.703673
1047.000000	60.611190
1046.000000	60.540211
1045.000000	60.454859
1044.000000	60.363145
1043.000000	60.280207
1042.000000	60.200999
1041.000000	60.133090
1040.000000	60.047190
1039.000000	59.975443
1038.000000	59.907315
1037.000000	59.816917
1036.000000	59.742207
1035.000000	59.671117
1034.000000	59.592129
1033.000000	59.507545
1032.000000	59.428228
1031.000000	59.350336
1030.000000	59.266301
1029.000000	59.189178
1028.000000	59.107008
1027.000000	59.012660
1026.000000	58.920397
1025.000000	58.834607
1024.000000	58.758580
1023.000000	58.677727
1022.000000	58.586890
1021.000000	58.512399
1020.000000	58.433740
1019.000000	58.359798
1018.000000	58.284210
1017.000000	58.216412
1016.000000	58.161230
1015.000000	58.087836
1014.000000	58.015101
1013.000000	57.965733
1012.000000	57.922070
1011.000000	57.889926
1010.000000	57.862390
1009.000000	57.817849
1008.000000	57.780768
1007.000000	57.752245
1006.000000	57.709678
1005.000000	57.677425
1004.000000	57.649450
1003.000000	57.610614
1002.000000	57.584942
1001.000000	57.560807
1000.000000	57.512646
999.000000	57.480173
998.000000	57.433328
997.000000	57.413142
996.000000	57.387361
995.000000	57.336897
994.000000	57.303985
993.000000	57.272060
992.000000	57.241123
991.000000	57.203603
990.000000	57.171569
989.000000	57.144801
988.000000	57.138986
987.000000	57.117265
986.000000	57.091264
985.000000	57.075028
984.000000	57.040470
983.000000	57.038057
982.000000	57.002731
981.000000	57.008875
980.000000	57.019297
979.000000	57.027854
978.000000	57.015347
977.000000	57.022588
976.000000	57.039702
975.000000	57.038276
974.000000	57.016664
973.000000	57.031474
972.000000	57.051331
971.000000	57.069433
970.000000	57.089070
969.000000	57.101686
968.000000	57.128784
967.000000	57.162464
966.000000	57.187586
965.000000	57.210076
964.000000	57.259883
963.000000	57.291259
962.000000	57.340517
961.000000	57.397893
960.000000	57.458890
959.000000	57.513085
958.000000	57.557516
957.000000	57.616867
956.000000	57.649889
955.000000	57.716261
954.000000	57.769249
953.000000	57.806110
952.000000	57.852955
951.000000	57.889158
950.000000	57.937977
949.000000	57.980763
948.000000	57.996231
947.000000	58.070612
946.000000	58.095077
945.000000	58.140166
944.000000	58.221020
943.000000	58.265451
942.000000	58.304067
941.000000	58.361224
940.000000	58.408837
939.000000	58.474002
938.000000	58.547396
937.000000	58.610916
936.000000	58.675752
935.000000	58.747829
934.000000	58.857097
933.000000	58.931916
932.000000	59.034272
931.000000	59.130485
930.000000	59.208486
929.000000	59.277162
928.000000	59.336074
927.000000	59.430751
926.000000	59.549672
925.000000	59.624602
924.000000	59.706223
923.000000	59.778739
922.000000	59.856411
921.000000	60.017789
920.000000	60.081529
919.000000	60.165454
918.000000	60.267810
917.000000	60.358647
916.000000	60.407685
915.000000	60.500058
914.000000	60.589907
913.000000	60.665934
912.000000	60.741302
911.000000	60.810307
910.000000	60.975306
909.000000	61.044311
908.000000	61.107063
907.000000	61.142388
906.000000	61.226972
905.000000	61.413143
904.000000	61.490048
903.000000	61.611383
902.000000	61.694211
901.000000	61.755317
900.000000	61.849994
899.000000	62.049221
898.000000	62.129526
897.000000	62.210160
896.000000	62.252726
895.000000	62.325680
894.000000	62.427707
893.000000	62.503734
892.000000	62.597094
891.000000	62.668513
890.000000	62.721830
889.000000	62.769004
888.000000	62.756497
887.000000	62.832304
886.000000	62.919082
885.000000	62.962745
884.000000	62.986771
883.000000	62.966146
882.000000	63.044695
881.000000	63.080131
880.000000	63.095051
879.000000	63.046890
878.000000	63.115346
877.000000	63.130925
876.000000	63.064004
875.000000	63.119076
874.000000	63.122038
873.000000	63.050729
872.000000	63.037565
871.000000	62.987319
870.000000	63.026155
869.000000	63.045244
868.000000	62.963732
867.000000	62.956821
866.000000	62.859950
865.000000	62.840093
864.000000	62.792261
863.000000	62.765603
862.000000	62.591170
861.000000	62.424965
860.000000	62.341368
859.000000	62.298802
858.000000	63.233500
857.000000	62.916700
856.000000	63.303100
855.000000	63.480700
854.000000	64.035300
853.000000	64.289900
852.000000	64.424400
851.000000	64.342900
850.000000	64.933900
849.000000	65.289000
848.000000	65.474000
847.000000	65.611800
846.000000	66.039200
845.000000	66.242500
844.000000	66.819400
843.000000	66.937200
842.000000	67.166100
841.000000	67.680800
840.000000	67.945800
839.000000	68.067000
838.000000	68.330200
837.000000	68.729000
836.000000	68.972100
835.000000	69.537700
834.000000	69.733100
833.000000	70.100500
832.000000	70.325600
831.000000	70.543000
830.000000	70.892800
829.000000	71.195800
828.000000	71.607200
827.000000	71.856300
826.000000	72.083700
825.000000	72.550000
824.000000	72.843600
823.000000	73.029700
822.000000	73.354600
821.000000	73.671500
820.000000	74.022400
819.000000	74.289200
818.000000	74.491500
817.000000	74.645300
816.000000	74.906600
815.000000	75.168600
814.000000	75.365900
813.000000	75.548600
812.000000	75.684400
811.000000	75.980800
810.000000	76.262900
809.000000	76.465100
808.000000	76.561000
807.000000	76.590800
806.000000	76.740200
805.000000	76.896700
804.000000	76.983700
803.000000	77.136900
802.000000	77.245900
801.000000	77.377900
800.000000	77.392800
799.000000	77.591300
798.000000	77.673800
797.000000	77.864100
796.000000	77.957600
795.000000	77.938300
794.000000	78.046900
793.000000	78.066700
792.000000	78.154200
791.000000	78.230800
790.000000	78.205100
789.000000	78.172100
788.000000	78.310200
787.000000	78.380400
786.000000	78.380900
785.000000	78.408700
784.000000	78.419300
783.000000	78.435700
782.000000	78.354600
781.000000	78.373600
780.000000	78.394100
779.000000	78.444600
778.000000	78.437400
777.000000	78.439000
776.000000	78.407800
775.000000	78.409100
774.000000	78.283900
773.000000	78.273600
772.000000	78.272200
771.000000	78.287400
770.000000	78.289400
769.000000	78.272000
768.000000	78.239200
767.000000	78.181700
766.000000	78.225800
765.000000	78.132100
764.000000	78.096700
763.000000	78.102800
762.000000	78.034600
761.000000	77.922700
760.000000	77.729400
759.000000	77.735900
758.000000	77.691400
757.000000	77.573000
756.000000	77.503800
755.000000	77.344300
754.000000	77.294800
753.000000	77.210100
752.000000	76.995200
751.000000	76.806000
750.000000	76.703200
749.000000	76.552400
748.000000	76.431500
747.000000	76.309000
746.000000	76.089700
745.000000	75.892300
744.000000	75.621100
743.000000	75.356200
742.000000	75.198700
741.000000	75.001800
740.000000	74.744900
739.000000	74.515800
738.000000	74.280000
737.000000	73.990600
736.000000	73.744500
735.000000	73.495400
734.000000	73.195700
733.000000	72.929400
732.000000	72.579500
731.000000	72.236000
730.000000	72.003300
729.000000	71.632900
728.000000	71.329900
727.000000	71.063600
726.000000	70.643800
725.000000	70.299300
724.000000	69.939500
723.000000	69.525700
722.000000	69.160900
721.000000	68.836600
720.000000	68.406500
719.000000	68.046100
718.000000	67.645600
717.000000	67.276400
716.000000	66.906100
715.000000	66.492500
714.000000	66.160800
713.000000	65.835700
712.000000	65.453300
711.000000	65.099000
710.000000	64.744700
709.000000	64.373100
708.000000	64.051300
707.000000	63.742200
706.000000	63.356500
705.000000	63.036200
704.000000	62.742700
703.000000	62.417700
702.000000	62.093000
701.000000	61.850900
700.000000	61.551500
699.000000	61.286500
698.000000	60.982700
697.000000	60.746200
696.000000	60.500200
695.000000	60.326700
694.000000	60.163600
693.000000	59.953200
692.000000	59.728900
691.000000	59.561000
690.000000	59.392700
689.000000	59.186500
688.000000	59.048600
687.000000	58.941200
686.000000	58.827000
685.000000	58.647000
684.000000	58.491400
683.000000	58.338300
682.000000	58.167100
681.000000	57.990500
680.000000	57.809400
679.000000	57.580200
678.000000	57.389000
677.000000	57.163700
676.000000	56.902200
675.000000	56.702400
674.000000	56.453800
673.000000	56.197000
672.000000	55.934300
671.000000	55.633300
670.000000	55.366100
669.000000	55.164300
668.000000	54.898400
667.000000	54.621800
666.000000	54.286400
665.000000	54.050100
664.000000	53.806600
663.000000	53.524100
662.000000	53.314700
661.000000	53.048600
660.000000	52.814000
659.000000	52.597600
658.000000	52.406200
657.000000	52.232200
656.000000	52.043300
655.000000	51.894000
654.000000	51.778500
653.000000	51.637600
652.000000	51.496700
651.000000	51.385800
650.000000	51.347500
649.000000	51.243000
648.000000	51.215800
647.000000	51.175300
646.000000	51.132600
645.000000	51.109000
644.000000	51.092500
643.000000	51.070400
642.000000	51.078300
641.000000	51.067700
640.000000	51.052500
639.000000	51.020000
638.000000	51.032800
637.000000	50.998400
636.000000	50.996300
635.000000	50.994000
634.000000	50.995000
633.000000	50.928000
632.000000	50.900600
631.000000	50.886200
630.000000	50.873900
629.000000	50.873600
628.000000	50.841600
627.000000	50.873700
626.000000	50.850700
625.000000	50.909800
624.000000	50.955100
623.000000	51.016900
622.000000	51.079500
621.000000	51.200800
620.000000	51.341300
619.000000	51.496900
618.000000	51.728700
617.000000	51.927100
616.000000	52.189500
615.000000	52.414800
614.000000	52.745400
613.000000	53.072700
612.000000	53.405100
611.000000	53.751700
610.000000	54.147700
609.000000	54.517500
608.000000	54.950500
607.000000	55.385200
606.000000	55.815900
605.000000	56.235900
604.000000	56.682500
603.000000	57.095800
602.000000	57.523200
601.000000	57.967100
600.000000	58.367500
599.000000	58.810200
598.000000	59.124200
597.000000	59.483900
596.000000	59.848600
595.000000	60.151700
594.000000	60.482500
593.000000	60.804100
592.000000	61.083700
591.000000	61.371400
590.000000	61.642200
589.000000	61.868900
588.000000	62.070400
587.000000	62.306800
586.000000	62.439600
585.000000	62.635200
584.000000	62.778700
583.000000	62.909700
582.000000	63.127400
581.000000	63.232700
580.000000	63.322500
579.000000	63.403900
578.000000	63.509100
577.000000	63.589000
576.000000	63.659800
575.000000	63.715500
574.000000	63.734300
573.000000	63.777600
572.000000	63.769900
571.000000	63.747100
570.000000	63.747200
569.000000	63.693300
568.000000	63.651800
567.000000	63.581700
566.000000	63.538100
565.000000	63.433900
564.000000	63.320400
563.000000	63.231300
562.000000	63.076900
561.000000	62.937400
560.000000	62.814700
559.000000	62.989900
558.000000	62.806000
557.000000	62.638400
556.000000	62.409100
555.000000	62.170700
554.000000	61.954500
553.000000	61.680200
552.000000	61.417500
551.000000	61.098200
550.000000	60.837200
549.000000	60.487400
548.000000	60.187600
547.000000	59.836500
546.000000	59.475300
545.000000	59.117600
544.000000	58.740100
543.000000	58.305400
542.000000	57.868900
541.000000	57.418000
540.000000	56.943300
539.000000	56.466400
538.000000	55.984100
537.000000	55.453700
536.000000	54.931200
535.000000	54.403500
534.000000	53.830200
533.000000	53.258400
532.000000	52.664200
531.000000	52.044900
530.000000	51.428100
529.000000	50.796100
528.000000	50.143100
527.000000	49.501500
526.000000	48.867100
525.000000	48.226000
524.000000	47.572700
523.000000	46.909200
522.000000	46.263000
521.000000	45.626900
520.000000	45.010800
519.000000	44.385400
518.000000	43.782900
517.000000	43.171600
516.000000	42.566500
515.000000	41.971100
514.000000	41.394800
513.000000	40.795500
512.000000	40.247000
511.000000	39.671600
510.000000	39.109100
509.000000	38.566200
508.000000	38.047300
507.000000	37.524000
506.000000	36.994000
505.000000	36.461600
504.000000	35.969600
503.000000	35.478800
502.000000	34.975800
501.000000	34.514400
500.000000	34.027900
499.000000	33.580900
498.000000	33.138000
497.000000	32.704800
496.000000	32.295900
495.000000	31.870600
494.000000	31.470000
493.000000	31.090200
492.000000	30.724800
491.000000	30.374000
490.000000	30.061000
489.000000	29.765600
488.000000	29.447000
487.000000	29.183500
486.000000	28.911300
485.000000	28.664100
484.000000	28.437100
483.000000	28.204700
482.000000	27.994800
481.000000	27.798500
480.000000	27.589900
479.000000	27.405400
478.000000	27.220100
477.000000	27.024400
476.000000	26.835700
475.000000	26.657000
474.000000	26.470000
473.000000	26.264900
472.000000	26.059100
471.000000	25.851800
470.000000	25.614000
469.000000	25.368500
468.000000	25.135900
467.000000	24.885600
466.000000	24.635200
465.000000	24.385600
464.000000	24.139800
463.000000	23.894400
462.000000	23.642800
461.000000	23.396000
460.000000	23.174100
459.000000	22.960700
458.000000	22.755900
457.000000	22.551200
456.000000	22.376400
455.000000	22.222600
454.000000	22.079600
453.000000	21.959600
452.000000	21.840800
451.000000	21.732400
450.000000	21.653400
449.000000	21.583600
448.000000	21.530100
447.000000	21.495500
446.000000	21.462700
445.000000	21.448600
444.000000	21.441100
443.000000	21.397400
442.000000	21.351100
441.000000	21.344500
440.000000	21.332900
439.000000	21.281900
438.000000	21.231600
437.000000	21.173100
436.000000	21.124900
435.000000	21.076700
434.000000	21.013200
433.000000	20.959400
432.000000	20.866500
431.000000	20.753300
430.000000	20.647700
429.000000	20.525100
428.000000	20.394900
427.000000	20.284600
426.000000	20.165700
425.000000	19.999900
424.000000	19.820800
423.000000	19.643400
422.000000	19.471900
421.000000	19.268600
420.000000	19.043200
419.000000	18.818900
418.000000	18.596100
417.000000	18.347300
416.000000	18.081700
415.000000	17.818600
414.000000	17.545200
413.000000	17.257800
412.000000	16.945100
411.000000	16.630800
410.000000	16.308100
409.000000	15.972100
408.000000	15.638300
407.000000	15.300200
406.000000	14.958100
405.000000	14.580900
404.000000	14.223300
403.000000	13.854400
402.000000	13.465700
401.000000	13.112400
400.000000	12.744700
399.000000	12.359200
398.000000	11.994700
397.000000	11.629200
396.000000	11.270300
395.000000	10.905800
394.000000	10.541600
393.000000	10.190700
392.000000	9.870900
391.000000	9.549600
390.000000	9.239500
389.000000	8.928300
388.000000	8.651500
387.000000	8.393700
386.000000	8.122300
385.000000	7.876200
384.000000	7.652400
383.000000	7.431500
382.000000	7.227700
381.000000	7.038900
380.000000	6.858900
379.000000	6.690700
378.000000	6.540100
377.000000	6.407400
376.000000	6.485700
375.000000	6.425900
374.000000	6.327800
373.000000	6.241500
372.000000	6.139200
371.000000	6.018600
370.000000	5.948900
369.000000	5.895200
368.000000	5.865500
367.000000	5.752300
366.000000	5.668300
365.000000	5.638500
364.000000	5.579200
363.000000	5.577100
362.000000	5.514800
361.000000	5.482500
360.000000	5.459600
359.000000	5.362200
358.000000	5.334600
357.000000	5.262300
356.000000	5.242700
355.000000	5.238300
354.000000	5.149300
353.000000	5.101400
352.000000	5.028900
351.000000	5.040500
350.000000	4.963300
349.000000	4.969900
348.000000	4.887000
347.000000	4.915500
346.000000	4.911100
345.000000	4.915900
344.000000	4.893600
343.000000	4.837700
342.000000	4.884800
341.000000	4.838500
340.000000	4.877200
339.000000	4.805400
338.000000	4.852000
337.000000	4.826900
336.000000	4.823600
335.000000	4.849500
334.000000	4.842800
333.000000	4.793400
332.000000	4.827300
331.000000	4.793200
330.000000	4.808600
329.000000	4.790100
328.000000	4.751400
327.000000	4.775400
326.000000	4.792200
325.000000	4.732700
324.000000	4.684400
323.000000	4.723200
322.000000	4.614300
321.000000	4.812300
320.000000	4.803300
319.000000	4.706400
318.000000	4.791600
317.000000	4.766800
316.000000	4.491900
315.000000	4.431300
314.000000	4.480300
313.000000	4.505300
312.000000	4.473000
311.000000	4.460600
310.000000	4.451900
309.000000	4.471800
308.000000	4.471500
307.000000	4.497600
306.000000	4.472400
305.000000	4.459000
304.000000	4.459700
303.000000	4.455400
302.000000	4.472000
301.000000	4.514300
300.000000	4.533000
299.000000	4.513700
298.000000	4.529200
297.000000	4.518200
296.000000	4.517100
295.000000	4.503800
294.000000	4.511800
293.000000	4.491800
292.000000	4.526700
291.000000	4.501600
290.000000	4.549000
289.000000	4.535900
288.000000	4.542700
287.000000	4.564700
286.000000	4.540000
285.000000	4.562200
284.000000	4.578600
283.000000	4.596800
282.000000	4.583000
281.000000	4.578200
280.000000	4.606900
279.000000	4.600900
278.000000	4.598200
277.000000	4.599500
276.000000	4.609900
275.000000	4.641500
274.000000	4.612900
273.000000	4.639200
272.000000	4.663600
271.000000	4.668700
270.000000	4.657100
269.000000	4.695700
268.000000	4.698900
267.000000	4.701900
266.000000	4.736200
265.000000	4.775300
264.000000	4.761600
263.000000	4.785300
262.000000	4.813700
261.000000	4.798100
260.000000	4.819900
259.000000	4.850000
258.000000	4.856300
257.000000	4.886000
256.000000	4.874700
255.000000	4.872000
254.000000	4.859900
253.000000	4.892500
252.000000	4.941400
251.000000	4.932400
250.000000	4.935800
