PE UV       SUBTECH     SPECTRUM    ASCII       PEDS        4.00        
   -1
CICIMAUCR0112-2.Sample.ASC
24/04/19
17:16:39.00
24/04/19
17:16:39.00
Vinicio Soto Monge
C. resplendens
250,000000
1
Lambda 1050
1050L1511233
PerkinElmer UV WinLab 6.3.2.0749 / 2.02.05 Lambda 900 UV/VIS/NIR, Aug  7 2015 09:38:08

0
0
3350/servo 860,8/2
0
0
UV/VIS
1
1
1
DoubleDePol,CommonBeamDepol,RBeamAtt,SBeamAtt,60mm sphere, WB InGaAs Detector
0
0
0
0
Program
Program
3350/servo 860,8/2
3350/0,2 860,8/0,2
3350/0,2 860,8/0,2
0
15.00
 
 
 
0
 
860,8
319,2
860,8
Front
100
on
S:100 R:100
0
0
0
0
 
0
 
 
 
0
 
 
0
0
0
0
0
 
 
 
 
0
0


0
0
#HDR
-1
-1
#GR
nm
%R
1.0
0.0
2500,000000
-1,000000
2251
8
89,711800
5,376500
#DATA
2500.000000	9.024000
2499.000000	9.091600
2498.000000	9.027100
2497.000000	9.008300
2496.000000	8.984500
2495.000000	8.939900
2494.000000	8.956200
2493.000000	8.964400
2492.000000	8.908200
2491.000000	8.891600
2490.000000	8.756900
2489.000000	8.862000
2488.000000	8.826000
2487.000000	8.786000
2486.000000	8.783500
2485.000000	8.724000
2484.000000	8.796600
2483.000000	8.814500
2482.000000	8.751100
2481.000000	8.772600
2480.000000	8.747700
2479.000000	8.710800
2478.000000	8.745300
2477.000000	8.723600
2476.000000	8.695600
2475.000000	8.760500
2474.000000	8.726600
2473.000000	8.753600
2472.000000	8.740300
2471.000000	8.716300
2470.000000	8.758700
2469.000000	8.774200
2468.000000	8.766300
2467.000000	8.782600
2466.000000	8.817000
2465.000000	8.818000
2464.000000	8.860200
2463.000000	8.880700
2462.000000	8.927800
2461.000000	8.962400
2460.000000	8.990900
2459.000000	9.058900
2458.000000	9.136500
2457.000000	9.186200
2456.000000	9.275100
2455.000000	9.325700
2454.000000	9.391500
2453.000000	9.464800
2452.000000	9.533300
2451.000000	9.631100
2450.000000	9.733900
2449.000000	9.824000
2448.000000	9.887700
2447.000000	9.979300
2446.000000	10.073000
2445.000000	10.169200
2444.000000	10.245900
2443.000000	10.335800
2442.000000	10.423400
2441.000000	10.531800
2440.000000	10.601000
2439.000000	10.681000
2438.000000	10.777200
2437.000000	10.848900
2436.000000	10.914900
2435.000000	10.994100
2434.000000	11.077200
2433.000000	11.135700
2432.000000	11.198900
2431.000000	11.265700
2430.000000	11.327400
2429.000000	11.391800
2428.000000	11.439100
2427.000000	11.490400
2426.000000	11.534900
2425.000000	11.585900
2424.000000	11.629900
2423.000000	11.663400
2422.000000	11.679800
2421.000000	11.702200
2420.000000	11.729400
2419.000000	11.782400
2418.000000	11.818400
2417.000000	11.830300
2416.000000	11.865500
2415.000000	11.888800
2414.000000	11.910100
2413.000000	11.923300
2412.000000	11.958700
2411.000000	11.970700
2410.000000	11.995300
2409.000000	12.036300
2408.000000	12.056400
2407.000000	12.065400
2406.000000	12.102500
2405.000000	12.113300
2404.000000	12.139200
2403.000000	12.175000
2402.000000	12.202600
2401.000000	12.225000
2400.000000	12.234200
2399.000000	12.259700
2398.000000	12.289900
2397.000000	12.316600
2396.000000	12.332400
2395.000000	12.369500
2394.000000	12.407700
2393.000000	12.406300
2392.000000	12.427100
2391.000000	12.452800
2390.000000	12.457700
2389.000000	12.468200
2388.000000	12.477800
2387.000000	12.475000
2386.000000	12.470500
2385.000000	12.468400
2384.000000	12.454400
2383.000000	12.433100
2382.000000	12.424200
2381.000000	12.414900
2380.000000	12.388100
2379.000000	12.359800
2378.000000	12.333800
2377.000000	12.302000
2376.000000	12.270200
2375.000000	12.236400
2374.000000	12.208300
2373.000000	12.173100
2372.000000	12.124400
2371.000000	12.081600
2370.000000	12.038700
2369.000000	11.988300
2368.000000	11.926600
2367.000000	11.855100
2366.000000	11.791000
2365.000000	11.721500
2364.000000	11.640000
2363.000000	11.562600
2362.000000	11.490500
2361.000000	11.415300
2360.000000	11.338200
2359.000000	11.258300
2358.000000	11.167500
2357.000000	11.105200
2356.000000	11.073800
2355.000000	11.019000
2354.000000	10.972300
2353.000000	10.955000
2352.000000	10.943100
2351.000000	10.948400
2350.000000	10.964100
2349.000000	10.968100
2348.000000	10.988400
2347.000000	11.033600
2346.000000	11.068300
2345.000000	11.118000
2344.000000	11.169900
2343.000000	11.208200
2342.000000	11.240200
2341.000000	11.269600
2340.000000	11.294100
2339.000000	11.310100
2338.000000	11.314500
2337.000000	11.316800
2336.000000	11.295200
2335.000000	11.266800
2334.000000	11.247200
2333.000000	11.197600
2332.000000	11.165700
2331.000000	11.115500
2330.000000	11.055400
2329.000000	10.979300
2328.000000	10.886400
2327.000000	10.817000
2326.000000	10.764600
2325.000000	10.671600
2324.000000	10.566700
2323.000000	10.475900
2322.000000	10.360600
2321.000000	10.254200
2320.000000	10.117700
2319.000000	10.013000
2318.000000	9.896000
2317.000000	9.756000
2316.000000	9.631100
2315.000000	9.493400
2314.000000	9.377300
2313.000000	9.259600
2312.000000	9.164600
2311.000000	9.067200
2310.000000	8.988000
2309.000000	8.909200
2308.000000	8.855500
2307.000000	8.830800
2306.000000	8.799700
2305.000000	8.816600
2304.000000	8.845900
2303.000000	8.889300
2302.000000	8.955600
2301.000000	9.042200
2300.000000	9.135100
2299.000000	9.211400
2298.000000	9.331000
2297.000000	9.434000
2296.000000	9.519400
2295.000000	9.603700
2294.000000	9.700000
2293.000000	9.769000
2292.000000	9.802000
2291.000000	9.848800
2290.000000	9.876500
2289.000000	9.901900
2288.000000	9.889000
2287.000000	9.901600
2286.000000	9.877300
2285.000000	9.844100
2284.000000	9.813600
2283.000000	9.771100
2282.000000	9.714000
2281.000000	9.679400
2280.000000	9.624600
2279.000000	9.563300
2278.000000	9.528300
2277.000000	9.473600
2276.000000	9.453200
2275.000000	9.412000
2274.000000	9.392500
2273.000000	9.395800
2272.000000	9.374700
2271.000000	9.404600
2270.000000	9.432100
2269.000000	9.515300
2268.000000	9.566900
2267.000000	9.655600
2266.000000	9.756700
2265.000000	9.902500
2264.000000	10.064300
2263.000000	10.262900
2262.000000	10.473800
2261.000000	10.697500
2260.000000	10.960100
2259.000000	11.227500
2258.000000	11.502000
2257.000000	11.793400
2256.000000	12.093300
2255.000000	12.381800
2254.000000	12.686300
2253.000000	12.995300
2252.000000	13.262600
2251.000000	13.513400
2250.000000	13.759100
2249.000000	14.012600
2248.000000	14.234700
2247.000000	14.454400
2246.000000	14.636800
2245.000000	14.814600
2244.000000	15.014200
2243.000000	15.149400
2242.000000	15.307500
2241.000000	15.431200
2240.000000	15.579700
2239.000000	15.688900
2238.000000	15.800400
2237.000000	15.887900
2236.000000	15.993100
2235.000000	16.073400
2234.000000	16.164500
2233.000000	16.209700
2232.000000	16.282800
2231.000000	16.329800
2230.000000	16.349000
2229.000000	16.381900
2228.000000	16.412200
2227.000000	16.430300
2226.000000	16.425300
2225.000000	16.416500
2224.000000	16.414400
2223.000000	16.397500
2222.000000	16.371100
2221.000000	16.339700
2220.000000	16.325300
2219.000000	16.293700
2218.000000	16.263800
2217.000000	16.230000
2216.000000	16.195700
2215.000000	16.152400
2214.000000	16.121900
2213.000000	16.081800
2212.000000	16.057900
2211.000000	16.019900
2210.000000	15.983300
2209.000000	15.975800
2208.000000	15.926000
2207.000000	15.924000
2206.000000	15.887500
2205.000000	15.869800
2204.000000	15.845500
2203.000000	15.824900
2202.000000	15.834200
2201.000000	15.791900
2200.000000	15.791700
2199.000000	15.784100
2198.000000	15.770700
2197.000000	15.769900
2196.000000	15.757900
2195.000000	15.755300
2194.000000	15.765100
2193.000000	15.733100
2192.000000	15.755200
2191.000000	15.748000
2190.000000	15.733400
2189.000000	15.719500
2188.000000	15.704300
2187.000000	15.710800
2186.000000	15.688200
2185.000000	15.660100
2184.000000	15.677000
2183.000000	15.647300
2182.000000	15.627800
2181.000000	15.612000
2180.000000	15.606800
2179.000000	15.581800
2178.000000	15.577700
2177.000000	15.584800
2176.000000	15.587900
2175.000000	15.574000
2174.000000	15.572900
2173.000000	15.590400
2172.000000	15.602500
2171.000000	15.601900
2170.000000	15.622900
2169.000000	15.648300
2168.000000	15.658900
2167.000000	15.689300
2166.000000	15.720400
2165.000000	15.740300
2164.000000	15.770600
2163.000000	15.807400
2162.000000	15.843600
2161.000000	15.874000
2160.000000	15.913500
2159.000000	15.945200
2158.000000	15.983800
2157.000000	16.047500
2156.000000	16.088500
2155.000000	16.127300
2154.000000	16.199200
2153.000000	16.252400
2152.000000	16.295700
2151.000000	16.371200
2150.000000	16.437900
2149.000000	16.487600
2148.000000	16.531600
2147.000000	16.572100
2146.000000	16.623600
2145.000000	16.676600
2144.000000	16.717500
2143.000000	16.759000
2142.000000	16.811900
2141.000000	16.836000
2140.000000	16.869400
2139.000000	16.914400
2138.000000	16.944900
2137.000000	16.976800
2136.000000	17.012800
2135.000000	17.029200
2134.000000	17.045500
2133.000000	17.073100
2132.000000	17.099000
2131.000000	17.104900
2130.000000	17.108300
2129.000000	17.110600
2128.000000	17.130700
2127.000000	17.124200
2126.000000	17.120700
2125.000000	17.116700
2124.000000	17.095000
2123.000000	17.083600
2122.000000	17.073600
2121.000000	17.064600
2120.000000	17.040700
2119.000000	17.016700
2118.000000	16.977200
2117.000000	16.957400
2116.000000	16.937300
2115.000000	16.891700
2114.000000	16.861700
2113.000000	16.839400
2112.000000	16.814600
2111.000000	16.776800
2110.000000	16.726300
2109.000000	16.700600
2108.000000	16.682400
2107.000000	16.662600
2106.000000	16.628600
2105.000000	16.590900
2104.000000	16.558000
2103.000000	16.519700
2102.000000	16.489900
2101.000000	16.458000
2100.000000	16.424400
2099.000000	16.397800
2098.000000	16.362700
2097.000000	16.341100
2096.000000	16.330700
2095.000000	16.303800
2094.000000	16.289900
2093.000000	16.268700
2092.000000	16.238900
2091.000000	16.222900
2090.000000	16.213600
2089.000000	16.205600
2088.000000	16.196100
2087.000000	16.199100
2086.000000	16.186700
2085.000000	16.149400
2084.000000	16.136600
2083.000000	16.125800
2082.000000	16.108700
2081.000000	16.085100
2080.000000	16.060100
2079.000000	16.021000
2078.000000	15.992400
2077.000000	15.970000
2076.000000	15.938900
2075.000000	15.906700
2074.000000	15.866300
2073.000000	15.836500
2072.000000	15.793900
2071.000000	15.754100
2070.000000	15.729500
2069.000000	15.701300
2068.000000	15.652800
2067.000000	15.613500
2066.000000	15.576600
2065.000000	15.551700
2064.000000	15.522500
2063.000000	15.478100
2062.000000	15.459800
2061.000000	15.444900
2060.000000	15.438600
2059.000000	15.435000
2058.000000	15.433300
2057.000000	15.452500
2056.000000	15.503900
2055.000000	15.546700
2054.000000	15.595500
2053.000000	15.677800
2052.000000	15.752000
2051.000000	15.859300
2050.000000	15.995400
2049.000000	16.101400
2048.000000	16.231900
2047.000000	16.400900
2046.000000	16.568200
2045.000000	16.760400
2044.000000	16.924300
2043.000000	17.091200
2042.000000	17.284000
2041.000000	17.470700
2040.000000	17.658800
2039.000000	17.836300
2038.000000	18.000300
2037.000000	18.160700
2036.000000	18.336900
2035.000000	18.481200
2034.000000	18.630000
2033.000000	18.802300
2032.000000	18.919400
2031.000000	19.067700
2030.000000	19.195100
2029.000000	19.329900
2028.000000	19.445100
2027.000000	19.552900
2026.000000	19.679800
2025.000000	19.779200
2024.000000	19.879300
2023.000000	19.993700
2022.000000	20.082100
2021.000000	20.181700
2020.000000	20.270400
2019.000000	20.333500
2018.000000	20.436700
2017.000000	20.529500
2016.000000	20.591900
2015.000000	20.669300
2014.000000	20.737700
2013.000000	20.776900
2012.000000	20.839300
2011.000000	20.872300
2010.000000	20.913800
2009.000000	20.962900
2008.000000	21.002800
2007.000000	21.021900
2006.000000	21.025800
2005.000000	21.027900
2004.000000	21.053100
2003.000000	21.052500
2002.000000	21.036400
2001.000000	21.020500
2000.000000	21.011200
1999.000000	20.999900
1998.000000	20.956300
1997.000000	20.946400
1996.000000	20.897700
1995.000000	20.854900
1994.000000	20.813000
1993.000000	20.759000
1992.000000	20.720900
1991.000000	20.632400
1990.000000	20.565000
1989.000000	20.498100
1988.000000	20.438900
1987.000000	20.368900
1986.000000	20.284900
1985.000000	20.216800
1984.000000	20.134100
1983.000000	20.069500
1982.000000	19.973900
1981.000000	19.879700
1980.000000	19.819500
1979.000000	19.700100
1978.000000	19.619200
1977.000000	19.548300
1976.000000	19.473500
1975.000000	19.379300
1974.000000	19.303900
1973.000000	19.212200
1972.000000	19.150600
1971.000000	19.048500
1970.000000	18.968100
1969.000000	18.907000
1968.000000	18.797700
1967.000000	18.739800
1966.000000	18.654100
1965.000000	18.577200
1964.000000	18.513200
1963.000000	18.425300
1962.000000	18.352000
1961.000000	18.273600
1960.000000	18.170500
1959.000000	18.108100
1958.000000	18.046700
1957.000000	17.946800
1956.000000	17.882500
1955.000000	17.799000
1954.000000	17.720400
1953.000000	17.643100
1952.000000	17.576400
1951.000000	17.502100
1950.000000	17.449700
1949.000000	17.384400
1948.000000	17.341800
1947.000000	17.290400
1946.000000	17.238000
1945.000000	17.179400
1944.000000	17.156500
1943.000000	17.139600
1942.000000	17.140000
1941.000000	17.129100
1940.000000	17.115900
1939.000000	17.116400
1938.000000	17.117500
1937.000000	17.136400
1936.000000	17.154800
1935.000000	17.198100
1934.000000	17.262000
1933.000000	17.318000
1932.000000	17.434400
1931.000000	17.518500
1930.000000	17.618000
1929.000000	17.712200
1928.000000	17.835400
1927.000000	17.933700
1926.000000	18.075600
1925.000000	18.232900
1924.000000	18.410300
1923.000000	18.581700
1922.000000	18.752900
1921.000000	18.952300
1920.000000	19.157000
1919.000000	19.327400
1918.000000	19.562800
1917.000000	19.805300
1916.000000	20.063900
1915.000000	20.315800
1914.000000	20.604400
1913.000000	20.845900
1912.000000	21.114300
1911.000000	21.371000
1910.000000	21.657000
1909.000000	21.954000
1908.000000	22.265900
1907.000000	22.592400
1906.000000	22.928500
1905.000000	23.252200
1904.000000	23.572500
1903.000000	23.900500
1902.000000	24.224200
1901.000000	24.576500
1900.000000	24.929300
1899.000000	25.256900
1898.000000	25.588200
1897.000000	25.951900
1896.000000	26.275600
1895.000000	26.620700
1894.000000	26.981000
1893.000000	27.324900
1892.000000	27.660600
1891.000000	27.978800
1890.000000	28.314700
1889.000000	28.656200
1888.000000	29.001900
1887.000000	29.370200
1886.000000	29.775400
1885.000000	30.222600
1884.000000	30.715500
1883.000000	31.199300
1882.000000	31.695400
1881.000000	32.226300
1880.000000	32.703700
1879.000000	33.179300
1878.000000	33.634700
1877.000000	34.047900
1876.000000	34.436600
1875.000000	34.787500
1874.000000	35.106100
1873.000000	35.390500
1872.000000	35.641100
1871.000000	35.840700
1870.000000	35.967800
1869.000000	36.099100
1868.000000	36.240300
1867.000000	36.321600
1866.000000	36.374100
1865.000000	36.433600
1864.000000	36.502600
1863.000000	36.574200
1862.000000	36.618000
1861.000000	36.651500
1860.000000	36.655000
1859.000000	36.609100
1858.000000	36.567400
1857.000000	36.551200
1856.000000	36.508400
1855.000000	36.445500
1854.000000	36.360700
1853.000000	36.248700
1852.000000	36.180500
1851.000000	36.154000
1850.000000	36.149900
1849.000000	36.105100
1848.000000	35.949200
1847.000000	35.773100
1846.000000	35.634400
1845.000000	35.574800
1844.000000	35.574300
1843.000000	35.601100
1842.000000	35.567000
1841.000000	35.469100
1840.000000	35.382400
1839.000000	35.325300
1838.000000	35.266800
1837.000000	35.175100
1836.000000	35.059200
1835.000000	34.932300
1834.000000	34.827400
1833.000000	34.763500
1832.000000	34.708000
1831.000000	34.619700
1830.000000	34.510700
1829.000000	34.406200
1828.000000	34.279200
1827.000000	34.177100
1826.000000	34.100600
1825.000000	34.017500
1824.000000	33.971600
1823.000000	34.012000
1822.000000	34.018400
1821.000000	33.959600
1820.000000	33.879400
1819.000000	33.814800
1818.000000	33.795300
1817.000000	33.805500
1816.000000	33.812600
1815.000000	33.784500
1814.000000	33.772400
1813.000000	33.762100
1812.000000	33.723800
1811.000000	33.668700
1810.000000	33.607800
1809.000000	33.554000
1808.000000	33.518800
1807.000000	33.478300
1806.000000	33.408500
1805.000000	33.324700
1804.000000	33.259000
1803.000000	33.209900
1802.000000	33.159800
1801.000000	33.081200
1800.000000	32.996600
1799.000000	32.949400
1798.000000	32.889300
1797.000000	32.824800
1796.000000	32.761100
1795.000000	32.705600
1794.000000	32.644800
1793.000000	32.562100
1792.000000	32.497600
1791.000000	32.416000
1790.000000	32.329100
1789.000000	32.259600
1788.000000	32.195000
1787.000000	32.109900
1786.000000	32.014000
1785.000000	31.920000
1784.000000	31.802400
1783.000000	31.708300
1782.000000	31.618400
1781.000000	31.504500
1780.000000	31.405100
1779.000000	31.287300
1778.000000	31.163900
1777.000000	31.020700
1776.000000	30.883300
1775.000000	30.726200
1774.000000	30.572000
1773.000000	30.390800
1772.000000	30.220100
1771.000000	30.044300
1770.000000	29.884100
1769.000000	29.731700
1768.000000	29.579300
1767.000000	29.436500
1766.000000	29.331600
1765.000000	29.232900
1764.000000	29.195900
1763.000000	29.189800
1762.000000	29.215400
1761.000000	29.258100
1760.000000	29.303600
1759.000000	29.387700
1758.000000	29.477600
1757.000000	29.543200
1756.000000	29.592000
1755.000000	29.610700
1754.000000	29.614300
1753.000000	29.603900
1752.000000	29.566500
1751.000000	29.510500
1750.000000	29.430200
1749.000000	29.341300
1748.000000	29.230300
1747.000000	29.083200
1746.000000	28.912500
1745.000000	28.743100
1744.000000	28.509800
1743.000000	28.244300
1742.000000	27.972600
1741.000000	27.682700
1740.000000	27.399300
1739.000000	27.117400
1738.000000	26.868000
1737.000000	26.653400
1736.000000	26.484700
1735.000000	26.375800
1734.000000	26.347700
1733.000000	26.369200
1732.000000	26.424300
1731.000000	26.525100
1730.000000	26.643600
1729.000000	26.777000
1728.000000	26.893600
1727.000000	27.013600
1726.000000	27.091300
1725.000000	27.175900
1724.000000	27.234400
1723.000000	27.255400
1722.000000	27.277000
1721.000000	27.315700
1720.000000	27.353700
1719.000000	27.410900
1718.000000	27.451200
1717.000000	27.552400
1716.000000	27.650700
1715.000000	27.728300
1714.000000	27.816700
1713.000000	27.915400
1712.000000	27.964200
1711.000000	27.997400
1710.000000	28.062800
1709.000000	28.042200
1708.000000	28.043500
1707.000000	28.026700
1706.000000	28.011400
1705.000000	27.945200
1704.000000	27.875500
1703.000000	27.781400
1702.000000	27.648800
1701.000000	27.479800
1700.000000	27.296000
1699.000000	27.119700
1698.000000	26.952200
1697.000000	26.820700
1696.000000	26.762500
1695.000000	26.773000
1694.000000	26.834600
1693.000000	26.980800
1692.000000	27.196200
1691.000000	27.376200
1690.000000	27.515600
1689.000000	27.667900
1688.000000	27.722500
1687.000000	27.756000
1686.000000	27.763100
1685.000000	27.825600
1684.000000	27.992100
1683.000000	28.309300
1682.000000	28.749700
1681.000000	29.353800
1680.000000	29.999900
1679.000000	30.694300
1678.000000	31.355200
1677.000000	31.956500
1676.000000	32.490900
1675.000000	32.982900
1674.000000	33.391400
1673.000000	33.734700
1672.000000	34.048500
1671.000000	34.314400
1670.000000	34.553300
1669.000000	34.760800
1668.000000	34.934600
1667.000000	35.085400
1666.000000	35.192800
1665.000000	35.313000
1664.000000	35.406400
1663.000000	35.503000
1662.000000	35.559700
1661.000000	35.638400
1660.000000	35.677400
1659.000000	35.700900
1658.000000	35.707400
1657.000000	35.715000
1656.000000	35.727700
1655.000000	35.744100
1654.000000	35.701600
1653.000000	35.671200
1652.000000	35.644200
1651.000000	35.615900
1650.000000	35.573500
1649.000000	35.515800
1648.000000	35.462100
1647.000000	35.392200
1646.000000	35.342200
1645.000000	35.277400
1644.000000	35.185900
1643.000000	35.116500
1642.000000	35.053100
1641.000000	34.962900
1640.000000	34.880800
1639.000000	34.799900
1638.000000	34.718600
1637.000000	34.620700
1636.000000	34.528900
1635.000000	34.445600
1634.000000	34.362600
1633.000000	34.282400
1632.000000	34.171100
1631.000000	34.067400
1630.000000	33.969400
1629.000000	33.871500
1628.000000	33.774800
1627.000000	33.676700
1626.000000	33.552800
1625.000000	33.448200
1624.000000	33.363600
1623.000000	33.255800
1622.000000	33.136900
1621.000000	33.047200
1620.000000	32.952600
1619.000000	32.866200
1618.000000	32.783000
1617.000000	32.678500
1616.000000	32.587500
1615.000000	32.493700
1614.000000	32.397400
1613.000000	32.315800
1612.000000	32.236600
1611.000000	32.163700
1610.000000	32.068000
1609.000000	31.982100
1608.000000	31.903700
1607.000000	31.819900
1606.000000	31.741100
1605.000000	31.655400
1604.000000	31.560400
1603.000000	31.480200
1602.000000	31.401200
1601.000000	31.314800
1600.000000	31.251600
1599.000000	31.165200
1598.000000	31.093900
1597.000000	31.021300
1596.000000	30.960300
1595.000000	30.894200
1594.000000	30.831600
1593.000000	30.785100
1592.000000	30.741300
1591.000000	30.693500
1590.000000	30.648900
1589.000000	30.604400
1588.000000	30.561300
1587.000000	30.510200
1586.000000	30.481400
1585.000000	30.457200
1584.000000	30.426500
1583.000000	30.384600
1582.000000	30.364100
1581.000000	30.353200
1580.000000	30.350900
1579.000000	30.346600
1578.000000	30.342100
1577.000000	30.343100
1576.000000	30.355200
1575.000000	30.372400
1574.000000	30.398700
1573.000000	30.421500
1572.000000	30.443200
1571.000000	30.470400
1570.000000	30.502400
1569.000000	30.537300
1568.000000	30.574100
1567.000000	30.614800
1566.000000	30.664800
1565.000000	30.708400
1564.000000	30.746200
1563.000000	30.785200
1562.000000	30.820900
1561.000000	30.847600
1560.000000	30.866000
1559.000000	30.883600
1558.000000	30.905500
1557.000000	30.918300
1556.000000	30.930800
1555.000000	30.940000
1554.000000	30.929800
1553.000000	30.919200
1552.000000	30.907900
1551.000000	30.897900
1550.000000	30.888100
1549.000000	30.871400
1548.000000	30.843500
1547.000000	30.834600
1546.000000	30.826700
1545.000000	30.802900
1544.000000	30.795200
1543.000000	30.794400
1542.000000	30.791500
1541.000000	30.788000
1540.000000	30.802800
1539.000000	30.813900
1538.000000	30.801800
1537.000000	30.792800
1536.000000	30.800200
1535.000000	30.799100
1534.000000	30.780100
1533.000000	30.760800
1532.000000	30.746600
1531.000000	30.735500
1530.000000	30.712500
1529.000000	30.691200
1528.000000	30.688800
1527.000000	30.663100
1526.000000	30.642400
1525.000000	30.621700
1524.000000	30.592700
1523.000000	30.552000
1522.000000	30.532400
1521.000000	30.510900
1520.000000	30.483400
1519.000000	30.447100
1518.000000	30.422800
1517.000000	30.391500
1516.000000	30.360900
1515.000000	30.331500
1514.000000	30.310300
1513.000000	30.293700
1512.000000	30.247800
1511.000000	30.198500
1510.000000	30.166100
1509.000000	30.133300
1508.000000	30.088800
1507.000000	30.064700
1506.000000	30.044000
1505.000000	30.015800
1504.000000	29.989200
1503.000000	29.959300
1502.000000	29.943900
1501.000000	29.939000
1500.000000	29.915600
1499.000000	29.914800
1498.000000	29.897000
1497.000000	29.897200
1496.000000	29.910800
1495.000000	29.911200
1494.000000	29.925300
1493.000000	29.948900
1492.000000	29.974200
1491.000000	29.989300
1490.000000	30.006400
1489.000000	30.041400
1488.000000	30.061500
1487.000000	30.095900
1486.000000	30.106500
1485.000000	30.131600
1484.000000	30.169500
1483.000000	30.206300
1482.000000	30.261000
1481.000000	30.321300
1480.000000	30.350300
1479.000000	30.394400
1478.000000	30.477600
1477.000000	30.535100
1476.000000	30.577000
1475.000000	30.639900
1474.000000	30.730800
1473.000000	30.816700
1472.000000	30.888200
1471.000000	30.947600
1470.000000	30.998500
1469.000000	31.051600
1468.000000	31.132400
1467.000000	31.231800
1466.000000	31.292600
1465.000000	31.373700
1464.000000	31.446600
1463.000000	31.548000
1462.000000	31.644300
1461.000000	31.767700
1460.000000	31.857900
1459.000000	31.960600
1458.000000	32.078500
1457.000000	32.224300
1456.000000	32.350400
1455.000000	32.482800
1454.000000	32.614000
1453.000000	32.762100
1452.000000	32.906300
1451.000000	33.050700
1450.000000	33.173900
1449.000000	33.279300
1448.000000	33.452300
1447.000000	33.632100
1446.000000	33.818200
1445.000000	33.959200
1444.000000	34.063400
1443.000000	34.249900
1442.000000	34.414300
1441.000000	34.552200
1440.000000	34.714600
1439.000000	34.873400
1438.000000	35.038600
1437.000000	35.166100
1436.000000	35.326300
1435.000000	35.490800
1434.000000	35.649500
1433.000000	35.839000
1432.000000	35.995400
1431.000000	36.152000
1430.000000	36.347200
1429.000000	36.569500
1428.000000	36.808000
1427.000000	37.022100
1426.000000	37.272000
1425.000000	37.552200
1424.000000	37.836800
1423.000000	38.083500
1422.000000	38.315600
1421.000000	38.644100
1420.000000	38.937100
1419.000000	39.202200
1418.000000	39.433900
1417.000000	39.633000
1416.000000	39.946600
1415.000000	40.251500
1414.000000	40.500100
1413.000000	40.682000
1412.000000	40.911400
1411.000000	41.251000
1410.000000	41.608900
1409.000000	41.978000
1408.000000	42.376000
1407.000000	42.795800
1406.000000	43.224700
1405.000000	43.661600
1404.000000	44.061700
1403.000000	44.510700
1402.000000	44.976200
1401.000000	45.517200
1400.000000	45.840800
1399.000000	46.065200
1398.000000	46.284600
1397.000000	46.579200
1396.000000	46.878000
1395.000000	46.999700
1394.000000	47.107900
1393.000000	47.243600
1392.000000	47.415800
1391.000000	47.558100
1390.000000	47.739300
1389.000000	48.029100
1388.000000	48.347200
1387.000000	48.597600
1386.000000	48.947800
1385.000000	49.367400
1384.000000	49.797200
1383.000000	50.163000
1382.000000	50.463900
1381.000000	50.629000
1380.000000	50.692700
1379.000000	50.744400
1378.000000	50.789200
1377.000000	50.876300
1376.000000	51.018400
1375.000000	51.236300
1374.000000	51.564500
1373.000000	51.973200
1372.000000	52.379600
1371.000000	52.773800
1370.000000	53.160700
1369.000000	53.524100
1368.000000	53.855700
1367.000000	54.098300
1366.000000	54.347800
1365.000000	54.586900
1364.000000	54.771100
1363.000000	54.972100
1362.000000	55.146400
1361.000000	55.248000
1360.000000	55.256500
1359.000000	55.315000
1358.000000	55.444100
1357.000000	55.687500
1356.000000	56.068000
1355.000000	56.604500
1354.000000	57.273500
1353.000000	57.927100
1352.000000	58.615800
1351.000000	59.321100
1350.000000	59.945500
1349.000000	60.500300
1348.000000	61.023300
1347.000000	61.485300
1346.000000	61.908600
1345.000000	62.363500
1344.000000	62.770600
1343.000000	63.138600
1342.000000	63.494200
1341.000000	63.855200
1340.000000	64.192700
1339.000000	64.496000
1338.000000	64.790900
1337.000000	65.068500
1336.000000	65.321900
1335.000000	65.575300
1334.000000	65.827000
1333.000000	66.059200
1332.000000	66.263900
1331.000000	66.468400
1330.000000	66.646800
1329.000000	66.807400
1328.000000	66.978400
1327.000000	67.126600
1326.000000	67.283700
1325.000000	67.429500
1324.000000	67.549500
1323.000000	67.668300
1322.000000	67.783900
1321.000000	67.896300
1320.000000	67.999900
1319.000000	68.098700
1318.000000	68.188600
1317.000000	68.268300
1316.000000	68.353400
1315.000000	68.439000
1314.000000	68.524100
1313.000000	68.590900
1312.000000	68.645300
1311.000000	68.701300
1310.000000	68.751000
1309.000000	68.783900
1308.000000	68.815900
1307.000000	68.848600
1306.000000	68.873800
1305.000000	68.895500
1304.000000	68.899600
1303.000000	68.897600
1302.000000	68.890900
1301.000000	68.882600
1300.000000	68.859500
1299.000000	68.832200
1298.000000	68.818300
1297.000000	68.802000
1296.000000	68.777900
1295.000000	68.742200
1294.000000	68.702200
1293.000000	68.659300
1292.000000	68.606500
1291.000000	68.556200
1290.000000	68.505300
1289.000000	68.431200
1288.000000	68.343700
1287.000000	68.258000
1286.000000	68.168400
1285.000000	68.078100
1284.000000	67.981800
1283.000000	67.872900
1282.000000	67.777600
1281.000000	67.677200
1280.000000	67.569200
1279.000000	67.462400
1278.000000	67.367400
1277.000000	67.284700
1276.000000	67.197900
1275.000000	67.112800
1274.000000	67.041600
1273.000000	66.993000
1272.000000	66.920500
1271.000000	66.851500
1270.000000	66.792600
1269.000000	66.725700
1268.000000	66.648500
1267.000000	66.589200
1266.000000	66.534000
1265.000000	66.466600
1264.000000	66.393400
1263.000000	66.313400
1262.000000	66.253300
1261.000000	66.186200
1260.000000	66.134700
1259.000000	66.082400
1258.000000	66.002700
1257.000000	65.934000
1256.000000	65.853100
1255.000000	65.779700
1254.000000	65.703000
1253.000000	65.597700
1252.000000	65.509300
1251.000000	65.414800
1250.000000	65.295400
1249.000000	65.168200
1248.000000	65.066300
1247.000000	64.925000
1246.000000	64.763000
1245.000000	64.607500
1244.000000	64.430800
1243.000000	64.249800
1242.000000	64.067400
1241.000000	63.853700
1240.000000	63.656300
1239.000000	63.474800
1238.000000	63.250100
1237.000000	63.031100
1236.000000	62.817300
1235.000000	62.599100
1234.000000	62.374500
1233.000000	62.147500
1232.000000	61.917900
1231.000000	61.689300
1230.000000	61.453100
1229.000000	61.229400
1228.000000	61.012700
1227.000000	60.791700
1226.000000	60.568700
1225.000000	60.350300
1224.000000	60.118000
1223.000000	59.913000
1222.000000	59.716200
1221.000000	59.526300
1220.000000	59.318500
1219.000000	59.138100
1218.000000	58.982300
1217.000000	58.834700
1216.000000	58.694800
1215.000000	58.543800
1214.000000	58.395000
1213.000000	58.285600
1212.000000	58.167200
1211.000000	58.037300
1210.000000	57.920800
1209.000000	57.826600
1208.000000	57.755900
1207.000000	57.672700
1206.000000	57.648500
1205.000000	57.603000
1204.000000	57.582100
1203.000000	57.567300
1202.000000	57.546400
1201.000000	57.502400
1200.000000	57.440100
1199.000000	57.335300
1198.000000	57.203500
1197.000000	57.018100
1196.000000	56.774100
1195.000000	56.441000
1194.000000	56.049800
1193.000000	55.579000
1192.000000	55.043000
1191.000000	54.492500
1190.000000	53.961800
1189.000000	53.540600
1188.000000	53.236100
1187.000000	53.089100
1186.000000	53.104200
1185.000000	53.240500
1184.000000	53.547300
1183.000000	54.006600
1182.000000	54.558100
1181.000000	55.170300
1180.000000	55.787100
1179.000000	56.316100
1178.000000	56.815200
1177.000000	57.221600
1176.000000	57.600000
1175.000000	57.935600
1174.000000	58.330700
1173.000000	58.685500
1172.000000	59.076900
1171.000000	59.509300
1170.000000	59.940300
1169.000000	60.364600
1168.000000	60.791300
1167.000000	61.239100
1166.000000	61.705800
1165.000000	62.165400
1164.000000	62.607700
1163.000000	63.092400
1162.000000	63.552100
1161.000000	64.011200
1160.000000	64.418000
1159.000000	64.838500
1158.000000	65.241500
1157.000000	65.584300
1156.000000	65.868300
1155.000000	66.087200
1154.000000	66.229200
1153.000000	66.331700
1152.000000	66.330000
1151.000000	66.322500
1150.000000	66.277600
1149.000000	66.256700
1148.000000	66.272900
1147.000000	66.327000
1146.000000	66.482100
1145.000000	66.747500
1144.000000	67.076500
1143.000000	67.425400
1142.000000	67.838600
1141.000000	68.271100
1140.000000	68.698400
1139.000000	69.136200
1138.000000	69.606900
1137.000000	70.070800
1136.000000	70.557400
1135.000000	71.030700
1134.000000	71.415200
1133.000000	71.719300
1132.000000	72.057500
1131.000000	72.400900
1130.000000	72.669300
1129.000000	72.896300
1128.000000	73.082600
1127.000000	73.222200
1126.000000	73.349500
1125.000000	73.436400
1124.000000	73.525900
1123.000000	73.597400
1122.000000	73.668500
1121.000000	73.721000
1120.000000	73.755300
1119.000000	73.780800
1118.000000	73.785400
1117.000000	73.797900
1116.000000	73.787600
1115.000000	73.778800
1114.000000	73.749700
1113.000000	73.763600
1112.000000	73.740000
1111.000000	73.722800
1110.000000	73.714200
1109.000000	73.696800
1108.000000	73.682300
1107.000000	73.691400
1106.000000	73.676900
1105.000000	73.657300
1104.000000	73.651000
1103.000000	73.631600
1102.000000	73.609300
1101.000000	73.580600
1100.000000	73.551800
1099.000000	73.519600
1098.000000	73.487600
1097.000000	73.486300
1096.000000	73.437800
1095.000000	73.399900
1094.000000	73.364700
1093.000000	73.302700
1092.000000	73.249200
1091.000000	73.214800
1090.000000	73.181000
1089.000000	73.116200
1088.000000	73.073900
1087.000000	73.030400
1086.000000	72.979500
1085.000000	72.921200
1084.000000	72.863300
1083.000000	72.823800
1082.000000	72.777700
1081.000000	72.717900
1080.000000	72.663600
1079.000000	72.606200
1078.000000	72.568900
1077.000000	72.519900
1076.000000	72.479300
1075.000000	72.434300
1074.000000	72.387500
1073.000000	72.347000
1072.000000	72.309500
1071.000000	72.278600
1070.000000	72.232600
1069.000000	72.182200
1068.000000	72.130200
1067.000000	72.084000
1066.000000	72.047700
1065.000000	72.008700
1064.000000	71.962200
1063.000000	71.923700
1062.000000	71.876100
1061.000000	71.823700
1060.000000	71.777100
1059.000000	71.754100
1058.000000	71.707200
1057.000000	71.650700
1056.000000	71.605100
1055.000000	71.583100
1054.000000	71.544800
1053.000000	71.500900
1052.000000	71.463500
1051.000000	71.442000
1050.000000	71.434600
1049.000000	71.412200
1048.000000	71.396100
1047.000000	71.399100
1046.000000	71.408800
1045.000000	71.405800
1044.000000	71.397100
1043.000000	71.412100
1042.000000	71.424800
1041.000000	71.426400
1040.000000	71.431200
1039.000000	71.445400
1038.000000	71.474800
1037.000000	71.477500
1036.000000	71.476100
1035.000000	71.482600
1034.000000	71.472800
1033.000000	71.475200
1032.000000	71.484000
1031.000000	71.474600
1030.000000	71.473900
1029.000000	71.472900
1028.000000	71.470200
1027.000000	71.455600
1026.000000	71.436700
1025.000000	71.438600
1024.000000	71.452400
1023.000000	71.450000
1022.000000	71.442700
1021.000000	71.439400
1020.000000	71.441200
1019.000000	71.460700
1018.000000	71.480700
1017.000000	71.497800
1016.000000	71.514800
1015.000000	71.539700
1014.000000	71.573600
1013.000000	71.621200
1012.000000	71.674700
1011.000000	71.725700
1010.000000	71.802800
1009.000000	71.877200
1008.000000	71.959000
1007.000000	72.042000
1006.000000	72.123400
1005.000000	72.214300
1004.000000	72.294100
1003.000000	72.375900
1002.000000	72.463700
1001.000000	72.534800
1000.000000	72.616800
999.000000	72.701700
998.000000	72.796100
997.000000	72.871300
996.000000	72.965200
995.000000	73.057700
994.000000	73.148400
993.000000	73.229400
992.000000	73.318100
991.000000	73.427000
990.000000	73.531000
989.000000	73.622800
988.000000	73.724100
987.000000	73.816300
986.000000	73.923100
985.000000	74.041900
984.000000	74.138600
983.000000	74.243400
982.000000	74.359300
981.000000	74.478200
980.000000	74.580200
979.000000	74.687200
978.000000	74.807600
977.000000	74.901000
976.000000	75.018800
975.000000	75.116800
974.000000	75.232800
973.000000	75.328500
972.000000	75.435100
971.000000	75.523700
970.000000	75.617900
969.000000	75.687000
968.000000	75.778300
967.000000	75.879500
966.000000	75.967400
965.000000	76.024800
964.000000	76.108700
963.000000	76.189200
962.000000	76.326100
961.000000	76.441300
960.000000	76.517300
959.000000	76.612200
958.000000	76.712600
957.000000	76.821700
956.000000	76.934600
955.000000	77.010400
954.000000	77.064900
953.000000	77.111800
952.000000	77.187500
951.000000	77.238200
950.000000	77.301300
949.000000	77.354100
948.000000	77.380700
947.000000	77.445200
946.000000	77.474600
945.000000	77.499000
944.000000	77.519700
943.000000	77.584800
942.000000	77.585300
941.000000	77.606200
940.000000	77.691300
939.000000	77.728200
938.000000	77.724900
937.000000	77.780000
936.000000	77.864000
935.000000	77.884200
934.000000	77.920400
933.000000	77.949100
932.000000	78.020100
931.000000	78.023700
930.000000	78.055900
929.000000	78.128300
928.000000	78.133400
927.000000	78.144700
926.000000	78.158700
925.000000	78.250700
924.000000	78.250000
923.000000	78.272200
922.000000	78.300500
921.000000	78.326700
920.000000	78.362600
919.000000	78.465900
918.000000	78.477500
917.000000	78.490500
916.000000	78.486500
915.000000	78.495600
914.000000	78.604800
913.000000	78.584300
912.000000	78.627000
911.000000	78.670500
910.000000	78.695100
909.000000	78.749000
908.000000	78.801700
907.000000	78.870500
906.000000	78.929900
905.000000	79.033800
904.000000	79.103700
903.000000	79.193400
902.000000	79.297300
901.000000	79.396200
900.000000	79.512400
899.000000	79.614300
898.000000	79.717000
897.000000	79.806400
896.000000	79.915700
895.000000	80.011700
894.000000	80.099000
893.000000	80.133700
892.000000	80.194600
891.000000	80.243800
890.000000	80.298100
889.000000	80.333000
888.000000	80.350700
887.000000	80.380300
886.000000	80.361100
885.000000	80.341800
884.000000	80.336600
883.000000	80.314800
882.000000	80.314600
881.000000	80.263100
880.000000	80.201000
879.000000	80.171700
878.000000	80.143000
877.000000	80.084600
876.000000	80.067900
875.000000	80.052000
874.000000	80.032000
873.000000	79.990700
872.000000	79.985800
871.000000	79.970400
870.000000	80.021000
869.000000	80.035600
868.000000	80.088300
867.000000	80.158400
866.000000	80.227000
865.000000	80.303500
864.000000	80.363000
863.000000	80.446300
862.000000	80.514000
861.000000	80.598000
860.000000	80.652600
859.000000	80.666200
858.000000	81.092900
857.000000	80.743380
856.000000	81.104829
855.000000	81.279708
854.000000	81.823282
853.000000	81.727727
852.000000	82.331011
851.000000	82.430334
850.000000	82.937484
849.000000	83.172652
848.000000	83.453039
847.000000	83.732169
846.000000	83.776806
845.000000	84.115840
844.000000	84.516226
843.000000	84.667723
842.000000	84.755356
841.000000	84.986080
840.000000	85.180476
839.000000	85.385983
838.000000	85.637287
837.000000	85.810813
836.000000	85.806176
835.000000	86.065306
834.000000	86.003953
833.000000	85.945499
832.000000	86.137190
831.000000	86.182890
830.000000	86.054581
829.000000	86.134388
828.000000	86.219605
827.000000	86.220571
826.000000	86.032939
825.000000	86.054485
824.000000	85.951103
823.000000	85.930330
822.000000	85.786079
821.000000	85.762408
820.000000	85.860765
819.000000	85.694872
818.000000	85.638157
817.000000	85.545983
816.000000	85.631780
815.000000	85.624727
814.000000	85.622891
813.000000	85.636611
812.000000	85.527915
811.000000	85.598640
810.000000	85.732843
809.000000	85.623471
808.000000	85.632843
807.000000	85.765016
806.000000	85.684630
805.000000	85.787818
804.000000	85.841152
803.000000	85.777577
802.000000	85.839412
801.000000	85.980765
800.000000	86.016514
799.000000	86.096900
798.000000	86.047915
797.000000	86.021441
796.000000	86.022118
795.000000	85.938736
794.000000	85.841248
793.000000	85.820862
792.000000	85.921828
791.000000	85.901152
790.000000	85.678640
789.000000	85.560572
788.000000	85.475645
787.000000	85.363568
786.000000	85.303954
785.000000	85.279027
784.000000	85.180573
783.000000	85.114582
782.000000	85.047916
781.000000	84.974003
780.000000	84.918930
779.000000	84.839704
778.000000	84.761153
777.000000	84.763568
776.000000	84.727723
775.000000	84.733520
774.000000	84.743568
773.000000	84.713230
772.000000	84.609462
771.000000	84.494390
770.000000	84.526081
769.000000	84.464728
768.000000	84.296999
767.000000	84.168400
766.000000	84.101540
765.000000	84.052941
764.000000	83.990526
763.000000	83.918255
762.000000	83.746565
761.000000	83.563860
760.000000	83.444150
759.000000	83.296903
758.000000	83.124923
757.000000	82.935455
756.000000	82.774778
755.000000	82.518257
754.000000	82.260093
753.000000	81.999900
752.000000	81.583476
751.000000	81.213331
750.000000	80.853138
749.000000	80.475071
748.000000	80.001159
747.000000	79.510048
746.000000	79.094300
745.000000	78.617972
744.000000	78.122417
743.000000	77.624930
742.000000	77.169858
741.000000	76.725027
740.000000	76.239424
739.000000	75.816429
738.000000	75.400005
737.000000	75.008604
736.000000	74.564644
735.000000	74.065127
734.000000	73.626964
733.000000	73.164645
732.000000	72.707931
731.000000	72.324550
730.000000	71.837884
729.000000	71.357594
728.000000	70.908803
727.000000	70.514504
726.000000	70.101944
725.000000	69.692572
724.000000	69.352379
723.000000	69.034892
722.000000	68.783491
721.000000	68.537888
720.000000	68.304844
719.000000	68.112188
718.000000	67.983009
717.000000	67.936149
716.000000	67.934507
715.000000	67.870835
714.000000	67.846777
713.000000	67.851995
712.000000	67.874120
711.000000	67.935569
710.000000	67.939724
709.000000	67.901463
708.000000	67.817309
707.000000	67.773831
706.000000	67.786198
705.000000	67.734314
704.000000	67.662236
703.000000	67.604652
702.000000	67.561174
701.000000	67.484845
700.000000	67.523686
699.000000	67.529193
698.000000	67.553251
697.000000	67.654990
696.000000	67.702720
695.000000	67.791222
694.000000	67.877502
693.000000	67.883396
692.000000	67.895473
691.000000	67.933251
690.000000	67.913637
689.000000	67.799917
688.000000	67.647840
687.000000	67.484072
686.000000	67.298759
685.000000	67.047358
684.000000	66.774122
683.000000	66.456248
682.000000	66.234895
681.000000	65.936538
680.000000	65.666587
679.000000	65.473447
678.000000	65.259727
677.000000	65.074124
676.000000	64.909486
675.000000	64.764462
674.000000	64.583303
673.000000	64.364269
672.000000	64.056347
671.000000	63.799246
670.000000	63.394512
669.000000	62.996542
668.000000	62.520310
667.000000	61.953934
666.000000	61.338863
665.000000	60.698380
664.000000	60.026787
663.000000	59.304082
662.000000	58.564663
661.000000	57.797128
660.000000	57.157322
659.000000	56.481477
658.000000	55.798869
657.000000	55.193170
656.000000	54.611528
655.000000	54.135007
654.000000	53.550756
653.000000	53.005443
652.000000	52.501675
651.000000	52.016265
650.000000	51.428730
649.000000	50.932015
648.000000	50.442451
647.000000	50.012596
646.000000	49.606027
645.000000	49.310278
644.000000	49.108733
643.000000	48.984675
642.000000	49.018298
641.000000	49.238587
640.000000	49.532307
639.000000	49.960905
638.000000	50.509890
637.000000	51.168344
636.000000	51.864671
635.000000	52.676844
634.000000	53.537230
633.000000	54.417712
632.000000	55.278387
631.000000	56.155874
630.000000	57.076066
629.000000	58.007466
628.000000	58.893552
627.000000	59.750265
626.000000	60.673936
625.000000	61.626592
624.000000	62.585624
623.000000	63.617024
622.000000	64.649003
621.000000	65.676249
620.000000	66.742817
619.000000	67.866681
618.000000	68.906100
617.000000	69.943007
616.000000	70.987160
615.000000	71.936627
614.000000	72.955080
613.000000	73.852181
612.000000	74.746382
611.000000	75.557299
610.000000	76.324448
609.000000	77.111694
608.000000	77.760485
607.000000	78.454494
606.000000	79.107247
605.000000	79.725120
604.000000	80.295168
603.000000	80.863380
602.000000	81.431302
601.000000	81.942026
600.000000	82.463475
599.000000	82.854102
598.000000	83.283377
597.000000	83.647918
596.000000	84.082893
595.000000	84.410525
594.000000	84.729945
593.000000	85.094969
592.000000	85.349944
591.000000	85.629171
590.000000	85.863084
589.000000	86.090716
588.000000	86.203373
587.000000	86.358252
586.000000	86.485788
585.000000	86.541537
584.000000	86.571585
583.000000	86.602793
582.000000	86.677962
581.000000	86.632165
580.000000	86.569460
579.000000	86.568880
578.000000	86.479122
577.000000	86.428590
576.000000	86.328880
575.000000	86.287141
574.000000	86.129557
573.000000	86.015258
572.000000	85.872166
571.000000	85.776804
570.000000	85.668108
569.000000	85.522988
568.000000	85.357287
567.000000	85.213133
566.000000	84.998544
565.000000	84.805501
564.000000	84.579607
563.000000	84.356612
562.000000	84.114390
561.000000	83.771396
560.000000	83.497580
559.000000	83.101058
558.000000	82.753426
557.000000	82.363765
556.000000	81.994393
555.000000	81.533910
554.000000	81.069563
553.000000	80.577486
552.000000	80.097874
551.000000	79.511594
550.000000	78.927440
549.000000	78.335170
548.000000	77.721258
547.000000	77.103578
546.000000	76.442419
545.000000	75.728120
544.000000	74.992566
543.000000	74.253629
542.000000	73.474983
541.000000	72.667641
540.000000	71.820202
539.000000	70.949672
538.000000	70.050543
537.000000	69.144940
536.000000	68.196632
535.000000	67.161561
534.000000	66.145717
533.000000	65.084558
532.000000	64.003400
531.000000	62.901566
530.000000	61.760505
529.000000	60.621376
528.000000	59.490459
527.000000	58.315001
526.000000	57.150945
525.000000	55.968724
524.000000	54.771528
523.000000	53.533945
522.000000	52.282932
521.000000	51.024092
520.000000	49.729601
519.000000	48.462936
518.000000	47.189894
517.000000	45.889123
516.000000	44.564294
515.000000	43.270286
514.000000	41.983427
513.000000	40.687970
512.000000	39.447102
511.000000	38.247780
510.000000	37.092032
509.000000	36.019280
508.000000	35.013484
507.000000	34.079089
506.000000	33.218220
505.000000	32.424791
504.000000	31.709720
503.000000	31.076484
502.000000	30.494166
501.000000	30.013104
500.000000	29.619288
499.000000	29.308467
498.000000	29.049723
497.000000	28.883830
496.000000	28.763153
495.000000	28.702767
494.000000	28.688468
493.000000	28.707115
492.000000	28.731463
491.000000	28.791269
490.000000	28.859965
489.000000	28.931076
488.000000	29.001607
487.000000	29.067984
486.000000	29.113974
485.000000	29.149723
484.000000	29.172718
483.000000	29.181897
482.000000	29.168467
481.000000	29.133201
480.000000	29.070303
479.000000	28.989240
478.000000	28.905472
477.000000	28.810786
476.000000	28.683057
475.000000	28.550883
474.000000	28.436101
473.000000	28.298999
472.000000	28.145087
471.000000	28.004024
470.000000	27.848565
469.000000	27.681319
468.000000	27.512044
467.000000	27.347889
466.000000	27.195233
465.000000	27.020064
464.000000	26.804798
463.000000	26.594557
462.000000	26.415427
461.000000	26.202867
460.000000	25.968374
459.000000	25.753785
458.000000	25.532143
457.000000	25.279776
456.000000	25.052337
455.000000	24.813400
454.000000	24.537265
453.000000	24.247990
452.000000	23.956976
451.000000	23.650792
450.000000	23.326832
449.000000	22.988378
448.000000	22.646542
447.000000	22.292050
446.000000	21.907413
445.000000	21.505481
444.000000	21.081327
443.000000	20.660748
442.000000	20.225579
441.000000	19.778817
440.000000	19.308672
439.000000	18.817079
438.000000	18.327321
437.000000	17.841621
436.000000	17.346066
435.000000	16.839883
434.000000	16.327227
433.000000	15.801817
432.000000	15.298146
431.000000	14.798823
430.000000	14.285973
429.000000	13.774862
428.000000	13.284911
427.000000	12.812931
426.000000	12.348004
425.000000	11.889068
424.000000	11.443754
423.000000	11.030132
422.000000	10.631388
421.000000	10.244046
420.000000	9.891679
419.000000	9.555061
418.000000	9.233322
417.000000	8.944240
416.000000	8.664724
415.000000	8.410425
414.000000	8.183178
413.000000	7.969556
412.000000	7.772068
411.000000	7.594097
410.000000	7.434580
409.000000	7.286078
408.000000	7.160185
407.000000	7.043276
406.000000	6.936900
405.000000	6.856513
404.000000	6.765596
403.000000	6.678156
402.000000	6.614098
401.000000	6.555354
400.000000	6.496707
399.000000	6.429074
398.000000	6.388301
397.000000	6.348591
396.000000	6.306756
395.000000	6.269268
394.000000	6.239123
393.000000	6.207239
392.000000	6.164534
391.000000	6.124147
390.000000	6.091973
389.000000	6.071394
388.000000	6.045886
387.000000	6.012167
386.000000	5.992940
385.000000	5.978737
384.000000	5.945693
383.000000	5.912167
382.000000	5.893906
381.000000	5.866370
380.000000	5.852457
379.000000	5.836708
378.000000	5.797288
377.000000	5.762215
376.000000	5.749172
375.000000	5.781829
374.000000	5.733616
373.000000	5.653230
372.000000	5.647916
371.000000	5.646660
370.000000	5.658351
369.000000	5.634872
368.000000	5.592650
367.000000	5.581346
366.000000	5.570331
365.000000	5.565597
364.000000	5.527240
363.000000	5.459510
362.000000	5.516032
361.000000	5.503665
360.000000	5.495066
359.000000	5.468109
358.000000	5.446370
357.000000	5.436515
356.000000	5.403278
355.000000	5.374100
354.000000	5.341153
353.000000	5.343762
352.000000	5.368013
351.000000	5.284631
350.000000	5.266950
349.000000	5.325404
348.000000	5.281829
347.000000	5.301829
346.000000	5.270815
345.000000	5.285791
344.000000	5.243762
343.000000	5.237771
342.000000	5.280477
341.000000	5.285597
340.000000	5.252940
339.000000	5.221829
338.000000	5.222409
337.000000	5.242506
336.000000	5.194680
335.000000	5.238448
334.000000	5.254873
333.000000	5.258061
332.000000	5.237771
331.000000	5.217385
330.000000	5.253907
329.000000	5.254583
328.000000	5.271878
327.000000	5.250718
326.000000	5.261443
325.000000	5.268399
324.000000	5.218158
323.000000	5.269172
322.000000	5.235646
321.000000	5.236129
320.000000	5.323665
319.000000	5.355163
318.000000	5.248883
317.000000	5.235646
316.000000	5.289269
315.000000	5.258931
314.000000	5.291008
313.000000	5.289945
312.000000	5.326660
311.000000	5.305404
310.000000	5.283665
309.000000	5.307723
308.000000	5.320283
307.000000	5.331781
306.000000	5.325114
305.000000	5.309366
304.000000	5.332167
303.000000	5.315742
302.000000	5.315839
301.000000	5.330042
300.000000	5.317771
299.000000	5.330911
298.000000	5.345114
297.000000	5.360766
296.000000	5.356805
295.000000	5.386950
294.000000	5.355549
293.000000	5.363085
292.000000	5.379704
291.000000	5.358061
290.000000	5.396805
289.000000	5.414583
288.000000	5.399993
287.000000	5.353230
286.000000	5.444148
285.000000	5.420187
284.000000	5.429848
283.000000	5.439027
282.000000	5.469462
281.000000	5.459414
280.000000	5.482602
279.000000	5.496515
278.000000	5.462216
277.000000	5.523472
276.000000	5.529172
275.000000	5.542988
274.000000	5.557771
273.000000	5.535066
272.000000	5.574679
271.000000	5.591008
270.000000	5.615162
269.000000	5.628979
268.000000	5.671104
267.000000	5.709848
266.000000	5.696805
265.000000	5.756998
264.000000	5.785597
263.000000	5.773230
262.000000	5.782408
261.000000	5.776901
260.000000	5.833713
259.000000	5.869848
258.000000	5.899123
257.000000	5.903181
256.000000	5.915259
255.000000	5.871297
254.000000	5.925403
253.000000	5.940089
252.000000	5.974775
251.000000	5.980283
250.000000	5.984244
