PE UV       SUBTECH     SPECTRUM    ASCII       PEDS        4.00        
   -1
CICIMAUCR0019-4.Sample.ASC
24/04/25
13:38:40.00
24/04/25
13:38:40.00
Vinicio Soto Monge
C. cupreomarginata
250,000000
1
Lambda 1050
1050L1511233
PerkinElmer UV WinLab 6.3.2.0749 / 2.02.05 Lambda 900 UV/VIS/NIR, Aug  7 2015 09:38:08

0
0
3350/servo 860,8/2
0
0
UV/VIS
1
1
1
DoubleDePol,CommonBeamDepol,RBeamAtt,SBeamAtt,60mm sphere, WB InGaAs Detector
0
0
0
0
Program
Program
3350/servo 860,8/2
3350/0,2 860,8/0,2
3350/0,2 860,8/0,2
0
15.00
 
 
 
0
 
860,8
319,2
860,8
Front
100
on
S:100 R:100
0
0
0
0
 
0
 
 
 
0
 
 
0
0
0
0
0
 
 
 
 
0
0


0
0
#HDR
-1
-1
#GR
nm
%R
1.0
0.0
2500,000000
-1,000000
2251
8
69,189300
4,787900
#DATA
2500.000000	5.180900
2499.000000	5.056000
2498.000000	5.062500
2497.000000	5.060300
2496.000000	5.144800
2495.000000	5.011500
2494.000000	5.195000
2493.000000	4.977300
2492.000000	5.029700
2491.000000	5.001200
2490.000000	4.985400
2489.000000	4.942200
2488.000000	4.909400
2487.000000	4.942000
2486.000000	4.982400
2485.000000	4.972700
2484.000000	4.893300
2483.000000	4.917600
2482.000000	4.941500
2481.000000	4.912800
2480.000000	4.927000
2479.000000	4.904100
2478.000000	4.978500
2477.000000	4.916400
2476.000000	4.920300
2475.000000	4.894800
2474.000000	4.910700
2473.000000	4.892200
2472.000000	4.864900
2471.000000	4.885800
2470.000000	4.853700
2469.000000	4.879000
2468.000000	4.888100
2467.000000	4.894200
2466.000000	4.892500
2465.000000	4.906600
2464.000000	4.894700
2463.000000	4.885100
2462.000000	4.927200
2461.000000	4.939600
2460.000000	4.963900
2459.000000	4.935000
2458.000000	4.980100
2457.000000	4.994800
2456.000000	4.988100
2455.000000	5.013500
2454.000000	5.017800
2453.000000	5.049700
2452.000000	5.063000
2451.000000	5.071700
2450.000000	5.084700
2449.000000	5.097700
2448.000000	5.138700
2447.000000	5.173500
2446.000000	5.214400
2445.000000	5.217100
2444.000000	5.222500
2443.000000	5.255700
2442.000000	5.289200
2441.000000	5.277100
2440.000000	5.318600
2439.000000	5.374600
2438.000000	5.382300
2437.000000	5.399700
2436.000000	5.410500
2435.000000	5.430200
2434.000000	5.431300
2433.000000	5.437200
2432.000000	5.462800
2431.000000	5.491500
2430.000000	5.505700
2429.000000	5.511500
2428.000000	5.530400
2427.000000	5.537500
2426.000000	5.563000
2425.000000	5.569100
2424.000000	5.572400
2423.000000	5.596400
2422.000000	5.582900
2421.000000	5.588800
2420.000000	5.607100
2419.000000	5.611400
2418.000000	5.605000
2417.000000	5.620700
2416.000000	5.629700
2415.000000	5.635600
2414.000000	5.661000
2413.000000	5.669000
2412.000000	5.656000
2411.000000	5.661200
2410.000000	5.691400
2409.000000	5.727300
2408.000000	5.767700
2407.000000	5.838600
2406.000000	5.885800
2405.000000	5.892700
2404.000000	5.881900
2403.000000	5.887900
2402.000000	5.937400
2401.000000	5.958900
2400.000000	5.967300
2399.000000	6.011600
2398.000000	6.010700
2397.000000	6.023100
2396.000000	6.050600
2395.000000	6.067400
2394.000000	6.093700
2393.000000	6.120100
2392.000000	6.141900
2391.000000	6.167300
2390.000000	6.170600
2389.000000	6.172900
2388.000000	6.188300
2387.000000	6.208300
2386.000000	6.233700
2385.000000	6.259700
2384.000000	6.246600
2383.000000	6.263100
2382.000000	6.277700
2381.000000	6.274300
2380.000000	6.264700
2379.000000	6.287500
2378.000000	6.305900
2377.000000	6.299100
2376.000000	6.301200
2375.000000	6.315300
2374.000000	6.319400
2373.000000	6.302300
2372.000000	6.302000
2371.000000	6.300400
2370.000000	6.278900
2369.000000	6.277900
2368.000000	6.290000
2367.000000	6.269600
2366.000000	6.246300
2365.000000	6.239000
2364.000000	6.238700
2363.000000	6.219200
2362.000000	6.208500
2361.000000	6.209300
2360.000000	6.188700
2359.000000	6.161800
2358.000000	6.163000
2357.000000	6.163600
2356.000000	6.148200
2355.000000	6.125800
2354.000000	6.138400
2353.000000	6.162800
2352.000000	6.164000
2351.000000	6.182400
2350.000000	6.200600
2349.000000	6.207100
2348.000000	6.243900
2347.000000	6.271500
2346.000000	6.286800
2345.000000	6.313100
2344.000000	6.350600
2343.000000	6.388500
2342.000000	6.422500
2341.000000	6.444300
2340.000000	6.440700
2339.000000	6.447800
2338.000000	6.498700
2337.000000	6.531100
2336.000000	6.512100
2335.000000	6.510500
2334.000000	6.519300
2333.000000	6.519700
2332.000000	6.513800
2331.000000	6.490000
2330.000000	6.475200
2329.000000	6.467000
2328.000000	6.477900
2327.000000	6.462300
2326.000000	6.433500
2325.000000	6.401400
2324.000000	6.384500
2323.000000	6.372900
2322.000000	6.341800
2321.000000	6.306100
2320.000000	6.281500
2319.000000	6.252200
2318.000000	6.219900
2317.000000	6.169200
2316.000000	6.128800
2315.000000	6.116200
2314.000000	6.086800
2313.000000	6.058200
2312.000000	6.026600
2311.000000	6.010700
2310.000000	6.008000
2309.000000	5.983700
2308.000000	5.973900
2307.000000	5.986900
2306.000000	5.997500
2305.000000	6.009700
2304.000000	6.017500
2303.000000	6.063900
2302.000000	6.074400
2301.000000	6.107300
2300.000000	6.156700
2299.000000	6.190700
2298.000000	6.226200
2297.000000	6.256500
2296.000000	6.303000
2295.000000	6.338400
2294.000000	6.368400
2293.000000	6.387800
2292.000000	6.416800
2291.000000	6.423300
2290.000000	6.462500
2289.000000	6.463000
2288.000000	6.471300
2287.000000	6.458400
2286.000000	6.454500
2285.000000	6.446700
2284.000000	6.441800
2283.000000	6.424600
2282.000000	6.433800
2281.000000	6.404600
2280.000000	6.391300
2279.000000	6.407700
2278.000000	6.389900
2277.000000	6.371700
2276.000000	6.353400
2275.000000	6.356100
2274.000000	6.361000
2273.000000	6.351400
2272.000000	6.380500
2271.000000	6.394500
2270.000000	6.409700
2269.000000	6.402900
2268.000000	6.430300
2267.000000	6.471100
2266.000000	6.550600
2265.000000	6.587500
2264.000000	6.659300
2263.000000	6.707700
2262.000000	6.805500
2261.000000	6.868700
2260.000000	6.960100
2259.000000	7.052600
2258.000000	7.162800
2257.000000	7.285500
2256.000000	7.362200
2255.000000	7.479500
2254.000000	7.576200
2253.000000	7.685900
2252.000000	7.794900
2251.000000	7.878900
2250.000000	7.985100
2249.000000	8.070800
2248.000000	8.162400
2247.000000	8.249200
2246.000000	8.302400
2245.000000	8.379300
2244.000000	8.461500
2243.000000	8.525200
2242.000000	8.577900
2241.000000	8.639800
2240.000000	8.728100
2239.000000	8.761400
2238.000000	8.811800
2237.000000	8.863000
2236.000000	8.890200
2235.000000	8.943700
2234.000000	9.003900
2233.000000	9.028900
2232.000000	9.058300
2231.000000	9.091000
2230.000000	9.098900
2229.000000	9.147600
2228.000000	9.175600
2227.000000	9.180300
2226.000000	9.198100
2225.000000	9.219000
2224.000000	9.204100
2223.000000	9.218500
2222.000000	9.223900
2221.000000	9.233100
2220.000000	9.228800
2219.000000	9.234300
2218.000000	9.252800
2217.000000	9.245700
2216.000000	9.252100
2215.000000	9.260500
2214.000000	9.229400
2213.000000	9.232300
2212.000000	9.224800
2211.000000	9.216500
2210.000000	9.239500
2209.000000	9.248400
2208.000000	9.205900
2207.000000	9.215100
2206.000000	9.206700
2205.000000	9.210500
2204.000000	9.219000
2203.000000	9.234800
2202.000000	9.216300
2201.000000	9.204200
2200.000000	9.211700
2199.000000	9.200400
2198.000000	9.195800
2197.000000	9.220200
2196.000000	9.205000
2195.000000	9.207400
2194.000000	9.205300
2193.000000	9.222500
2192.000000	9.215800
2191.000000	9.215400
2190.000000	9.210300
2189.000000	9.215200
2188.000000	9.208100
2187.000000	9.178200
2186.000000	9.189100
2185.000000	9.174500
2184.000000	9.160000
2183.000000	9.174000
2182.000000	9.155800
2181.000000	9.150900
2180.000000	9.163700
2179.000000	9.147300
2178.000000	9.131600
2177.000000	9.141500
2176.000000	9.139200
2175.000000	9.140800
2174.000000	9.151100
2173.000000	9.138300
2172.000000	9.149000
2171.000000	9.171900
2170.000000	9.172800
2169.000000	9.166800
2168.000000	9.150900
2167.000000	9.157300
2166.000000	9.181500
2165.000000	9.195200
2164.000000	9.178400
2163.000000	9.182400
2162.000000	9.201300
2161.000000	9.222000
2160.000000	9.229500
2159.000000	9.235200
2158.000000	9.235100
2157.000000	9.256000
2156.000000	9.269800
2155.000000	9.270100
2154.000000	9.254400
2153.000000	9.285300
2152.000000	9.310500
2151.000000	9.310600
2150.000000	9.321800
2149.000000	9.338900
2148.000000	9.347900
2147.000000	9.367100
2146.000000	9.376500
2145.000000	9.369900
2144.000000	9.372800
2143.000000	9.368100
2142.000000	9.366800
2141.000000	9.400600
2140.000000	9.416600
2139.000000	9.411500
2138.000000	9.413600
2137.000000	9.432000
2136.000000	9.423600
2135.000000	9.431200
2134.000000	9.447000
2133.000000	9.428900
2132.000000	9.433600
2131.000000	9.444200
2130.000000	9.430900
2129.000000	9.431000
2128.000000	9.434300
2127.000000	9.435600
2126.000000	9.412000
2125.000000	9.398200
2124.000000	9.391600
2123.000000	9.380400
2122.000000	9.368500
2121.000000	9.371100
2120.000000	9.347700
2119.000000	9.340200
2118.000000	9.347000
2117.000000	9.323100
2116.000000	9.294000
2115.000000	9.281800
2114.000000	9.265900
2113.000000	9.262100
2112.000000	9.253500
2111.000000	9.246300
2110.000000	9.228900
2109.000000	9.203200
2108.000000	9.194500
2107.000000	9.182100
2106.000000	9.162800
2105.000000	9.147700
2104.000000	9.126500
2103.000000	9.120300
2102.000000	9.109300
2101.000000	9.089900
2100.000000	9.071900
2099.000000	9.058900
2098.000000	9.059300
2097.000000	9.045300
2096.000000	9.035700
2095.000000	9.028800
2094.000000	9.008600
2093.000000	8.998700
2092.000000	9.001500
2091.000000	8.992400
2090.000000	8.982600
2089.000000	8.969400
2088.000000	8.961000
2087.000000	8.964500
2086.000000	8.956300
2085.000000	8.948500
2084.000000	8.939700
2083.000000	8.934900
2082.000000	8.928200
2081.000000	8.913800
2080.000000	8.912400
2079.000000	8.916800
2078.000000	8.915600
2077.000000	8.896400
2076.000000	8.890200
2075.000000	8.884200
2074.000000	8.869900
2073.000000	8.867200
2072.000000	8.861100
2071.000000	8.856900
2070.000000	8.835800
2069.000000	8.835300
2068.000000	8.839200
2067.000000	8.816000
2066.000000	8.806100
2065.000000	8.815300
2064.000000	8.803100
2063.000000	8.802000
2062.000000	8.805600
2061.000000	8.801100
2060.000000	8.800000
2059.000000	8.805300
2058.000000	8.812100
2057.000000	8.822100
2056.000000	8.840500
2055.000000	8.850600
2054.000000	8.868300
2053.000000	8.892500
2052.000000	8.928400
2051.000000	8.965300
2050.000000	8.989700
2049.000000	9.027200
2048.000000	9.062300
2047.000000	9.130400
2046.000000	9.180000
2045.000000	9.226600
2044.000000	9.258200
2043.000000	9.320700
2042.000000	9.379700
2041.000000	9.414300
2040.000000	9.475900
2039.000000	9.533700
2038.000000	9.595100
2037.000000	9.637200
2036.000000	9.669800
2035.000000	9.715100
2034.000000	9.748800
2033.000000	9.793900
2032.000000	9.822300
2031.000000	9.863800
2030.000000	9.906600
2029.000000	9.931300
2028.000000	9.962700
2027.000000	9.988500
2026.000000	10.025800
2025.000000	10.039200
2024.000000	10.069700
2023.000000	10.099100
2022.000000	10.103600
2021.000000	10.133300
2020.000000	10.172800
2019.000000	10.191500
2018.000000	10.200500
2017.000000	10.214700
2016.000000	10.239100
2015.000000	10.256800
2014.000000	10.260100
2013.000000	10.277700
2012.000000	10.266800
2011.000000	10.272200
2010.000000	10.262200
2009.000000	10.277300
2008.000000	10.274900
2007.000000	10.269900
2006.000000	10.269200
2005.000000	10.260100
2004.000000	10.243300
2003.000000	10.234000
2002.000000	10.235300
2001.000000	10.216600
2000.000000	10.200600
1999.000000	10.177200
1998.000000	10.157900
1997.000000	10.157400
1996.000000	10.122300
1995.000000	10.091400
1994.000000	10.068400
1993.000000	10.069300
1992.000000	10.034700
1991.000000	10.001900
1990.000000	9.954400
1989.000000	9.931400
1988.000000	9.918400
1987.000000	9.873900
1986.000000	9.863200
1985.000000	9.810000
1984.000000	9.784100
1983.000000	9.762000
1982.000000	9.738500
1981.000000	9.687900
1980.000000	9.641100
1979.000000	9.616100
1978.000000	9.582000
1977.000000	9.566300
1976.000000	9.522700
1975.000000	9.483900
1974.000000	9.464800
1973.000000	9.432200
1972.000000	9.381200
1971.000000	9.358600
1970.000000	9.329300
1969.000000	9.312600
1968.000000	9.268800
1967.000000	9.245000
1966.000000	9.215000
1965.000000	9.226800
1964.000000	9.172600
1963.000000	9.134400
1962.000000	9.123000
1961.000000	9.081200
1960.000000	9.069200
1959.000000	9.043400
1958.000000	9.008400
1957.000000	8.987100
1956.000000	8.978400
1955.000000	8.944900
1954.000000	8.909400
1953.000000	8.901300
1952.000000	8.877400
1951.000000	8.847500
1950.000000	8.819800
1949.000000	8.816900
1948.000000	8.802400
1947.000000	8.774700
1946.000000	8.782400
1945.000000	8.744500
1944.000000	8.741400
1943.000000	8.740200
1942.000000	8.753100
1941.000000	8.743000
1940.000000	8.741900
1939.000000	8.761400
1938.000000	8.753000
1937.000000	8.774400
1936.000000	8.761900
1935.000000	8.766800
1934.000000	8.801600
1933.000000	8.825300
1932.000000	8.849000
1931.000000	8.900000
1930.000000	8.907100
1929.000000	8.952600
1928.000000	8.989300
1927.000000	9.022900
1926.000000	9.061900
1925.000000	9.121500
1924.000000	9.186900
1923.000000	9.237800
1922.000000	9.304800
1921.000000	9.372900
1920.000000	9.432300
1919.000000	9.501200
1918.000000	9.582200
1917.000000	9.660000
1916.000000	9.730900
1915.000000	9.827000
1914.000000	9.920300
1913.000000	10.017600
1912.000000	10.100800
1911.000000	10.191700
1910.000000	10.301800
1909.000000	10.379700
1908.000000	10.475500
1907.000000	10.601400
1906.000000	10.723700
1905.000000	10.839800
1904.000000	10.953600
1903.000000	11.072100
1902.000000	11.190900
1901.000000	11.324500
1900.000000	11.454300
1899.000000	11.586300
1898.000000	11.708000
1897.000000	11.833900
1896.000000	11.957600
1895.000000	12.092400
1894.000000	12.228500
1893.000000	12.366300
1892.000000	12.548800
1891.000000	12.723100
1890.000000	12.885400
1889.000000	13.049400
1888.000000	13.229100
1887.000000	13.438500
1886.000000	13.665400
1885.000000	13.916200
1884.000000	14.219500
1883.000000	14.519000
1882.000000	14.827800
1881.000000	15.162700
1880.000000	15.462000
1879.000000	15.777600
1878.000000	16.104800
1877.000000	16.417000
1876.000000	16.696300
1875.000000	16.961800
1874.000000	17.215300
1873.000000	17.438300
1872.000000	17.656700
1871.000000	17.839100
1870.000000	17.996900
1869.000000	18.140300
1868.000000	18.249000
1867.000000	18.342800
1866.000000	18.409100
1865.000000	18.482600
1864.000000	18.544900
1863.000000	18.599400
1862.000000	18.667800
1861.000000	18.713300
1860.000000	18.735500
1859.000000	18.720200
1858.000000	18.719500
1857.000000	18.712700
1856.000000	18.705000
1855.000000	18.679800
1854.000000	18.634800
1853.000000	18.584700
1852.000000	18.540700
1851.000000	18.517100
1850.000000	18.508100
1849.000000	18.476900
1848.000000	18.395100
1847.000000	18.299700
1846.000000	18.221500
1845.000000	18.180600
1844.000000	18.188100
1843.000000	18.202700
1842.000000	18.174300
1841.000000	18.130200
1840.000000	18.085400
1839.000000	18.052200
1838.000000	18.018900
1837.000000	17.975900
1836.000000	17.926000
1835.000000	17.861700
1834.000000	17.813700
1833.000000	17.786500
1832.000000	17.747400
1831.000000	17.672900
1830.000000	17.595000
1829.000000	17.534100
1828.000000	17.448800
1827.000000	17.377300
1826.000000	17.323500
1825.000000	17.269800
1824.000000	17.253600
1823.000000	17.266100
1822.000000	17.254800
1821.000000	17.196500
1820.000000	17.140400
1819.000000	17.102400
1818.000000	17.104000
1817.000000	17.106100
1816.000000	17.101500
1815.000000	17.096100
1814.000000	17.080800
1813.000000	17.068300
1812.000000	17.054200
1811.000000	17.005700
1810.000000	16.982700
1809.000000	16.963100
1808.000000	16.920000
1807.000000	16.887400
1806.000000	16.848800
1805.000000	16.793500
1804.000000	16.754000
1803.000000	16.743200
1802.000000	16.700300
1801.000000	16.640900
1800.000000	16.589100
1799.000000	16.549500
1798.000000	16.517700
1797.000000	16.479000
1796.000000	16.439200
1795.000000	16.391100
1794.000000	16.351200
1793.000000	16.312600
1792.000000	16.272900
1791.000000	16.216900
1790.000000	16.162400
1789.000000	16.122500
1788.000000	16.074100
1787.000000	15.993200
1786.000000	15.926400
1785.000000	15.866400
1784.000000	15.804300
1783.000000	15.729600
1782.000000	15.668600
1781.000000	15.601000
1780.000000	15.540000
1779.000000	15.466700
1778.000000	15.391400
1777.000000	15.317200
1776.000000	15.225600
1775.000000	15.137000
1774.000000	15.035300
1773.000000	14.960900
1772.000000	14.857400
1771.000000	14.748700
1770.000000	14.644300
1769.000000	14.572600
1768.000000	14.476200
1767.000000	14.418300
1766.000000	14.351800
1765.000000	14.297200
1764.000000	14.268400
1763.000000	14.273400
1762.000000	14.269200
1761.000000	14.311200
1760.000000	14.372600
1759.000000	14.421600
1758.000000	14.471700
1757.000000	14.507700
1756.000000	14.550800
1755.000000	14.585100
1754.000000	14.606400
1753.000000	14.596200
1752.000000	14.597700
1751.000000	14.574500
1750.000000	14.530300
1749.000000	14.500800
1748.000000	14.453700
1747.000000	14.374200
1746.000000	14.285300
1745.000000	14.189600
1744.000000	14.078500
1743.000000	13.950200
1742.000000	13.801000
1741.000000	13.637300
1740.000000	13.472200
1739.000000	13.332800
1738.000000	13.161600
1737.000000	13.054100
1736.000000	12.955900
1735.000000	12.887000
1734.000000	12.873200
1733.000000	12.902000
1732.000000	12.934000
1731.000000	13.009400
1730.000000	13.095000
1729.000000	13.188300
1728.000000	13.288500
1727.000000	13.364700
1726.000000	13.434300
1725.000000	13.498700
1724.000000	13.547500
1723.000000	13.548700
1722.000000	13.584400
1721.000000	13.565300
1720.000000	13.558700
1719.000000	13.566600
1718.000000	13.593400
1717.000000	13.595200
1716.000000	13.612300
1715.000000	13.654100
1714.000000	13.690700
1713.000000	13.715500
1712.000000	13.748900
1711.000000	13.758600
1710.000000	13.780800
1709.000000	13.756800
1708.000000	13.752300
1707.000000	13.728700
1706.000000	13.690900
1705.000000	13.643200
1704.000000	13.626000
1703.000000	13.562300
1702.000000	13.482000
1701.000000	13.371500
1700.000000	13.268000
1699.000000	13.160300
1698.000000	13.052300
1697.000000	13.008000
1696.000000	12.976300
1695.000000	12.965100
1694.000000	13.023800
1693.000000	13.138300
1692.000000	13.234700
1691.000000	13.353300
1690.000000	13.483500
1689.000000	13.558400
1688.000000	13.598000
1687.000000	13.629200
1686.000000	13.630400
1685.000000	13.620000
1684.000000	13.701000
1683.000000	13.858000
1682.000000	14.115100
1681.000000	14.426500
1680.000000	14.789200
1679.000000	15.215000
1678.000000	15.601800
1677.000000	16.009300
1676.000000	16.340000
1675.000000	16.635500
1674.000000	16.887300
1673.000000	17.100600
1672.000000	17.288600
1671.000000	17.454800
1670.000000	17.565400
1669.000000	17.678600
1668.000000	17.801300
1667.000000	17.891700
1666.000000	17.963400
1665.000000	18.018200
1664.000000	18.069300
1663.000000	18.107600
1662.000000	18.148500
1661.000000	18.159400
1660.000000	18.193600
1659.000000	18.220000
1658.000000	18.212200
1657.000000	18.218200
1656.000000	18.214500
1655.000000	18.213400
1654.000000	18.196000
1653.000000	18.191000
1652.000000	18.162100
1651.000000	18.123300
1650.000000	18.116200
1649.000000	18.086300
1648.000000	18.058200
1647.000000	18.022300
1646.000000	17.978200
1645.000000	17.948500
1644.000000	17.891100
1643.000000	17.854400
1642.000000	17.794200
1641.000000	17.757000
1640.000000	17.705400
1639.000000	17.656100
1638.000000	17.615900
1637.000000	17.545700
1636.000000	17.483400
1635.000000	17.440000
1634.000000	17.383500
1633.000000	17.329300
1632.000000	17.269600
1631.000000	17.211300
1630.000000	17.147900
1629.000000	17.094600
1628.000000	17.029500
1627.000000	16.983400
1626.000000	16.925500
1625.000000	16.849900
1624.000000	16.796800
1623.000000	16.726000
1622.000000	16.672000
1621.000000	16.603900
1620.000000	16.554900
1619.000000	16.498800
1618.000000	16.423700
1617.000000	16.383000
1616.000000	16.325600
1615.000000	16.280200
1614.000000	16.221200
1613.000000	16.157300
1612.000000	16.107400
1611.000000	16.064800
1610.000000	16.027000
1609.000000	15.980200
1608.000000	15.935200
1607.000000	15.891000
1606.000000	15.832800
1605.000000	15.775400
1604.000000	15.722100
1603.000000	15.689900
1602.000000	15.646300
1601.000000	15.603700
1600.000000	15.560600
1599.000000	15.518400
1598.000000	15.474000
1597.000000	15.425000
1596.000000	15.394000
1595.000000	15.360300
1594.000000	15.323300
1593.000000	15.292500
1592.000000	15.252900
1591.000000	15.223600
1590.000000	15.206800
1589.000000	15.185500
1588.000000	15.159500
1587.000000	15.126500
1586.000000	15.095100
1585.000000	15.064400
1584.000000	15.051500
1583.000000	15.036200
1582.000000	15.022000
1581.000000	15.014600
1580.000000	15.004400
1579.000000	14.989700
1578.000000	14.982500
1577.000000	14.993500
1576.000000	15.001600
1575.000000	15.002100
1574.000000	14.994300
1573.000000	14.984800
1572.000000	14.989200
1571.000000	14.992500
1570.000000	14.999000
1569.000000	15.023000
1568.000000	15.047200
1567.000000	15.056100
1566.000000	15.053700
1565.000000	15.074600
1564.000000	15.098200
1563.000000	15.108500
1562.000000	15.117500
1561.000000	15.134200
1560.000000	15.143900
1559.000000	15.149700
1558.000000	15.159800
1557.000000	15.171500
1556.000000	15.172300
1555.000000	15.168400
1554.000000	15.179300
1553.000000	15.197600
1552.000000	15.195100
1551.000000	15.188800
1550.000000	15.188200
1549.000000	15.191300
1548.000000	15.188900
1547.000000	15.188100
1546.000000	15.193600
1545.000000	15.186300
1544.000000	15.188800
1543.000000	15.199000
1542.000000	15.194600
1541.000000	15.192300
1540.000000	15.205900
1539.000000	15.205800
1538.000000	15.212100
1537.000000	15.211100
1536.000000	15.196800
1535.000000	15.195600
1534.000000	15.197600
1533.000000	15.191000
1532.000000	15.169600
1531.000000	15.155400
1530.000000	15.157100
1529.000000	15.152800
1528.000000	15.156200
1527.000000	15.135200
1526.000000	15.115300
1525.000000	15.129600
1524.000000	15.108000
1523.000000	15.099100
1522.000000	15.081700
1521.000000	15.045900
1520.000000	15.036300
1519.000000	15.030700
1518.000000	15.032500
1517.000000	15.020200
1516.000000	14.992900
1515.000000	14.976900
1514.000000	14.945000
1513.000000	14.938500
1512.000000	14.918100
1511.000000	14.897700
1510.000000	14.881100
1509.000000	14.873400
1508.000000	14.865600
1507.000000	14.839000
1506.000000	14.849000
1505.000000	14.820600
1504.000000	14.796600
1503.000000	14.787500
1502.000000	14.778800
1501.000000	14.764500
1500.000000	14.750900
1499.000000	14.741600
1498.000000	14.748100
1497.000000	14.729400
1496.000000	14.711300
1495.000000	14.716900
1494.000000	14.711300
1493.000000	14.724200
1492.000000	14.712100
1491.000000	14.713700
1490.000000	14.728400
1489.000000	14.735900
1488.000000	14.747500
1487.000000	14.720600
1486.000000	14.733800
1485.000000	14.733000
1484.000000	14.750600
1483.000000	14.761300
1482.000000	14.783900
1481.000000	14.795600
1480.000000	14.800600
1479.000000	14.809000
1478.000000	14.832900
1477.000000	14.848900
1476.000000	14.860200
1475.000000	14.888100
1474.000000	14.913700
1473.000000	14.921800
1472.000000	14.970200
1471.000000	14.986500
1470.000000	14.993400
1469.000000	15.004900
1468.000000	15.046200
1467.000000	15.062900
1466.000000	15.084000
1465.000000	15.106600
1464.000000	15.135400
1463.000000	15.184700
1462.000000	15.197500
1461.000000	15.234600
1460.000000	15.273100
1459.000000	15.348700
1458.000000	15.407300
1457.000000	15.459500
1456.000000	15.536200
1455.000000	15.569700
1454.000000	15.653000
1453.000000	15.722300
1452.000000	15.792700
1451.000000	15.854100
1450.000000	15.933200
1449.000000	15.975900
1448.000000	16.080200
1447.000000	16.180300
1446.000000	16.276900
1445.000000	16.325700
1444.000000	16.415300
1443.000000	16.502400
1442.000000	16.581100
1441.000000	16.676200
1440.000000	16.778700
1439.000000	16.857200
1438.000000	16.942600
1437.000000	17.046300
1436.000000	17.112400
1435.000000	17.212500
1434.000000	17.323200
1433.000000	17.393300
1432.000000	17.497000
1431.000000	17.603700
1430.000000	17.714600
1429.000000	17.868900
1428.000000	17.978700
1427.000000	18.104500
1426.000000	18.300000
1425.000000	18.472500
1424.000000	18.604500
1423.000000	18.777100
1422.000000	18.902400
1421.000000	19.103200
1420.000000	19.286300
1419.000000	19.438300
1418.000000	19.602600
1417.000000	19.740400
1416.000000	19.959000
1415.000000	20.133900
1414.000000	20.293400
1413.000000	20.429900
1412.000000	20.578100
1411.000000	20.795100
1410.000000	21.040300
1409.000000	21.260300
1408.000000	21.528700
1407.000000	21.791100
1406.000000	22.080600
1405.000000	22.371600
1404.000000	22.620700
1403.000000	22.894300
1402.000000	23.210400
1401.000000	23.517800
1400.000000	23.760800
1399.000000	23.932100
1398.000000	24.117800
1397.000000	24.322400
1396.000000	24.518900
1395.000000	24.631800
1394.000000	24.738400
1393.000000	24.872100
1392.000000	25.038100
1391.000000	25.195300
1390.000000	25.368700
1389.000000	25.597300
1388.000000	25.854900
1387.000000	26.097200
1386.000000	26.390300
1385.000000	26.733100
1384.000000	27.073300
1383.000000	27.385700
1382.000000	27.633500
1381.000000	27.816600
1380.000000	27.909100
1379.000000	27.998400
1378.000000	28.065100
1377.000000	28.167700
1376.000000	28.278300
1375.000000	28.469700
1374.000000	28.690700
1373.000000	28.980400
1372.000000	29.293700
1371.000000	29.598500
1370.000000	29.864000
1369.000000	30.130500
1368.000000	30.367700
1367.000000	30.567100
1366.000000	30.745100
1365.000000	30.915300
1364.000000	31.072100
1363.000000	31.223400
1362.000000	31.333000
1361.000000	31.400600
1360.000000	31.423000
1359.000000	31.525300
1358.000000	31.624000
1357.000000	31.798200
1356.000000	32.071600
1355.000000	32.465500
1354.000000	32.878400
1353.000000	33.310400
1352.000000	33.812000
1351.000000	34.269300
1350.000000	34.669700
1349.000000	35.012300
1348.000000	35.358400
1347.000000	35.672900
1346.000000	35.961100
1345.000000	36.252700
1344.000000	36.522000
1343.000000	36.758700
1342.000000	36.999100
1341.000000	37.244800
1340.000000	37.472700
1339.000000	37.699900
1338.000000	37.896200
1337.000000	38.087100
1336.000000	38.291900
1335.000000	38.462600
1334.000000	38.629300
1333.000000	38.793600
1332.000000	38.953900
1331.000000	39.107400
1330.000000	39.247900
1329.000000	39.387200
1328.000000	39.518000
1327.000000	39.637100
1326.000000	39.761300
1325.000000	39.871900
1324.000000	39.981600
1323.000000	40.069300
1322.000000	40.161000
1321.000000	40.248500
1320.000000	40.337200
1319.000000	40.419100
1318.000000	40.489800
1317.000000	40.575000
1316.000000	40.643400
1315.000000	40.710800
1314.000000	40.774100
1313.000000	40.826400
1312.000000	40.880000
1311.000000	40.931500
1310.000000	40.975300
1309.000000	41.004300
1308.000000	41.034700
1307.000000	41.065200
1306.000000	41.085700
1305.000000	41.096500
1304.000000	41.106800
1303.000000	41.113300
1302.000000	41.117600
1301.000000	41.130100
1300.000000	41.132500
1299.000000	41.128600
1298.000000	41.119100
1297.000000	41.103400
1296.000000	41.084700
1295.000000	41.061700
1294.000000	41.048200
1293.000000	41.043500
1292.000000	41.011600
1291.000000	40.994000
1290.000000	40.967300
1289.000000	40.917700
1288.000000	40.885700
1287.000000	40.853900
1286.000000	40.801300
1285.000000	40.747900
1284.000000	40.692400
1283.000000	40.620400
1282.000000	40.561900
1281.000000	40.512100
1280.000000	40.447500
1279.000000	40.386900
1278.000000	40.332000
1277.000000	40.276500
1276.000000	40.222400
1275.000000	40.172900
1274.000000	40.132100
1273.000000	40.085200
1272.000000	40.038100
1271.000000	39.998900
1270.000000	39.956800
1269.000000	39.905300
1268.000000	39.858100
1267.000000	39.822800
1266.000000	39.766000
1265.000000	39.712400
1264.000000	39.669400
1263.000000	39.614800
1262.000000	39.568200
1261.000000	39.534900
1260.000000	39.498900
1259.000000	39.437700
1258.000000	39.372500
1257.000000	39.346600
1256.000000	39.305000
1255.000000	39.233600
1254.000000	39.189900
1253.000000	39.142800
1252.000000	39.071600
1251.000000	39.017800
1250.000000	38.950300
1249.000000	38.876800
1248.000000	38.802200
1247.000000	38.729800
1246.000000	38.648100
1245.000000	38.565100
1244.000000	38.451100
1243.000000	38.343600
1242.000000	38.231500
1241.000000	38.113600
1240.000000	37.987500
1239.000000	37.863400
1238.000000	37.750800
1237.000000	37.605900
1236.000000	37.462100
1235.000000	37.330600
1234.000000	37.193800
1233.000000	37.037600
1232.000000	36.904500
1231.000000	36.746000
1230.000000	36.594800
1229.000000	36.470800
1228.000000	36.329500
1227.000000	36.167000
1226.000000	36.014600
1225.000000	35.869800
1224.000000	35.732200
1223.000000	35.583600
1222.000000	35.442600
1221.000000	35.316200
1220.000000	35.184000
1219.000000	35.080100
1218.000000	34.948100
1217.000000	34.838200
1216.000000	34.721900
1215.000000	34.637900
1214.000000	34.550500
1213.000000	34.460000
1212.000000	34.368300
1211.000000	34.285300
1210.000000	34.226600
1209.000000	34.158900
1208.000000	34.102200
1207.000000	34.066100
1206.000000	34.034300
1205.000000	34.019700
1204.000000	34.027300
1203.000000	34.026700
1202.000000	34.020100
1201.000000	34.005400
1200.000000	33.964100
1199.000000	33.921800
1198.000000	33.823800
1197.000000	33.702700
1196.000000	33.534500
1195.000000	33.320900
1194.000000	33.041900
1193.000000	32.692600
1192.000000	32.300900
1191.000000	31.911600
1190.000000	31.532400
1189.000000	31.216100
1188.000000	30.972900
1187.000000	30.879500
1186.000000	30.869300
1185.000000	30.974900
1184.000000	31.191200
1183.000000	31.551800
1182.000000	31.926300
1181.000000	32.368500
1180.000000	32.793500
1179.000000	33.190200
1178.000000	33.557900
1177.000000	33.859200
1176.000000	34.124300
1175.000000	34.415700
1174.000000	34.647300
1173.000000	34.921200
1172.000000	35.179200
1171.000000	35.475100
1170.000000	35.777200
1169.000000	36.075400
1168.000000	36.364900
1167.000000	36.660200
1166.000000	36.953300
1165.000000	37.278100
1164.000000	37.569200
1163.000000	37.894400
1162.000000	38.189600
1161.000000	38.490800
1160.000000	38.786700
1159.000000	39.051700
1158.000000	39.325100
1157.000000	39.541800
1156.000000	39.728700
1155.000000	39.897200
1154.000000	39.980600
1153.000000	40.023000
1152.000000	40.051200
1151.000000	40.047100
1150.000000	40.058000
1149.000000	40.038800
1148.000000	40.044900
1147.000000	40.114300
1146.000000	40.237300
1145.000000	40.422200
1144.000000	40.651700
1143.000000	40.908200
1142.000000	41.225900
1141.000000	41.511100
1140.000000	41.810500
1139.000000	42.092000
1138.000000	42.417700
1137.000000	42.756000
1136.000000	43.075600
1135.000000	43.383800
1134.000000	43.659700
1133.000000	43.871000
1132.000000	44.094000
1131.000000	44.320500
1130.000000	44.499400
1129.000000	44.663100
1128.000000	44.808100
1127.000000	44.890600
1126.000000	44.988700
1125.000000	45.055200
1124.000000	45.119200
1123.000000	45.204100
1122.000000	45.246100
1121.000000	45.272400
1120.000000	45.327600
1119.000000	45.354200
1118.000000	45.376000
1117.000000	45.410500
1116.000000	45.390100
1115.000000	45.402200
1114.000000	45.409800
1113.000000	45.407900
1112.000000	45.415600
1111.000000	45.418000
1110.000000	45.409400
1109.000000	45.397700
1108.000000	45.407500
1107.000000	45.424000
1106.000000	45.410100
1105.000000	45.402800
1104.000000	45.396800
1103.000000	45.384800
1102.000000	45.374500
1101.000000	45.366600
1100.000000	45.341900
1099.000000	45.330500
1098.000000	45.323700
1097.000000	45.298700
1096.000000	45.263700
1095.000000	45.229100
1094.000000	45.210600
1093.000000	45.187500
1092.000000	45.147700
1091.000000	45.121900
1090.000000	45.092000
1089.000000	45.042900
1088.000000	45.017800
1087.000000	44.972500
1086.000000	44.918500
1085.000000	44.882500
1084.000000	44.859000
1083.000000	44.824400
1082.000000	44.778000
1081.000000	44.742400
1080.000000	44.707400
1079.000000	44.684300
1078.000000	44.641700
1077.000000	44.590400
1076.000000	44.567000
1075.000000	44.526900
1074.000000	44.480500
1073.000000	44.463600
1072.000000	44.438900
1071.000000	44.405000
1070.000000	44.374700
1069.000000	44.337400
1068.000000	44.312900
1067.000000	44.274700
1066.000000	44.256900
1065.000000	44.235000
1064.000000	44.203100
1063.000000	44.174400
1062.000000	44.151800
1061.000000	44.128000
1060.000000	44.093300
1059.000000	44.079000
1058.000000	44.062400
1057.000000	44.036200
1056.000000	44.008900
1055.000000	43.998000
1054.000000	43.979600
1053.000000	43.957200
1052.000000	43.946800
1051.000000	43.942300
1050.000000	43.925600
1049.000000	43.925900
1048.000000	43.929400
1047.000000	43.919400
1046.000000	43.917000
1045.000000	43.909700
1044.000000	43.916600
1043.000000	43.919900
1042.000000	43.914600
1041.000000	43.923000
1040.000000	43.923300
1039.000000	43.920200
1038.000000	43.920400
1037.000000	43.916900
1036.000000	43.921500
1035.000000	43.917800
1034.000000	43.912700
1033.000000	43.912600
1032.000000	43.900700
1031.000000	43.886900
1030.000000	43.883900
1029.000000	43.872200
1028.000000	43.850400
1027.000000	43.824700
1026.000000	43.808300
1025.000000	43.807100
1024.000000	43.780700
1023.000000	43.754700
1022.000000	43.738800
1021.000000	43.702800
1020.000000	43.681200
1019.000000	43.658600
1018.000000	43.638500
1017.000000	43.632000
1016.000000	43.626400
1015.000000	43.622000
1014.000000	43.627000
1013.000000	43.631100
1012.000000	43.632900
1011.000000	43.651300
1010.000000	43.681000
1009.000000	43.715800
1008.000000	43.756500
1007.000000	43.788200
1006.000000	43.821000
1005.000000	43.864900
1004.000000	43.902600
1003.000000	43.935100
1002.000000	43.959900
1001.000000	43.987800
1000.000000	44.026400
999.000000	44.051100
998.000000	44.080100
997.000000	44.124800
996.000000	44.175600
995.000000	44.216900
994.000000	44.255700
993.000000	44.294800
992.000000	44.345400
991.000000	44.402400
990.000000	44.463500
989.000000	44.513400
988.000000	44.588700
987.000000	44.656700
986.000000	44.714100
985.000000	44.780300
984.000000	44.859700
983.000000	44.943600
982.000000	45.013400
981.000000	45.086700
980.000000	45.152100
979.000000	45.247300
978.000000	45.317600
977.000000	45.419000
976.000000	45.507500
975.000000	45.586400
974.000000	45.673300
973.000000	45.765800
972.000000	45.866700
971.000000	45.947800
970.000000	46.047800
969.000000	46.169100
968.000000	46.246900
967.000000	46.321600
966.000000	46.418900
965.000000	46.530400
964.000000	46.626000
963.000000	46.743900
962.000000	46.843200
961.000000	46.947200
960.000000	47.066200
959.000000	47.194700
958.000000	47.301400
957.000000	47.422400
956.000000	47.514800
955.000000	47.614700
954.000000	47.748300
953.000000	47.856600
952.000000	47.939800
951.000000	48.033800
950.000000	48.131500
949.000000	48.244800
948.000000	48.332700
947.000000	48.431600
946.000000	48.555100
945.000000	48.628400
944.000000	48.719400
943.000000	48.840300
942.000000	48.926900
941.000000	49.003300
940.000000	49.118900
939.000000	49.245000
938.000000	49.336200
937.000000	49.425400
936.000000	49.530500
935.000000	49.626000
934.000000	49.730700
933.000000	49.870300
932.000000	49.950200
931.000000	50.096000
930.000000	50.172100
929.000000	50.268900
928.000000	50.349000
927.000000	50.425500
926.000000	50.582100
925.000000	50.662400
924.000000	50.721300
923.000000	50.806000
922.000000	50.889700
921.000000	50.967100
920.000000	51.118500
919.000000	51.178400
918.000000	51.196800
917.000000	51.254300
916.000000	51.424000
915.000000	51.458800
914.000000	51.518400
913.000000	51.563000
912.000000	51.626700
911.000000	51.682700
910.000000	51.752700
909.000000	51.809800
908.000000	51.896900
907.000000	51.972300
906.000000	52.005600
905.000000	52.087400
904.000000	52.171200
903.000000	52.272200
902.000000	52.263500
901.000000	52.329700
900.000000	52.392400
899.000000	52.457500
898.000000	52.508700
897.000000	52.561300
896.000000	52.603100
895.000000	52.632500
894.000000	52.638500
893.000000	52.546900
892.000000	52.537300
891.000000	52.538900
890.000000	52.509600
889.000000	52.373900
888.000000	52.312500
887.000000	52.291500
886.000000	52.191700
885.000000	52.005800
884.000000	51.871200
883.000000	51.639300
882.000000	51.520100
881.000000	51.337900
880.000000	51.065900
879.000000	50.881200
878.000000	50.564700
877.000000	50.309600
876.000000	49.969200
875.000000	49.691900
874.000000	49.278500
873.000000	48.987000
872.000000	48.532200
871.000000	48.008300
870.000000	47.503900
869.000000	47.149200
868.000000	46.624900
867.000000	46.182900
866.000000	45.986300
865.000000	46.003300
864.000000	46.083800
863.000000	46.158400
862.000000	46.210900
861.000000	46.262200
860.000000	46.300600
859.000000	46.341700
858.000000	48.421000
857.000000	46.732900
856.000000	46.323032
855.000000	46.241757
854.000000	46.425052
853.000000	46.349294
852.000000	46.227616
851.000000	46.329481
850.000000	46.664524
849.000000	46.704306
848.000000	46.479598
847.000000	46.619536
846.000000	46.470274
845.000000	46.701898
844.000000	46.658152
843.000000	46.865068
842.000000	46.786435
841.000000	46.678743
840.000000	46.691797
839.000000	46.608502
838.000000	46.501043
837.000000	46.604772
836.000000	46.506326
835.000000	46.472449
834.000000	46.492185
833.000000	46.539194
832.000000	46.592807
831.000000	46.429015
830.000000	46.317127
829.000000	46.362581
828.000000	46.282939
827.000000	46.307725
826.000000	46.194827
825.000000	46.109434
824.000000	46.204306
823.000000	46.072682
822.000000	46.129714
821.000000	46.009123
820.000000	45.862115
819.000000	45.792107
818.000000	45.848051
817.000000	45.767709
816.000000	45.727538
815.000000	45.723964
814.000000	45.698400
813.000000	45.688066
812.000000	45.658618
811.000000	45.592728
810.000000	45.488610
809.000000	45.420467
808.000000	45.452402
807.000000	45.324197
806.000000	45.322953
805.000000	45.245953
804.000000	45.183948
803.000000	45.167553
802.000000	45.015183
801.000000	45.006636
800.000000	44.975556
799.000000	44.932743
798.000000	44.968175
797.000000	44.883715
796.000000	44.808656
795.000000	44.789309
794.000000	44.724740
793.000000	44.627848
792.000000	44.612619
791.000000	44.580995
790.000000	44.514717
789.000000	44.444709
788.000000	44.420544
787.000000	44.323730
786.000000	44.229402
785.000000	44.197855
784.000000	44.210676
783.000000	44.088065
782.000000	44.008189
781.000000	44.036550
780.000000	44.068562
779.000000	44.035151
778.000000	44.030567
777.000000	44.000575
776.000000	43.947661
775.000000	43.915338
774.000000	43.829790
773.000000	43.879518
772.000000	43.947506
771.000000	43.917436
770.000000	43.891095
769.000000	43.876876
768.000000	43.866076
767.000000	43.918912
766.000000	43.932976
765.000000	43.908500
764.000000	43.952012
763.000000	43.983869
762.000000	44.022098
761.000000	43.989775
760.000000	43.958694
759.000000	43.978042
758.000000	43.985579
757.000000	43.948749
756.000000	43.902206
755.000000	43.905392
754.000000	43.945019
753.000000	43.908656
752.000000	43.869572
751.000000	43.901041
750.000000	43.849603
749.000000	43.781927
748.000000	43.827847
747.000000	43.847583
746.000000	43.824273
745.000000	43.812541
744.000000	43.751468
743.000000	43.731111
742.000000	43.738492
741.000000	43.713551
740.000000	43.703139
739.000000	43.687443
738.000000	43.670815
737.000000	43.684025
736.000000	43.695757
735.000000	43.683714
734.000000	43.708034
733.000000	43.695291
732.000000	43.656829
731.000000	43.659549
730.000000	43.692882
729.000000	43.681849
728.000000	43.671437
727.000000	43.687055
726.000000	43.653877
725.000000	43.669184
724.000000	43.646418
723.000000	43.604382
722.000000	43.574390
721.000000	43.500885
720.000000	43.461414
719.000000	43.447738
718.000000	43.411530
717.000000	43.325050
716.000000	43.263667
715.000000	43.196534
714.000000	43.095835
713.000000	43.039813
712.000000	42.975011
711.000000	42.885345
710.000000	42.787132
709.000000	42.689385
708.000000	42.583169
707.000000	42.494669
706.000000	42.387598
705.000000	42.240123
704.000000	42.108887
703.000000	41.962112
702.000000	41.814948
701.000000	41.687675
700.000000	41.582391
699.000000	41.444629
698.000000	41.321086
697.000000	41.165219
696.000000	41.056983
695.000000	40.943385
694.000000	40.831730
693.000000	40.741909
692.000000	40.676719
691.000000	40.576563
690.000000	40.462422
689.000000	40.411839
688.000000	40.365685
687.000000	40.301427
686.000000	40.252709
685.000000	40.255273
684.000000	40.209896
683.000000	40.141365
682.000000	40.121473
681.000000	40.064752
680.000000	40.026835
679.000000	39.995133
678.000000	39.962188
677.000000	39.930409
676.000000	39.881380
675.000000	39.852553
674.000000	39.805933
673.000000	39.782934
672.000000	39.756904
671.000000	39.757915
670.000000	39.769958
669.000000	39.769570
668.000000	39.735148
667.000000	39.711994
666.000000	39.670502
665.000000	39.663043
664.000000	39.605389
663.000000	39.525513
662.000000	39.406399
661.000000	39.309740
660.000000	39.170191
659.000000	38.978427
658.000000	38.776173
657.000000	38.586352
656.000000	38.394510
655.000000	38.089071
654.000000	37.833127
653.000000	37.555427
652.000000	37.238410
651.000000	36.970189
650.000000	36.677726
649.000000	36.383009
648.000000	36.113001
647.000000	35.811214
646.000000	35.564749
645.000000	35.301190
644.000000	35.045790
643.000000	34.775316
642.000000	34.544391
641.000000	34.305385
640.000000	34.078734
639.000000	33.898159
638.000000	33.747188
637.000000	33.625587
636.000000	33.603753
635.000000	33.585261
634.000000	33.669565
633.000000	33.822168
632.000000	34.074072
631.000000	34.384950
630.000000	34.761097
629.000000	35.216575
628.000000	35.737710
627.000000	36.256980
626.000000	36.812225
625.000000	37.439343
624.000000	38.055660
623.000000	38.667549
622.000000	39.271356
621.000000	39.886819
620.000000	40.484488
619.000000	41.055973
618.000000	41.606012
617.000000	42.181692
616.000000	42.765454
615.000000	43.300186
614.000000	43.914561
613.000000	44.444864
612.000000	45.010832
611.000000	45.536940
610.000000	46.119380
609.000000	46.649139
608.000000	47.202597
607.000000	47.705783
606.000000	48.185659
605.000000	48.619925
604.000000	49.060874
603.000000	49.401589
602.000000	49.738574
601.000000	50.026453
600.000000	50.283718
599.000000	50.545490
598.000000	50.768800
597.000000	50.966858
596.000000	51.173773
595.000000	51.315654
594.000000	51.554038
593.000000	51.677892
592.000000	51.855048
591.000000	52.044792
590.000000	52.221637
589.000000	52.411614
588.000000	52.607962
587.000000	52.753106
586.000000	52.891723
585.000000	53.105399
584.000000	53.222493
583.000000	53.341219
582.000000	53.442151
581.000000	53.547512
580.000000	53.557458
579.000000	53.589937
578.000000	53.624591
577.000000	53.617132
576.000000	53.627932
575.000000	53.636246
574.000000	53.637722
573.000000	53.625446
572.000000	53.622027
571.000000	53.638033
570.000000	53.663519
569.000000	53.662586
568.000000	53.678204
567.000000	53.673076
566.000000	53.709673
565.000000	53.708352
564.000000	53.731973
563.000000	53.760178
562.000000	53.732750
561.000000	53.683565
560.000000	53.605943
559.000000	53.566782
558.000000	53.450931
557.000000	53.308585
556.000000	53.141374
555.000000	52.907730
554.000000	52.667092
553.000000	52.410604
552.000000	52.138809
551.000000	51.818762
550.000000	51.477969
549.000000	51.170976
548.000000	50.815653
547.000000	50.422957
546.000000	50.031659
545.000000	49.602910
544.000000	49.121324
543.000000	48.572917
542.000000	47.977345
541.000000	47.317593
540.000000	46.613941
539.000000	45.888921
538.000000	45.082316
537.000000	44.273069
536.000000	43.415415
535.000000	42.561180
534.000000	41.665997
533.000000	40.763432
532.000000	39.884410
531.000000	39.005622
530.000000	38.149444
529.000000	37.301580
528.000000	36.472908
527.000000	35.677259
526.000000	34.898937
525.000000	34.135378
524.000000	33.407794
523.000000	32.694895
522.000000	32.031025
521.000000	31.375624
520.000000	30.759928
519.000000	30.179431
518.000000	29.616260
517.000000	29.071738
516.000000	28.553322
515.000000	28.047728
514.000000	27.562490
513.000000	27.083236
512.000000	26.625815
511.000000	26.187742
510.000000	25.753087
509.000000	25.334905
508.000000	24.909342
507.000000	24.503281
506.000000	24.100017
505.000000	23.717810
504.000000	23.326279
503.000000	22.939799
502.000000	22.564041
501.000000	22.215167
500.000000	21.863419
499.000000	21.515555
498.000000	21.187194
497.000000	20.859144
496.000000	20.512990
495.000000	20.210737
494.000000	19.896984
493.000000	19.590845
492.000000	19.299703
491.000000	19.021381
490.000000	18.749897
489.000000	18.499081
488.000000	18.234512
487.000000	17.981209
486.000000	17.736454
485.000000	17.488590
484.000000	17.231714
483.000000	16.974759
482.000000	16.722001
481.000000	16.473516
480.000000	16.235210
479.000000	15.975070
478.000000	15.722933
477.000000	15.457975
476.000000	15.190920
475.000000	14.926972
474.000000	14.647174
473.000000	14.363880
472.000000	14.088899
471.000000	13.803584
470.000000	13.518891
469.000000	13.243366
468.000000	12.977476
467.000000	12.724795
466.000000	12.471959
465.000000	12.232487
464.000000	11.998144
463.000000	11.793715
462.000000	11.608788
461.000000	11.428369
460.000000	11.273512
459.000000	11.150280
458.000000	11.045307
457.000000	10.947949
456.000000	10.860381
455.000000	10.801406
454.000000	10.770637
453.000000	10.745773
452.000000	10.717801
451.000000	10.704203
450.000000	10.709953
449.000000	10.717879
448.000000	10.729145
447.000000	10.748415
446.000000	10.767529
445.000000	10.782680
444.000000	10.792082
443.000000	10.800629
442.000000	10.812129
441.000000	10.808166
440.000000	10.803504
439.000000	10.802805
438.000000	10.787653
437.000000	10.760303
436.000000	10.730388
435.000000	10.694569
434.000000	10.658049
433.000000	10.633574
432.000000	10.597832
431.000000	10.536060
430.000000	10.478951
429.000000	10.420986
428.000000	10.352921
427.000000	10.278329
426.000000	10.204048
425.000000	10.135671
424.000000	10.053232
423.000000	9.961701
422.000000	9.861778
421.000000	9.770248
420.000000	9.672423
419.000000	9.567295
418.000000	9.457893
417.000000	9.354474
416.000000	9.241965
415.000000	9.110341
414.000000	8.987652
413.000000	8.851521
412.000000	8.717489
411.000000	8.573122
410.000000	8.424015
409.000000	8.274753
408.000000	8.127978
407.000000	7.992003
406.000000	7.823859
405.000000	7.662010
404.000000	7.508941
403.000000	7.361388
402.000000	7.210028
401.000000	7.044993
400.000000	6.859756
399.000000	6.708241
398.000000	6.549111
397.000000	6.386562
396.000000	6.236757
395.000000	6.099927
394.000000	5.949577
393.000000	5.813602
392.000000	5.690291
391.000000	5.536523
390.000000	5.419118
389.000000	5.295653
388.000000	5.177238
387.000000	5.072265
386.000000	4.973119
385.000000	4.890369
384.000000	4.787261
383.000000	4.696351
382.000000	4.624246
381.000000	4.557734
380.000000	4.500780
379.000000	4.439552
378.000000	4.383997
377.000000	4.332870
376.000000	4.299537
375.000000	4.061541
374.000000	3.765737
373.000000	3.757812
372.000000	3.851984
371.000000	4.068224
370.000000	4.105520
369.000000	3.952373
368.000000	4.018029
367.000000	4.010648
366.000000	4.084618
365.000000	4.053305
364.000000	4.084152
363.000000	3.967602
362.000000	3.927664
361.000000	4.001712
360.000000	3.984385
359.000000	3.815931
358.000000	3.897361
357.000000	3.947866
356.000000	3.925333
355.000000	3.960453
354.000000	3.889513
353.000000	3.964338
352.000000	4.005520
351.000000	4.027276
350.000000	3.895185
349.000000	3.999304
348.000000	3.933414
347.000000	3.852528
346.000000	3.887493
345.000000	3.894331
344.000000	3.963018
343.000000	3.753149
342.000000	3.868767
341.000000	3.943593
340.000000	3.907462
339.000000	3.839008
338.000000	3.929684
337.000000	3.923080
336.000000	3.788348
335.000000	3.854548
334.000000	3.720205
333.000000	4.061697
332.000000	4.041184
331.000000	3.911269
330.000000	3.773662
329.000000	4.046234
328.000000	4.038309
327.000000	4.115698
326.000000	3.971331
325.000000	3.910648
324.000000	4.248954
323.000000	4.101868
322.000000	4.195341
321.000000	4.051829
320.000000	4.519661
319.000000	4.184851
318.000000	4.374828
317.000000	4.552762
316.000000	3.839552
315.000000	3.820982
314.000000	3.868456
313.000000	3.841261
312.000000	3.833880
311.000000	3.764494
310.000000	3.824012
309.000000	3.833414
308.000000	3.823468
307.000000	3.822147
306.000000	3.825721
305.000000	3.833025
304.000000	3.829373
303.000000	3.831549
302.000000	3.839552
301.000000	3.876537
300.000000	3.833725
299.000000	3.840484
298.000000	3.856568
297.000000	3.862862
296.000000	3.830073
295.000000	3.896584
294.000000	3.872808
293.000000	3.884463
292.000000	3.919505
291.000000	3.907928
290.000000	3.867990
289.000000	3.889591
288.000000	3.901246
287.000000	3.937998
286.000000	3.896584
285.000000	3.946934
284.000000	3.926498
283.000000	3.962085
282.000000	3.961464
281.000000	3.980112
280.000000	3.975450
279.000000	3.993865
278.000000	3.990135
277.000000	3.974051
276.000000	4.048177
275.000000	4.053383
274.000000	3.998682
273.000000	4.041650
272.000000	4.042660
271.000000	4.049032
270.000000	4.043670
269.000000	4.083064
268.000000	4.137687
267.000000	4.092932
266.000000	4.199848
265.000000	4.157035
264.000000	4.155015
263.000000	4.157579
262.000000	4.192388
261.000000	4.266203
260.000000	4.246235
259.000000	4.247245
258.000000	4.267602
257.000000	4.216631
256.000000	4.278092
255.000000	4.293476
254.000000	4.285162
253.000000	4.286406
252.000000	4.283297
251.000000	4.336289
250.000000	4.335434
