PE UV       SUBTECH     SPECTRUM    ASCII       PEDS        4.00        
   -1
CICIMAUCR0108-3.Sample.ASC
24/04/22
10:06:33.00
24/04/22
10:06:33.00
Vinicio Soto Monge
C. resplendens
250,000000
1
Lambda 1050
1050L1511233
PerkinElmer UV WinLab 6.3.2.0749 / 2.02.05 Lambda 900 UV/VIS/NIR, Aug  7 2015 09:38:08

0
0
3350/servo 860,8/2
0
0
UV/VIS
1
1
1
DoubleDePol,CommonBeamDepol,RBeamAtt,SBeamAtt,60mm sphere, WB InGaAs Detector
0
0
0
0
Program
Program
3350/servo 860,8/2
3350/0,2 860,8/0,2
3350/0,2 860,8/0,2
0
15.00
 
 
 
0
 
860,8
319,2
860,8
Front
100
on
S:100 R:100
0
0
0
0
 
0
 
 
 
0
 
 
0
0
0
0
0
 
 
 
 
0
0


0
0
#HDR
-1
-1
#GR
nm
%R
1.0
0.0
2500,000000
-1,000000
2251
8
82,967800
5,292400
#DATA
2500.000000	17.302924
2499.000000	17.147450
2498.000000	17.214761
2497.000000	17.192088
2496.000000	17.105140
2495.000000	17.080139
2494.000000	17.043902
2493.000000	17.065665
2492.000000	17.078924
2491.000000	17.012119
2490.000000	17.031553
2489.000000	17.048761
2488.000000	17.109695
2487.000000	16.965963
2486.000000	17.030946
2485.000000	17.084390
2484.000000	17.043902
2483.000000	17.122246
2482.000000	17.133482
2481.000000	17.043497
2480.000000	17.105849
2479.000000	17.117793
2478.000000	17.175994
2477.000000	17.147349
2476.000000	17.194315
2475.000000	17.275898
2474.000000	17.238548
2473.000000	17.318815
2472.000000	17.342906
2471.000000	17.383191
2470.000000	17.409306
2469.000000	17.456069
2468.000000	17.509109
2467.000000	17.559010
2466.000000	17.622981
2465.000000	17.679765
2464.000000	17.755781
2463.000000	17.798800
2462.000000	17.886456
2461.000000	17.919758
2460.000000	18.012880
2459.000000	18.103775
2458.000000	18.197201
2457.000000	18.270586
2456.000000	18.359052
2455.000000	18.450656
2454.000000	18.539527
2453.000000	18.644896
2452.000000	18.771725
2451.000000	18.866163
2450.000000	18.978416
2449.000000	19.078219
2448.000000	19.195026
2447.000000	19.315782
2446.000000	19.450100
2445.000000	19.563365
2444.000000	19.675112
2443.000000	19.799916
2442.000000	19.918951
2441.000000	20.028673
2440.000000	20.155906
2439.000000	20.257531
2438.000000	20.373529
2437.000000	20.495499
2436.000000	20.621619
2435.000000	20.729114
2434.000000	20.846529
2433.000000	20.961717
2432.000000	21.054637
2431.000000	21.164562
2430.000000	21.256166
2429.000000	21.363256
2428.000000	21.466501
2427.000000	21.557497
2426.000000	21.648798
2425.000000	21.732102
2424.000000	21.805182
2423.000000	21.892029
2422.000000	21.952660
2421.000000	22.003067
2420.000000	22.075338
2419.000000	22.158338
2418.000000	22.223625
2417.000000	22.278891
2416.000000	22.343571
2415.000000	22.402278
2414.000000	22.452179
2413.000000	22.511798
2412.000000	22.555525
2411.000000	22.607754
2410.000000	22.633160
2409.000000	22.670814
2408.000000	22.699966
2407.000000	22.730129
2406.000000	22.764848
2405.000000	22.797440
2404.000000	22.827199
2403.000000	22.851593
2402.000000	22.869104
2401.000000	22.882667
2400.000000	22.907770
2399.000000	22.947144
2398.000000	22.962024
2397.000000	22.969413
2396.000000	22.985102
2395.000000	22.999475
2394.000000	23.006662
2393.000000	23.013646
2392.000000	23.031056
2391.000000	23.044518
2390.000000	23.034193
2389.000000	23.043911
2388.000000	23.054539
2387.000000	23.047858
2386.000000	23.038748
2385.000000	23.044822
2384.000000	23.047352
2383.000000	23.020124
2382.000000	23.013342
2381.000000	23.001297
2380.000000	22.974879
2379.000000	22.949472
2378.000000	22.929633
2377.000000	22.905442
2376.000000	22.885906
2375.000000	22.868901
2374.000000	22.839953
2373.000000	22.813737
2372.000000	22.796124
2371.000000	22.773856
2370.000000	22.741364
2369.000000	22.730939
2368.000000	22.727093
2367.000000	22.707658
2366.000000	22.679924
2365.000000	22.664741
2364.000000	22.650975
2363.000000	22.626986
2362.000000	22.617471
2361.000000	22.601884
2360.000000	22.568785
2359.000000	22.541253
2358.000000	22.528702
2357.000000	22.507344
2356.000000	22.475156
2355.000000	22.455925
2354.000000	22.436389
2353.000000	22.422927
2352.000000	22.385779
2351.000000	22.364624
2350.000000	22.354907
2349.000000	22.335675
2348.000000	22.303690
2347.000000	22.291847
2346.000000	22.291037
2345.000000	22.288811
2344.000000	22.272615
2343.000000	22.249436
2342.000000	22.251865
2341.000000	22.231824
2340.000000	22.216742
2339.000000	22.195486
2338.000000	22.195385
2337.000000	22.198016
2336.000000	22.194372
2335.000000	22.172711
2334.000000	22.169270
2333.000000	22.175647
2332.000000	22.167549
2331.000000	22.172610
2330.000000	22.189413
2329.000000	22.193563
2328.000000	22.196296
2327.000000	22.210163
2326.000000	22.203786
2325.000000	22.211884
2324.000000	22.201357
2323.000000	22.182429
2322.000000	22.181720
2321.000000	22.161678
2320.000000	22.143661
2319.000000	22.112789
2318.000000	22.062685
2317.000000	22.016124
2316.000000	21.958733
2315.000000	21.912981
2314.000000	21.866117
2313.000000	21.808624
2312.000000	21.744450
2311.000000	21.693942
2310.000000	21.641611
2309.000000	21.577134
2308.000000	21.520147
2307.000000	21.483404
2306.000000	21.443119
2305.000000	21.401416
2304.000000	21.369633
2303.000000	21.362649
2302.000000	21.359714
2301.000000	21.341595
2300.000000	21.353033
2299.000000	21.340583
2298.000000	21.346353
2297.000000	21.355260
2296.000000	21.373682
2295.000000	21.376617
2294.000000	21.406680
2293.000000	21.440285
2292.000000	21.458909
2291.000000	21.481886
2290.000000	21.502636
2289.000000	21.538772
2288.000000	21.583713
2287.000000	21.596467
2286.000000	21.621063
2285.000000	21.662462
2284.000000	21.692727
2283.000000	21.710845
2282.000000	21.749410
2281.000000	21.775525
2280.000000	21.790100
2279.000000	21.822390
2278.000000	21.837573
2277.000000	21.852047
2276.000000	21.884032
2275.000000	21.897393
2274.000000	21.904378
2273.000000	21.930290
2272.000000	21.953469
2271.000000	21.974523
2270.000000	22.004788
2269.000000	22.071492
2268.000000	22.116838
2267.000000	22.189514
2266.000000	22.266542
2265.000000	22.374847
2264.000000	22.446410
2263.000000	22.560080
2262.000000	22.703103
2261.000000	22.830742
2260.000000	22.992187
2259.000000	23.161730
2258.000000	23.341294
2257.000000	23.521972
2256.000000	23.681089
2255.000000	23.886869
2254.000000	24.097609
2253.000000	24.283145
2252.000000	24.466859
2251.000000	24.670716
2250.000000	24.844814
2249.000000	24.991988
2248.000000	25.157988
2247.000000	25.320851
2246.000000	25.455068
2245.000000	25.590500
2244.000000	25.701033
2243.000000	25.794560
2242.000000	25.885354
2241.000000	25.988699
2240.000000	26.059958
2239.000000	26.114414
2238.000000	26.163708
2237.000000	26.195087
2236.000000	26.231424
2235.000000	26.243875
2234.000000	26.237498
2233.000000	26.225554
2232.000000	26.203387
2231.000000	26.198629
2230.000000	26.165125
2229.000000	26.139011
2228.000000	26.078785
2227.000000	26.005603
2226.000000	25.939102
2225.000000	25.908128
2224.000000	25.830088
2223.000000	25.741520
2222.000000	25.662771
2221.000000	25.560135
2220.000000	25.466405
2219.000000	25.383000
2218.000000	25.284918
2217.000000	25.206068
2216.000000	25.117095
2215.000000	25.015977
2214.000000	24.941783
2213.000000	24.858782
2212.000000	24.758777
2211.000000	24.699159
2210.000000	24.622535
2209.000000	24.554111
2208.000000	24.482852
2207.000000	24.447425
2206.000000	24.389628
2205.000000	24.326163
2204.000000	24.263205
2203.000000	24.227474
2202.000000	24.161681
2201.000000	24.114614
2200.000000	24.086171
2199.000000	24.064915
2198.000000	24.000236
2197.000000	23.968351
2196.000000	23.918045
2195.000000	23.891121
2194.000000	23.878671
2193.000000	23.830186
2192.000000	23.826441
2191.000000	23.815206
2190.000000	23.773301
2189.000000	23.740708
2188.000000	23.714796
2187.000000	23.701536
2186.000000	23.688580
2185.000000	23.651128
2184.000000	23.621572
2183.000000	23.607908
2182.000000	23.575922
2181.000000	23.560334
2180.000000	23.539179
2179.000000	23.537054
2178.000000	23.522377
2177.000000	23.506384
2176.000000	23.493529
2175.000000	23.493732
2174.000000	23.494238
2173.000000	23.496768
2172.000000	23.526223
2171.000000	23.540191
2170.000000	23.563472
2169.000000	23.595457
2168.000000	23.623192
2167.000000	23.668741
2166.000000	23.684733
2165.000000	23.741012
2164.000000	23.783828
2163.000000	23.849013
2162.000000	23.918551
2161.000000	23.970578
2160.000000	24.045177
2159.000000	24.126153
2158.000000	24.209659
2157.000000	24.314017
2156.000000	24.420500
2155.000000	24.526882
2154.000000	24.630228
2153.000000	24.735598
2152.000000	24.855948
2151.000000	24.968505
2150.000000	25.086426
2149.000000	25.211027
2148.000000	25.328847
2147.000000	25.455574
2146.000000	25.568030
2145.000000	25.685343
2144.000000	25.788385
2143.000000	25.918756
2142.000000	26.056820
2141.000000	26.153586
2140.000000	26.247923
2139.000000	26.357646
2138.000000	26.463926
2137.000000	26.558567
2136.000000	26.649867
2135.000000	26.752504
2134.000000	26.841375
2133.000000	26.917391
2132.000000	26.997355
2131.000000	27.066994
2130.000000	27.132990
2129.000000	27.209411
2128.000000	27.284819
2127.000000	27.330065
2126.000000	27.380168
2125.000000	27.448188
2124.000000	27.498596
2123.000000	27.533314
2122.000000	27.572486
2121.000000	27.612367
2120.000000	27.641113
2119.000000	27.656195
2118.000000	27.677856
2117.000000	27.700529
2116.000000	27.706198
2115.000000	27.721887
2114.000000	27.733932
2113.000000	27.745167
2112.000000	27.750127
2111.000000	27.745977
2110.000000	27.744459
2109.000000	27.746179
2108.000000	27.748103
2107.000000	27.734033
2106.000000	27.717230
2105.000000	27.718749
2104.000000	27.710752
2103.000000	27.697897
2102.000000	27.695165
2101.000000	27.690306
2100.000000	27.681601
2099.000000	27.670568
2098.000000	27.663786
2097.000000	27.668544
2096.000000	27.668847
2095.000000	27.663786
2094.000000	27.665507
2093.000000	27.680893
2092.000000	27.702958
2091.000000	27.716016
2090.000000	27.726644
2089.000000	27.723506
2088.000000	27.716016
2087.000000	27.712271
2086.000000	27.692330
2085.000000	27.677147
2084.000000	27.652753
2083.000000	27.623298
2082.000000	27.576332
2081.000000	27.534529
2080.000000	27.480275
2079.000000	27.419239
2078.000000	27.357394
2077.000000	27.263867
2076.000000	27.168417
2075.000000	27.070638
2074.000000	26.978832
2073.000000	26.868502
2072.000000	26.735904
2071.000000	26.625170
2070.000000	26.489738
2069.000000	26.361694
2068.000000	26.233955
2067.000000	26.091539
2066.000000	25.967747
2065.000000	25.824318
2064.000000	25.702146
2063.000000	25.578961
2062.000000	25.458611
2061.000000	25.351723
2060.000000	25.241292
2059.000000	25.145639
2058.000000	25.065777
2057.000000	25.003729
2056.000000	24.976197
2055.000000	24.951297
2054.000000	24.955650
2053.000000	24.987433
2052.000000	25.024074
2051.000000	25.099888
2050.000000	25.202525
2049.000000	25.299392
2048.000000	25.426119
2047.000000	25.571977
2046.000000	25.731500
2045.000000	25.899423
2044.000000	26.073420
2043.000000	26.238409
2042.000000	26.403701
2041.000000	26.597031
2040.000000	26.765055
2039.000000	26.919618
2038.000000	27.093109
2037.000000	27.242408
2036.000000	27.387760
2035.000000	27.540804
2034.000000	27.672593
2033.000000	27.796384
2032.000000	27.927059
2031.000000	28.044272
2030.000000	28.139317
2029.000000	28.235678
2028.000000	28.350259
2027.000000	28.452086
2026.000000	28.547436
2025.000000	28.624160
2024.000000	28.695925
2023.000000	28.779634
2022.000000	28.834596
2021.000000	28.903831
2020.000000	28.964259
2019.000000	29.014363
2018.000000	29.070641
2017.000000	29.094529
2016.000000	29.137345
2015.000000	29.172266
2014.000000	29.190485
2013.000000	29.229354
2012.000000	29.224596
2011.000000	29.229151
2010.000000	29.233200
2009.000000	29.234819
2008.000000	29.217511
2007.000000	29.189979
2006.000000	29.174290
2005.000000	29.141900
2004.000000	29.104954
2003.000000	29.059304
2002.000000	29.002216
2001.000000	28.939156
2000.000000	28.873768
1999.000000	28.810000
1998.000000	28.728619
1997.000000	28.658879
1996.000000	28.589948
1995.000000	28.483262
1994.000000	28.389836
1993.000000	28.321817
1992.000000	28.227581
1991.000000	28.123122
1990.000000	28.003278
1989.000000	27.906107
1988.000000	27.817033
1987.000000	27.692938
1986.000000	27.607306
1985.000000	27.488069
1984.000000	27.377334
1983.000000	27.273483
1982.000000	27.153436
1981.000000	27.058289
1980.000000	26.932878
1979.000000	26.830747
1978.000000	26.715357
1977.000000	26.615048
1976.000000	26.512208
1975.000000	26.422831
1974.000000	26.307845
1973.000000	26.218063
1972.000000	26.107430
1971.000000	26.010462
1970.000000	25.922603
1969.000000	25.827355
1968.000000	25.715406
1967.000000	25.634531
1966.000000	25.554264
1965.000000	25.456587
1964.000000	25.367108
1963.000000	25.255868
1962.000000	25.156166
1961.000000	25.023467
1960.000000	24.951803
1959.000000	24.849774
1958.000000	24.743797
1957.000000	24.639844
1956.000000	24.530425
1955.000000	24.447222
1954.000000	24.333957
1953.000000	24.219478
1952.000000	24.131821
1951.000000	24.037181
1950.000000	23.963594
1949.000000	23.863892
1948.000000	23.797594
1947.000000	23.693641
1946.000000	23.632504
1945.000000	23.575112
1944.000000	23.515190
1943.000000	23.481788
1942.000000	23.432190
1941.000000	23.399800
1940.000000	23.384515
1939.000000	23.352834
1938.000000	23.339270
1937.000000	23.329047
1936.000000	23.310827
1935.000000	23.343319
1934.000000	23.366296
1933.000000	23.430874
1932.000000	23.503752
1931.000000	23.575315
1930.000000	23.638577
1929.000000	23.726740
1928.000000	23.826644
1927.000000	23.925738
1926.000000	24.045481
1925.000000	24.184456
1924.000000	24.333350
1923.000000	24.505120
1922.000000	24.702904
1921.000000	24.912226
1920.000000	25.110516
1919.000000	25.285728
1918.000000	25.524708
1917.000000	25.776036
1916.000000	26.038601
1915.000000	26.323737
1914.000000	26.646527
1913.000000	26.979237
1912.000000	27.308606
1911.000000	27.634838
1910.000000	27.962587
1909.000000	28.326068
1908.000000	28.735704
1907.000000	29.191194
1906.000000	29.689094
1905.000000	30.187399
1904.000000	30.660298
1903.000000	31.167511
1902.000000	31.664703
1901.000000	32.234874
1900.000000	32.801300
1899.000000	33.390096
1898.000000	33.984763
1897.000000	34.515155
1896.000000	35.040891
1895.000000	35.598005
1894.000000	36.175970
1893.000000	36.782378
1892.000000	37.424719
1891.000000	38.019588
1890.000000	38.535708
1889.000000	39.072983
1888.000000	39.633336
1887.000000	40.150772
1886.000000	40.638955
1885.000000	41.117117
1884.000000	41.590016
1883.000000	41.998034
1882.000000	42.375179
1881.000000	42.755867
1880.000000	43.093536
1879.000000	43.447299
1878.000000	43.768065
1877.000000	44.081037
1876.000000	44.373764
1875.000000	44.652828
1874.000000	44.930777
1873.000000	45.171883
1872.000000	45.384343
1871.000000	45.557733
1870.000000	45.672820
1869.000000	45.815034
1868.000000	45.906334
1867.000000	45.963928
1866.000000	46.020308
1865.000000	46.105636
1864.000000	46.209791
1863.000000	46.332368
1862.000000	46.440167
1861.000000	46.535719
1860.000000	46.607180
1859.000000	46.652932
1858.000000	46.700404
1857.000000	46.748888
1856.000000	46.792716
1855.000000	46.834621
1854.000000	46.834317
1853.000000	46.823791
1852.000000	46.855675
1851.000000	46.920051
1850.000000	46.991006
1849.000000	47.024105
1848.000000	46.981390
1847.000000	46.865291
1846.000000	46.799802
1845.000000	46.819438
1844.000000	46.849602
1843.000000	46.923492
1842.000000	46.929262
1841.000000	46.854865
1840.000000	46.815693
1839.000000	46.782189
1838.000000	46.748787
1837.000000	46.701011
1836.000000	46.614468
1835.000000	46.521245
1834.000000	46.472457
1833.000000	46.456363
1832.000000	46.450391
1831.000000	46.431665
1830.000000	46.381865
1829.000000	46.335304
1828.000000	46.287224
1827.000000	46.240157
1826.000000	46.204325
1825.000000	46.185701
1824.000000	46.210297
1823.000000	46.308784
1822.000000	46.345122
1821.000000	46.297346
1820.000000	46.244611
1819.000000	46.205439
1818.000000	46.198859
1817.000000	46.204528
1816.000000	46.198050
1815.000000	46.173453
1814.000000	46.162319
1813.000000	46.143593
1812.000000	46.136002
1811.000000	46.091364
1810.000000	46.040248
1809.000000	46.036503
1808.000000	46.030632
1807.000000	46.010388
1806.000000	45.954515
1805.000000	45.909877
1804.000000	45.913824
1803.000000	45.921821
1802.000000	45.898743
1801.000000	45.856534
1800.000000	45.796207
1799.000000	45.782340
1798.000000	45.778999
1797.000000	45.748836
1796.000000	45.723835
1795.000000	45.713004
1794.000000	45.699339
1793.000000	45.671504
1792.000000	45.649337
1791.000000	45.637697
1790.000000	45.632332
1789.000000	45.620388
1788.000000	45.619477
1787.000000	45.625145
1786.000000	45.640531
1785.000000	45.616744
1784.000000	45.593970
1783.000000	45.569474
1782.000000	45.565830
1781.000000	45.550951
1780.000000	45.511982
1779.000000	45.474834
1778.000000	45.435965
1777.000000	45.381712
1776.000000	45.326344
1775.000000	45.263082
1774.000000	45.216521
1773.000000	45.172085
1772.000000	45.107305
1771.000000	45.058112
1770.000000	45.001024
1769.000000	44.944948
1768.000000	44.881483
1767.000000	44.834922
1766.000000	44.791701
1765.000000	44.755363
1764.000000	44.737042
1763.000000	44.713256
1762.000000	44.696656
1761.000000	44.670642
1760.000000	44.668719
1759.000000	44.666189
1758.000000	44.662443
1757.000000	44.642706
1756.000000	44.634608
1755.000000	44.618919
1754.000000	44.613453
1753.000000	44.604343
1752.000000	44.584504
1751.000000	44.535615
1750.000000	44.505856
1749.000000	44.444112
1748.000000	44.392085
1747.000000	44.323863
1746.000000	44.238231
1745.000000	44.169908
1744.000000	44.085187
1743.000000	44.002490
1742.000000	43.897120
1741.000000	43.788916
1740.000000	43.686482
1739.000000	43.609352
1738.000000	43.535057
1737.000000	43.471693
1736.000000	43.418958
1735.000000	43.368247
1734.000000	43.318851
1733.000000	43.270671
1732.000000	43.251540
1731.000000	43.217935
1730.000000	43.169350
1729.000000	43.153762
1728.000000	43.135745
1727.000000	43.105176
1726.000000	43.091613
1725.000000	43.076733
1724.000000	43.117424
1723.000000	43.191618
1722.000000	43.292838
1721.000000	43.431711
1720.000000	43.620284
1719.000000	43.809160
1718.000000	44.027694
1717.000000	44.248758
1716.000000	44.459903
1715.000000	44.684003
1714.000000	44.874398
1713.000000	45.040702
1712.000000	45.193443
1711.000000	45.325737
1710.000000	45.430803
1709.000000	45.522002
1708.000000	45.623425
1707.000000	45.694278
1706.000000	45.724341
1705.000000	45.767157
1704.000000	45.788413
1703.000000	45.781226
1702.000000	45.804811
1701.000000	45.788615
1700.000000	45.771914
1699.000000	45.757136
1698.000000	45.746407
1697.000000	45.713207
1696.000000	45.690635
1695.000000	45.642960
1694.000000	45.562693
1693.000000	45.525545
1692.000000	45.457728
1691.000000	45.388898
1690.000000	45.358431
1689.000000	45.349726
1688.000000	45.394567
1687.000000	45.484551
1686.000000	45.625247
1685.000000	45.814022
1684.000000	46.039843
1683.000000	46.270827
1682.000000	46.524585
1681.000000	46.780064
1680.000000	47.000014
1679.000000	47.230897
1678.000000	47.454694
1677.000000	47.639420
1676.000000	47.851881
1675.000000	48.035392
1674.000000	48.190866
1673.000000	48.387131
1672.000000	48.564873
1671.000000	48.745044
1670.000000	48.939386
1669.000000	49.114800
1668.000000	49.284951
1667.000000	49.449939
1666.000000	49.614017
1665.000000	49.762101
1664.000000	49.910287
1663.000000	50.057056
1662.000000	50.162831
1661.000000	50.267593
1660.000000	50.381567
1659.000000	50.477726
1658.000000	50.558600
1657.000000	50.648888
1656.000000	50.697069
1655.000000	50.732091
1654.000000	50.783005
1653.000000	50.827744
1652.000000	50.857401
1651.000000	50.858515
1650.000000	50.871369
1649.000000	50.890804
1648.000000	50.879163
1647.000000	50.881289
1646.000000	50.865195
1645.000000	50.862260
1644.000000	50.858616
1643.000000	50.844546
1642.000000	50.832805
1641.000000	50.843635
1640.000000	50.831489
1639.000000	50.794746
1638.000000	50.791406
1637.000000	50.796366
1636.000000	50.757092
1635.000000	50.729560
1634.000000	50.712758
1633.000000	50.678951
1632.000000	50.647370
1631.000000	50.606680
1630.000000	50.554855
1629.000000	50.520440
1628.000000	50.476713
1627.000000	50.444222
1626.000000	50.395839
1625.000000	50.343609
1624.000000	50.314255
1623.000000	50.282574
1622.000000	50.234595
1621.000000	50.220830
1620.000000	50.194816
1619.000000	50.160098
1618.000000	50.126796
1617.000000	50.087219
1616.000000	50.056145
1615.000000	50.032459
1614.000000	49.994603
1613.000000	49.953609
1612.000000	49.897129
1611.000000	49.855122
1610.000000	49.806638
1609.000000	49.742161
1608.000000	49.684769
1607.000000	49.618673
1606.000000	49.547819
1605.000000	49.475244
1604.000000	49.391738
1603.000000	49.319973
1602.000000	49.260152
1601.000000	49.195878
1600.000000	49.122594
1599.000000	49.046781
1598.000000	48.977445
1597.000000	48.920256
1596.000000	48.853350
1595.000000	48.792010
1594.000000	48.740692
1593.000000	48.685932
1592.000000	48.638359
1591.000000	48.595441
1590.000000	48.556067
1589.000000	48.508392
1588.000000	48.454442
1587.000000	48.395937
1586.000000	48.348161
1585.000000	48.320022
1584.000000	48.279838
1583.000000	48.233378
1582.000000	48.194105
1581.000000	48.158779
1580.000000	48.127401
1579.000000	48.103209
1578.000000	48.090152
1577.000000	48.076487
1576.000000	48.071831
1575.000000	48.070009
1574.000000	48.067276
1573.000000	48.061001
1572.000000	48.073754
1571.000000	48.095517
1570.000000	48.104120
1569.000000	48.118291
1568.000000	48.149163
1567.000000	48.172241
1566.000000	48.182363
1565.000000	48.193396
1564.000000	48.206049
1563.000000	48.225685
1562.000000	48.232973
1561.000000	48.217183
1560.000000	48.182566
1559.000000	48.153111
1558.000000	48.131652
1557.000000	48.088532
1556.000000	48.033773
1555.000000	47.982555
1554.000000	47.916661
1553.000000	47.831940
1552.000000	47.744284
1551.000000	47.669584
1550.000000	47.591239
1549.000000	47.507328
1548.000000	47.426150
1547.000000	47.339101
1546.000000	47.269765
1545.000000	47.212374
1544.000000	47.149212
1543.000000	47.098704
1542.000000	47.060240
1541.000000	47.025016
1540.000000	46.986856
1539.000000	46.940598
1538.000000	46.920759
1537.000000	46.893936
1536.000000	46.841909
1535.000000	46.802636
1534.000000	46.755265
1533.000000	46.695748
1532.000000	46.639975
1531.000000	46.592098
1530.000000	46.540881
1529.000000	46.490676
1528.000000	46.428021
1527.000000	46.367188
1526.000000	46.316780
1525.000000	46.260907
1524.000000	46.207969
1523.000000	46.131548
1522.000000	46.052698
1521.000000	46.006440
1520.000000	45.955527
1519.000000	45.889835
1518.000000	45.831026
1517.000000	45.761590
1516.000000	45.696809
1515.000000	45.623020
1514.000000	45.553684
1513.000000	45.498823
1512.000000	45.412179
1511.000000	45.356305
1510.000000	45.291828
1509.000000	45.226946
1508.000000	45.151740
1507.000000	45.070461
1506.000000	45.001834
1505.000000	44.946871
1504.000000	44.901423
1503.000000	44.849396
1502.000000	44.788968
1501.000000	44.768421
1500.000000	44.729552
1499.000000	44.697061
1498.000000	44.674590
1497.000000	44.665379
1496.000000	44.664367
1495.000000	44.666189
1494.000000	44.673173
1493.000000	44.679347
1492.000000	44.711029
1491.000000	44.738966
1490.000000	44.773380
1489.000000	44.793726
1488.000000	44.827735
1487.000000	44.856786
1486.000000	44.884823
1485.000000	44.928550
1484.000000	44.961143
1483.000000	45.002643
1482.000000	45.055075
1481.000000	45.104268
1480.000000	45.132812
1479.000000	45.183017
1478.000000	45.220064
1477.000000	45.270066
1476.000000	45.315716
1475.000000	45.402765
1474.000000	45.463902
1473.000000	45.568159
1472.000000	45.636988
1471.000000	45.693367
1470.000000	45.762501
1469.000000	45.823739
1468.000000	45.927185
1467.000000	46.020712
1466.000000	46.075371
1465.000000	46.134990
1464.000000	46.223861
1463.000000	46.311112
1462.000000	46.403627
1461.000000	46.512843
1460.000000	46.595337
1459.000000	46.695140
1458.000000	46.780975
1457.000000	46.894138
1456.000000	47.002545
1455.000000	47.074411
1454.000000	47.162472
1453.000000	47.296285
1452.000000	47.414003
1451.000000	47.494574
1450.000000	47.575145
1449.000000	47.624136
1448.000000	47.769892
1447.000000	47.882044
1446.000000	47.986807
1445.000000	48.037416
1444.000000	48.103412
1443.000000	48.233479
1442.000000	48.338950
1441.000000	48.435818
1440.000000	48.564165
1439.000000	48.675101
1438.000000	48.794440
1437.000000	48.875112
1436.000000	48.994349
1435.000000	49.148001
1434.000000	49.269059
1433.000000	49.447611
1432.000000	49.576768
1431.000000	49.660477
1430.000000	49.867269
1429.000000	50.045314
1428.000000	50.198258
1427.000000	50.374076
1426.000000	50.614575
1425.000000	50.823594
1424.000000	51.030892
1423.000000	51.249729
1422.000000	51.444375
1421.000000	51.762610
1420.000000	52.037928
1419.000000	52.251806
1418.000000	52.407583
1417.000000	52.699197
1416.000000	53.069358
1415.000000	53.411380
1414.000000	53.670199
1413.000000	53.951084
1412.000000	54.244925
1411.000000	54.661850
1410.000000	55.082115
1409.000000	55.386280
1408.000000	55.734780
1407.000000	56.064251
1406.000000	56.432691
1405.000000	56.745258
1404.000000	57.096896
1403.000000	57.421305
1402.000000	57.857765
1401.000000	58.237441
1400.000000	58.456987
1399.000000	58.634526
1398.000000	58.916626
1397.000000	59.303589
1396.000000	59.648243
1395.000000	59.826288
1394.000000	60.019821
1393.000000	60.292608
1392.000000	60.517013
1391.000000	60.729777
1390.000000	60.984851
1389.000000	61.302782
1388.000000	61.574051
1387.000000	61.789953
1386.000000	62.054947
1385.000000	62.380875
1384.000000	62.555175
1383.000000	62.766219
1382.000000	62.885658
1381.000000	62.961978
1380.000000	63.006515
1379.000000	63.110265
1378.000000	63.192759
1377.000000	63.296003
1376.000000	63.375461
1375.000000	63.463927
1374.000000	63.611910
1373.000000	63.792891
1372.000000	63.890771
1371.000000	63.957171
1370.000000	64.060415
1369.000000	64.230667
1368.000000	64.292411
1367.000000	64.363164
1366.000000	64.479972
1365.000000	64.553154
1364.000000	64.612367
1363.000000	64.729883
1362.000000	64.817641
1361.000000	64.798409
1360.000000	64.748913
1359.000000	64.833431
1358.000000	64.896188
1357.000000	64.984350
1356.000000	65.089113
1355.000000	65.186790
1354.000000	65.258656
1353.000000	65.328801
1352.000000	65.510896
1351.000000	65.663535
1350.000000	65.802713
1349.000000	65.972762
1348.000000	66.127932
1347.000000	66.239679
1346.000000	66.351425
1345.000000	66.509936
1344.000000	66.642736
1343.000000	66.756203
1342.000000	66.869165
1341.000000	66.989718
1340.000000	67.095796
1339.000000	67.188108
1338.000000	67.289430
1337.000000	67.378098
1336.000000	67.466665
1335.000000	67.526891
1334.000000	67.607665
1333.000000	67.677608
1332.000000	67.741477
1331.000000	67.808991
1330.000000	67.869622
1329.000000	67.917094
1328.000000	67.950496
1327.000000	67.992705
1326.000000	68.047971
1325.000000	68.098581
1324.000000	68.133805
1323.000000	68.164981
1322.000000	68.197270
1321.000000	68.234114
1320.000000	68.270452
1319.000000	68.309017
1318.000000	68.340901
1317.000000	68.363271
1316.000000	68.393940
1315.000000	68.421472
1314.000000	68.444753
1313.000000	68.478459
1312.000000	68.497589
1311.000000	68.501436
1310.000000	68.521781
1309.000000	68.543543
1308.000000	68.552653
1307.000000	68.572391
1306.000000	68.582209
1305.000000	68.580893
1304.000000	68.567836
1303.000000	68.576743
1302.000000	68.600935
1301.000000	68.592432
1300.000000	68.589801
1299.000000	68.591420
1298.000000	68.582614
1297.000000	68.579679
1296.000000	68.556702
1295.000000	68.539292
1294.000000	68.540001
1293.000000	68.522085
1292.000000	68.506294
1291.000000	68.488783
1290.000000	68.466920
1289.000000	68.451028
1288.000000	68.434934
1287.000000	68.400115
1286.000000	68.361348
1285.000000	68.335233
1284.000000	68.309321
1283.000000	68.269946
1282.000000	68.231685
1281.000000	68.208303
1280.000000	68.189274
1279.000000	68.166499
1278.000000	68.143826
1277.000000	68.133704
1276.000000	68.117813
1275.000000	68.089066
1274.000000	68.086941
1273.000000	68.088864
1272.000000	68.078438
1271.000000	68.069328
1270.000000	68.072163
1269.000000	68.064976
1268.000000	68.048275
1267.000000	68.043922
1266.000000	68.043517
1265.000000	68.033901
1264.000000	68.030156
1263.000000	68.020136
1262.000000	68.013151
1261.000000	68.002726
1260.000000	67.980862
1259.000000	67.964869
1258.000000	67.958898
1257.000000	67.945638
1256.000000	67.926811
1255.000000	67.914563
1254.000000	67.873164
1253.000000	67.848568
1252.000000	67.814963
1251.000000	67.772349
1250.000000	67.730849
1249.000000	67.693904
1248.000000	67.653214
1247.000000	67.595012
1246.000000	67.537722
1245.000000	67.496323
1244.000000	67.443081
1243.000000	67.374049
1242.000000	67.331132
1241.000000	67.295806
1240.000000	67.231532
1239.000000	67.206126
1238.000000	67.162196
1237.000000	67.116546
1236.000000	67.085978
1235.000000	67.046704
1234.000000	67.008038
1233.000000	66.971700
1232.000000	66.934047
1231.000000	66.900239
1230.000000	66.856917
1229.000000	66.821996
1228.000000	66.789808
1227.000000	66.769160
1226.000000	66.721890
1225.000000	66.694662
1224.000000	66.669863
1223.000000	66.619759
1222.000000	66.567226
1221.000000	66.552245
1220.000000	66.510138
1219.000000	66.481594
1218.000000	66.450621
1217.000000	66.399707
1216.000000	66.363167
1215.000000	66.327537
1214.000000	66.276725
1213.000000	66.235933
1212.000000	66.180465
1211.000000	66.107081
1210.000000	66.068212
1209.000000	66.001610
1208.000000	65.929946
1207.000000	65.880854
1206.000000	65.800486
1205.000000	65.725381
1204.000000	65.685905
1203.000000	65.628513
1202.000000	65.543893
1201.000000	65.460185
1200.000000	65.398947
1199.000000	65.334368
1198.000000	65.256530
1197.000000	65.163206
1196.000000	65.101664
1195.000000	65.016538
1194.000000	64.925744
1193.000000	64.846185
1192.000000	64.728871
1191.000000	64.661864
1190.000000	64.583216
1189.000000	64.527849
1188.000000	64.483110
1187.000000	64.482705
1186.000000	64.466611
1185.000000	64.469040
1184.000000	64.484324
1183.000000	64.493839
1182.000000	64.547789
1181.000000	64.575726
1180.000000	64.631397
1179.000000	64.689598
1178.000000	64.735248
1177.000000	64.772193
1176.000000	64.812681
1175.000000	64.849829
1174.000000	64.913901
1173.000000	64.985970
1172.000000	65.025547
1171.000000	65.080813
1170.000000	65.170898
1169.000000	65.240942
1168.000000	65.329409
1167.000000	65.407652
1166.000000	65.499053
1165.000000	65.583572
1164.000000	65.680540
1163.000000	65.783380
1162.000000	65.877514
1161.000000	65.947963
1160.000000	66.032482
1159.000000	66.111737
1158.000000	66.197672
1157.000000	66.251521
1156.000000	66.304662
1155.000000	66.341000
1154.000000	66.390597
1153.000000	66.433616
1152.000000	66.436248
1151.000000	66.458921
1150.000000	66.479873
1149.000000	66.505077
1148.000000	66.532508
1147.000000	66.536455
1146.000000	66.566011
1145.000000	66.566922
1144.000000	66.569554
1143.000000	66.595770
1142.000000	66.639598
1141.000000	66.681402
1140.000000	66.700229
1139.000000	66.778168
1138.000000	66.837078
1137.000000	66.883437
1136.000000	66.987491
1135.000000	67.056826
1134.000000	67.056017
1133.000000	67.071301
1132.000000	67.098731
1131.000000	67.149645
1130.000000	67.212502
1129.000000	67.212604
1128.000000	67.224952
1127.000000	67.236087
1126.000000	67.269894
1125.000000	67.256837
1124.000000	67.265542
1123.000000	67.245399
1122.000000	67.203494
1121.000000	67.195194
1120.000000	67.169484
1119.000000	67.178695
1118.000000	67.135980
1117.000000	67.094986
1116.000000	67.055814
1115.000000	67.037190
1114.000000	67.005710
1113.000000	66.964311
1112.000000	66.937286
1111.000000	66.895684
1110.000000	66.868051
1109.000000	66.848212
1108.000000	66.819466
1107.000000	66.770172
1106.000000	66.742235
1105.000000	66.708124
1104.000000	66.666826
1103.000000	66.641015
1102.000000	66.612572
1101.000000	66.573299
1100.000000	66.536860
1099.000000	66.485137
1098.000000	66.454062
1097.000000	66.416206
1096.000000	66.365900
1095.000000	66.325311
1094.000000	66.290390
1093.000000	66.255570
1092.000000	66.190587
1091.000000	66.136029
1090.000000	66.087242
1089.000000	66.059305
1088.000000	66.021550
1087.000000	65.956465
1086.000000	65.892090
1085.000000	65.833382
1084.000000	65.778825
1083.000000	65.727101
1082.000000	65.661005
1081.000000	65.599058
1080.000000	65.545817
1079.000000	65.484275
1078.000000	65.407449
1077.000000	65.328801
1076.000000	65.273333
1075.000000	65.211892
1074.000000	65.141342
1073.000000	65.070387
1072.000000	65.003784
1071.000000	64.943660
1070.000000	64.873616
1069.000000	64.817337
1068.000000	64.741018
1067.000000	64.663078
1066.000000	64.599107
1065.000000	64.525318
1064.000000	64.464485
1063.000000	64.390595
1062.000000	64.322980
1061.000000	64.263665
1060.000000	64.196860
1059.000000	64.138355
1058.000000	64.067298
1057.000000	64.012640
1056.000000	63.952211
1055.000000	63.898565
1054.000000	63.845627
1053.000000	63.781960
1052.000000	63.741067
1051.000000	63.694809
1050.000000	63.645414
1049.000000	63.606343
1048.000000	63.574358
1047.000000	63.536906
1046.000000	63.481640
1045.000000	63.448035
1044.000000	63.419896
1043.000000	63.377789
1042.000000	63.340540
1041.000000	63.304000
1040.000000	63.278998
1039.000000	63.250758
1038.000000	63.214521
1037.000000	63.187496
1036.000000	63.170086
1035.000000	63.134355
1034.000000	63.087895
1033.000000	63.063299
1032.000000	63.031212
1031.000000	62.996393
1030.000000	62.967241
1029.000000	62.925134
1028.000000	62.881103
1027.000000	62.840716
1026.000000	62.810249
1025.000000	62.772089
1024.000000	62.722795
1023.000000	62.686457
1022.000000	62.653156
1021.000000	62.610745
1020.000000	62.568435
1019.000000	62.527846
1018.000000	62.478349
1017.000000	62.437558
1016.000000	62.400613
1015.000000	62.357999
1014.000000	62.311033
1013.000000	62.271659
1012.000000	62.222769
1011.000000	62.174285
1010.000000	62.149992
1009.000000	62.108087
1008.000000	62.050797
1007.000000	62.016989
1006.000000	61.981158
1005.000000	61.941682
1004.000000	61.901700
1003.000000	61.870221
1002.000000	61.848155
1001.000000	61.809489
1000.000000	61.783779
999.000000	61.762928
998.000000	61.742076
997.000000	61.727703
996.000000	61.713735
995.000000	61.704524
994.000000	61.690454
993.000000	61.689138
992.000000	61.690859
991.000000	61.686001
990.000000	61.708168
989.000000	61.744506
988.000000	61.769406
987.000000	61.777807
986.000000	61.796229
985.000000	61.837223
984.000000	61.877610
983.000000	61.912126
982.000000	61.968100
981.000000	62.002920
980.000000	62.056161
979.000000	62.106771
978.000000	62.165681
977.000000	62.238054
976.000000	62.299089
975.000000	62.360125
974.000000	62.426019
973.000000	62.496468
972.000000	62.575925
971.000000	62.643439
970.000000	62.718342
969.000000	62.793750
968.000000	62.867034
967.000000	62.950236
966.000000	63.022204
965.000000	63.101661
964.000000	63.180714
963.000000	63.266143
962.000000	63.339123
961.000000	63.410787
960.000000	63.491560
959.000000	63.575775
958.000000	63.651690
957.000000	63.728617
956.000000	63.797649
955.000000	63.875487
954.000000	63.943507
953.000000	64.013146
952.000000	64.086733
951.000000	64.178235
950.000000	64.263159
949.000000	64.342819
948.000000	64.403450
947.000000	64.492321
946.000000	64.563782
945.000000	64.641923
944.000000	64.726442
943.000000	64.803673
942.000000	64.889001
941.000000	64.981617
940.000000	65.046398
939.000000	65.149946
938.000000	65.233553
937.000000	65.316554
936.000000	65.415344
935.000000	65.505025
934.000000	65.617278
933.000000	65.730037
932.000000	65.835002
931.000000	65.931262
930.000000	66.025093
929.000000	66.151921
928.000000	66.264781
927.000000	66.390901
926.000000	66.535241
925.000000	66.672393
924.000000	66.813190
923.000000	66.979393
922.000000	67.147418
921.000000	67.316354
920.000000	67.477800
919.000000	67.651290
918.000000	67.845430
917.000000	68.033092
916.000000	68.225915
915.000000	68.391106
914.000000	68.574112
913.000000	68.791228
912.000000	68.988000
911.000000	69.177584
910.000000	69.370914
909.000000	69.572848
908.000000	69.767291
907.000000	69.956471
906.000000	70.164984
905.000000	70.376128
904.000000	70.575430
903.000000	70.755399
902.000000	70.945085
901.000000	71.159975
900.000000	71.336401
899.000000	71.517382
898.000000	71.697351
897.000000	71.868008
896.000000	72.058908
895.000000	72.217520
894.000000	72.375220
893.000000	72.543650
892.000000	72.717141
891.000000	72.860569
890.000000	73.000354
889.000000	73.160484
888.000000	73.305532
887.000000	73.452199
886.000000	73.608483
885.000000	73.767094
884.000000	73.909612
883.000000	74.039072
882.000000	74.185436
881.000000	74.333925
880.000000	74.461766
879.000000	74.613393
878.000000	74.753886
877.000000	74.890432
876.000000	75.043476
875.000000	75.166054
874.000000	75.290756
873.000000	75.413131
872.000000	75.522449
871.000000	75.678833
870.000000	75.806876
869.000000	75.914372
868.000000	76.030471
867.000000	76.125618
866.000000	76.258924
865.000000	76.309838
864.000000	76.344961
863.000000	76.428467
862.000000	76.402150
861.000000	76.371683
860.000000	76.328766
859.000000	76.352553
858.000000	76.577767
857.000000	76.436500
856.000000	76.430100
855.000000	76.866700
854.000000	76.676100
853.000000	77.163800
852.000000	77.025000
851.000000	77.098100
850.000000	77.526500
849.000000	77.522900
848.000000	77.743900
847.000000	78.076000
846.000000	78.125900
845.000000	77.785300
844.000000	78.124600
843.000000	78.227300
842.000000	78.180900
841.000000	78.165500
840.000000	78.397200
839.000000	78.554200
838.000000	78.726700
837.000000	78.745200
836.000000	78.924700
835.000000	79.100100
834.000000	79.166200
833.000000	79.067400
832.000000	79.422400
831.000000	79.497100
830.000000	79.325300
829.000000	79.364000
828.000000	79.693800
827.000000	79.874700
826.000000	79.716700
825.000000	79.612300
824.000000	79.933700
823.000000	79.852400
822.000000	79.871200
821.000000	79.914300
820.000000	79.951100
819.000000	79.843500
818.000000	79.890300
817.000000	80.059100
816.000000	79.768700
815.000000	79.743900
814.000000	79.855300
813.000000	79.863300
812.000000	79.721100
811.000000	79.582700
810.000000	79.550000
809.000000	79.337900
808.000000	79.191300
807.000000	79.037700
806.000000	78.863200
805.000000	78.736700
804.000000	78.664500
803.000000	78.468300
802.000000	78.340700
801.000000	78.121200
800.000000	78.010000
799.000000	77.932800
798.000000	77.768500
797.000000	77.669700
796.000000	77.565800
795.000000	77.340400
794.000000	77.335000
793.000000	77.267500
792.000000	77.216900
791.000000	77.098900
790.000000	77.046800
789.000000	77.026600
788.000000	76.945600
787.000000	76.870100
786.000000	76.844200
785.000000	76.901500
784.000000	76.805300
783.000000	76.695600
782.000000	76.648200
781.000000	76.704000
780.000000	76.718100
779.000000	76.673900
778.000000	76.678900
777.000000	76.745900
776.000000	76.767900
775.000000	76.693700
774.000000	76.660000
773.000000	76.774700
772.000000	76.734000
771.000000	76.727900
770.000000	76.691900
769.000000	76.647700
768.000000	76.601500
767.000000	76.614200
766.000000	76.614900
765.000000	76.538400
764.000000	76.364000
763.000000	76.257500
762.000000	76.237800
761.000000	76.167500
760.000000	76.078600
759.000000	75.987000
758.000000	75.856000
757.000000	75.786700
756.000000	75.683700
755.000000	75.512800
754.000000	75.367800
753.000000	75.290800
752.000000	75.175200
751.000000	75.042500
750.000000	74.951800
749.000000	74.806500
748.000000	74.569000
747.000000	74.364200
746.000000	74.174300
745.000000	74.006400
744.000000	73.828800
743.000000	73.595700
742.000000	73.413500
741.000000	73.120400
740.000000	72.856400
739.000000	72.642000
738.000000	72.312200
737.000000	72.062500
736.000000	71.839500
735.000000	71.579200
734.000000	71.270600
733.000000	70.942300
732.000000	70.630500
731.000000	70.275100
730.000000	69.904400
729.000000	69.620900
728.000000	69.321300
727.000000	68.945400
726.000000	68.607200
725.000000	68.294700
724.000000	67.943700
723.000000	67.574300
722.000000	67.287100
721.000000	66.984200
720.000000	66.623400
719.000000	66.370200
718.000000	66.118000
717.000000	65.867000
716.000000	65.629200
715.000000	65.425300
714.000000	65.261000
713.000000	65.137200
712.000000	65.016700
711.000000	64.867000
710.000000	64.793400
709.000000	64.748200
708.000000	64.678700
707.000000	64.602600
706.000000	64.561700
705.000000	64.538800
704.000000	64.523900
703.000000	64.543500
702.000000	64.592700
701.000000	64.618300
700.000000	64.636600
699.000000	64.710000
698.000000	64.759200
697.000000	64.817800
696.000000	64.875800
695.000000	64.930300
694.000000	65.052900
693.000000	65.082200
692.000000	65.145400
691.000000	65.232600
690.000000	65.282400
689.000000	65.302200
688.000000	65.326300
687.000000	65.419500
686.000000	65.386200
685.000000	65.364100
684.000000	65.313500
683.000000	65.252500
682.000000	65.153900
681.000000	65.081800
680.000000	64.922600
679.000000	64.803800
678.000000	64.657100
677.000000	64.486400
676.000000	64.292700
675.000000	64.087800
674.000000	63.835800
673.000000	63.541600
672.000000	63.245800
671.000000	62.947500
670.000000	62.518000
669.000000	62.086100
668.000000	61.648400
667.000000	61.137600
666.000000	60.564700
665.000000	60.053500
664.000000	59.434000
663.000000	58.809700
662.000000	58.136500
661.000000	57.463400
660.000000	56.788300
659.000000	56.118800
658.000000	55.438100
657.000000	54.789900
656.000000	54.167900
655.000000	53.535600
654.000000	53.003600
653.000000	52.485000
652.000000	52.068900
651.000000	51.677000
650.000000	51.358300
649.000000	51.101700
648.000000	50.919200
647.000000	50.795900
646.000000	50.735000
645.000000	50.808600
644.000000	50.911500
643.000000	51.080600
642.000000	51.374900
641.000000	51.725800
640.000000	52.152100
639.000000	52.647000
638.000000	53.221200
637.000000	53.864000
636.000000	54.549600
635.000000	55.299900
634.000000	56.101400
633.000000	56.934400
632.000000	57.811700
631.000000	58.701600
630.000000	59.586700
629.000000	60.503900
628.000000	61.398800
627.000000	62.302400
626.000000	63.172100
625.000000	64.015900
624.000000	64.925300
623.000000	65.770400
622.000000	66.644600
621.000000	67.474000
620.000000	68.304100
619.000000	69.114500
618.000000	69.938500
617.000000	70.667600
616.000000	71.418900
615.000000	72.191800
614.000000	72.877400
613.000000	73.532500
612.000000	74.281900
611.000000	74.944600
610.000000	75.557200
609.000000	76.156500
608.000000	76.715300
607.000000	77.242500
606.000000	77.709200
605.000000	78.164000
604.000000	78.596100
603.000000	79.015800
602.000000	79.414400
601.000000	79.751900
600.000000	80.116600
599.000000	80.433400
598.000000	80.712200
597.000000	80.932300
596.000000	81.222000
595.000000	81.426000
594.000000	81.644100
593.000000	81.879500
592.000000	82.027400
591.000000	82.226000
590.000000	82.321300
589.000000	82.465200
588.000000	82.584600
587.000000	82.641900
586.000000	82.725900
585.000000	82.828800
584.000000	82.877800
583.000000	82.908800
582.000000	82.967800
581.000000	82.940800
580.000000	82.944800
579.000000	82.951700
578.000000	82.927800
577.000000	82.908600
576.000000	82.848100
575.000000	82.776300
574.000000	82.701100
573.000000	82.573800
572.000000	82.522900
571.000000	82.434500
570.000000	82.235300
569.000000	82.111300
568.000000	81.935400
567.000000	81.807700
566.000000	81.608400
565.000000	81.408900
564.000000	81.191600
563.000000	80.978200
562.000000	80.735400
561.000000	80.483800
560.000000	80.209400
559.000000	79.999200
558.000000	79.705300
557.000000	79.433500
556.000000	79.082800
555.000000	78.714600
554.000000	78.335500
553.000000	77.922100
552.000000	77.461800
551.000000	77.004400
550.000000	76.493200
549.000000	75.964500
548.000000	75.391200
547.000000	74.754900
546.000000	74.081700
545.000000	73.420000
544.000000	72.683800
543.000000	71.899800
542.000000	71.057600
541.000000	70.170300
540.000000	69.237100
539.000000	68.280300
538.000000	67.266000
537.000000	66.222600
536.000000	65.145700
535.000000	64.009200
534.000000	62.812400
533.000000	61.603600
532.000000	60.412200
531.000000	59.148000
530.000000	57.890700
529.000000	56.659400
528.000000	55.429900
527.000000	54.221800
526.000000	53.034700
525.000000	51.842900
524.000000	50.705300
523.000000	49.563800
522.000000	48.470500
521.000000	47.446100
520.000000	46.457800
519.000000	45.499500
518.000000	44.578200
517.000000	43.712800
516.000000	42.905700
515.000000	42.149300
514.000000	41.420100
513.000000	40.693800
512.000000	40.010100
511.000000	39.364200
510.000000	38.749300
509.000000	38.143300
508.000000	37.537900
507.000000	36.923700
506.000000	36.351000
505.000000	35.801400
504.000000	35.242500
503.000000	34.690200
502.000000	34.157200
501.000000	33.645400
500.000000	33.138400
499.000000	32.652700
498.000000	32.209600
497.000000	31.791600
496.000000	31.382100
495.000000	30.996600
494.000000	30.661900
493.000000	30.346300
492.000000	30.021000
491.000000	29.725600
490.000000	29.485700
489.000000	29.251900
488.000000	29.046900
487.000000	28.864700
486.000000	28.689400
485.000000	28.553600
484.000000	28.426500
483.000000	28.309700
482.000000	28.200200
481.000000	28.130800
480.000000	28.067300
479.000000	28.009700
478.000000	27.967000
477.000000	27.907500
476.000000	27.869700
475.000000	27.854100
474.000000	27.810100
473.000000	27.786200
472.000000	27.769400
471.000000	27.756100
470.000000	27.719100
469.000000	27.696000
468.000000	27.672200
467.000000	27.620800
466.000000	27.581200
465.000000	27.527900
464.000000	27.472200
463.000000	27.413600
462.000000	27.325500
461.000000	27.236700
460.000000	27.137600
459.000000	27.036700
458.000000	26.945000
457.000000	26.831000
456.000000	26.692900
455.000000	26.565800
454.000000	26.420500
453.000000	26.249200
452.000000	26.065000
451.000000	25.872600
450.000000	25.680500
449.000000	25.475600
448.000000	25.258100
447.000000	25.012500
446.000000	24.767000
445.000000	24.491800
444.000000	24.194800
443.000000	23.904400
442.000000	23.582400
441.000000	23.254900
440.000000	22.923000
439.000000	22.588500
438.000000	22.219900
437.000000	21.858000
436.000000	21.475700
435.000000	21.069400
434.000000	20.659000
433.000000	20.226400
432.000000	19.798300
431.000000	19.371100
430.000000	18.913300
429.000000	18.464000
428.000000	18.015500
427.000000	17.544600
426.000000	17.096600
425.000000	16.648200
424.000000	16.185800
423.000000	15.722400
422.000000	15.267600
421.000000	14.832900
420.000000	14.398200
419.000000	13.967000
418.000000	13.555400
417.000000	13.137100
416.000000	12.754400
415.000000	12.379900
414.000000	12.000400
413.000000	11.637800
412.000000	11.319900
411.000000	10.996600
410.000000	10.682000
409.000000	10.391300
408.000000	10.118400
407.000000	9.844600
406.000000	9.586000
405.000000	9.360800
404.000000	9.145000
403.000000	8.944300
402.000000	8.747600
401.000000	8.553200
400.000000	8.374700
399.000000	8.222400
398.000000	8.063600
397.000000	7.916300
396.000000	7.799900
395.000000	7.688100
394.000000	7.561900
393.000000	7.453100
392.000000	7.329200
391.000000	7.234500
390.000000	7.142600
389.000000	7.061100
388.000000	6.978300
387.000000	6.912600
386.000000	6.842500
385.000000	6.778800
384.000000	6.710400
383.000000	6.647200
382.000000	6.586300
381.000000	6.546500
380.000000	6.500100
379.000000	6.433000
378.000000	6.385300
377.000000	6.352600
376.000000	6.262700
375.000000	6.070000
374.000000	6.032900
373.000000	5.998900
372.000000	6.080900
371.000000	6.114900
370.000000	6.029100
369.000000	6.037700
368.000000	6.012200
367.000000	6.011400
366.000000	5.929200
365.000000	5.982500
364.000000	5.927300
363.000000	5.930800
362.000000	5.907100
361.000000	5.804400
360.000000	5.858700
359.000000	5.813000
358.000000	5.736400
357.000000	5.756600
356.000000	5.762400
355.000000	5.770000
354.000000	5.748600
353.000000	5.660000
352.000000	5.683900
351.000000	5.592500
350.000000	5.598100
349.000000	5.569200
348.000000	5.644800
347.000000	5.687000
346.000000	5.633400
345.000000	5.572800
344.000000	5.675700
343.000000	5.574000
342.000000	5.598800
341.000000	5.664000
340.000000	5.503500
339.000000	5.515100
338.000000	5.538800
337.000000	5.708800
336.000000	5.578700
335.000000	5.624300
334.000000	5.682600
333.000000	5.629400
332.000000	5.695500
331.000000	5.626500
330.000000	5.560100
329.000000	5.634900
328.000000	5.606300
327.000000	5.579000
326.000000	5.742800
325.000000	5.598000
324.000000	5.641600
323.000000	5.744200
322.000000	5.724500
321.000000	5.858900
320.000000	5.581100
319.000000	5.841100
318.000000	6.163000
317.000000	6.003900
316.000000	5.420300
315.000000	5.370000
314.000000	5.403500
313.000000	5.435400
312.000000	5.405900
311.000000	5.437500
310.000000	5.349600
309.000000	5.367700
308.000000	5.292400
307.000000	5.385400
306.000000	5.326300
305.000000	5.406400
304.000000	5.431100
303.000000	5.377100
302.000000	5.334100
301.000000	5.393000
300.000000	5.392100
299.000000	5.367700
298.000000	5.355800
297.000000	5.396100
296.000000	5.348500
295.000000	5.419200
294.000000	5.361100
293.000000	5.403900
292.000000	5.298400
291.000000	5.381400
290.000000	5.370600
289.000000	5.446100
288.000000	5.372100
287.000000	5.413800
286.000000	5.369900
285.000000	5.338700
284.000000	5.385600
283.000000	5.405900
282.000000	5.370800
281.000000	5.452200
280.000000	5.372700
279.000000	5.399900
278.000000	5.462500
277.000000	5.409200
276.000000	5.416400
275.000000	5.471200
274.000000	5.486700
273.000000	5.462700
272.000000	5.474600
271.000000	5.514900
270.000000	5.502600
269.000000	5.467800
268.000000	5.518600
267.000000	5.539500
266.000000	5.601900
265.000000	5.569900
264.000000	5.614500
263.000000	5.636500
262.000000	5.697800
261.000000	5.685800
260.000000	5.717300
259.000000	5.689800
258.000000	5.719200
257.000000	5.718900
256.000000	5.760400
255.000000	5.779900
254.000000	5.792100
253.000000	5.778200
252.000000	5.784100
251.000000	5.819600
250.000000	5.814700
