PE UV       SUBTECH     SPECTRUM    ASCII       PEDS        4.00        
   -1
CICIMAUCR0116-1.Sample.ASC
24/04/19
09:46:45.00
24/04/19
09:46:45.00
Vinicio Soto Monge
C. kalinini
250,000000
1
Lambda 1050
1050L1511233
PerkinElmer UV WinLab 6.3.2.0749 / 2.02.05 Lambda 900 UV/VIS/NIR, Aug  7 2015 09:38:08

0
0
3350/servo 860,8/2
0
0
UV/VIS
1
1
1
DoubleDePol,CommonBeamDepol,RBeamAtt,SBeamAtt,60mm sphere, WB InGaAs Detector
0
0
0
0
Program
Program
3350/servo 860,8/2
3350/0,2 860,8/0,2
3350/0,2 860,8/0,2
0
15.00
 
 
 
0
 
860,8
319,2
860,8
Front
100
on
S:100 R:100
0
0
0
0
 
0
 
 
 
0
 
 
0
0
0
0
0
 
 
 
 
0
0


0
0
#HDR
-1
-1
#GR
nm
%R
1.0
0.0
2500,000000
-1,000000
2251
8
96,409700
5,351700
#DATA
2500.000000	10.356700
2499.000000	10.205500
2498.000000	10.337400
2497.000000	10.208600
2496.000000	10.178200
2495.000000	10.145700
2494.000000	10.095200
2493.000000	10.080400
2492.000000	10.074900
2491.000000	10.004900
2490.000000	10.100900
2489.000000	10.023600
2488.000000	10.001800
2487.000000	10.044000
2486.000000	9.993800
2485.000000	10.010500
2484.000000	9.974600
2483.000000	9.972000
2482.000000	9.987800
2481.000000	9.994200
2480.000000	9.951300
2479.000000	9.952500
2478.000000	9.954100
2477.000000	10.015500
2476.000000	10.018000
2475.000000	10.001700
2474.000000	10.024300
2473.000000	10.015100
2472.000000	10.029300
2471.000000	10.028200
2470.000000	10.032400
2469.000000	10.119600
2468.000000	10.124900
2467.000000	10.175400
2466.000000	10.159600
2465.000000	10.189800
2464.000000	10.246600
2463.000000	10.279000
2462.000000	10.307100
2461.000000	10.364900
2460.000000	10.457100
2459.000000	10.498800
2458.000000	10.551900
2457.000000	10.615200
2456.000000	10.696400
2455.000000	10.767600
2454.000000	10.869400
2453.000000	10.937500
2452.000000	11.023200
2451.000000	11.115100
2450.000000	11.220300
2449.000000	11.313600
2448.000000	11.396100
2447.000000	11.493400
2446.000000	11.585600
2445.000000	11.683900
2444.000000	11.781500
2443.000000	11.880500
2442.000000	11.980400
2441.000000	12.067700
2440.000000	12.171000
2439.000000	12.259500
2438.000000	12.347300
2437.000000	12.427200
2436.000000	12.530700
2435.000000	12.616400
2434.000000	12.703500
2433.000000	12.762300
2432.000000	12.847400
2431.000000	12.908800
2430.000000	12.958000
2429.000000	13.041700
2428.000000	13.125000
2427.000000	13.171500
2426.000000	13.257600
2425.000000	13.323600
2424.000000	13.386500
2423.000000	13.444000
2422.000000	13.513100
2421.000000	13.575600
2420.000000	13.607300
2419.000000	13.652100
2418.000000	13.693700
2417.000000	13.765200
2416.000000	13.814600
2415.000000	13.847400
2414.000000	13.875100
2413.000000	13.918200
2412.000000	13.959700
2411.000000	13.995700
2410.000000	14.027400
2409.000000	14.070700
2408.000000	14.106600
2407.000000	14.136700
2406.000000	14.160600
2405.000000	14.212300
2404.000000	14.239600
2403.000000	14.268800
2402.000000	14.302400
2401.000000	14.330500
2400.000000	14.355400
2399.000000	14.377900
2398.000000	14.421500
2397.000000	14.444500
2396.000000	14.466700
2395.000000	14.510100
2394.000000	14.541700
2393.000000	14.558800
2392.000000	14.574100
2391.000000	14.598000
2390.000000	14.615100
2389.000000	14.615000
2388.000000	14.613000
2387.000000	14.622300
2386.000000	14.644000
2385.000000	14.634200
2384.000000	14.631300
2383.000000	14.630500
2382.000000	14.611700
2381.000000	14.596900
2380.000000	14.575000
2379.000000	14.563600
2378.000000	14.537300
2377.000000	14.501400
2376.000000	14.487100
2375.000000	14.471600
2374.000000	14.440600
2373.000000	14.406300
2372.000000	14.378700
2371.000000	14.334500
2370.000000	14.287400
2369.000000	14.243100
2368.000000	14.198100
2367.000000	14.150100
2366.000000	14.102800
2365.000000	14.053100
2364.000000	13.988700
2363.000000	13.914100
2362.000000	13.840200
2361.000000	13.776200
2360.000000	13.711500
2359.000000	13.648500
2358.000000	13.603200
2357.000000	13.548600
2356.000000	13.489800
2355.000000	13.449700
2354.000000	13.432500
2353.000000	13.421700
2352.000000	13.414400
2351.000000	13.415400
2350.000000	13.427000
2349.000000	13.440900
2348.000000	13.464400
2347.000000	13.497000
2346.000000	13.548800
2345.000000	13.590600
2344.000000	13.618500
2343.000000	13.655000
2342.000000	13.702400
2341.000000	13.729000
2340.000000	13.745800
2339.000000	13.770100
2338.000000	13.776200
2337.000000	13.773200
2336.000000	13.764200
2335.000000	13.742900
2334.000000	13.718200
2333.000000	13.695400
2332.000000	13.673500
2331.000000	13.639500
2330.000000	13.574500
2329.000000	13.532700
2328.000000	13.474800
2327.000000	13.408800
2326.000000	13.339500
2325.000000	13.256800
2324.000000	13.161600
2323.000000	13.073600
2322.000000	12.968000
2321.000000	12.859900
2320.000000	12.747500
2319.000000	12.622400
2318.000000	12.500300
2317.000000	12.371700
2316.000000	12.239400
2315.000000	12.094600
2314.000000	11.975800
2313.000000	11.876800
2312.000000	11.771100
2311.000000	11.670000
2310.000000	11.598600
2309.000000	11.550600
2308.000000	11.512000
2307.000000	11.478200
2306.000000	11.458100
2305.000000	11.488600
2304.000000	11.528000
2303.000000	11.579600
2302.000000	11.640300
2301.000000	11.723700
2300.000000	11.803200
2299.000000	11.902500
2298.000000	11.992600
2297.000000	12.093200
2296.000000	12.185400
2295.000000	12.273700
2294.000000	12.346900
2293.000000	12.409900
2292.000000	12.470200
2291.000000	12.520300
2290.000000	12.560900
2289.000000	12.571700
2288.000000	12.575600
2287.000000	12.589700
2286.000000	12.571800
2285.000000	12.556300
2284.000000	12.536100
2283.000000	12.520100
2282.000000	12.467600
2281.000000	12.459900
2280.000000	12.424000
2279.000000	12.404700
2278.000000	12.355000
2277.000000	12.335600
2276.000000	12.330300
2275.000000	12.308800
2274.000000	12.293800
2273.000000	12.273300
2272.000000	12.295700
2271.000000	12.351900
2270.000000	12.393700
2269.000000	12.463900
2268.000000	12.530900
2267.000000	12.634800
2266.000000	12.790400
2265.000000	12.925300
2264.000000	13.099600
2263.000000	13.306600
2262.000000	13.531700
2261.000000	13.759700
2260.000000	14.008000
2259.000000	14.271000
2258.000000	14.567900
2257.000000	14.823000
2256.000000	15.113900
2255.000000	15.382800
2254.000000	15.669100
2253.000000	15.943800
2252.000000	16.188200
2251.000000	16.428700
2250.000000	16.676000
2249.000000	16.903500
2248.000000	17.101700
2247.000000	17.312400
2246.000000	17.484100
2245.000000	17.632500
2244.000000	17.791500
2243.000000	17.932400
2242.000000	18.068800
2241.000000	18.184500
2240.000000	18.277600
2239.000000	18.401400
2238.000000	18.481600
2237.000000	18.534700
2236.000000	18.631700
2235.000000	18.663100
2234.000000	18.723700
2233.000000	18.734300
2232.000000	18.773500
2231.000000	18.786600
2230.000000	18.794100
2229.000000	18.794600
2228.000000	18.782000
2227.000000	18.772300
2226.000000	18.729600
2225.000000	18.717700
2224.000000	18.666000
2223.000000	18.634400
2222.000000	18.581300
2221.000000	18.516800
2220.000000	18.484400
2219.000000	18.419000
2218.000000	18.346300
2217.000000	18.302700
2216.000000	18.236800
2215.000000	18.180100
2214.000000	18.128700
2213.000000	18.081400
2212.000000	18.025600
2211.000000	17.957500
2210.000000	17.926100
2209.000000	17.888900
2208.000000	17.841400
2207.000000	17.796000
2206.000000	17.783500
2205.000000	17.753700
2204.000000	17.712500
2203.000000	17.687000
2202.000000	17.661500
2201.000000	17.627600
2200.000000	17.606000
2199.000000	17.579300
2198.000000	17.554700
2197.000000	17.542100
2196.000000	17.541000
2195.000000	17.521200
2194.000000	17.506200
2193.000000	17.471300
2192.000000	17.459700
2191.000000	17.432800
2190.000000	17.427500
2189.000000	17.428700
2188.000000	17.407900
2187.000000	17.387200
2186.000000	17.369500
2185.000000	17.339900
2184.000000	17.317200
2183.000000	17.293300
2182.000000	17.277500
2181.000000	17.285300
2180.000000	17.262900
2179.000000	17.239400
2178.000000	17.235100
2177.000000	17.228400
2176.000000	17.225100
2175.000000	17.224100
2174.000000	17.237900
2173.000000	17.257000
2172.000000	17.267000
2171.000000	17.269800
2170.000000	17.304300
2169.000000	17.313700
2168.000000	17.335200
2167.000000	17.376500
2166.000000	17.416200
2165.000000	17.445900
2164.000000	17.490900
2163.000000	17.531600
2162.000000	17.568000
2161.000000	17.626200
2160.000000	17.670200
2159.000000	17.730200
2158.000000	17.789800
2157.000000	17.864400
2156.000000	17.942000
2155.000000	18.001300
2154.000000	18.085000
2153.000000	18.155700
2152.000000	18.222800
2151.000000	18.308200
2150.000000	18.395100
2149.000000	18.469100
2148.000000	18.548100
2147.000000	18.632400
2146.000000	18.701000
2145.000000	18.756200
2144.000000	18.839100
2143.000000	18.915200
2142.000000	18.975600
2141.000000	19.042600
2140.000000	19.127200
2139.000000	19.192700
2138.000000	19.238800
2137.000000	19.298400
2136.000000	19.349000
2135.000000	19.406300
2134.000000	19.461400
2133.000000	19.501300
2132.000000	19.544300
2131.000000	19.572700
2130.000000	19.599600
2129.000000	19.641600
2128.000000	19.674000
2127.000000	19.691300
2126.000000	19.717600
2125.000000	19.723900
2124.000000	19.733300
2123.000000	19.742800
2122.000000	19.756200
2121.000000	19.752700
2120.000000	19.740000
2119.000000	19.746600
2118.000000	19.746900
2117.000000	19.740500
2116.000000	19.718200
2115.000000	19.702400
2114.000000	19.683500
2113.000000	19.663400
2112.000000	19.631300
2111.000000	19.614100
2110.000000	19.593700
2109.000000	19.566200
2108.000000	19.547100
2107.000000	19.527400
2106.000000	19.508700
2105.000000	19.483600
2104.000000	19.455000
2103.000000	19.428000
2102.000000	19.394900
2101.000000	19.368000
2100.000000	19.351600
2099.000000	19.336200
2098.000000	19.323500
2097.000000	19.310400
2096.000000	19.291800
2095.000000	19.274200
2094.000000	19.262700
2093.000000	19.248000
2092.000000	19.246700
2091.000000	19.242500
2090.000000	19.231900
2089.000000	19.221800
2088.000000	19.208900
2087.000000	19.202800
2086.000000	19.188800
2085.000000	19.174400
2084.000000	19.145700
2083.000000	19.108400
2082.000000	19.079700
2081.000000	19.050700
2080.000000	19.005500
2079.000000	18.951500
2078.000000	18.899400
2077.000000	18.840700
2076.000000	18.777400
2075.000000	18.718900
2074.000000	18.656600
2073.000000	18.593900
2072.000000	18.512600
2071.000000	18.419600
2070.000000	18.339800
2069.000000	18.264900
2068.000000	18.181000
2067.000000	18.096200
2066.000000	18.014600
2065.000000	17.932800
2064.000000	17.857600
2063.000000	17.771800
2062.000000	17.684900
2061.000000	17.622100
2060.000000	17.559500
2059.000000	17.511000
2058.000000	17.470200
2057.000000	17.437000
2056.000000	17.428200
2055.000000	17.435100
2054.000000	17.466900
2053.000000	17.495200
2052.000000	17.559700
2051.000000	17.640000
2050.000000	17.736900
2049.000000	17.854800
2048.000000	17.986300
2047.000000	18.133200
2046.000000	18.300900
2045.000000	18.445500
2044.000000	18.634600
2043.000000	18.808600
2042.000000	18.985000
2041.000000	19.157900
2040.000000	19.348500
2039.000000	19.522900
2038.000000	19.688200
2037.000000	19.843400
2036.000000	19.990600
2035.000000	20.149300
2034.000000	20.276300
2033.000000	20.412900
2032.000000	20.548100
2031.000000	20.674200
2030.000000	20.763100
2029.000000	20.860800
2028.000000	20.976700
2027.000000	21.071400
2026.000000	21.173200
2025.000000	21.259100
2024.000000	21.350300
2023.000000	21.421700
2022.000000	21.500000
2021.000000	21.569900
2020.000000	21.640700
2019.000000	21.697300
2018.000000	21.755100
2017.000000	21.782300
2016.000000	21.813800
2015.000000	21.877600
2014.000000	21.916200
2013.000000	21.965200
2012.000000	21.996000
2011.000000	22.020800
2010.000000	22.027900
2009.000000	22.039600
2008.000000	22.050600
2007.000000	22.061000
2006.000000	22.045600
2005.000000	22.043800
2004.000000	22.026100
2003.000000	21.996800
2002.000000	21.979200
2001.000000	21.939800
2000.000000	21.895200
1999.000000	21.849600
1998.000000	21.790900
1997.000000	21.760900
1996.000000	21.690500
1995.000000	21.630100
1994.000000	21.579800
1993.000000	21.520400
1992.000000	21.429300
1991.000000	21.354300
1990.000000	21.270500
1989.000000	21.178600
1988.000000	21.111800
1987.000000	21.007600
1986.000000	20.903000
1985.000000	20.821000
1984.000000	20.734700
1983.000000	20.635200
1982.000000	20.535700
1981.000000	20.439800
1980.000000	20.351400
1979.000000	20.254900
1978.000000	20.153900
1977.000000	20.058100
1976.000000	19.959500
1975.000000	19.877600
1974.000000	19.769500
1973.000000	19.675300
1972.000000	19.606300
1971.000000	19.501900
1970.000000	19.413500
1969.000000	19.324000
1968.000000	19.255200
1967.000000	19.158600
1966.000000	19.060600
1965.000000	18.980700
1964.000000	18.898600
1963.000000	18.826200
1962.000000	18.714400
1961.000000	18.641300
1960.000000	18.556000
1959.000000	18.470900
1958.000000	18.359900
1957.000000	18.286500
1956.000000	18.200000
1955.000000	18.138800
1954.000000	18.040600
1953.000000	17.960500
1952.000000	17.859700
1951.000000	17.811000
1950.000000	17.703200
1949.000000	17.659000
1948.000000	17.604800
1947.000000	17.528900
1946.000000	17.495700
1945.000000	17.435100
1944.000000	17.409000
1943.000000	17.361700
1942.000000	17.358300
1941.000000	17.319300
1940.000000	17.312700
1939.000000	17.318900
1938.000000	17.304400
1937.000000	17.332900
1936.000000	17.329700
1935.000000	17.372700
1934.000000	17.418300
1933.000000	17.456700
1932.000000	17.527700
1931.000000	17.608000
1930.000000	17.694500
1929.000000	17.810300
1928.000000	17.906200
1927.000000	18.013100
1926.000000	18.137800
1925.000000	18.276600
1924.000000	18.421900
1923.000000	18.579400
1922.000000	18.764500
1921.000000	18.968500
1920.000000	19.193700
1919.000000	19.366600
1918.000000	19.570900
1917.000000	19.758700
1916.000000	19.986600
1915.000000	20.256300
1914.000000	20.572300
1913.000000	20.868500
1912.000000	21.148100
1911.000000	21.413900
1910.000000	21.649700
1909.000000	21.925100
1908.000000	22.248500
1907.000000	22.615600
1906.000000	23.025400
1905.000000	23.437100
1904.000000	23.785200
1903.000000	24.151700
1902.000000	24.522900
1901.000000	24.948300
1900.000000	25.384300
1899.000000	25.813400
1898.000000	26.251200
1897.000000	26.632900
1896.000000	26.995400
1895.000000	27.389400
1894.000000	27.809400
1893.000000	28.275100
1892.000000	28.776800
1891.000000	29.235000
1890.000000	29.669400
1889.000000	30.134500
1888.000000	30.553700
1887.000000	31.012700
1886.000000	31.508000
1885.000000	32.047000
1884.000000	32.586200
1883.000000	33.108600
1882.000000	33.604600
1881.000000	34.101400
1880.000000	34.538800
1879.000000	34.993100
1878.000000	35.439900
1877.000000	35.820000
1876.000000	36.201100
1875.000000	36.578700
1874.000000	36.912900
1873.000000	37.231600
1872.000000	37.523900
1871.000000	37.776000
1870.000000	37.999100
1869.000000	38.196100
1868.000000	38.351500
1867.000000	38.457600
1866.000000	38.552300
1865.000000	38.650300
1864.000000	38.760300
1863.000000	38.861800
1862.000000	38.955100
1861.000000	39.035900
1860.000000	39.116200
1859.000000	39.168100
1858.000000	39.187700
1857.000000	39.208600
1856.000000	39.217000
1855.000000	39.237900
1854.000000	39.233700
1853.000000	39.186700
1852.000000	39.180100
1851.000000	39.168000
1850.000000	39.152200
1849.000000	39.149900
1848.000000	39.121900
1847.000000	39.024800
1846.000000	38.932300
1845.000000	38.912200
1844.000000	38.887700
1843.000000	38.914100
1842.000000	38.927600
1841.000000	38.862200
1840.000000	38.794200
1839.000000	38.738900
1838.000000	38.705300
1837.000000	38.651000
1836.000000	38.589000
1835.000000	38.505900
1834.000000	38.412500
1833.000000	38.357200
1832.000000	38.315200
1831.000000	38.263500
1830.000000	38.195900
1829.000000	38.128800
1828.000000	38.061900
1827.000000	38.000400
1826.000000	37.940900
1825.000000	37.892000
1824.000000	37.863500
1823.000000	37.901900
1822.000000	37.923000
1821.000000	37.896900
1820.000000	37.859400
1819.000000	37.817000
1818.000000	37.806300
1817.000000	37.806900
1816.000000	37.812500
1815.000000	37.789400
1814.000000	37.782000
1813.000000	37.774800
1812.000000	37.754600
1811.000000	37.704600
1810.000000	37.661900
1809.000000	37.630700
1808.000000	37.588800
1807.000000	37.545500
1806.000000	37.498300
1805.000000	37.445500
1804.000000	37.399600
1803.000000	37.371300
1802.000000	37.347200
1801.000000	37.296300
1800.000000	37.221800
1799.000000	37.158500
1798.000000	37.124300
1797.000000	37.092800
1796.000000	37.061200
1795.000000	37.004700
1794.000000	36.949100
1793.000000	36.902500
1792.000000	36.862500
1791.000000	36.810400
1790.000000	36.759400
1789.000000	36.708400
1788.000000	36.662100
1787.000000	36.627000
1786.000000	36.575300
1785.000000	36.501400
1784.000000	36.432400
1783.000000	36.346900
1782.000000	36.273300
1781.000000	36.196700
1780.000000	36.117600
1779.000000	36.036000
1778.000000	35.933800
1777.000000	35.805700
1776.000000	35.706200
1775.000000	35.592200
1774.000000	35.455000
1773.000000	35.311200
1772.000000	35.184700
1771.000000	35.047000
1770.000000	34.882600
1769.000000	34.756300
1768.000000	34.646400
1767.000000	34.523600
1766.000000	34.436100
1765.000000	34.385300
1764.000000	34.343000
1763.000000	34.330700
1762.000000	34.359100
1761.000000	34.399400
1760.000000	34.456300
1759.000000	34.512500
1758.000000	34.574100
1757.000000	34.619200
1756.000000	34.667500
1755.000000	34.725400
1754.000000	34.731400
1753.000000	34.737500
1752.000000	34.715100
1751.000000	34.682900
1750.000000	34.640400
1749.000000	34.565700
1748.000000	34.481300
1747.000000	34.371500
1746.000000	34.236800
1745.000000	34.076600
1744.000000	33.896700
1743.000000	33.688500
1742.000000	33.455400
1741.000000	33.217100
1740.000000	32.974200
1739.000000	32.733700
1738.000000	32.500400
1737.000000	32.324200
1736.000000	32.168500
1735.000000	32.077000
1734.000000	32.008400
1733.000000	31.993600
1732.000000	32.014400
1731.000000	32.046200
1730.000000	32.118300
1729.000000	32.203800
1728.000000	32.253100
1727.000000	32.314800
1726.000000	32.394800
1725.000000	32.436400
1724.000000	32.480500
1723.000000	32.544100
1722.000000	32.655100
1721.000000	32.738500
1720.000000	32.859800
1719.000000	33.012300
1718.000000	33.162000
1717.000000	33.344500
1716.000000	33.501900
1715.000000	33.671800
1714.000000	33.832400
1713.000000	33.958500
1712.000000	34.077100
1711.000000	34.199700
1710.000000	34.259500
1709.000000	34.301900
1708.000000	34.342500
1707.000000	34.381600
1706.000000	34.391700
1705.000000	34.368900
1704.000000	34.344200
1703.000000	34.284000
1702.000000	34.179400
1701.000000	34.061600
1700.000000	33.952900
1699.000000	33.852200
1698.000000	33.728700
1697.000000	33.675900
1696.000000	33.639000
1695.000000	33.650900
1694.000000	33.703100
1693.000000	33.799600
1692.000000	33.907400
1691.000000	34.011900
1690.000000	34.089900
1689.000000	34.174300
1688.000000	34.225300
1687.000000	34.293400
1686.000000	34.387400
1685.000000	34.518900
1684.000000	34.749300
1683.000000	35.094300
1682.000000	35.512500
1681.000000	36.025400
1680.000000	36.553400
1679.000000	37.097200
1678.000000	37.587100
1677.000000	38.017500
1676.000000	38.432100
1675.000000	38.789100
1674.000000	39.125600
1673.000000	39.415100
1672.000000	39.687500
1671.000000	39.924100
1670.000000	40.168200
1669.000000	40.371300
1668.000000	40.561400
1667.000000	40.752000
1666.000000	40.892900
1665.000000	41.031600
1664.000000	41.157300
1663.000000	41.275600
1662.000000	41.377000
1661.000000	41.477500
1660.000000	41.566500
1659.000000	41.623700
1658.000000	41.702200
1657.000000	41.738900
1656.000000	41.778100
1655.000000	41.794200
1654.000000	41.801500
1653.000000	41.818800
1652.000000	41.818800
1651.000000	41.801900
1650.000000	41.792700
1649.000000	41.767800
1648.000000	41.741100
1647.000000	41.726100
1646.000000	41.690200
1645.000000	41.627900
1644.000000	41.594100
1643.000000	41.558300
1642.000000	41.512700
1641.000000	41.461900
1640.000000	41.423300
1639.000000	41.370000
1638.000000	41.327700
1637.000000	41.284300
1636.000000	41.226600
1635.000000	41.161800
1634.000000	41.092400
1633.000000	41.019700
1632.000000	40.960000
1631.000000	40.872900
1630.000000	40.813100
1629.000000	40.725500
1628.000000	40.652100
1627.000000	40.570900
1626.000000	40.502400
1625.000000	40.423300
1624.000000	40.335100
1623.000000	40.267900
1622.000000	40.178700
1621.000000	40.129000
1620.000000	40.058100
1619.000000	39.970100
1618.000000	39.910600
1617.000000	39.845200
1616.000000	39.782500
1615.000000	39.708300
1614.000000	39.634300
1613.000000	39.548800
1612.000000	39.483300
1611.000000	39.421700
1610.000000	39.340800
1609.000000	39.265300
1608.000000	39.177600
1607.000000	39.104700
1606.000000	39.023500
1605.000000	38.946500
1604.000000	38.853600
1603.000000	38.762100
1602.000000	38.684300
1601.000000	38.604600
1600.000000	38.526100
1599.000000	38.446600
1598.000000	38.381500
1597.000000	38.296700
1596.000000	38.211700
1595.000000	38.153000
1594.000000	38.088500
1593.000000	38.038900
1592.000000	37.983900
1591.000000	37.917600
1590.000000	37.864800
1589.000000	37.816500
1588.000000	37.754400
1587.000000	37.693900
1586.000000	37.643800
1585.000000	37.590500
1584.000000	37.543900
1583.000000	37.507100
1582.000000	37.466100
1581.000000	37.424300
1580.000000	37.400200
1579.000000	37.380000
1578.000000	37.356400
1577.000000	37.338900
1576.000000	37.340200
1575.000000	37.339700
1574.000000	37.331900
1573.000000	37.335500
1572.000000	37.352000
1571.000000	37.344400
1570.000000	37.366900
1569.000000	37.406700
1568.000000	37.422300
1567.000000	37.448600
1566.000000	37.480900
1565.000000	37.500000
1564.000000	37.520900
1563.000000	37.544200
1562.000000	37.549500
1561.000000	37.559800
1560.000000	37.563700
1559.000000	37.556600
1558.000000	37.545600
1557.000000	37.524600
1556.000000	37.495000
1555.000000	37.464300
1554.000000	37.430300
1553.000000	37.389800
1552.000000	37.334600
1551.000000	37.287600
1550.000000	37.240300
1549.000000	37.177400
1548.000000	37.120900
1547.000000	37.067100
1546.000000	37.019100
1545.000000	36.988800
1544.000000	36.948200
1543.000000	36.920400
1542.000000	36.891300
1541.000000	36.867700
1540.000000	36.847200
1539.000000	36.824700
1538.000000	36.806900
1537.000000	36.780500
1536.000000	36.759100
1535.000000	36.746300
1534.000000	36.711000
1533.000000	36.685500
1532.000000	36.656900
1531.000000	36.626200
1530.000000	36.576800
1529.000000	36.533200
1528.000000	36.495400
1527.000000	36.460300
1526.000000	36.425900
1525.000000	36.378500
1524.000000	36.337100
1523.000000	36.282600
1522.000000	36.227500
1521.000000	36.191200
1520.000000	36.155300
1519.000000	36.098600
1518.000000	36.047400
1517.000000	35.982700
1516.000000	35.923400
1515.000000	35.875500
1514.000000	35.825300
1513.000000	35.775600
1512.000000	35.709600
1511.000000	35.646000
1510.000000	35.589200
1509.000000	35.512900
1508.000000	35.444400
1507.000000	35.409200
1506.000000	35.344500
1505.000000	35.280300
1504.000000	35.226000
1503.000000	35.169500
1502.000000	35.127000
1501.000000	35.078800
1500.000000	35.027700
1499.000000	34.993700
1498.000000	34.971600
1497.000000	34.952100
1496.000000	34.923200
1495.000000	34.908300
1494.000000	34.898000
1493.000000	34.874200
1492.000000	34.881200
1491.000000	34.872300
1490.000000	34.869800
1489.000000	34.862900
1488.000000	34.880600
1487.000000	34.877100
1486.000000	34.873400
1485.000000	34.875300
1484.000000	34.875900
1483.000000	34.893100
1482.000000	34.923900
1481.000000	34.924900
1480.000000	34.948200
1479.000000	34.980300
1478.000000	35.024700
1477.000000	35.050300
1476.000000	35.092800
1475.000000	35.156900
1474.000000	35.219700
1473.000000	35.287700
1472.000000	35.352500
1471.000000	35.404800
1470.000000	35.432900
1469.000000	35.471300
1468.000000	35.554400
1467.000000	35.606300
1466.000000	35.659800
1465.000000	35.736400
1464.000000	35.805800
1463.000000	35.857000
1462.000000	35.958300
1461.000000	36.039300
1460.000000	36.123700
1459.000000	36.187500
1458.000000	36.312500
1457.000000	36.398300
1456.000000	36.513700
1455.000000	36.600700
1454.000000	36.699100
1453.000000	36.830300
1452.000000	36.959800
1451.000000	37.087800
1450.000000	37.171000
1449.000000	37.243300
1448.000000	37.390800
1447.000000	37.534700
1446.000000	37.662600
1445.000000	37.761200
1444.000000	37.863600
1443.000000	38.016000
1442.000000	38.161500
1441.000000	38.276100
1440.000000	38.441600
1439.000000	38.565500
1438.000000	38.709000
1437.000000	38.833800
1436.000000	38.974500
1435.000000	39.157800
1434.000000	39.285700
1433.000000	39.489700
1432.000000	39.656700
1431.000000	39.778000
1430.000000	39.996700
1429.000000	40.181600
1428.000000	40.402500
1427.000000	40.589400
1426.000000	40.854900
1425.000000	41.116900
1424.000000	41.374800
1423.000000	41.644800
1422.000000	41.870900
1421.000000	42.176800
1420.000000	42.512900
1419.000000	42.753900
1418.000000	43.008300
1417.000000	43.260800
1416.000000	43.589600
1415.000000	43.963100
1414.000000	44.253100
1413.000000	44.524800
1412.000000	44.827300
1411.000000	45.228400
1410.000000	45.682800
1409.000000	46.036300
1408.000000	46.440400
1407.000000	46.832300
1406.000000	47.292400
1405.000000	47.727700
1404.000000	48.086400
1403.000000	48.438100
1402.000000	48.928800
1401.000000	49.395200
1400.000000	49.653200
1399.000000	49.827900
1398.000000	50.084700
1397.000000	50.470400
1396.000000	50.796500
1395.000000	50.943800
1394.000000	51.104700
1393.000000	51.359000
1392.000000	51.624000
1391.000000	51.840600
1390.000000	52.118600
1389.000000	52.530200
1388.000000	52.849100
1387.000000	53.166000
1386.000000	53.569600
1385.000000	54.038200
1384.000000	54.444900
1383.000000	54.813500
1382.000000	55.104900
1381.000000	55.257300
1380.000000	55.410800
1379.000000	55.559200
1378.000000	55.670400
1377.000000	55.831500
1376.000000	56.006800
1375.000000	56.178300
1374.000000	56.452200
1373.000000	56.762200
1372.000000	57.075000
1371.000000	57.354600
1370.000000	57.601300
1369.000000	57.876100
1368.000000	58.103200
1367.000000	58.283100
1366.000000	58.483800
1365.000000	58.645100
1364.000000	58.783600
1363.000000	59.017800
1362.000000	59.112300
1361.000000	59.133400
1360.000000	59.128200
1359.000000	59.259300
1358.000000	59.386100
1357.000000	59.585100
1356.000000	59.879800
1355.000000	60.245800
1354.000000	60.594800
1353.000000	60.964100
1352.000000	61.452600
1351.000000	61.873900
1350.000000	62.274300
1349.000000	62.662300
1348.000000	63.024700
1347.000000	63.317700
1346.000000	63.610900
1345.000000	63.937800
1344.000000	64.219600
1343.000000	64.482900
1342.000000	64.750500
1341.000000	64.990400
1340.000000	65.230800
1339.000000	65.462700
1338.000000	65.680100
1337.000000	65.897400
1336.000000	66.104300
1335.000000	66.285700
1334.000000	66.495100
1333.000000	66.657800
1332.000000	66.821100
1331.000000	66.998400
1330.000000	67.135600
1329.000000	67.260300
1328.000000	67.402300
1327.000000	67.530500
1326.000000	67.653800
1325.000000	67.776400
1324.000000	67.879700
1323.000000	67.983400
1322.000000	68.088200
1321.000000	68.173800
1320.000000	68.246300
1319.000000	68.334900
1318.000000	68.409500
1317.000000	68.486800
1316.000000	68.582300
1315.000000	68.641600
1314.000000	68.690100
1313.000000	68.754800
1312.000000	68.809500
1311.000000	68.867300
1310.000000	68.921300
1309.000000	68.956800
1308.000000	68.997800
1307.000000	69.030400
1306.000000	69.054400
1305.000000	69.078200
1304.000000	69.078500
1303.000000	69.079700
1302.000000	69.090800
1301.000000	69.084100
1300.000000	69.087000
1299.000000	69.093500
1298.000000	69.078600
1297.000000	69.065400
1296.000000	69.060700
1295.000000	69.040100
1294.000000	69.002800
1293.000000	68.978100
1292.000000	68.956300
1291.000000	68.935500
1290.000000	68.904100
1289.000000	68.849800
1288.000000	68.790600
1287.000000	68.731500
1286.000000	68.681100
1285.000000	68.618300
1284.000000	68.544700
1283.000000	68.497400
1282.000000	68.445400
1281.000000	68.378400
1280.000000	68.320200
1279.000000	68.262700
1278.000000	68.208300
1277.000000	68.153700
1276.000000	68.105200
1275.000000	68.062800
1274.000000	68.025200
1273.000000	67.985700
1272.000000	67.958700
1271.000000	67.935700
1270.000000	67.919600
1269.000000	67.885200
1268.000000	67.844100
1267.000000	67.810400
1266.000000	67.786200
1265.000000	67.742000
1264.000000	67.693100
1263.000000	67.641000
1262.000000	67.602300
1261.000000	67.572500
1260.000000	67.523500
1259.000000	67.490400
1258.000000	67.446100
1257.000000	67.392200
1256.000000	67.318700
1255.000000	67.271900
1254.000000	67.203400
1253.000000	67.142100
1252.000000	67.055200
1251.000000	66.978300
1250.000000	66.890300
1249.000000	66.785400
1248.000000	66.698600
1247.000000	66.593400
1246.000000	66.469700
1245.000000	66.344700
1244.000000	66.211400
1243.000000	66.093200
1242.000000	65.955700
1241.000000	65.808100
1240.000000	65.684200
1239.000000	65.558700
1238.000000	65.427500
1237.000000	65.286700
1236.000000	65.120100
1235.000000	64.976000
1234.000000	64.831000
1233.000000	64.680100
1232.000000	64.530200
1231.000000	64.377100
1230.000000	64.230400
1229.000000	64.077600
1228.000000	63.913300
1227.000000	63.760600
1226.000000	63.610300
1225.000000	63.448900
1224.000000	63.291700
1223.000000	63.146500
1222.000000	63.006100
1221.000000	62.861800
1220.000000	62.725500
1219.000000	62.592800
1218.000000	62.464900
1217.000000	62.334700
1216.000000	62.210000
1215.000000	62.105500
1214.000000	62.001900
1213.000000	61.886200
1212.000000	61.766600
1211.000000	61.671700
1210.000000	61.572400
1209.000000	61.476300
1208.000000	61.379500
1207.000000	61.304500
1206.000000	61.230500
1205.000000	61.169400
1204.000000	61.122800
1203.000000	61.083100
1202.000000	61.014900
1201.000000	60.937400
1200.000000	60.874500
1199.000000	60.739700
1198.000000	60.641100
1197.000000	60.485800
1196.000000	60.292900
1195.000000	60.051400
1194.000000	59.781400
1193.000000	59.481100
1192.000000	59.138700
1191.000000	58.801900
1190.000000	58.501300
1189.000000	58.235600
1188.000000	58.085500
1187.000000	57.993500
1186.000000	58.013500
1185.000000	58.135300
1184.000000	58.307000
1183.000000	58.583600
1182.000000	58.912200
1181.000000	59.257500
1180.000000	59.573200
1179.000000	59.869400
1178.000000	60.122100
1177.000000	60.382900
1176.000000	60.583400
1175.000000	60.791000
1174.000000	60.997700
1173.000000	61.227100
1172.000000	61.442400
1171.000000	61.663400
1170.000000	61.924900
1169.000000	62.168500
1168.000000	62.408600
1167.000000	62.662500
1166.000000	62.925400
1165.000000	63.201200
1164.000000	63.467500
1163.000000	63.716600
1162.000000	64.009200
1161.000000	64.268400
1160.000000	64.512700
1159.000000	64.747600
1158.000000	64.952400
1157.000000	65.127300
1156.000000	65.310700
1155.000000	65.450100
1154.000000	65.515600
1153.000000	65.565400
1152.000000	65.588900
1151.000000	65.590700
1150.000000	65.615800
1149.000000	65.612900
1148.000000	65.636700
1147.000000	65.707700
1146.000000	65.780900
1145.000000	65.902900
1144.000000	66.062400
1143.000000	66.252100
1142.000000	66.456200
1141.000000	66.667800
1140.000000	66.889000
1139.000000	67.102000
1138.000000	67.350600
1137.000000	67.624000
1136.000000	67.879500
1135.000000	68.125400
1134.000000	68.313500
1133.000000	68.494800
1132.000000	68.680500
1131.000000	68.847700
1130.000000	68.999300
1129.000000	69.087800
1128.000000	69.173600
1127.000000	69.241700
1126.000000	69.288200
1125.000000	69.330800
1124.000000	69.334800
1123.000000	69.354700
1122.000000	69.358400
1121.000000	69.352800
1120.000000	69.320000
1119.000000	69.316100
1118.000000	69.279200
1117.000000	69.243000
1116.000000	69.196100
1115.000000	69.157100
1114.000000	69.119300
1113.000000	69.081900
1112.000000	69.047300
1111.000000	68.999100
1110.000000	68.949900
1109.000000	68.892300
1108.000000	68.852400
1107.000000	68.800100
1106.000000	68.749600
1105.000000	68.712700
1104.000000	68.651800
1103.000000	68.590500
1102.000000	68.545100
1101.000000	68.471000
1100.000000	68.419800
1099.000000	68.362000
1098.000000	68.299300
1097.000000	68.241600
1096.000000	68.161700
1095.000000	68.088700
1094.000000	68.017200
1093.000000	67.947800
1092.000000	67.859300
1091.000000	67.786200
1090.000000	67.704400
1089.000000	67.619400
1088.000000	67.538000
1087.000000	67.440000
1086.000000	67.368300
1085.000000	67.267000
1084.000000	67.175700
1083.000000	67.090900
1082.000000	67.003500
1081.000000	66.915500
1080.000000	66.826800
1079.000000	66.745800
1078.000000	66.656200
1077.000000	66.574700
1076.000000	66.475600
1075.000000	66.384900
1074.000000	66.305800
1073.000000	66.211500
1072.000000	66.118300
1071.000000	66.035000
1070.000000	65.946100
1069.000000	65.841100
1068.000000	65.760800
1067.000000	65.670600
1066.000000	65.582300
1065.000000	65.502600
1064.000000	65.406300
1063.000000	65.315200
1062.000000	65.227500
1061.000000	65.120900
1060.000000	65.031800
1059.000000	64.940900
1058.000000	64.855100
1057.000000	64.755300
1056.000000	64.649200
1055.000000	64.575600
1054.000000	64.490300
1053.000000	64.399400
1052.000000	64.317500
1051.000000	64.248000
1050.000000	64.163200
1049.000000	64.078900
1048.000000	64.003400
1047.000000	63.929800
1046.000000	63.856300
1045.000000	63.773100
1044.000000	63.706000
1043.000000	63.650600
1042.000000	63.587700
1041.000000	63.522700
1040.000000	63.444400
1039.000000	63.373500
1038.000000	63.304000
1037.000000	63.233200
1036.000000	63.177700
1035.000000	63.122600
1034.000000	63.050500
1033.000000	62.988600
1032.000000	62.933200
1031.000000	62.860400
1030.000000	62.796900
1029.000000	62.732800
1028.000000	62.665900
1027.000000	62.605600
1026.000000	62.544400
1025.000000	62.498300
1024.000000	62.428100
1023.000000	62.356800
1022.000000	62.312800
1021.000000	62.262500
1020.000000	62.204100
1019.000000	62.148800
1018.000000	62.093300
1017.000000	62.049700
1016.000000	62.021200
1015.000000	61.983700
1014.000000	61.947500
1013.000000	61.918800
1012.000000	61.910100
1011.000000	61.907900
1010.000000	61.893000
1009.000000	61.882700
1008.000000	61.887100
1007.000000	61.890900
1006.000000	61.899700
1005.000000	61.913900
1004.000000	61.905700
1003.000000	61.899900
1002.000000	61.908500
1001.000000	61.894800
1000.000000	61.904900
999.000000	61.911400
998.000000	61.926100
997.000000	61.946300
996.000000	61.949700
995.000000	61.956300
994.000000	61.993900
993.000000	62.033200
992.000000	62.068300
991.000000	62.094400
990.000000	62.129200
989.000000	62.176800
988.000000	62.221000
987.000000	62.259000
986.000000	62.305900
985.000000	62.377200
984.000000	62.433900
983.000000	62.493300
982.000000	62.565400
981.000000	62.625500
980.000000	62.675200
979.000000	62.728000
978.000000	62.794600
977.000000	62.875200
976.000000	62.956900
975.000000	63.034300
974.000000	63.116100
973.000000	63.196900
972.000000	63.290600
971.000000	63.366000
970.000000	63.458200
969.000000	63.572200
968.000000	63.669000
967.000000	63.751000
966.000000	63.862300
965.000000	63.956900
964.000000	64.047100
963.000000	64.138600
962.000000	64.253100
961.000000	64.350600
960.000000	64.436700
959.000000	64.503700
958.000000	64.601600
957.000000	64.714500
956.000000	64.811200
955.000000	64.899400
954.000000	65.002500
953.000000	65.098600
952.000000	65.187100
951.000000	65.268700
950.000000	65.388900
949.000000	65.468800
948.000000	65.578600
947.000000	65.671000
946.000000	65.767800
945.000000	65.852900
944.000000	65.966700
943.000000	66.066700
942.000000	66.157200
941.000000	66.282000
940.000000	66.350600
939.000000	66.451700
938.000000	66.564500
937.000000	66.690700
936.000000	66.819100
935.000000	66.932600
934.000000	67.047400
933.000000	67.171500
932.000000	67.317800
931.000000	67.420600
930.000000	67.543100
929.000000	67.688000
928.000000	67.823500
927.000000	67.956800
926.000000	68.095100
925.000000	68.267600
924.000000	68.384000
923.000000	68.504500
922.000000	68.646500
921.000000	68.791500
920.000000	68.908700
919.000000	69.060600
918.000000	69.195200
917.000000	69.349000
916.000000	69.484900
915.000000	69.601700
914.000000	69.727000
913.000000	69.862200
912.000000	70.047500
911.000000	70.159200
910.000000	70.289000
909.000000	70.438200
908.000000	70.590800
907.000000	70.722700
906.000000	70.859300
905.000000	71.018800
904.000000	71.159800
903.000000	71.306500
902.000000	71.455600
901.000000	71.588000
900.000000	71.735000
899.000000	71.889600
898.000000	71.993800
897.000000	72.119200
896.000000	72.270900
895.000000	72.397500
894.000000	72.544200
893.000000	72.681300
892.000000	72.821500
891.000000	72.964100
890.000000	73.087700
889.000000	73.193800
888.000000	73.354400
887.000000	73.498900
886.000000	73.650400
885.000000	73.807200
884.000000	73.958400
883.000000	74.093400
882.000000	74.259000
881.000000	74.406300
880.000000	74.598100
879.000000	74.777200
878.000000	74.953700
877.000000	75.119300
876.000000	75.301000
875.000000	75.477000
874.000000	75.676300
873.000000	75.845100
872.000000	76.083800
871.000000	76.275600
870.000000	76.466900
869.000000	76.659400
868.000000	76.830000
867.000000	76.997000
866.000000	77.107200
865.000000	77.220800
864.000000	77.355300
863.000000	77.365700
862.000000	77.350700
861.000000	77.292800
860.000000	77.380600
859.000000	77.576600
858.000000	78.372900
857.000000	77.618260
856.000000	78.133220
855.000000	78.843539
854.000000	78.674266
853.000000	78.761759
852.000000	78.975493
851.000000	79.433711
850.000000	80.005127
849.000000	80.231523
848.000000	80.293406
847.000000	80.620909
846.000000	80.943175
845.000000	81.116161
844.000000	81.695099
843.000000	81.864658
842.000000	82.233289
841.000000	82.347248
840.000000	82.714642
839.000000	83.093936
838.000000	83.160103
837.000000	83.619178
836.000000	84.000281
835.000000	84.504102
834.000000	84.531997
833.000000	84.910434
832.000000	85.328857
831.000000	85.612089
830.000000	85.931024
829.000000	86.353540
828.000000	86.555278
827.000000	86.858219
826.000000	87.020351
825.000000	87.323387
824.000000	87.711154
823.000000	87.911083
822.000000	88.330934
821.000000	88.643014
820.000000	88.844656
819.000000	89.034113
818.000000	89.258033
817.000000	89.431496
816.000000	89.784989
815.000000	90.005197
814.000000	90.026713
813.000000	90.210076
812.000000	90.376684
811.000000	90.583753
810.000000	90.645636
809.000000	90.828904
808.000000	90.983231
807.000000	91.132797
806.000000	91.163833
805.000000	91.138794
804.000000	91.229905
803.000000	91.425550
802.000000	91.379471
801.000000	91.401749
800.000000	91.574830
799.000000	91.549506
798.000000	91.522087
797.000000	91.535320
796.000000	91.635094
795.000000	91.629097
794.000000	91.652326
793.000000	91.786184
792.000000	91.720969
791.000000	91.661085
790.000000	91.653564
789.000000	91.709925
788.000000	91.741818
787.000000	91.764953
786.000000	91.773807
785.000000	91.747721
784.000000	91.666131
783.000000	91.569308
782.000000	91.575211
781.000000	91.515423
780.000000	91.548554
779.000000	91.489432
778.000000	91.427168
777.000000	91.354147
776.000000	91.284933
775.000000	91.176971
774.000000	91.100522
773.000000	91.066058
772.000000	91.056443
771.000000	90.819384
770.000000	90.735033
769.000000	90.756835
768.000000	90.567378
767.000000	90.468651
766.000000	90.330605
765.000000	90.196272
764.000000	90.064890
763.000000	89.996248
762.000000	89.885335
761.000000	89.681026
760.000000	89.584299
759.000000	89.393890
758.000000	89.191010
757.000000	89.030305
756.000000	88.852177
755.000000	88.690901
754.000000	88.454033
753.000000	88.285331
752.000000	88.112726
751.000000	87.879570
750.000000	87.649747
749.000000	87.460767
748.000000	87.201811
747.000000	86.928574
746.000000	86.698370
745.000000	86.470071
744.000000	86.210448
743.000000	85.939307
742.000000	85.664071
741.000000	85.395595
740.000000	85.117598
739.000000	84.847694
738.000000	84.642624
737.000000	84.343682
736.000000	84.054737
735.000000	83.770553
734.000000	83.599946
733.000000	83.365649
732.000000	82.995970
731.000000	82.701313
730.000000	82.407227
729.000000	82.123423
728.000000	81.802394
727.000000	81.454327
726.000000	81.158051
725.000000	80.740961
724.000000	80.382327
723.000000	80.035878
722.000000	79.732462
721.000000	79.362308
720.000000	78.936268
719.000000	78.571826
718.000000	78.229472
717.000000	77.908062
716.000000	77.490115
715.000000	77.080451
714.000000	76.681164
713.000000	76.198193
712.000000	75.797382
711.000000	75.375818
710.000000	74.886563
709.000000	74.442244
708.000000	73.974601
707.000000	73.453453
706.000000	72.971719
705.000000	72.453903
704.000000	71.956174
703.000000	71.450925
702.000000	70.931110
701.000000	70.446901
700.000000	69.943841
699.000000	69.433165
698.000000	69.060821
697.000000	68.650205
696.000000	68.204934
695.000000	67.773564
694.000000	67.398840
693.000000	67.066577
692.000000	66.716510
691.000000	66.343976
690.000000	66.039037
689.000000	65.708773
688.000000	65.402025
687.000000	65.154398
686.000000	64.872117
685.000000	64.521194
684.000000	64.240151
683.000000	63.993001
682.000000	63.760893
681.000000	63.561154
680.000000	63.368937
679.000000	63.178814
678.000000	63.022774
677.000000	62.875874
676.000000	62.753631
675.000000	62.686988
674.000000	62.545039
673.000000	62.447169
672.000000	62.359390
671.000000	62.273230
670.000000	62.168791
669.000000	61.995424
668.000000	61.870326
667.000000	61.706955
666.000000	61.518831
665.000000	61.303479
664.000000	61.048046
663.000000	60.794422
662.000000	60.552698
661.000000	60.307357
660.000000	60.050971
659.000000	59.760408
658.000000	59.498691
657.000000	59.222504
656.000000	59.004581
655.000000	58.742769
654.000000	58.519420
653.000000	58.320062
652.000000	58.130415
651.000000	57.996653
650.000000	57.811100
649.000000	57.562712
648.000000	57.411527
647.000000	57.246919
646.000000	57.052036
645.000000	56.888475
644.000000	56.717678
643.000000	56.545835
642.000000	56.408455
641.000000	56.254224
640.000000	56.153688
639.000000	56.092853
638.000000	56.049344
637.000000	56.007359
636.000000	56.064958
635.000000	56.154545
634.000000	56.259555
633.000000	56.362281
632.000000	56.548691
631.000000	56.700542
630.000000	56.930841
629.000000	57.110491
628.000000	57.330604
627.000000	57.535579
626.000000	57.745314
625.000000	57.905733
624.000000	58.128225
623.000000	58.390608
622.000000	58.561215
621.000000	58.777709
620.000000	59.047042
619.000000	59.258586
618.000000	59.512210
617.000000	59.778211
616.000000	60.048877
615.000000	60.340869
614.000000	60.593160
613.000000	60.853639
612.000000	61.117926
611.000000	61.435432
610.000000	61.677823
609.000000	61.953058
608.000000	62.216013
607.000000	62.517049
606.000000	62.767150
605.000000	63.045813
604.000000	63.286299
603.000000	63.558108
602.000000	63.771080
601.000000	64.016802
600.000000	64.189693
599.000000	64.333642
598.000000	64.488444
597.000000	64.609830
596.000000	64.704748
595.000000	64.879448
594.000000	64.991408
593.000000	65.116602
592.000000	65.232466
591.000000	65.362705
590.000000	65.425254
589.000000	65.507321
588.000000	65.478474
587.000000	65.536834
586.000000	65.589482
585.000000	65.620423
584.000000	65.623755
583.000000	65.663741
582.000000	65.668311
581.000000	65.681164
580.000000	65.640035
579.000000	65.630610
578.000000	65.532740
577.000000	65.450198
576.000000	65.339571
575.000000	65.276355
574.000000	65.144497
573.000000	64.984554
572.000000	64.886398
571.000000	64.767583
570.000000	64.565464
569.000000	64.363631
568.000000	64.173318
567.000000	63.905508
566.000000	63.677875
565.000000	63.406447
564.000000	63.146444
563.000000	62.862831
562.000000	62.585310
561.000000	62.270945
560.000000	61.931542
559.000000	61.531398
558.000000	61.181523
557.000000	60.815938
556.000000	60.417222
555.000000	60.021553
554.000000	59.655017
553.000000	59.205367
552.000000	58.809412
551.000000	58.356335
550.000000	57.889929
549.000000	57.444087
548.000000	56.983298
547.000000	56.520986
546.000000	56.049439
545.000000	55.575036
544.000000	55.109202
543.000000	54.616805
542.000000	54.096228
541.000000	53.580030
540.000000	53.051837
539.000000	52.552395
538.000000	52.027438
537.000000	51.504195
536.000000	50.949059
535.000000	50.401634
534.000000	49.848402
533.000000	49.269846
532.000000	48.683863
531.000000	48.085123
530.000000	47.469151
529.000000	46.855560
528.000000	46.229020
527.000000	45.607907
526.000000	44.964802
525.000000	44.292374
524.000000	43.605094
523.000000	42.907913
522.000000	42.223966
521.000000	41.518026
520.000000	40.833031
519.000000	40.155081
518.000000	39.478369
517.000000	38.839643
516.000000	38.225194
515.000000	37.633595
514.000000	37.078649
513.000000	36.555501
512.000000	36.074148
511.000000	35.627831
510.000000	35.215596
509.000000	34.834874
508.000000	34.497279
507.000000	34.196243
506.000000	33.908060
505.000000	33.649961
504.000000	33.417472
503.000000	33.192790
502.000000	32.979437
501.000000	32.812925
500.000000	32.648793
499.000000	32.503035
498.000000	32.369178
497.000000	32.248173
496.000000	32.144876
495.000000	32.034725
494.000000	31.940758
493.000000	31.848410
492.000000	31.748255
491.000000	31.656478
490.000000	31.561274
489.000000	31.478541
488.000000	31.390001
487.000000	31.271186
486.000000	31.165605
485.000000	31.057548
484.000000	30.954442
483.000000	30.841053
482.000000	30.691297
481.000000	30.546777
480.000000	30.415966
479.000000	30.274969
478.000000	30.127212
477.000000	29.983072
476.000000	29.849405
475.000000	29.723640
474.000000	29.566744
473.000000	29.404516
472.000000	29.246477
471.000000	29.091103
470.000000	28.920783
469.000000	28.767028
468.000000	28.602895
467.000000	28.421626
466.000000	28.235312
465.000000	28.036811
464.000000	27.854590
463.000000	27.645331
462.000000	27.423790
461.000000	27.215483
460.000000	26.979281
459.000000	26.718231
458.000000	26.467368
457.000000	26.200034
456.000000	25.930987
455.000000	25.659083
454.000000	25.330628
453.000000	25.005886
452.000000	24.672957
451.000000	24.318892
450.000000	23.949119
449.000000	23.557163
448.000000	23.158923
447.000000	22.766205
446.000000	22.362634
445.000000	21.913460
444.000000	21.457908
443.000000	21.000546
442.000000	20.545279
441.000000	20.079159
440.000000	19.600567
439.000000	19.111502
438.000000	18.641003
437.000000	18.169361
436.000000	17.689721
435.000000	17.221316
434.000000	16.746056
433.000000	16.253088
432.000000	15.787349
431.000000	15.352360
430.000000	14.905471
429.000000	14.480670
428.000000	14.079479
427.000000	13.669244
426.000000	13.269957
425.000000	12.893328
424.000000	12.531743
423.000000	12.186056
422.000000	11.844843
421.000000	11.518959
420.000000	11.215067
419.000000	10.920410
418.000000	10.645745
417.000000	10.385933
416.000000	10.122217
415.000000	9.865260
414.000000	9.624298
413.000000	9.395237
412.000000	9.190071
411.000000	8.981574
410.000000	8.792117
409.000000	8.617989
408.000000	8.443765
407.000000	8.276872
406.000000	8.112073
405.000000	7.974312
404.000000	7.842740
403.000000	7.705360
402.000000	7.574264
401.000000	7.452688
400.000000	7.354818
399.000000	7.255710
398.000000	7.148034
397.000000	7.055781
396.000000	6.969907
395.000000	6.888222
394.000000	6.804061
393.000000	6.737418
392.000000	6.672108
391.000000	6.611272
390.000000	6.546534
389.000000	6.471417
388.000000	6.412200
387.000000	6.371072
386.000000	6.330134
385.000000	6.279581
384.000000	6.225695
383.000000	6.191136
382.000000	6.165431
381.000000	6.121637
380.000000	6.086887
379.000000	6.053851
378.000000	6.033763
377.000000	5.977212
376.000000	5.984923
375.000000	5.912568
374.000000	5.712353
373.000000	5.752910
372.000000	5.799275
371.000000	5.811461
370.000000	5.743009
369.000000	5.751102
368.000000	5.785756
367.000000	5.687505
366.000000	5.704356
365.000000	5.760241
364.000000	5.670654
363.000000	5.683697
362.000000	5.705118
361.000000	5.726158
360.000000	5.698549
359.000000	5.661800
358.000000	5.609533
357.000000	5.634952
356.000000	5.517375
355.000000	5.497287
354.000000	5.536416
353.000000	5.497097
352.000000	5.479484
351.000000	5.508616
350.000000	5.429406
349.000000	5.436642
348.000000	5.421409
347.000000	5.361716
346.000000	5.432738
345.000000	5.452636
344.000000	5.415982
343.000000	5.351815
342.000000	5.336011
341.000000	5.367238
340.000000	5.302118
339.000000	5.306117
338.000000	5.390182
337.000000	5.289075
336.000000	5.330299
335.000000	5.337439
334.000000	5.242235
333.000000	5.228716
332.000000	5.319540
331.000000	5.503285
330.000000	5.309639
329.000000	5.272890
328.000000	5.473867
327.000000	5.438736
326.000000	5.376092
325.000000	5.480626
324.000000	5.374949
323.000000	5.207295
322.000000	5.298310
321.000000	5.609438
320.000000	5.545651
319.000000	5.673320
318.000000	5.475961
317.000000	5.649423
316.000000	5.190158
315.000000	5.153314
314.000000	5.121230
313.000000	5.144460
312.000000	5.106378
311.000000	5.124657
310.000000	5.129798
309.000000	5.133130
308.000000	5.151790
307.000000	5.180542
306.000000	5.095049
305.000000	5.130179
304.000000	5.114185
303.000000	5.160359
302.000000	5.157598
301.000000	5.143413
300.000000	5.182637
299.000000	5.151695
298.000000	5.132940
297.000000	5.156170
296.000000	5.162073
295.000000	5.148078
294.000000	5.181780
293.000000	5.176544
292.000000	5.174925
291.000000	5.191395
290.000000	5.129703
289.000000	5.193014
288.000000	5.161977
287.000000	5.166642
286.000000	5.179400
285.000000	5.221956
284.000000	5.195108
283.000000	5.177496
282.000000	5.223860
281.000000	5.210246
280.000000	5.290598
279.000000	5.271938
278.000000	5.297548
277.000000	5.220338
276.000000	5.333440
275.000000	5.267749
274.000000	5.309734
273.000000	5.329442
272.000000	5.240140
271.000000	5.322968
270.000000	5.375901
269.000000	5.407319
268.000000	5.365239
267.000000	5.431310
266.000000	5.421504
265.000000	5.466346
264.000000	5.437689
263.000000	5.467298
262.000000	5.514805
261.000000	5.524801
260.000000	5.570309
259.000000	5.572689
258.000000	5.569642
257.000000	5.614674
256.000000	5.631239
255.000000	5.576021
254.000000	5.569547
253.000000	5.590587
252.000000	5.555266
251.000000	5.578782
250.000000	5.621433
