PE UV       SUBTECH     SPECTRUM    ASCII       PEDS        4.00        
   -1
CICIMAUCR0008-3.Sample.ASC
24/04/17
09:22:08.00
24/04/17
09:22:08.00
Vinicio Soto Monge
C. kalinini
250,000000
1
Lambda 1050
1050L1511233
PerkinElmer UV WinLab 6.3.2.0749 / 2.02.05 Lambda 900 UV/VIS/NIR, Aug  7 2015 09:38:08

0
0
3350/servo 860,8/2
0
0
UV/VIS
1
1
1
DoubleDePol,CommonBeamDepol,RBeamAtt,SBeamAtt,60mm sphere, WB InGaAs Detector
0
0
0
0
Program
Program
3350/servo 860,8/2
3350/0,2 860,8/0,2
3350/0,2 860,8/0,2
0
15.00
 
 
 
0
 
860,8
319,2
860,8
Front
100
on
S:100 R:100
0
0
0
0
 
0
 
 
 
0
 
 
0
0
0
0
0
 
 
 
 
0
0


0
0
#HDR
-1
-1
#GR
nm
%R
1.0
0.0
2500,000000
-1,000000
2251
8
72,513700
4,506200
#DATA
2500.000000	14.222700
2499.000000	14.196800
2498.000000	14.162300
2497.000000	14.156800
2496.000000	14.191700
2495.000000	14.193700
2494.000000	14.114100
2493.000000	14.143300
2492.000000	14.114500
2491.000000	14.059200
2490.000000	14.106900
2489.000000	14.061400
2488.000000	14.118500
2487.000000	14.113900
2486.000000	14.117500
2485.000000	14.131300
2484.000000	14.159600
2483.000000	14.187700
2482.000000	14.158900
2481.000000	14.155900
2480.000000	14.177400
2479.000000	14.213600
2478.000000	14.224300
2477.000000	14.306600
2476.000000	14.287900
2475.000000	14.345400
2474.000000	14.417900
2473.000000	14.431100
2472.000000	14.499800
2471.000000	14.506400
2470.000000	14.564700
2469.000000	14.637400
2468.000000	14.662100
2467.000000	14.716800
2466.000000	14.775800
2465.000000	14.855600
2464.000000	14.929100
2463.000000	14.994900
2462.000000	15.026300
2461.000000	15.110500
2460.000000	15.173200
2459.000000	15.231400
2458.000000	15.341800
2457.000000	15.449200
2456.000000	15.525800
2455.000000	15.609900
2454.000000	15.700000
2453.000000	15.790000
2452.000000	15.897300
2451.000000	16.001800
2450.000000	16.103100
2449.000000	16.219900
2448.000000	16.322100
2447.000000	16.440100
2446.000000	16.533600
2445.000000	16.646000
2444.000000	16.758600
2443.000000	16.851400
2442.000000	16.972500
2441.000000	17.070800
2440.000000	17.176300
2439.000000	17.293300
2438.000000	17.405700
2437.000000	17.502600
2436.000000	17.602800
2435.000000	17.698500
2434.000000	17.802100
2433.000000	17.911900
2432.000000	17.999300
2431.000000	18.090900
2430.000000	18.188700
2429.000000	18.274100
2428.000000	18.370100
2427.000000	18.464300
2426.000000	18.539900
2425.000000	18.623200
2424.000000	18.697500
2423.000000	18.758500
2422.000000	18.815900
2421.000000	18.844100
2420.000000	18.905700
2419.000000	18.955700
2418.000000	19.002000
2417.000000	19.071800
2416.000000	19.123200
2415.000000	19.159700
2414.000000	19.206700
2413.000000	19.257800
2412.000000	19.300000
2411.000000	19.344100
2410.000000	19.383800
2409.000000	19.400400
2408.000000	19.421600
2407.000000	19.451600
2406.000000	19.484600
2405.000000	19.512900
2404.000000	19.533600
2403.000000	19.553200
2402.000000	19.571700
2401.000000	19.594200
2400.000000	19.617500
2399.000000	19.624700
2398.000000	19.652400
2397.000000	19.667100
2396.000000	19.662200
2395.000000	19.679100
2394.000000	19.695600
2393.000000	19.695100
2392.000000	19.702200
2391.000000	19.706500
2390.000000	19.712900
2389.000000	19.711700
2388.000000	19.716100
2387.000000	19.722100
2386.000000	19.716000
2385.000000	19.711700
2384.000000	19.707100
2383.000000	19.682500
2382.000000	19.672200
2381.000000	19.667500
2380.000000	19.642400
2379.000000	19.630600
2378.000000	19.625800
2377.000000	19.607100
2376.000000	19.586600
2375.000000	19.570100
2374.000000	19.556100
2373.000000	19.549900
2372.000000	19.530500
2371.000000	19.508900
2370.000000	19.492700
2369.000000	19.489400
2368.000000	19.486800
2367.000000	19.479300
2366.000000	19.479100
2365.000000	19.469500
2364.000000	19.458300
2363.000000	19.457300
2362.000000	19.453900
2361.000000	19.441400
2360.000000	19.426600
2359.000000	19.422700
2358.000000	19.412500
2357.000000	19.402700
2356.000000	19.390800
2355.000000	19.379100
2354.000000	19.368300
2353.000000	19.344900
2352.000000	19.335500
2351.000000	19.336500
2350.000000	19.318200
2349.000000	19.307800
2348.000000	19.297500
2347.000000	19.281600
2346.000000	19.284800
2345.000000	19.280300
2344.000000	19.270300
2343.000000	19.265400
2342.000000	19.264800
2341.000000	19.259400
2340.000000	19.240100
2339.000000	19.237700
2338.000000	19.249000
2337.000000	19.240900
2336.000000	19.243500
2335.000000	19.254300
2334.000000	19.262000
2333.000000	19.292800
2332.000000	19.310200
2331.000000	19.310200
2330.000000	19.323700
2329.000000	19.355800
2328.000000	19.380700
2327.000000	19.388800
2326.000000	19.423300
2325.000000	19.450100
2324.000000	19.458900
2323.000000	19.480700
2322.000000	19.489900
2321.000000	19.503800
2320.000000	19.506700
2319.000000	19.498600
2318.000000	19.485800
2317.000000	19.461500
2316.000000	19.448000
2315.000000	19.413300
2314.000000	19.413300
2313.000000	19.384300
2312.000000	19.344100
2311.000000	19.311100
2310.000000	19.283900
2309.000000	19.258400
2308.000000	19.234700
2307.000000	19.199000
2306.000000	19.187900
2305.000000	19.201700
2304.000000	19.175700
2303.000000	19.156600
2302.000000	19.149400
2301.000000	19.143800
2300.000000	19.163100
2299.000000	19.170500
2298.000000	19.180800
2297.000000	19.192400
2296.000000	19.212100
2295.000000	19.232100
2294.000000	19.272700
2293.000000	19.289300
2292.000000	19.309300
2291.000000	19.341900
2290.000000	19.370800
2289.000000	19.397800
2288.000000	19.436500
2287.000000	19.466400
2286.000000	19.511800
2285.000000	19.543800
2284.000000	19.576300
2283.000000	19.631700
2282.000000	19.636900
2281.000000	19.699700
2280.000000	19.709800
2279.000000	19.743000
2278.000000	19.789100
2277.000000	19.790300
2276.000000	19.806600
2275.000000	19.851700
2274.000000	19.896200
2273.000000	19.897300
2272.000000	19.914100
2271.000000	19.938300
2270.000000	20.002100
2269.000000	20.031600
2268.000000	20.078700
2267.000000	20.141000
2266.000000	20.228100
2265.000000	20.306300
2264.000000	20.388700
2263.000000	20.502300
2262.000000	20.620000
2261.000000	20.735300
2260.000000	20.872700
2259.000000	21.003600
2258.000000	21.153500
2257.000000	21.336000
2256.000000	21.483900
2255.000000	21.657800
2254.000000	21.831000
2253.000000	21.974000
2252.000000	22.179200
2251.000000	22.331200
2250.000000	22.470500
2249.000000	22.610900
2248.000000	22.742400
2247.000000	22.913600
2246.000000	23.041400
2245.000000	23.148700
2244.000000	23.248300
2243.000000	23.353700
2242.000000	23.451300
2241.000000	23.521100
2240.000000	23.568800
2239.000000	23.648400
2238.000000	23.673300
2237.000000	23.716200
2236.000000	23.753700
2235.000000	23.786400
2234.000000	23.795600
2233.000000	23.785700
2232.000000	23.794300
2231.000000	23.782600
2230.000000	23.763300
2229.000000	23.734100
2228.000000	23.655700
2227.000000	23.625700
2226.000000	23.580700
2225.000000	23.525900
2224.000000	23.471500
2223.000000	23.402700
2222.000000	23.347000
2221.000000	23.262100
2220.000000	23.183600
2219.000000	23.105800
2218.000000	23.031900
2217.000000	22.931900
2216.000000	22.886700
2215.000000	22.796600
2214.000000	22.727900
2213.000000	22.663400
2212.000000	22.603700
2211.000000	22.536600
2210.000000	22.490400
2209.000000	22.428500
2208.000000	22.395800
2207.000000	22.370700
2206.000000	22.309700
2205.000000	22.261400
2204.000000	22.241100
2203.000000	22.199600
2202.000000	22.157800
2201.000000	22.127000
2200.000000	22.093600
2199.000000	22.098200
2198.000000	22.036600
2197.000000	22.006300
2196.000000	21.981800
2195.000000	21.952400
2194.000000	21.952200
2193.000000	21.925300
2192.000000	21.922900
2191.000000	21.897500
2190.000000	21.861200
2189.000000	21.850400
2188.000000	21.851200
2187.000000	21.841400
2186.000000	21.821000
2185.000000	21.815800
2184.000000	21.778900
2183.000000	21.767800
2182.000000	21.752400
2181.000000	21.721000
2180.000000	21.711100
2179.000000	21.714500
2178.000000	21.698600
2177.000000	21.704300
2176.000000	21.689100
2175.000000	21.683900
2174.000000	21.667600
2173.000000	21.690000
2172.000000	21.704700
2171.000000	21.706300
2170.000000	21.720100
2169.000000	21.746300
2168.000000	21.769600
2167.000000	21.804700
2166.000000	21.832100
2165.000000	21.882600
2164.000000	21.924500
2163.000000	21.948300
2162.000000	22.009000
2161.000000	22.066200
2160.000000	22.129600
2159.000000	22.191500
2158.000000	22.276100
2157.000000	22.353800
2156.000000	22.434900
2155.000000	22.520200
2154.000000	22.623100
2153.000000	22.725000
2152.000000	22.842600
2151.000000	22.944900
2150.000000	23.035100
2149.000000	23.126000
2148.000000	23.229900
2147.000000	23.336300
2146.000000	23.452000
2145.000000	23.558800
2144.000000	23.648900
2143.000000	23.740600
2142.000000	23.848500
2141.000000	23.954500
2140.000000	24.067900
2139.000000	24.180100
2138.000000	24.263400
2137.000000	24.359100
2136.000000	24.455500
2135.000000	24.555300
2134.000000	24.642000
2133.000000	24.716100
2132.000000	24.815600
2131.000000	24.890400
2130.000000	24.967400
2129.000000	25.039300
2128.000000	25.091300
2127.000000	25.154000
2126.000000	25.218600
2125.000000	25.295400
2124.000000	25.342400
2123.000000	25.395300
2122.000000	25.443400
2121.000000	25.472600
2120.000000	25.535000
2119.000000	25.594600
2118.000000	25.621000
2117.000000	25.639900
2116.000000	25.660200
2115.000000	25.696700
2114.000000	25.734900
2113.000000	25.760000
2112.000000	25.784200
2111.000000	25.776400
2110.000000	25.791900
2109.000000	25.810700
2108.000000	25.830800
2107.000000	25.844400
2106.000000	25.832400
2105.000000	25.855000
2104.000000	25.885600
2103.000000	25.893600
2102.000000	25.911700
2101.000000	25.920400
2100.000000	25.925700
2099.000000	25.941100
2098.000000	25.945500
2097.000000	25.956500
2096.000000	25.991700
2095.000000	26.008400
2094.000000	26.030800
2093.000000	26.064800
2092.000000	26.076600
2091.000000	26.082600
2090.000000	26.112400
2089.000000	26.143000
2088.000000	26.141700
2087.000000	26.149000
2086.000000	26.152000
2085.000000	26.152300
2084.000000	26.158000
2083.000000	26.158800
2082.000000	26.148300
2081.000000	26.118500
2080.000000	26.078100
2079.000000	26.024600
2078.000000	25.989200
2077.000000	25.930900
2076.000000	25.868600
2075.000000	25.797900
2074.000000	25.710400
2073.000000	25.619400
2072.000000	25.560600
2071.000000	25.479400
2070.000000	25.384900
2069.000000	25.289400
2068.000000	25.179000
2067.000000	25.056100
2066.000000	24.951000
2065.000000	24.844800
2064.000000	24.734300
2063.000000	24.648200
2062.000000	24.571100
2061.000000	24.480100
2060.000000	24.408900
2059.000000	24.333600
2058.000000	24.270700
2057.000000	24.221000
2056.000000	24.189400
2055.000000	24.192000
2054.000000	24.202200
2053.000000	24.236300
2052.000000	24.279400
2051.000000	24.354900
2050.000000	24.443000
2049.000000	24.543400
2048.000000	24.670200
2047.000000	24.798600
2046.000000	24.937700
2045.000000	25.105900
2044.000000	25.249600
2043.000000	25.422300
2042.000000	25.576000
2041.000000	25.732100
2040.000000	25.876800
2039.000000	26.056100
2038.000000	26.182300
2037.000000	26.323800
2036.000000	26.481800
2035.000000	26.594500
2034.000000	26.726800
2033.000000	26.833200
2032.000000	26.941500
2031.000000	27.073600
2030.000000	27.186500
2029.000000	27.267300
2028.000000	27.341900
2027.000000	27.431000
2026.000000	27.519200
2025.000000	27.620900
2024.000000	27.674000
2023.000000	27.724800
2022.000000	27.791400
2021.000000	27.876000
2020.000000	27.930700
2019.000000	27.979500
2018.000000	28.016800
2017.000000	28.055300
2016.000000	28.085100
2015.000000	28.116300
2014.000000	28.130900
2013.000000	28.156300
2012.000000	28.171800
2011.000000	28.185000
2010.000000	28.189000
2009.000000	28.173300
2008.000000	28.148100
2007.000000	28.133000
2006.000000	28.121200
2005.000000	28.091100
2004.000000	28.059100
2003.000000	28.009700
2002.000000	27.975600
2001.000000	27.933900
2000.000000	27.885700
1999.000000	27.819200
1998.000000	27.749500
1997.000000	27.688200
1996.000000	27.626000
1995.000000	27.559700
1994.000000	27.481900
1993.000000	27.382500
1992.000000	27.315200
1991.000000	27.220000
1990.000000	27.137600
1989.000000	27.057500
1988.000000	26.936300
1987.000000	26.846400
1986.000000	26.756100
1985.000000	26.679600
1984.000000	26.584100
1983.000000	26.467700
1982.000000	26.366400
1981.000000	26.280500
1980.000000	26.218600
1979.000000	26.079900
1978.000000	26.007600
1977.000000	25.886900
1976.000000	25.803600
1975.000000	25.697900
1974.000000	25.624900
1973.000000	25.559200
1972.000000	25.460500
1971.000000	25.346800
1970.000000	25.258900
1969.000000	25.160400
1968.000000	25.098700
1967.000000	24.983900
1966.000000	24.907400
1965.000000	24.805600
1964.000000	24.736700
1963.000000	24.634600
1962.000000	24.546900
1961.000000	24.450800
1960.000000	24.344400
1959.000000	24.232400
1958.000000	24.146200
1957.000000	24.047200
1956.000000	23.962700
1955.000000	23.860800
1954.000000	23.783800
1953.000000	23.690100
1952.000000	23.595500
1951.000000	23.486500
1950.000000	23.376600
1949.000000	23.283000
1948.000000	23.216400
1947.000000	23.148000
1946.000000	23.063900
1945.000000	23.014100
1944.000000	22.953600
1943.000000	22.880400
1942.000000	22.787200
1941.000000	22.748800
1940.000000	22.694700
1939.000000	22.674100
1938.000000	22.666600
1937.000000	22.666400
1936.000000	22.662000
1935.000000	22.669500
1934.000000	22.649400
1933.000000	22.671400
1932.000000	22.665400
1931.000000	22.723300
1930.000000	22.762300
1929.000000	22.855700
1928.000000	22.945900
1927.000000	23.065700
1926.000000	23.196900
1925.000000	23.305600
1924.000000	23.377300
1923.000000	23.473700
1922.000000	23.654100
1921.000000	23.936200
1920.000000	24.226200
1919.000000	24.411500
1918.000000	24.632100
1917.000000	24.815100
1916.000000	24.963300
1915.000000	25.175700
1914.000000	25.550000
1913.000000	25.968800
1912.000000	26.353000
1911.000000	26.686500
1910.000000	27.002200
1909.000000	27.196600
1908.000000	27.489500
1907.000000	27.895400
1906.000000	28.409600
1905.000000	29.036200
1904.000000	29.553900
1903.000000	30.002000
1902.000000	30.434200
1901.000000	30.896600
1900.000000	31.547000
1899.000000	32.267100
1898.000000	32.853200
1897.000000	33.461800
1896.000000	33.893700
1895.000000	34.286900
1894.000000	34.793700
1893.000000	35.341400
1892.000000	35.986400
1891.000000	36.650500
1890.000000	37.245800
1889.000000	37.734900
1888.000000	38.254200
1887.000000	38.698700
1886.000000	39.134600
1885.000000	39.651800
1884.000000	40.177600
1883.000000	40.586000
1882.000000	40.970500
1881.000000	41.345200
1880.000000	41.587900
1879.000000	41.853700
1878.000000	42.130300
1877.000000	42.356500
1876.000000	42.578100
1875.000000	42.818000
1874.000000	43.061300
1873.000000	43.335100
1872.000000	43.612700
1871.000000	43.919700
1870.000000	44.217700
1869.000000	44.494400
1868.000000	44.738200
1867.000000	44.872900
1866.000000	44.890400
1865.000000	44.960500
1864.000000	44.985800
1863.000000	44.966200
1862.000000	45.010800
1861.000000	45.097900
1860.000000	45.232300
1859.000000	45.340800
1858.000000	45.449000
1857.000000	45.513200
1856.000000	45.483400
1855.000000	45.525800
1854.000000	45.631900
1853.000000	45.670700
1852.000000	45.685000
1851.000000	45.635900
1850.000000	45.524300
1849.000000	45.511700
1848.000000	45.704200
1847.000000	45.934700
1846.000000	45.953300
1845.000000	45.793900
1844.000000	45.564500
1843.000000	45.470200
1842.000000	45.561900
1841.000000	45.690900
1840.000000	45.694100
1839.000000	45.598800
1838.000000	45.538000
1837.000000	45.594400
1836.000000	45.678400
1835.000000	45.701400
1834.000000	45.600000
1833.000000	45.452200
1832.000000	45.359900
1831.000000	45.361200
1830.000000	45.420000
1829.000000	45.412200
1828.000000	45.337500
1827.000000	45.335200
1826.000000	45.380200
1825.000000	45.354900
1824.000000	45.282500
1823.000000	45.175000
1822.000000	45.186100
1821.000000	45.322500
1820.000000	45.420800
1819.000000	45.391600
1818.000000	45.309000
1817.000000	45.265000
1816.000000	45.313200
1815.000000	45.343300
1814.000000	45.311000
1813.000000	45.283300
1812.000000	45.273200
1811.000000	45.284400
1810.000000	45.238900
1809.000000	45.170800
1808.000000	45.144400
1807.000000	45.157900
1806.000000	45.147900
1805.000000	45.133800
1804.000000	45.105200
1803.000000	45.063800
1802.000000	45.055500
1801.000000	45.071400
1800.000000	45.059300
1799.000000	45.028800
1798.000000	44.991200
1797.000000	44.975500
1796.000000	44.974500
1795.000000	44.978000
1794.000000	44.952200
1793.000000	44.935800
1792.000000	44.909300
1791.000000	44.888100
1790.000000	44.878500
1789.000000	44.872300
1788.000000	44.881700
1787.000000	44.885900
1786.000000	44.883900
1785.000000	44.901300
1784.000000	44.907900
1783.000000	44.874600
1782.000000	44.869100
1781.000000	44.851900
1780.000000	44.836800
1779.000000	44.820600
1778.000000	44.775500
1777.000000	44.744600
1776.000000	44.692000
1775.000000	44.655400
1774.000000	44.619300
1773.000000	44.588400
1772.000000	44.551100
1771.000000	44.512900
1770.000000	44.481400
1769.000000	44.442200
1768.000000	44.391000
1767.000000	44.353500
1766.000000	44.323300
1765.000000	44.283300
1764.000000	44.285900
1763.000000	44.237600
1762.000000	44.242300
1761.000000	44.245100
1760.000000	44.249000
1759.000000	44.235500
1758.000000	44.201600
1757.000000	44.191700
1756.000000	44.221500
1755.000000	44.215700
1754.000000	44.199800
1753.000000	44.190600
1752.000000	44.170800
1751.000000	44.161200
1750.000000	44.135500
1749.000000	44.121600
1748.000000	44.072500
1747.000000	44.031200
1746.000000	43.968900
1745.000000	43.935600
1744.000000	43.867600
1743.000000	43.812500
1742.000000	43.744300
1741.000000	43.674500
1740.000000	43.612500
1739.000000	43.562400
1738.000000	43.493200
1737.000000	43.423600
1736.000000	43.369200
1735.000000	43.356900
1734.000000	43.306800
1733.000000	43.265400
1732.000000	43.229200
1731.000000	43.211200
1730.000000	43.191200
1729.000000	43.161000
1728.000000	43.122000
1727.000000	43.093400
1726.000000	43.062300
1725.000000	43.053800
1724.000000	43.070400
1723.000000	43.126100
1722.000000	43.173200
1721.000000	43.293800
1720.000000	43.435800
1719.000000	43.625600
1718.000000	43.807700
1717.000000	44.008100
1716.000000	44.192600
1715.000000	44.399900
1714.000000	44.590300
1713.000000	44.740800
1712.000000	44.883400
1711.000000	44.991400
1710.000000	45.108600
1709.000000	45.220900
1708.000000	45.312800
1707.000000	45.390200
1706.000000	45.469700
1705.000000	45.494200
1704.000000	45.537900
1703.000000	45.574300
1702.000000	45.585000
1701.000000	45.601500
1700.000000	45.618700
1699.000000	45.602200
1698.000000	45.603200
1697.000000	45.569400
1696.000000	45.570500
1695.000000	45.538800
1694.000000	45.502000
1693.000000	45.434700
1692.000000	45.360600
1691.000000	45.317600
1690.000000	45.289700
1689.000000	45.284000
1688.000000	45.332500
1687.000000	45.389300
1686.000000	45.508900
1685.000000	45.692400
1684.000000	45.868700
1683.000000	46.080300
1682.000000	46.282900
1681.000000	46.499700
1680.000000	46.721400
1679.000000	46.914000
1678.000000	47.107200
1677.000000	47.299400
1676.000000	47.480600
1675.000000	47.690200
1674.000000	47.825400
1673.000000	47.997200
1672.000000	48.185400
1671.000000	48.342500
1670.000000	48.533400
1669.000000	48.742100
1668.000000	48.897100
1667.000000	49.070900
1666.000000	49.200900
1665.000000	49.350500
1664.000000	49.487300
1663.000000	49.636300
1662.000000	49.727900
1661.000000	49.871900
1660.000000	49.974700
1659.000000	50.075600
1658.000000	50.151000
1657.000000	50.222800
1656.000000	50.277500
1655.000000	50.319900
1654.000000	50.375700
1653.000000	50.400500
1652.000000	50.423100
1651.000000	50.446100
1650.000000	50.431000
1649.000000	50.442800
1648.000000	50.432200
1647.000000	50.469400
1646.000000	50.464400
1645.000000	50.457000
1644.000000	50.450800
1643.000000	50.468800
1642.000000	50.455100
1641.000000	50.427800
1640.000000	50.441500
1639.000000	50.411800
1638.000000	50.401000
1637.000000	50.389500
1636.000000	50.377400
1635.000000	50.363300
1634.000000	50.361100
1633.000000	50.344100
1632.000000	50.310000
1631.000000	50.297300
1630.000000	50.279300
1629.000000	50.227000
1628.000000	50.178100
1627.000000	50.124800
1626.000000	50.100000
1625.000000	50.053600
1624.000000	50.038500
1623.000000	50.017000
1622.000000	49.986800
1621.000000	49.964000
1620.000000	49.935100
1619.000000	49.923600
1618.000000	49.906000
1617.000000	49.861900
1616.000000	49.837300
1615.000000	49.803500
1614.000000	49.767300
1613.000000	49.721100
1612.000000	49.678300
1611.000000	49.653900
1610.000000	49.635000
1609.000000	49.582300
1608.000000	49.512700
1607.000000	49.450100
1606.000000	49.386800
1605.000000	49.332500
1604.000000	49.251900
1603.000000	49.195900
1602.000000	49.146800
1601.000000	49.084500
1600.000000	49.017800
1599.000000	48.951800
1598.000000	48.889900
1597.000000	48.817600
1596.000000	48.752000
1595.000000	48.712700
1594.000000	48.667000
1593.000000	48.619900
1592.000000	48.575800
1591.000000	48.533500
1590.000000	48.486200
1589.000000	48.438300
1588.000000	48.391800
1587.000000	48.349700
1586.000000	48.314800
1585.000000	48.276600
1584.000000	48.238400
1583.000000	48.211800
1582.000000	48.183800
1581.000000	48.162700
1580.000000	48.137700
1579.000000	48.091200
1578.000000	48.065900
1577.000000	48.062100
1576.000000	48.055500
1575.000000	48.056800
1574.000000	48.053700
1573.000000	48.053400
1572.000000	48.052700
1571.000000	48.059500
1570.000000	48.090900
1569.000000	48.127500
1568.000000	48.145500
1567.000000	48.161400
1566.000000	48.173800
1565.000000	48.179800
1564.000000	48.200300
1563.000000	48.211400
1562.000000	48.211700
1561.000000	48.201200
1560.000000	48.186700
1559.000000	48.161700
1558.000000	48.121700
1557.000000	48.087500
1556.000000	48.064000
1555.000000	48.029600
1554.000000	47.976400
1553.000000	47.913700
1552.000000	47.851900
1551.000000	47.786100
1550.000000	47.701900
1549.000000	47.623100
1548.000000	47.553400
1547.000000	47.487300
1546.000000	47.442400
1545.000000	47.394900
1544.000000	47.335000
1543.000000	47.289500
1542.000000	47.243200
1541.000000	47.215300
1540.000000	47.187500
1539.000000	47.160900
1538.000000	47.134100
1537.000000	47.093800
1536.000000	47.067200
1535.000000	47.037800
1534.000000	47.002700
1533.000000	46.960500
1532.000000	46.916800
1531.000000	46.855900
1530.000000	46.818000
1529.000000	46.777900
1528.000000	46.743900
1527.000000	46.696300
1526.000000	46.638000
1525.000000	46.575800
1524.000000	46.523200
1523.000000	46.474500
1522.000000	46.424500
1521.000000	46.360000
1520.000000	46.306900
1519.000000	46.251100
1518.000000	46.205200
1517.000000	46.153300
1516.000000	46.102700
1515.000000	46.039400
1514.000000	45.985600
1513.000000	45.929100
1512.000000	45.861200
1511.000000	45.822000
1510.000000	45.786100
1509.000000	45.724500
1508.000000	45.660900
1507.000000	45.601000
1506.000000	45.538900
1505.000000	45.485200
1504.000000	45.432800
1503.000000	45.402900
1502.000000	45.357000
1501.000000	45.307800
1500.000000	45.267100
1499.000000	45.257200
1498.000000	45.241400
1497.000000	45.220400
1496.000000	45.213400
1495.000000	45.224900
1494.000000	45.234700
1493.000000	45.236500
1492.000000	45.250900
1491.000000	45.271700
1490.000000	45.279000
1489.000000	45.317300
1488.000000	45.340400
1487.000000	45.367100
1486.000000	45.399400
1485.000000	45.420200
1484.000000	45.448100
1483.000000	45.471600
1482.000000	45.514700
1481.000000	45.552300
1480.000000	45.575200
1479.000000	45.580800
1478.000000	45.627100
1477.000000	45.683800
1476.000000	45.729800
1475.000000	45.743600
1474.000000	45.795800
1473.000000	45.881500
1472.000000	45.942500
1471.000000	46.042300
1470.000000	46.106500
1469.000000	46.158800
1468.000000	46.212800
1467.000000	46.290000
1466.000000	46.350300
1465.000000	46.419400
1464.000000	46.477600
1463.000000	46.579600
1462.000000	46.678500
1461.000000	46.755600
1460.000000	46.848300
1459.000000	46.941900
1458.000000	47.006500
1457.000000	47.105800
1456.000000	47.163400
1455.000000	47.253300
1454.000000	47.346300
1453.000000	47.427900
1452.000000	47.523700
1451.000000	47.627500
1450.000000	47.715900
1449.000000	47.769400
1448.000000	47.844000
1447.000000	47.919600
1446.000000	48.061400
1445.000000	48.167900
1444.000000	48.200200
1443.000000	48.267900
1442.000000	48.377300
1441.000000	48.492600
1440.000000	48.585200
1439.000000	48.663000
1438.000000	48.804200
1437.000000	48.926000
1436.000000	49.020400
1435.000000	49.131500
1434.000000	49.256200
1433.000000	49.371700
1432.000000	49.537800
1431.000000	49.725400
1430.000000	49.821900
1429.000000	49.992500
1428.000000	50.187800
1427.000000	50.357700
1426.000000	50.539200
1425.000000	50.729900
1424.000000	50.995500
1423.000000	51.213100
1422.000000	51.421800
1421.000000	51.609500
1420.000000	51.910700
1419.000000	52.201300
1418.000000	52.461200
1417.000000	52.621200
1416.000000	52.896300
1415.000000	53.250500
1414.000000	53.667800
1413.000000	53.953500
1412.000000	54.132400
1411.000000	54.442600
1410.000000	54.833800
1409.000000	55.261800
1408.000000	55.604200
1407.000000	55.937500
1406.000000	56.269300
1405.000000	56.675500
1404.000000	57.053400
1403.000000	57.349100
1402.000000	57.566800
1401.000000	58.127900
1400.000000	58.636400
1399.000000	58.853200
1398.000000	58.864400
1397.000000	59.115000
1396.000000	59.633300
1395.000000	60.087600
1394.000000	60.182300
1393.000000	60.333000
1392.000000	60.727000
1391.000000	61.010900
1390.000000	61.148100
1389.000000	61.419100
1388.000000	61.828500
1387.000000	62.053600
1386.000000	62.211000
1385.000000	62.398000
1384.000000	62.694700
1383.000000	62.943500
1382.000000	63.216700
1381.000000	63.407600
1380.000000	63.426500
1379.000000	63.613700
1378.000000	63.657200
1377.000000	63.794300
1376.000000	63.852800
1375.000000	63.970100
1374.000000	64.049100
1373.000000	64.107300
1372.000000	64.251500
1371.000000	64.428500
1370.000000	64.517600
1369.000000	64.593900
1368.000000	64.741100
1367.000000	64.848500
1366.000000	64.861900
1365.000000	64.993400
1364.000000	65.094900
1363.000000	65.134400
1362.000000	65.265600
1361.000000	65.472700
1360.000000	65.477900
1359.000000	65.445500
1358.000000	65.509300
1357.000000	65.564800
1356.000000	65.649300
1355.000000	65.825900
1354.000000	65.942400
1353.000000	65.976600
1352.000000	66.134800
1351.000000	66.316000
1350.000000	66.470700
1349.000000	66.590500
1348.000000	66.784700
1347.000000	66.948300
1346.000000	67.051700
1345.000000	67.216200
1344.000000	67.400500
1343.000000	67.527800
1342.000000	67.633800
1341.000000	67.765400
1340.000000	67.894700
1339.000000	67.998100
1338.000000	68.111500
1337.000000	68.220700
1336.000000	68.320900
1335.000000	68.407100
1334.000000	68.479800
1333.000000	68.569200
1332.000000	68.672900
1331.000000	68.753600
1330.000000	68.799500
1329.000000	68.866700
1328.000000	68.944700
1327.000000	69.001400
1326.000000	69.044800
1325.000000	69.080900
1324.000000	69.120900
1323.000000	69.167600
1322.000000	69.223200
1321.000000	69.273200
1320.000000	69.335700
1319.000000	69.391800
1318.000000	69.424600
1317.000000	69.453600
1316.000000	69.482900
1315.000000	69.532800
1314.000000	69.580500
1313.000000	69.611700
1312.000000	69.620500
1311.000000	69.630900
1310.000000	69.646300
1309.000000	69.680500
1308.000000	69.712300
1307.000000	69.735100
1306.000000	69.750400
1305.000000	69.767600
1304.000000	69.780100
1303.000000	69.766200
1302.000000	69.766400
1301.000000	69.778900
1300.000000	69.766100
1299.000000	69.762700
1298.000000	69.760400
1297.000000	69.745000
1296.000000	69.730800
1295.000000	69.712000
1294.000000	69.704300
1293.000000	69.707400
1292.000000	69.699700
1291.000000	69.676200
1290.000000	69.657100
1289.000000	69.635400
1288.000000	69.605900
1287.000000	69.583000
1286.000000	69.567100
1285.000000	69.554000
1284.000000	69.541800
1283.000000	69.515600
1282.000000	69.484500
1281.000000	69.453000
1280.000000	69.427200
1279.000000	69.393300
1278.000000	69.359600
1277.000000	69.346100
1276.000000	69.340300
1275.000000	69.340700
1274.000000	69.340200
1273.000000	69.330400
1272.000000	69.332100
1271.000000	69.341300
1270.000000	69.349100
1269.000000	69.345200
1268.000000	69.335100
1267.000000	69.332900
1266.000000	69.342000
1265.000000	69.345700
1264.000000	69.344300
1263.000000	69.335900
1262.000000	69.325000
1261.000000	69.320300
1260.000000	69.313200
1259.000000	69.310000
1258.000000	69.317300
1257.000000	69.307000
1256.000000	69.281900
1255.000000	69.276400
1254.000000	69.259000
1253.000000	69.219800
1252.000000	69.180100
1251.000000	69.160900
1250.000000	69.131800
1249.000000	69.078300
1248.000000	69.020600
1247.000000	68.969200
1246.000000	68.932100
1245.000000	68.869100
1244.000000	68.812900
1243.000000	68.773400
1242.000000	68.714300
1241.000000	68.673300
1240.000000	68.639600
1239.000000	68.616000
1238.000000	68.593000
1237.000000	68.561400
1236.000000	68.508300
1235.000000	68.481500
1234.000000	68.460700
1233.000000	68.417900
1232.000000	68.387000
1231.000000	68.353100
1230.000000	68.327200
1229.000000	68.307900
1228.000000	68.260100
1227.000000	68.220400
1226.000000	68.210800
1225.000000	68.167400
1224.000000	68.121200
1223.000000	68.082000
1222.000000	68.054500
1221.000000	68.000400
1220.000000	67.958600
1219.000000	67.908100
1218.000000	67.856600
1217.000000	67.801300
1216.000000	67.754100
1215.000000	67.693000
1214.000000	67.647900
1213.000000	67.612800
1212.000000	67.538800
1211.000000	67.492300
1210.000000	67.410600
1209.000000	67.317100
1208.000000	67.275800
1207.000000	67.221200
1206.000000	67.138500
1205.000000	67.067800
1204.000000	67.013400
1203.000000	66.939500
1202.000000	66.881000
1201.000000	66.805200
1200.000000	66.736200
1199.000000	66.683400
1198.000000	66.583400
1197.000000	66.504000
1196.000000	66.434600
1195.000000	66.343300
1194.000000	66.263100
1193.000000	66.200500
1192.000000	66.126300
1191.000000	66.066700
1190.000000	66.015500
1189.000000	65.941600
1188.000000	65.905500
1187.000000	65.850500
1186.000000	65.834200
1185.000000	65.838900
1184.000000	65.837000
1183.000000	65.864500
1182.000000	65.898700
1181.000000	65.935000
1180.000000	65.993100
1179.000000	66.047000
1178.000000	66.088100
1177.000000	66.142800
1176.000000	66.196000
1175.000000	66.218100
1174.000000	66.276600
1173.000000	66.326200
1172.000000	66.397000
1171.000000	66.471500
1170.000000	66.556000
1169.000000	66.611300
1168.000000	66.691000
1167.000000	66.787900
1166.000000	66.891100
1165.000000	66.987800
1164.000000	67.077400
1163.000000	67.182100
1162.000000	67.263600
1161.000000	67.376400
1160.000000	67.449100
1159.000000	67.499400
1158.000000	67.606900
1157.000000	67.695000
1156.000000	67.746300
1155.000000	67.804300
1154.000000	67.859100
1153.000000	67.914600
1152.000000	67.935100
1151.000000	67.969200
1150.000000	67.976400
1149.000000	68.003500
1148.000000	68.050700
1147.000000	68.053400
1146.000000	68.067400
1145.000000	68.090100
1144.000000	68.103200
1143.000000	68.153800
1142.000000	68.160000
1141.000000	68.204400
1140.000000	68.259300
1139.000000	68.291500
1138.000000	68.332600
1137.000000	68.375300
1136.000000	68.397100
1135.000000	68.515200
1134.000000	68.620500
1133.000000	68.603500
1132.000000	68.591100
1131.000000	68.629500
1130.000000	68.633000
1129.000000	68.702800
1128.000000	68.736500
1127.000000	68.708300
1126.000000	68.698300
1125.000000	68.688800
1124.000000	68.709000
1123.000000	68.669600
1122.000000	68.665100
1121.000000	68.634700
1120.000000	68.612200
1119.000000	68.595200
1118.000000	68.562000
1117.000000	68.520400
1116.000000	68.477400
1115.000000	68.431800
1114.000000	68.396300
1113.000000	68.376500
1112.000000	68.325300
1111.000000	68.260100
1110.000000	68.210500
1109.000000	68.184500
1108.000000	68.149300
1107.000000	68.089000
1106.000000	68.050500
1105.000000	68.013800
1104.000000	67.960600
1103.000000	67.934900
1102.000000	67.886700
1101.000000	67.837800
1100.000000	67.799500
1099.000000	67.733700
1098.000000	67.708700
1097.000000	67.645400
1096.000000	67.579500
1095.000000	67.525500
1094.000000	67.476800
1093.000000	67.409000
1092.000000	67.354700
1091.000000	67.290700
1090.000000	67.246000
1089.000000	67.199700
1088.000000	67.133000
1087.000000	67.082400
1086.000000	67.026600
1085.000000	66.929500
1084.000000	66.863300
1083.000000	66.798100
1082.000000	66.718900
1081.000000	66.621600
1080.000000	66.574300
1079.000000	66.504200
1078.000000	66.428400
1077.000000	66.357800
1076.000000	66.276100
1075.000000	66.186600
1074.000000	66.111800
1073.000000	66.034400
1072.000000	65.950000
1071.000000	65.877900
1070.000000	65.795000
1069.000000	65.720200
1068.000000	65.649100
1067.000000	65.550300
1066.000000	65.459500
1065.000000	65.366500
1064.000000	65.284300
1063.000000	65.213100
1062.000000	65.108600
1061.000000	65.028300
1060.000000	64.951700
1059.000000	64.869100
1058.000000	64.781200
1057.000000	64.692000
1056.000000	64.617900
1055.000000	64.544500
1054.000000	64.442100
1053.000000	64.357500
1052.000000	64.311100
1051.000000	64.237500
1050.000000	64.146800
1049.000000	64.056300
1048.000000	63.973000
1047.000000	63.906200
1046.000000	63.831000
1045.000000	63.740500
1044.000000	63.654100
1043.000000	63.577200
1042.000000	63.498300
1041.000000	63.423200
1040.000000	63.359300
1039.000000	63.297900
1038.000000	63.229400
1037.000000	63.126000
1036.000000	63.033200
1035.000000	62.972700
1034.000000	62.895300
1033.000000	62.815600
1032.000000	62.749600
1031.000000	62.678500
1030.000000	62.575300
1029.000000	62.475300
1028.000000	62.388800
1027.000000	62.297500
1026.000000	62.232500
1025.000000	62.141000
1024.000000	62.044800
1023.000000	61.979300
1022.000000	61.891000
1021.000000	61.789600
1020.000000	61.713100
1019.000000	61.637300
1018.000000	61.527600
1017.000000	61.445100
1016.000000	61.391500
1015.000000	61.279700
1014.000000	61.174800
1013.000000	61.082700
1012.000000	60.999200
1011.000000	60.921900
1010.000000	60.836000
1009.000000	60.736200
1008.000000	60.647500
1007.000000	60.554700
1006.000000	60.472400
1005.000000	60.401100
1004.000000	60.330100
1003.000000	60.238200
1002.000000	60.122900
1001.000000	60.026900
1000.000000	59.938700
999.000000	59.861700
998.000000	59.776900
997.000000	59.698300
996.000000	59.590900
995.000000	59.486900
994.000000	59.424800
993.000000	59.335200
992.000000	59.227200
991.000000	59.146000
990.000000	59.055100
989.000000	58.944600
988.000000	58.860000
987.000000	58.790600
986.000000	58.682700
985.000000	58.570400
984.000000	58.502500
983.000000	58.434200
982.000000	58.337600
981.000000	58.254700
980.000000	58.182800
979.000000	58.085900
978.000000	58.011300
977.000000	57.908700
976.000000	57.826000
975.000000	57.707000
974.000000	57.628900
973.000000	57.541700
972.000000	57.473900
971.000000	57.365100
970.000000	57.305800
969.000000	57.227700
968.000000	57.111000
967.000000	57.036100
966.000000	56.958600
965.000000	56.870200
964.000000	56.772300
963.000000	56.662100
962.000000	56.612100
961.000000	56.557200
960.000000	56.452100
959.000000	56.342000
958.000000	56.251800
957.000000	56.214900
956.000000	56.139800
955.000000	56.095800
954.000000	55.976300
953.000000	55.869900
952.000000	55.822400
951.000000	55.732800
950.000000	55.651500
949.000000	55.590600
948.000000	55.488700
947.000000	55.406200
946.000000	55.367700
945.000000	55.290400
944.000000	55.197800
943.000000	55.109400
942.000000	55.061400
941.000000	55.002100
940.000000	54.882500
939.000000	54.782700
938.000000	54.706400
937.000000	54.647100
936.000000	54.615600
935.000000	54.509000
934.000000	54.465200
933.000000	54.398900
932.000000	54.352900
931.000000	54.313600
930.000000	54.270800
929.000000	54.191200
928.000000	54.107600
927.000000	54.028200
926.000000	53.969700
925.000000	53.875900
924.000000	53.850200
923.000000	53.756000
922.000000	53.693900
921.000000	53.627400
920.000000	53.577900
919.000000	53.521100
918.000000	53.448800
917.000000	53.475500
916.000000	53.403200
915.000000	53.347200
914.000000	53.284600
913.000000	53.240900
912.000000	53.254800
911.000000	53.207500
910.000000	53.169200
909.000000	53.135100
908.000000	53.095300
907.000000	53.062200
906.000000	53.011800
905.000000	53.014600
904.000000	52.996300
903.000000	52.959500
902.000000	52.915400
901.000000	52.876700
900.000000	52.879600
899.000000	52.859500
898.000000	52.808400
897.000000	52.831600
896.000000	52.765500
895.000000	52.742100
894.000000	52.737400
893.000000	52.719900
892.000000	52.679200
891.000000	52.635100
890.000000	52.613600
889.000000	52.581200
888.000000	52.515800
887.000000	52.494400
886.000000	52.461600
885.000000	52.483500
884.000000	52.467900
883.000000	52.402900
882.000000	52.367500
881.000000	52.345700
880.000000	52.329500
879.000000	52.295300
878.000000	52.300500
877.000000	52.284400
876.000000	52.268100
875.000000	52.257300
874.000000	52.237600
873.000000	52.213900
872.000000	52.262800
871.000000	52.272000
870.000000	52.250200
869.000000	52.249400
868.000000	52.237800
867.000000	52.247100
866.000000	52.258600
865.000000	52.261400
864.000000	52.271700
863.000000	52.250800
862.000000	52.218200
861.000000	52.149900
860.000000	52.095500
859.000000	52.066200
858.000000	52.724300
857.000000	52.215400
856.000000	52.289647
855.000000	52.192960
854.000000	52.135981
853.000000	52.451439
852.000000	52.376823
851.000000	52.633548
850.000000	52.603258
849.000000	52.693851
848.000000	52.923888
847.000000	52.906249
846.000000	53.002290
845.000000	53.037013
844.000000	53.041168
843.000000	53.011617
842.000000	53.031287
841.000000	53.341204
840.000000	53.243870
839.000000	53.446111
838.000000	53.345175
837.000000	53.251443
836.000000	53.276561
835.000000	53.300572
834.000000	53.453960
833.000000	53.402800
832.000000	53.392180
831.000000	53.400214
830.000000	53.461440
829.000000	53.415913
828.000000	53.571980
827.000000	53.448604
826.000000	53.444171
825.000000	53.375465
824.000000	53.473261
823.000000	53.546400
822.000000	53.639578
821.000000	53.672084
820.000000	53.711701
819.000000	53.685844
818.000000	53.891963
817.000000	53.903876
816.000000	53.906277
815.000000	53.953189
814.000000	54.036579
813.000000	54.089678
812.000000	54.083953
811.000000	54.210653
810.000000	54.327010
809.000000	54.476059
808.000000	54.557971
807.000000	54.692613
806.000000	54.830025
805.000000	54.958296
804.000000	55.133386
803.000000	55.230905
802.000000	55.272553
801.000000	55.584502
800.000000	55.711756
799.000000	55.786927
798.000000	55.821003
797.000000	55.995354
796.000000	56.153453
795.000000	56.401128
794.000000	56.645109
793.000000	56.827402
792.000000	56.992242
791.000000	57.167609
790.000000	57.409190
789.000000	57.658158
788.000000	57.869448
787.000000	58.065501
786.000000	58.293783
785.000000	58.519941
784.000000	58.679979
783.000000	58.967364
782.000000	59.257518
781.000000	59.496975
780.000000	59.777710
779.000000	59.999713
778.000000	60.213496
777.000000	60.466897
776.000000	60.821972
775.000000	61.089594
774.000000	61.248246
773.000000	61.497584
772.000000	61.720972
771.000000	62.016205
770.000000	62.346439
769.000000	62.531964
768.000000	62.656541
767.000000	62.859797
766.000000	63.100638
765.000000	63.244792
764.000000	63.495977
763.000000	63.711238
762.000000	63.907291
761.000000	64.201324
760.000000	64.468854
759.000000	64.681807
758.000000	64.805829
757.000000	64.952938
756.000000	65.153239
755.000000	65.375241
754.000000	65.494000
753.000000	65.612851
752.000000	65.737427
751.000000	65.881027
750.000000	66.029614
749.000000	66.102660
748.000000	66.179678
747.000000	66.255587
746.000000	66.369913
745.000000	66.468540
744.000000	66.615279
743.000000	66.681585
742.000000	66.690081
741.000000	66.768760
740.000000	66.883363
739.000000	66.907189
738.000000	66.889458
737.000000	66.899801
736.000000	66.876345
735.000000	66.871358
734.000000	66.881239
733.000000	66.946990
732.000000	66.964352
731.000000	66.907466
730.000000	66.867941
729.000000	66.815026
728.000000	66.768945
727.000000	66.686571
726.000000	66.599026
725.000000	66.546942
724.000000	66.493196
723.000000	66.371021
722.000000	66.287354
721.000000	66.229176
720.000000	66.144586
719.000000	66.059903
718.000000	65.952781
717.000000	65.879272
716.000000	65.812598
715.000000	65.680911
714.000000	65.524474
713.000000	65.418645
712.000000	65.252327
711.000000	65.133754
710.000000	65.065601
709.000000	64.904548
708.000000	64.737215
707.000000	64.607098
706.000000	64.485476
705.000000	64.376691
704.000000	64.253408
703.000000	64.106668
702.000000	63.877186
701.000000	63.646133
700.000000	63.523219
699.000000	63.401505
698.000000	63.196218
697.000000	63.017895
696.000000	62.825351
695.000000	62.626436
694.000000	62.460949
693.000000	62.268406
692.000000	62.046034
691.000000	61.809902
690.000000	61.618836
689.000000	61.344841
688.000000	61.113881
687.000000	60.949965
686.000000	60.742461
685.000000	60.507437
684.000000	60.277955
683.000000	59.989739
682.000000	59.679360
681.000000	59.391699
680.000000	59.133219
679.000000	58.804555
678.000000	58.489190
677.000000	58.194233
676.000000	57.883577
675.000000	57.533581
674.000000	57.194852
673.000000	56.895093
672.000000	56.569384
671.000000	56.242198
670.000000	55.899498
669.000000	55.619686
668.000000	55.358898
667.000000	55.067542
666.000000	54.820237
665.000000	54.509858
664.000000	54.200218
663.000000	53.923084
662.000000	53.666821
661.000000	53.388024
660.000000	53.151431
659.000000	52.866725
658.000000	52.593377
657.000000	52.336098
656.000000	52.082143
655.000000	51.824864
654.000000	51.582268
653.000000	51.336994
652.000000	51.105941
651.000000	50.874796
650.000000	50.632385
649.000000	50.298457
648.000000	50.055030
647.000000	49.774941
646.000000	49.567622
645.000000	49.272111
644.000000	49.029700
643.000000	48.767803
642.000000	48.492885
641.000000	48.236530
640.000000	47.978604
639.000000	47.698330
638.000000	47.466077
637.000000	47.234655
636.000000	46.972943
635.000000	46.785202
634.000000	46.535864
633.000000	46.302595
632.000000	46.114392
631.000000	45.915845
630.000000	45.694489
629.000000	45.475534
628.000000	45.232661
627.000000	45.019801
626.000000	44.788102
625.000000	44.618368
624.000000	44.388238
623.000000	44.149429
622.000000	43.964365
621.000000	43.812731
620.000000	43.660912
619.000000	43.481943
618.000000	43.339267
617.000000	43.232144
616.000000	43.013281
615.000000	42.898124
614.000000	42.809471
613.000000	42.752955
612.000000	42.736332
611.000000	42.682586
610.000000	42.684525
609.000000	42.650911
608.000000	42.666333
607.000000	42.677876
606.000000	42.736240
605.000000	42.781305
604.000000	42.856938
603.000000	42.941805
602.000000	43.038677
601.000000	43.171195
600.000000	43.295402
599.000000	43.490809
598.000000	43.669223
597.000000	43.833140
596.000000	43.959932
595.000000	44.142503
594.000000	44.320548
593.000000	44.501641
592.000000	44.698617
591.000000	44.883773
590.000000	45.071792
589.000000	45.257687
588.000000	45.426775
587.000000	45.654410
586.000000	45.828762
585.000000	46.027493
584.000000	46.240630
583.000000	46.412304
582.000000	46.627473
581.000000	46.779199
580.000000	46.916058
579.000000	47.082005
578.000000	47.186912
577.000000	47.376685
576.000000	47.529797
575.000000	47.697407
574.000000	47.841007
573.000000	47.984791
572.000000	48.085265
571.000000	48.227018
570.000000	48.311146
569.000000	48.384193
568.000000	48.450406
567.000000	48.541552
566.000000	48.604533
565.000000	48.666406
564.000000	48.726709
563.000000	48.763186
562.000000	48.787658
561.000000	48.811206
560.000000	48.800956
559.000000	49.208761
558.000000	49.189737
557.000000	49.161571
556.000000	49.149012
555.000000	49.061190
554.000000	48.988605
553.000000	48.891456
552.000000	48.807235
551.000000	48.727909
550.000000	48.632607
549.000000	48.520497
548.000000	48.368124
547.000000	48.211042
546.000000	48.036229
545.000000	47.896323
544.000000	47.688172
543.000000	47.483716
542.000000	47.306132
541.000000	47.089855
540.000000	46.866652
539.000000	46.663580
538.000000	46.411196
537.000000	46.139325
536.000000	45.833472
535.000000	45.542855
534.000000	45.246421
533.000000	44.950633
532.000000	44.618922
531.000000	44.267079
530.000000	43.924840
529.000000	43.593776
528.000000	43.201670
527.000000	42.767915
526.000000	42.371191
525.000000	41.995708
524.000000	41.558906
523.000000	41.105666
522.000000	40.671911
521.000000	40.231230
520.000000	39.786025
519.000000	39.324289
518.000000	38.869017
517.000000	38.407928
516.000000	37.953303
515.000000	37.467741
514.000000	36.965003
513.000000	36.459957
512.000000	35.972363
511.000000	35.505826
510.000000	35.007058
509.000000	34.543845
508.000000	34.083033
507.000000	33.614186
506.000000	33.168149
505.000000	32.761914
504.000000	32.344782
503.000000	31.897637
502.000000	31.473209
501.000000	31.063650
500.000000	30.703496
499.000000	30.336139
498.000000	29.990298
497.000000	29.628944
496.000000	29.287444
495.000000	28.950654
494.000000	28.587729
493.000000	28.234686
492.000000	27.917474
491.000000	27.582715
490.000000	27.224778
489.000000	26.856312
488.000000	26.484615
487.000000	26.127970
486.000000	25.757935
485.000000	25.381620
484.000000	25.009646
483.000000	24.626313
482.000000	24.195698
481.000000	23.727775
480.000000	23.267886
479.000000	22.857126
478.000000	22.520336
477.000000	22.194442
476.000000	21.852204
475.000000	21.521970
474.000000	21.198109
473.000000	20.895210
472.000000	20.606810
471.000000	20.332446
470.000000	20.072212
469.000000	19.815302
468.000000	19.593761
467.000000	19.399001
466.000000	19.207288
465.000000	19.032845
464.000000	18.894693
463.000000	18.778890
462.000000	18.668904
461.000000	18.564921
460.000000	18.481532
459.000000	18.421506
458.000000	18.372470
457.000000	18.328974
456.000000	18.297392
455.000000	18.276983
454.000000	18.267287
453.000000	18.245031
452.000000	18.211232
451.000000	18.202551
450.000000	18.180111
449.000000	18.150560
448.000000	18.129689
447.000000	18.101616
446.000000	18.084624
445.000000	18.098291
444.000000	18.097460
443.000000	18.045561
442.000000	17.982765
441.000000	17.926525
440.000000	17.873333
439.000000	17.799733
438.000000	17.726594
437.000000	17.645605
436.000000	17.561569
435.000000	17.472547
434.000000	17.367825
433.000000	17.281203
432.000000	17.196152
431.000000	17.061694
430.000000	16.927698
429.000000	16.804600
428.000000	16.673282
427.000000	16.527835
426.000000	16.373431
425.000000	16.223921
424.000000	16.057419
423.000000	15.878173
422.000000	15.698004
421.000000	15.505737
420.000000	15.302019
419.000000	15.077431
418.000000	14.855243
417.000000	14.636288
416.000000	14.411607
415.000000	14.176584
414.000000	13.912471
413.000000	13.646326
412.000000	13.390802
411.000000	13.128166
410.000000	12.850201
409.000000	12.567434
408.000000	12.300459
407.000000	12.029235
406.000000	11.747853
405.000000	11.472289
404.000000	11.184443
403.000000	10.908048
402.000000	10.629714
401.000000	10.341036
400.000000	10.045987
399.000000	9.785568
398.000000	9.536970
397.000000	9.274888
396.000000	9.005142
395.000000	8.763747
394.000000	8.514225
393.000000	8.262486
392.000000	8.039191
391.000000	7.819682
390.000000	7.600911
389.000000	7.399133
388.000000	7.221179
387.000000	7.030206
386.000000	6.842556
385.000000	6.673099
384.000000	6.505304
383.000000	6.359857
382.000000	6.222630
381.000000	6.091681
380.000000	5.954084
379.000000	5.843083
378.000000	5.733097
377.000000	5.631977
376.000000	5.634655
375.000000	5.426689
374.000000	5.353458
373.000000	5.346809
372.000000	5.355305
371.000000	5.258710
370.000000	5.160452
369.000000	5.178645
368.000000	5.099134
367.000000	5.040032
366.000000	5.051852
365.000000	4.992658
364.000000	4.984900
363.000000	4.907606
362.000000	4.911577
361.000000	4.873530
360.000000	4.788386
359.000000	4.730576
358.000000	4.743874
357.000000	4.702595
356.000000	4.636936
355.000000	4.623823
354.000000	4.696777
353.000000	4.512360
352.000000	4.489735
351.000000	4.621422
350.000000	4.538032
349.000000	4.570077
348.000000	4.589747
347.000000	4.603968
346.000000	4.451965
345.000000	4.380396
344.000000	4.401913
343.000000	4.397942
342.000000	4.382058
341.000000	4.523349
340.000000	4.560750
339.000000	4.423245
338.000000	4.354446
337.000000	4.392863
336.000000	4.440606
335.000000	4.493890
334.000000	4.449102
333.000000	4.430079
332.000000	4.412440
331.000000	4.519286
330.000000	4.214448
329.000000	4.234303
328.000000	4.304856
327.000000	4.327758
326.000000	4.161348
325.000000	4.742951
324.000000	4.516054
323.000000	4.368852
322.000000	4.535262
321.000000	4.529167
320.000000	4.374024
319.000000	4.525288
318.000000	4.282600
317.000000	4.366821
316.000000	4.273919
315.000000	4.246123
314.000000	4.190068
313.000000	4.220543
312.000000	4.226453
311.000000	4.231163
310.000000	4.234026
309.000000	4.260437
308.000000	4.259329
307.000000	4.183696
306.000000	4.173076
305.000000	4.187113
304.000000	4.234026
303.000000	4.245846
302.000000	4.212693
301.000000	4.203736
300.000000	4.171876
299.000000	4.285555
298.000000	4.272350
297.000000	4.274935
296.000000	4.266532
295.000000	4.242521
294.000000	4.273088
293.000000	4.246492
292.000000	4.264315
291.000000	4.215464
290.000000	4.250186
289.000000	4.240213
288.000000	4.241598
287.000000	4.261545
286.000000	4.259883
285.000000	4.278999
284.000000	4.257482
283.000000	4.313352
282.000000	4.282138
281.000000	4.291835
280.000000	4.235318
279.000000	4.269394
278.000000	4.248247
277.000000	4.318338
276.000000	4.315014
275.000000	4.306795
274.000000	4.317600
273.000000	4.293312
272.000000	4.311135
271.000000	4.329420
270.000000	4.320462
269.000000	4.345581
268.000000	4.351399
267.000000	4.341887
266.000000	4.366451
265.000000	4.368575
264.000000	4.402836
263.000000	4.419366
262.000000	4.475790
261.000000	4.465078
260.000000	4.458337
259.000000	4.503218
258.000000	4.481147
257.000000	4.493798
256.000000	4.528521
255.000000	4.537017
254.000000	4.503864
253.000000	4.531568
252.000000	4.531568
251.000000	4.523996
250.000000	4.527228
