PE UV       SUBTECH     SPECTRUM    ASCII       PEDS        4.00        
   -1
CICIMAUCR0021-2.Sample.ASC
24/04/17
13:39:35.00
24/04/17
13:39:35.00
Vinicio Soto Monge
C. resplendens. 
250,000000
1
Lambda 1050
1050L1511233
PerkinElmer UV WinLab 6.3.2.0749 / 2.02.05 Lambda 900 UV/VIS/NIR, Aug  7 2015 09:38:08

0
0
3350/servo 860,8/2
0
0
UV/VIS
1
1
1
DoubleDePol,CommonBeamDepol,RBeamAtt,SBeamAtt,60mm sphere, WB InGaAs Detector
0
0
0
0
Program
Program
3350/servo 860,8/2
3350/0,2 860,8/0,2
3350/0,2 860,8/0,2
0
15.00
 
 
 
0
 
860,8
319,2
860,8
Front
100
on
S:100 R:100
0
0
0
0
 
0
 
 
 
0
 
 
0
0
0
0
0
 
 
 
 
0
0


0
0
#HDR
-1
-1
#GR
nm
%R
1.0
0.0
2500,000000
-1,000000
2251
8
60,763900
4,261100
#DATA
2500.000000	7.058000
2499.000000	7.027600
2498.000000	6.993800
2497.000000	6.982900
2496.000000	6.956000
2495.000000	6.952500
2494.000000	6.904400
2493.000000	6.908100
2492.000000	6.827800
2491.000000	6.776000
2490.000000	6.814700
2489.000000	6.749500
2488.000000	6.802100
2487.000000	6.855300
2486.000000	6.811300
2485.000000	6.869300
2484.000000	6.814700
2483.000000	6.832600
2482.000000	6.740800
2481.000000	6.722700
2480.000000	6.785400
2479.000000	6.762500
2478.000000	6.734600
2477.000000	6.735500
2476.000000	6.734600
2475.000000	6.659300
2474.000000	6.737900
2473.000000	6.705400
2472.000000	6.723800
2471.000000	6.701000
2470.000000	6.661500
2469.000000	6.672100
2468.000000	6.687900
2467.000000	6.704000
2466.000000	6.724900
2465.000000	6.740600
2464.000000	6.751400
2463.000000	6.756900
2462.000000	6.803900
2461.000000	6.820100
2460.000000	6.846800
2459.000000	6.840000
2458.000000	6.894700
2457.000000	6.928600
2456.000000	6.961500
2455.000000	7.012800
2454.000000	7.093500
2453.000000	7.122800
2452.000000	7.177400
2451.000000	7.200300
2450.000000	7.268900
2449.000000	7.338400
2448.000000	7.360100
2447.000000	7.387100
2446.000000	7.418900
2445.000000	7.488700
2444.000000	7.530500
2443.000000	7.602800
2442.000000	7.650700
2441.000000	7.682900
2440.000000	7.723400
2439.000000	7.764000
2438.000000	7.804700
2437.000000	7.829200
2436.000000	7.876800
2435.000000	7.911800
2434.000000	7.954700
2433.000000	7.986500
2432.000000	8.031700
2431.000000	8.056100
2430.000000	8.080000
2429.000000	8.119000
2428.000000	8.126700
2427.000000	8.149600
2426.000000	8.161500
2425.000000	8.189500
2424.000000	8.215000
2423.000000	8.233800
2422.000000	8.250500
2421.000000	8.274900
2420.000000	8.264500
2419.000000	8.251000
2418.000000	8.246800
2417.000000	8.253400
2416.000000	8.280500
2415.000000	8.298100
2414.000000	8.322300
2413.000000	8.327200
2412.000000	8.332400
2411.000000	8.335800
2410.000000	8.353800
2409.000000	8.362700
2408.000000	8.397300
2407.000000	8.401600
2406.000000	8.405000
2405.000000	8.437700
2404.000000	8.456000
2403.000000	8.451300
2402.000000	8.470000
2401.000000	8.480800
2400.000000	8.497700
2399.000000	8.524300
2398.000000	8.547800
2397.000000	8.558400
2396.000000	8.574700
2395.000000	8.593700
2394.000000	8.616800
2393.000000	8.628500
2392.000000	8.628700
2391.000000	8.633800
2390.000000	8.650600
2389.000000	8.665300
2388.000000	8.670600
2387.000000	8.665100
2386.000000	8.659700
2385.000000	8.655500
2384.000000	8.657300
2383.000000	8.649000
2382.000000	8.637700
2381.000000	8.636000
2380.000000	8.624700
2379.000000	8.602700
2378.000000	8.601700
2377.000000	8.591100
2376.000000	8.564700
2375.000000	8.564500
2374.000000	8.551800
2373.000000	8.512700
2372.000000	8.479800
2371.000000	8.469000
2370.000000	8.436700
2369.000000	8.390300
2368.000000	8.366400
2367.000000	8.325800
2366.000000	8.270600
2365.000000	8.238400
2364.000000	8.193300
2363.000000	8.131400
2362.000000	8.099800
2361.000000	8.061000
2360.000000	8.000700
2359.000000	7.959500
2358.000000	7.922800
2357.000000	7.892400
2356.000000	7.876100
2355.000000	7.862800
2354.000000	7.859300
2353.000000	7.853800
2352.000000	7.860000
2351.000000	7.876000
2350.000000	7.914100
2349.000000	7.961200
2348.000000	7.990200
2347.000000	8.009300
2346.000000	8.063500
2345.000000	8.099900
2344.000000	8.124200
2343.000000	8.152900
2342.000000	8.162400
2341.000000	8.185100
2340.000000	8.209100
2339.000000	8.221000
2338.000000	8.226100
2337.000000	8.215100
2336.000000	8.208100
2335.000000	8.197300
2334.000000	8.181500
2333.000000	8.155600
2332.000000	8.104600
2331.000000	8.064300
2330.000000	8.025500
2329.000000	7.988200
2328.000000	7.939500
2327.000000	7.884300
2326.000000	7.827800
2325.000000	7.774900
2324.000000	7.707700
2323.000000	7.615400
2322.000000	7.560800
2321.000000	7.490600
2320.000000	7.412200
2319.000000	7.317600
2318.000000	7.222100
2317.000000	7.152200
2316.000000	7.075000
2315.000000	6.990900
2314.000000	6.899300
2313.000000	6.817300
2312.000000	6.753700
2311.000000	6.715900
2310.000000	6.675200
2309.000000	6.639100
2308.000000	6.638800
2307.000000	6.630000
2306.000000	6.638700
2305.000000	6.667300
2304.000000	6.713700
2303.000000	6.757200
2302.000000	6.819800
2301.000000	6.861000
2300.000000	6.916700
2299.000000	6.988400
2298.000000	7.063300
2297.000000	7.125000
2296.000000	7.182200
2295.000000	7.238600
2294.000000	7.278000
2293.000000	7.324700
2292.000000	7.344200
2291.000000	7.363400
2290.000000	7.368900
2289.000000	7.356800
2288.000000	7.358500
2287.000000	7.326000
2286.000000	7.313000
2285.000000	7.292000
2284.000000	7.259700
2283.000000	7.235800
2282.000000	7.219700
2281.000000	7.166700
2280.000000	7.123200
2279.000000	7.099500
2278.000000	7.072200
2277.000000	7.036600
2276.000000	7.004000
2275.000000	6.992400
2274.000000	6.983100
2273.000000	7.003900
2272.000000	6.984000
2271.000000	6.988500
2270.000000	7.028800
2269.000000	7.073400
2268.000000	7.128000
2267.000000	7.204700
2266.000000	7.282900
2265.000000	7.377800
2264.000000	7.501000
2263.000000	7.615800
2262.000000	7.774100
2261.000000	7.941600
2260.000000	8.101600
2259.000000	8.270800
2258.000000	8.443700
2257.000000	8.644100
2256.000000	8.814400
2255.000000	8.993400
2254.000000	9.175400
2253.000000	9.346900
2252.000000	9.536000
2251.000000	9.723200
2250.000000	9.848900
2249.000000	10.010600
2248.000000	10.154000
2247.000000	10.282000
2246.000000	10.415000
2245.000000	10.515900
2244.000000	10.598100
2243.000000	10.728000
2242.000000	10.831800
2241.000000	10.901700
2240.000000	11.000300
2239.000000	11.089000
2238.000000	11.149900
2237.000000	11.211900
2236.000000	11.283000
2235.000000	11.346300
2234.000000	11.386200
2233.000000	11.462400
2232.000000	11.494300
2231.000000	11.522000
2230.000000	11.552900
2229.000000	11.581500
2228.000000	11.623300
2227.000000	11.653200
2226.000000	11.629300
2225.000000	11.629700
2224.000000	11.647800
2223.000000	11.643900
2222.000000	11.644800
2221.000000	11.630200
2220.000000	11.612200
2219.000000	11.610200
2218.000000	11.588200
2217.000000	11.566600
2216.000000	11.587700
2215.000000	11.558700
2214.000000	11.537000
2213.000000	11.519500
2212.000000	11.495000
2211.000000	11.464600
2210.000000	11.475200
2209.000000	11.473300
2208.000000	11.431900
2207.000000	11.435900
2206.000000	11.438500
2205.000000	11.429000
2204.000000	11.422000
2203.000000	11.416700
2202.000000	11.387200
2201.000000	11.387000
2200.000000	11.362700
2199.000000	11.365400
2198.000000	11.364900
2197.000000	11.336700
2196.000000	11.307700
2195.000000	11.297300
2194.000000	11.274200
2193.000000	11.273400
2192.000000	11.264000
2191.000000	11.216600
2190.000000	11.217400
2189.000000	11.202200
2188.000000	11.188500
2187.000000	11.169200
2186.000000	11.147200
2185.000000	11.109800
2184.000000	11.116400
2183.000000	11.089400
2182.000000	11.057200
2181.000000	11.043300
2180.000000	11.046500
2179.000000	11.034000
2178.000000	10.996600
2177.000000	10.996800
2176.000000	10.990500
2175.000000	10.973300
2174.000000	10.973300
2173.000000	10.974200
2172.000000	10.969900
2171.000000	10.963900
2170.000000	10.957300
2169.000000	10.967900
2168.000000	10.966500
2167.000000	10.967700
2166.000000	10.973400
2165.000000	10.994400
2164.000000	10.998900
2163.000000	11.002600
2162.000000	11.004800
2161.000000	11.037200
2160.000000	11.052100
2159.000000	11.063600
2158.000000	11.081900
2157.000000	11.118800
2156.000000	11.132800
2155.000000	11.160200
2154.000000	11.187700
2153.000000	11.214300
2152.000000	11.237400
2151.000000	11.264800
2150.000000	11.294400
2149.000000	11.305200
2148.000000	11.338400
2147.000000	11.372100
2146.000000	11.394500
2145.000000	11.415800
2144.000000	11.430500
2143.000000	11.444300
2142.000000	11.460200
2141.000000	11.485500
2140.000000	11.495000
2139.000000	11.513900
2138.000000	11.533500
2137.000000	11.558100
2136.000000	11.576700
2135.000000	11.579600
2134.000000	11.592100
2133.000000	11.608200
2132.000000	11.615500
2131.000000	11.617100
2130.000000	11.623500
2129.000000	11.621000
2128.000000	11.624600
2127.000000	11.618100
2126.000000	11.608300
2125.000000	11.606400
2124.000000	11.597700
2123.000000	11.584700
2122.000000	11.569800
2121.000000	11.552600
2120.000000	11.546000
2119.000000	11.534200
2118.000000	11.518100
2117.000000	11.504800
2116.000000	11.485900
2115.000000	11.473300
2114.000000	11.443900
2113.000000	11.428000
2112.000000	11.410100
2111.000000	11.401600
2110.000000	11.386600
2109.000000	11.365000
2108.000000	11.341700
2107.000000	11.306400
2106.000000	11.297700
2105.000000	11.295600
2104.000000	11.274200
2103.000000	11.258100
2102.000000	11.250100
2101.000000	11.245600
2100.000000	11.217800
2099.000000	11.186000
2098.000000	11.186300
2097.000000	11.168000
2096.000000	11.148700
2095.000000	11.145900
2094.000000	11.131400
2093.000000	11.133800
2092.000000	11.138400
2091.000000	11.128200
2090.000000	11.131700
2089.000000	11.130000
2088.000000	11.121400
2087.000000	11.130100
2086.000000	11.138000
2085.000000	11.125200
2084.000000	11.110200
2083.000000	11.111000
2082.000000	11.100600
2081.000000	11.091500
2080.000000	11.094900
2079.000000	11.079200
2078.000000	11.069300
2077.000000	11.074400
2076.000000	11.067400
2075.000000	11.037400
2074.000000	11.026000
2073.000000	11.031800
2072.000000	11.011700
2071.000000	10.989600
2070.000000	10.987100
2069.000000	10.977700
2068.000000	10.957700
2067.000000	10.951100
2066.000000	10.936500
2065.000000	10.924800
2064.000000	10.928600
2063.000000	10.927300
2062.000000	10.928200
2061.000000	10.930900
2060.000000	10.935100
2059.000000	10.932900
2058.000000	10.944400
2057.000000	10.957400
2056.000000	10.988700
2055.000000	11.032600
2054.000000	11.076500
2053.000000	11.129300
2052.000000	11.194100
2051.000000	11.259900
2050.000000	11.326800
2049.000000	11.405200
2048.000000	11.484300
2047.000000	11.571900
2046.000000	11.661200
2045.000000	11.763200
2044.000000	11.872200
2043.000000	11.979900
2042.000000	12.090400
2041.000000	12.195800
2040.000000	12.303200
2039.000000	12.411200
2038.000000	12.505100
2037.000000	12.591600
2036.000000	12.689500
2035.000000	12.796800
2034.000000	12.877000
2033.000000	12.963100
2032.000000	13.053400
2031.000000	13.141800
2030.000000	13.210300
2029.000000	13.273500
2028.000000	13.336600
2027.000000	13.419200
2026.000000	13.488700
2025.000000	13.532800
2024.000000	13.586300
2023.000000	13.655100
2022.000000	13.715900
2021.000000	13.775400
2020.000000	13.836400
2019.000000	13.885500
2018.000000	13.918000
2017.000000	13.956400
2016.000000	13.994900
2015.000000	14.040400
2014.000000	14.066500
2013.000000	14.099700
2012.000000	14.124500
2011.000000	14.144400
2010.000000	14.144600
2009.000000	14.157000
2008.000000	14.178600
2007.000000	14.176400
2006.000000	14.173500
2005.000000	14.172000
2004.000000	14.168300
2003.000000	14.146600
2002.000000	14.146800
2001.000000	14.114800
2000.000000	14.089100
1999.000000	14.060700
1998.000000	14.063900
1997.000000	14.015500
1996.000000	13.967800
1995.000000	13.947500
1994.000000	13.893400
1993.000000	13.828900
1992.000000	13.825800
1991.000000	13.771600
1990.000000	13.686700
1989.000000	13.645100
1988.000000	13.580800
1987.000000	13.517700
1986.000000	13.458400
1985.000000	13.406500
1984.000000	13.339300
1983.000000	13.280600
1982.000000	13.222400
1981.000000	13.156800
1980.000000	13.083400
1979.000000	13.035900
1978.000000	12.965000
1977.000000	12.922500
1976.000000	12.860600
1975.000000	12.773100
1974.000000	12.702100
1973.000000	12.647800
1972.000000	12.579200
1971.000000	12.518800
1970.000000	12.454700
1969.000000	12.397900
1968.000000	12.358000
1967.000000	12.297800
1966.000000	12.230500
1965.000000	12.183300
1964.000000	12.112300
1963.000000	12.076900
1962.000000	12.020400
1961.000000	11.949800
1960.000000	11.913000
1959.000000	11.830400
1958.000000	11.800200
1957.000000	11.749900
1956.000000	11.680500
1955.000000	11.618700
1954.000000	11.556900
1953.000000	11.501800
1952.000000	11.470400
1951.000000	11.406500
1950.000000	11.338800
1949.000000	11.316000
1948.000000	11.259800
1947.000000	11.219000
1946.000000	11.197900
1945.000000	11.160500
1944.000000	11.122100
1943.000000	11.092800
1942.000000	11.062300
1941.000000	11.039200
1940.000000	11.046300
1939.000000	11.028500
1938.000000	11.054200
1937.000000	11.067600
1936.000000	11.071200
1935.000000	11.095100
1934.000000	11.096500
1933.000000	11.121200
1932.000000	11.150200
1931.000000	11.202500
1930.000000	11.255300
1929.000000	11.299900
1928.000000	11.399700
1927.000000	11.493300
1926.000000	11.612100
1925.000000	11.718900
1924.000000	11.783400
1923.000000	11.842600
1922.000000	11.946700
1921.000000	12.127000
1920.000000	12.334600
1919.000000	12.475000
1918.000000	12.630300
1917.000000	12.736100
1916.000000	12.823000
1915.000000	12.950700
1914.000000	13.126900
1913.000000	13.428800
1912.000000	13.690900
1911.000000	13.909000
1910.000000	14.074000
1909.000000	14.167600
1908.000000	14.258100
1907.000000	14.454900
1906.000000	14.729700
1905.000000	15.077000
1904.000000	15.414300
1903.000000	15.636300
1902.000000	15.832700
1901.000000	16.005400
1900.000000	16.333000
1899.000000	16.754900
1898.000000	17.092800
1897.000000	17.409600
1896.000000	17.625900
1895.000000	17.752300
1894.000000	17.923200
1893.000000	18.164600
1892.000000	18.482200
1891.000000	18.875500
1890.000000	19.225800
1889.000000	19.521900
1888.000000	19.789700
1887.000000	20.017400
1886.000000	20.328600
1885.000000	20.689400
1884.000000	21.124000
1883.000000	21.608700
1882.000000	22.044000
1881.000000	22.449500
1880.000000	22.770700
1879.000000	23.073900
1878.000000	23.392500
1877.000000	23.691500
1876.000000	23.973000
1875.000000	24.254400
1874.000000	24.502400
1873.000000	24.816600
1872.000000	25.129800
1871.000000	25.419300
1870.000000	25.781900
1869.000000	26.067000
1868.000000	26.286200
1867.000000	26.412500
1866.000000	26.425800
1865.000000	26.422800
1864.000000	26.379400
1863.000000	26.288700
1862.000000	26.240700
1861.000000	26.251400
1860.000000	26.309600
1859.000000	26.396400
1858.000000	26.484100
1857.000000	26.501000
1856.000000	26.402000
1855.000000	26.332100
1854.000000	26.362700
1853.000000	26.363000
1852.000000	26.310200
1851.000000	26.179100
1850.000000	25.949100
1849.000000	25.805800
1848.000000	25.915900
1847.000000	26.171700
1846.000000	26.249500
1845.000000	26.088800
1844.000000	25.794200
1843.000000	25.552200
1842.000000	25.551900
1841.000000	25.679300
1840.000000	25.715000
1839.000000	25.666900
1838.000000	25.563700
1837.000000	25.547200
1836.000000	25.616400
1835.000000	25.654500
1834.000000	25.575500
1833.000000	25.369100
1832.000000	25.188500
1831.000000	25.110500
1830.000000	25.124000
1829.000000	25.083000
1828.000000	25.001300
1827.000000	24.947500
1826.000000	24.942400
1825.000000	24.904600
1824.000000	24.789700
1823.000000	24.607500
1822.000000	24.498700
1821.000000	24.582300
1820.000000	24.719200
1819.000000	24.735700
1818.000000	24.654600
1817.000000	24.550100
1816.000000	24.529600
1815.000000	24.563400
1814.000000	24.573900
1813.000000	24.538000
1812.000000	24.496100
1811.000000	24.513400
1810.000000	24.505300
1809.000000	24.443300
1808.000000	24.368900
1807.000000	24.323400
1806.000000	24.315100
1805.000000	24.285600
1804.000000	24.215900
1803.000000	24.142600
1802.000000	24.115100
1801.000000	24.105200
1800.000000	24.060600
1799.000000	24.006900
1798.000000	23.959000
1797.000000	23.912200
1796.000000	23.861100
1795.000000	23.812400
1794.000000	23.791100
1793.000000	23.741200
1792.000000	23.698400
1791.000000	23.657900
1790.000000	23.610900
1789.000000	23.548300
1788.000000	23.461200
1787.000000	23.398400
1786.000000	23.338900
1785.000000	23.296900
1784.000000	23.225000
1783.000000	23.142500
1782.000000	23.056400
1781.000000	22.970300
1780.000000	22.893300
1779.000000	22.841900
1778.000000	22.761400
1777.000000	22.677900
1776.000000	22.567500
1775.000000	22.448400
1774.000000	22.352100
1773.000000	22.243400
1772.000000	22.131400
1771.000000	21.983900
1770.000000	21.836400
1769.000000	21.720500
1768.000000	21.620200
1767.000000	21.541200
1766.000000	21.460400
1765.000000	21.354200
1764.000000	21.316800
1763.000000	21.300000
1762.000000	21.291300
1761.000000	21.326500
1760.000000	21.376800
1759.000000	21.428400
1758.000000	21.495700
1757.000000	21.555500
1756.000000	21.593500
1755.000000	21.628000
1754.000000	21.659300
1753.000000	21.651200
1752.000000	21.625400
1751.000000	21.584600
1750.000000	21.545400
1749.000000	21.490500
1748.000000	21.415500
1747.000000	21.326600
1746.000000	21.239300
1745.000000	21.117800
1744.000000	20.968000
1743.000000	20.785400
1742.000000	20.595000
1741.000000	20.367300
1740.000000	20.133800
1739.000000	19.912400
1738.000000	19.706700
1737.000000	19.522500
1736.000000	19.379200
1735.000000	19.286000
1734.000000	19.215500
1733.000000	19.229900
1732.000000	19.264200
1731.000000	19.339000
1730.000000	19.434400
1729.000000	19.552700
1728.000000	19.665900
1727.000000	19.748500
1726.000000	19.841400
1725.000000	19.922200
1724.000000	19.962700
1723.000000	19.995900
1722.000000	20.022500
1721.000000	20.034100
1720.000000	20.018500
1719.000000	20.026000
1718.000000	20.070700
1717.000000	20.120900
1716.000000	20.155100
1715.000000	20.206300
1714.000000	20.286900
1713.000000	20.347800
1712.000000	20.389700
1711.000000	20.420900
1710.000000	20.439700
1709.000000	20.466400
1708.000000	20.491900
1707.000000	20.434900
1706.000000	20.415900
1705.000000	20.387600
1704.000000	20.334500
1703.000000	20.262500
1702.000000	20.189900
1701.000000	20.073400
1700.000000	19.921400
1699.000000	19.817400
1698.000000	19.662900
1697.000000	19.549700
1696.000000	19.472300
1695.000000	19.441100
1694.000000	19.505500
1693.000000	19.611300
1692.000000	19.749900
1691.000000	19.934700
1690.000000	20.082500
1689.000000	20.205800
1688.000000	20.272600
1687.000000	20.281100
1686.000000	20.262400
1685.000000	20.265300
1684.000000	20.342000
1683.000000	20.505600
1682.000000	20.784100
1681.000000	21.203300
1680.000000	21.703600
1679.000000	22.282900
1678.000000	22.774400
1677.000000	23.278800
1676.000000	23.743400
1675.000000	24.116300
1674.000000	24.444400
1673.000000	24.748600
1672.000000	24.972300
1671.000000	25.195200
1670.000000	25.350800
1669.000000	25.512800
1668.000000	25.665700
1667.000000	25.835100
1666.000000	25.948700
1665.000000	26.064800
1664.000000	26.172800
1663.000000	26.259200
1662.000000	26.359000
1661.000000	26.390300
1660.000000	26.446500
1659.000000	26.469000
1658.000000	26.511600
1657.000000	26.554300
1656.000000	26.566600
1655.000000	26.577600
1654.000000	26.596000
1653.000000	26.581900
1652.000000	26.545000
1651.000000	26.534500
1650.000000	26.507200
1649.000000	26.507500
1648.000000	26.468900
1647.000000	26.410500
1646.000000	26.371800
1645.000000	26.324100
1644.000000	26.296100
1643.000000	26.248400
1642.000000	26.199700
1641.000000	26.140700
1640.000000	26.086900
1639.000000	26.031200
1638.000000	25.962500
1637.000000	25.908200
1636.000000	25.845900
1635.000000	25.763900
1634.000000	25.694900
1633.000000	25.623400
1632.000000	25.561000
1631.000000	25.495600
1630.000000	25.414300
1629.000000	25.348700
1628.000000	25.275700
1627.000000	25.206900
1626.000000	25.133700
1625.000000	25.057600
1624.000000	24.980900
1623.000000	24.921800
1622.000000	24.846000
1621.000000	24.773200
1620.000000	24.702600
1619.000000	24.608900
1618.000000	24.537900
1617.000000	24.468600
1616.000000	24.395300
1615.000000	24.340500
1614.000000	24.278500
1613.000000	24.195800
1612.000000	24.126100
1611.000000	24.079300
1610.000000	24.029200
1609.000000	23.950300
1608.000000	23.887700
1607.000000	23.845800
1606.000000	23.777000
1605.000000	23.715000
1604.000000	23.653700
1603.000000	23.597200
1602.000000	23.542800
1601.000000	23.454900
1600.000000	23.389100
1599.000000	23.337900
1598.000000	23.278000
1597.000000	23.226200
1596.000000	23.177300
1595.000000	23.117300
1594.000000	23.078600
1593.000000	23.033600
1592.000000	22.989400
1591.000000	22.958000
1590.000000	22.921700
1589.000000	22.890300
1588.000000	22.855400
1587.000000	22.813300
1586.000000	22.783000
1585.000000	22.740300
1584.000000	22.711200
1583.000000	22.690900
1582.000000	22.674700
1581.000000	22.657700
1580.000000	22.640100
1579.000000	22.638300
1578.000000	22.642800
1577.000000	22.644000
1576.000000	22.655200
1575.000000	22.662700
1574.000000	22.643600
1573.000000	22.630000
1572.000000	22.639300
1571.000000	22.661200
1570.000000	22.708200
1569.000000	22.732000
1568.000000	22.732600
1567.000000	22.749600
1566.000000	22.777000
1565.000000	22.794200
1564.000000	22.819900
1563.000000	22.852900
1562.000000	22.889200
1561.000000	22.935100
1560.000000	22.950000
1559.000000	22.961800
1558.000000	22.978600
1557.000000	22.985500
1556.000000	22.988600
1555.000000	22.996000
1554.000000	23.007500
1553.000000	23.022900
1552.000000	23.007700
1551.000000	22.985600
1550.000000	22.976500
1549.000000	22.980400
1548.000000	22.988500
1547.000000	22.985700
1546.000000	22.987200
1545.000000	22.993200
1544.000000	22.987600
1543.000000	22.985600
1542.000000	22.976400
1541.000000	22.973700
1540.000000	22.977600
1539.000000	22.966300
1538.000000	22.953400
1537.000000	22.960300
1536.000000	22.954900
1535.000000	22.953500
1534.000000	22.947100
1533.000000	22.934500
1532.000000	22.943800
1531.000000	22.932800
1530.000000	22.920200
1529.000000	22.898200
1528.000000	22.865200
1527.000000	22.848400
1526.000000	22.849300
1525.000000	22.833000
1524.000000	22.803200
1523.000000	22.779500
1522.000000	22.760700
1521.000000	22.734200
1520.000000	22.703500
1519.000000	22.681200
1518.000000	22.658200
1517.000000	22.618800
1516.000000	22.601000
1515.000000	22.588000
1514.000000	22.573000
1513.000000	22.561600
1512.000000	22.509400
1511.000000	22.468600
1510.000000	22.430300
1509.000000	22.418700
1508.000000	22.388300
1507.000000	22.355200
1506.000000	22.344500
1505.000000	22.316300
1504.000000	22.314500
1503.000000	22.285400
1502.000000	22.255000
1501.000000	22.233300
1500.000000	22.217100
1499.000000	22.202800
1498.000000	22.195500
1497.000000	22.179000
1496.000000	22.162100
1495.000000	22.194100
1494.000000	22.185800
1493.000000	22.177100
1492.000000	22.186000
1491.000000	22.184500
1490.000000	22.189400
1489.000000	22.203100
1488.000000	22.207000
1487.000000	22.220200
1486.000000	22.234200
1485.000000	22.242700
1484.000000	22.250100
1483.000000	22.272200
1482.000000	22.290300
1481.000000	22.307500
1480.000000	22.344900
1479.000000	22.357100
1478.000000	22.363900
1477.000000	22.400900
1476.000000	22.433000
1475.000000	22.458000
1474.000000	22.473000
1473.000000	22.515800
1472.000000	22.561500
1471.000000	22.592200
1470.000000	22.639900
1469.000000	22.653800
1468.000000	22.692800
1467.000000	22.721000
1466.000000	22.757100
1465.000000	22.796700
1464.000000	22.820600
1463.000000	22.899100
1462.000000	22.945400
1461.000000	23.006000
1460.000000	23.083900
1459.000000	23.123300
1458.000000	23.189600
1457.000000	23.276600
1456.000000	23.373800
1455.000000	23.471000
1454.000000	23.578600
1453.000000	23.625500
1452.000000	23.716100
1451.000000	23.842600
1450.000000	23.986500
1449.000000	24.091000
1448.000000	24.160600
1447.000000	24.237100
1446.000000	24.363200
1445.000000	24.530400
1444.000000	24.649500
1443.000000	24.724200
1442.000000	24.837400
1441.000000	24.982800
1440.000000	25.111900
1439.000000	25.211300
1438.000000	25.364100
1437.000000	25.483700
1436.000000	25.597400
1435.000000	25.694700
1434.000000	25.852200
1433.000000	25.981800
1432.000000	26.128200
1431.000000	26.273100
1430.000000	26.412000
1429.000000	26.564100
1428.000000	26.773900
1427.000000	26.937800
1426.000000	27.118400
1425.000000	27.310800
1424.000000	27.511800
1423.000000	27.767700
1422.000000	28.008800
1421.000000	28.147600
1420.000000	28.360700
1419.000000	28.661000
1418.000000	28.934300
1417.000000	29.111800
1416.000000	29.262300
1415.000000	29.427500
1414.000000	29.773000
1413.000000	30.029800
1412.000000	30.158500
1411.000000	30.307300
1410.000000	30.529100
1409.000000	30.888200
1408.000000	31.194600
1407.000000	31.547400
1406.000000	31.804500
1405.000000	32.192000
1404.000000	32.685900
1403.000000	32.996300
1402.000000	33.151300
1401.000000	33.507900
1400.000000	34.045600
1399.000000	34.415900
1398.000000	34.411500
1397.000000	34.427500
1396.000000	34.706400
1395.000000	35.140900
1394.000000	35.273600
1393.000000	35.258500
1392.000000	35.433400
1391.000000	35.659300
1390.000000	35.739600
1389.000000	35.784000
1388.000000	36.074800
1387.000000	36.355800
1386.000000	36.530800
1385.000000	36.712600
1384.000000	37.007600
1383.000000	37.300000
1382.000000	37.691800
1381.000000	38.008400
1380.000000	38.125000
1379.000000	38.207000
1378.000000	38.217800
1377.000000	38.216700
1376.000000	38.310300
1375.000000	38.449700
1374.000000	38.601300
1373.000000	38.798300
1372.000000	39.014600
1371.000000	39.358000
1370.000000	39.634000
1369.000000	39.791100
1368.000000	40.037100
1367.000000	40.319300
1366.000000	40.434200
1365.000000	40.589600
1364.000000	40.793700
1363.000000	40.851800
1362.000000	40.955500
1361.000000	41.201800
1360.000000	41.345300
1359.000000	41.293000
1358.000000	41.315100
1357.000000	41.403500
1356.000000	41.562100
1355.000000	41.907900
1354.000000	42.321200
1353.000000	42.691000
1352.000000	43.068600
1351.000000	43.444200
1350.000000	43.809900
1349.000000	44.120400
1348.000000	44.404300
1347.000000	44.717500
1346.000000	44.976300
1345.000000	45.156300
1344.000000	45.426800
1343.000000	45.665300
1342.000000	45.880900
1341.000000	46.082500
1340.000000	46.277600
1339.000000	46.455000
1338.000000	46.613300
1337.000000	46.782400
1336.000000	46.949000
1335.000000	47.109700
1334.000000	47.241100
1333.000000	47.381200
1332.000000	47.523500
1331.000000	47.660100
1330.000000	47.782500
1329.000000	47.888500
1328.000000	47.995100
1327.000000	48.104200
1326.000000	48.199200
1325.000000	48.295300
1324.000000	48.369700
1323.000000	48.423900
1322.000000	48.478200
1321.000000	48.551500
1320.000000	48.622700
1319.000000	48.690200
1318.000000	48.775100
1317.000000	48.839700
1316.000000	48.882100
1315.000000	48.931900
1314.000000	48.980600
1313.000000	49.034100
1312.000000	49.061600
1311.000000	49.073700
1310.000000	49.093000
1309.000000	49.106100
1308.000000	49.128800
1307.000000	49.157400
1306.000000	49.176400
1305.000000	49.188100
1304.000000	49.194700
1303.000000	49.203800
1302.000000	49.208800
1301.000000	49.218500
1300.000000	49.199800
1299.000000	49.172500
1298.000000	49.158500
1297.000000	49.160500
1296.000000	49.164900
1295.000000	49.128400
1294.000000	49.093400
1293.000000	49.066000
1292.000000	49.033900
1291.000000	49.011100
1290.000000	48.983200
1289.000000	48.942000
1288.000000	48.901400
1287.000000	48.873400
1286.000000	48.841100
1285.000000	48.800900
1284.000000	48.755300
1283.000000	48.716700
1282.000000	48.677400
1281.000000	48.622100
1280.000000	48.560800
1279.000000	48.494700
1278.000000	48.458600
1277.000000	48.430900
1276.000000	48.399000
1275.000000	48.362900
1274.000000	48.303400
1273.000000	48.267200
1272.000000	48.248500
1271.000000	48.216700
1270.000000	48.184700
1269.000000	48.160600
1268.000000	48.114500
1267.000000	48.030300
1266.000000	47.957000
1265.000000	47.912300
1264.000000	47.897100
1263.000000	47.870300
1262.000000	47.837600
1261.000000	47.796300
1260.000000	47.734400
1259.000000	47.689900
1258.000000	47.645600
1257.000000	47.596900
1256.000000	47.544800
1255.000000	47.476800
1254.000000	47.413100
1253.000000	47.346600
1252.000000	47.284100
1251.000000	47.239400
1250.000000	47.187300
1249.000000	47.085400
1248.000000	47.010400
1247.000000	46.963300
1246.000000	46.894500
1245.000000	46.833100
1244.000000	46.731800
1243.000000	46.622200
1242.000000	46.535800
1241.000000	46.440800
1240.000000	46.353500
1239.000000	46.248300
1238.000000	46.144200
1237.000000	46.033700
1236.000000	45.923300
1235.000000	45.799200
1234.000000	45.672500
1233.000000	45.537700
1232.000000	45.407900
1231.000000	45.283500
1230.000000	45.157200
1229.000000	45.039400
1228.000000	44.919800
1227.000000	44.787400
1226.000000	44.666200
1225.000000	44.542300
1224.000000	44.406000
1223.000000	44.268500
1222.000000	44.147100
1221.000000	44.031900
1220.000000	43.916000
1219.000000	43.802100
1218.000000	43.684500
1217.000000	43.573500
1216.000000	43.476500
1215.000000	43.378000
1214.000000	43.278000
1213.000000	43.162800
1212.000000	43.079200
1211.000000	42.980500
1210.000000	42.885200
1209.000000	42.811900
1208.000000	42.752200
1207.000000	42.709700
1206.000000	42.672800
1205.000000	42.673500
1204.000000	42.687200
1203.000000	42.654900
1202.000000	42.613000
1201.000000	42.588100
1200.000000	42.550800
1199.000000	42.485000
1198.000000	42.441300
1197.000000	42.327300
1196.000000	42.214200
1195.000000	42.054100
1194.000000	41.817100
1193.000000	41.557000
1192.000000	41.240400
1191.000000	40.892200
1190.000000	40.563700
1189.000000	40.288800
1188.000000	40.075800
1187.000000	39.859900
1186.000000	39.783200
1185.000000	39.865300
1184.000000	40.002300
1183.000000	40.231800
1182.000000	40.518300
1181.000000	40.868800
1180.000000	41.208800
1179.000000	41.501400
1178.000000	41.804600
1177.000000	42.066000
1176.000000	42.285400
1175.000000	42.497700
1174.000000	42.704800
1173.000000	42.899600
1172.000000	43.149300
1171.000000	43.372100
1170.000000	43.601600
1169.000000	43.779600
1168.000000	44.020600
1167.000000	44.231100
1166.000000	44.452000
1165.000000	44.715000
1164.000000	44.940900
1163.000000	45.177200
1162.000000	45.392600
1161.000000	45.608400
1160.000000	45.859800
1159.000000	46.066400
1158.000000	46.249000
1157.000000	46.439400
1156.000000	46.632700
1155.000000	46.759800
1154.000000	46.852400
1153.000000	46.873200
1152.000000	46.912400
1151.000000	46.883200
1150.000000	46.871000
1149.000000	46.886500
1148.000000	46.849800
1147.000000	46.846100
1146.000000	46.917700
1145.000000	47.019700
1144.000000	47.160100
1143.000000	47.331000
1142.000000	47.493200
1141.000000	47.666200
1140.000000	47.870300
1139.000000	48.064400
1138.000000	48.257900
1137.000000	48.423000
1136.000000	48.556000
1135.000000	48.793800
1134.000000	49.051100
1133.000000	49.205600
1132.000000	49.280700
1131.000000	49.356300
1130.000000	49.498300
1129.000000	49.612800
1128.000000	49.705000
1127.000000	49.749000
1126.000000	49.786600
1125.000000	49.832200
1124.000000	49.889300
1123.000000	49.887000
1122.000000	49.907300
1121.000000	49.903300
1120.000000	49.885800
1119.000000	49.890500
1118.000000	49.884800
1117.000000	49.862800
1116.000000	49.855800
1115.000000	49.802300
1114.000000	49.786400
1113.000000	49.756300
1112.000000	49.724000
1111.000000	49.709400
1110.000000	49.703500
1109.000000	49.666500
1108.000000	49.603900
1107.000000	49.573900
1106.000000	49.550600
1105.000000	49.519800
1104.000000	49.501800
1103.000000	49.465800
1102.000000	49.392400
1101.000000	49.350500
1100.000000	49.323900
1099.000000	49.296200
1098.000000	49.242200
1097.000000	49.188600
1096.000000	49.149800
1095.000000	49.128000
1094.000000	49.090000
1093.000000	49.034500
1092.000000	48.992900
1091.000000	48.950200
1090.000000	48.911000
1089.000000	48.850300
1088.000000	48.798900
1087.000000	48.759500
1086.000000	48.724500
1085.000000	48.660100
1084.000000	48.579800
1083.000000	48.535000
1082.000000	48.460400
1081.000000	48.406700
1080.000000	48.349900
1079.000000	48.287200
1078.000000	48.235600
1077.000000	48.157800
1076.000000	48.098300
1075.000000	48.059800
1074.000000	48.006900
1073.000000	47.941300
1072.000000	47.897500
1071.000000	47.859200
1070.000000	47.807900
1069.000000	47.755900
1068.000000	47.698400
1067.000000	47.637700
1066.000000	47.583600
1065.000000	47.512700
1064.000000	47.472100
1063.000000	47.402000
1062.000000	47.334100
1061.000000	47.288700
1060.000000	47.241900
1059.000000	47.177600
1058.000000	47.112700
1057.000000	47.050100
1056.000000	46.976000
1055.000000	46.907600
1054.000000	46.857000
1053.000000	46.805900
1052.000000	46.769500
1051.000000	46.713900
1050.000000	46.674700
1049.000000	46.627800
1048.000000	46.573100
1047.000000	46.510400
1046.000000	46.448500
1045.000000	46.396700
1044.000000	46.342900
1043.000000	46.280000
1042.000000	46.230400
1041.000000	46.202500
1040.000000	46.162000
1039.000000	46.093900
1038.000000	46.039600
1037.000000	46.005100
1036.000000	45.958700
1035.000000	45.914500
1034.000000	45.860200
1033.000000	45.805700
1032.000000	45.758400
1031.000000	45.705100
1030.000000	45.648200
1029.000000	45.582600
1028.000000	45.533800
1027.000000	45.473400
1026.000000	45.404400
1025.000000	45.359300
1024.000000	45.316100
1023.000000	45.249600
1022.000000	45.196800
1021.000000	45.148500
1020.000000	45.069400
1019.000000	44.998800
1018.000000	44.965700
1017.000000	44.915400
1016.000000	44.864300
1015.000000	44.829400
1014.000000	44.805700
1013.000000	44.780200
1012.000000	44.738900
1011.000000	44.708300
1010.000000	44.696700
1009.000000	44.698400
1008.000000	44.678900
1007.000000	44.645500
1006.000000	44.612300
1005.000000	44.594100
1004.000000	44.569900
1003.000000	44.551100
1002.000000	44.510500
1001.000000	44.483400
1000.000000	44.460900
999.000000	44.456600
998.000000	44.442300
997.000000	44.400800
996.000000	44.384900
995.000000	44.368400
994.000000	44.352600
993.000000	44.325400
992.000000	44.285200
991.000000	44.253600
990.000000	44.234200
989.000000	44.214900
988.000000	44.205100
987.000000	44.159500
986.000000	44.131100
985.000000	44.134300
984.000000	44.124100
983.000000	44.108000
982.000000	44.066300
981.000000	44.055100
980.000000	44.056300
979.000000	44.021600
978.000000	43.987100
977.000000	43.984500
976.000000	43.971100
975.000000	43.984900
974.000000	43.979100
973.000000	43.941500
972.000000	43.916100
971.000000	43.917700
970.000000	43.915600
969.000000	43.935000
968.000000	43.904600
967.000000	43.833600
966.000000	43.832400
965.000000	43.849400
964.000000	43.830400
963.000000	43.838800
962.000000	43.818500
961.000000	43.828500
960.000000	43.850900
959.000000	43.833100
958.000000	43.838400
957.000000	43.833900
956.000000	43.846500
955.000000	43.823400
954.000000	43.774100
953.000000	43.770700
952.000000	43.772800
951.000000	43.809000
950.000000	43.789900
949.000000	43.779800
948.000000	43.784000
947.000000	43.755800
946.000000	43.687400
945.000000	43.672900
944.000000	43.708900
943.000000	43.748000
942.000000	43.728000
941.000000	43.666400
940.000000	43.665100
939.000000	43.647900
938.000000	43.676800
937.000000	43.634600
936.000000	43.647300
935.000000	43.661300
934.000000	43.665100
933.000000	43.711200
932.000000	43.779400
931.000000	43.763600
930.000000	43.819700
929.000000	43.810100
928.000000	43.807100
927.000000	43.792500
926.000000	43.864900
925.000000	43.810700
924.000000	43.809500
923.000000	43.801100
922.000000	43.781600
921.000000	43.783500
920.000000	43.821300
919.000000	43.835000
918.000000	43.820400
917.000000	43.843200
916.000000	43.871800
915.000000	43.885700
914.000000	43.893100
913.000000	43.922700
912.000000	43.904100
911.000000	43.890400
910.000000	43.864000
909.000000	43.954600
908.000000	43.990700
907.000000	44.024800
906.000000	44.038500
905.000000	44.056500
904.000000	44.181700
903.000000	44.207900
902.000000	44.210700
901.000000	44.171800
900.000000	44.219000
899.000000	44.270000
898.000000	44.449500
897.000000	44.523800
896.000000	44.567800
895.000000	44.615700
894.000000	44.644600
893.000000	44.678700
892.000000	44.696600
891.000000	44.742600
890.000000	44.797900
889.000000	44.846800
888.000000	44.853300
887.000000	44.920600
886.000000	44.965500
885.000000	44.987000
884.000000	45.059200
883.000000	45.087200
882.000000	45.113700
881.000000	45.226500
880.000000	45.257400
879.000000	45.262400
878.000000	45.283100
877.000000	45.235400
876.000000	45.299100
875.000000	45.356300
874.000000	45.401600
873.000000	45.375700
872.000000	45.421200
871.000000	45.421700
870.000000	45.456700
869.000000	45.457500
868.000000	45.508500
867.000000	45.495800
866.000000	45.545400
865.000000	45.559000
864.000000	45.595400
863.000000	45.612100
862.000000	45.656300
861.000000	45.635100
860.000000	45.632400
859.000000	45.671200
858.000000	46.908800
857.000000	45.895440
856.000000	45.888784
855.000000	46.152276
854.000000	46.347249
853.000000	46.503825
852.000000	46.734465
851.000000	46.953416
850.000000	46.864078
849.000000	46.938825
848.000000	47.261960
847.000000	47.336792
846.000000	47.492600
845.000000	47.825889
844.000000	48.021972
843.000000	47.904902
842.000000	48.338110
841.000000	48.404751
840.000000	48.438455
839.000000	48.638804
838.000000	48.731897
837.000000	48.770123
836.000000	48.899736
835.000000	49.166043
834.000000	49.209816
833.000000	49.211437
832.000000	49.354275
831.000000	49.579028
830.000000	49.532951
829.000000	49.701899
828.000000	49.858049
827.000000	49.956431
826.000000	50.047732
825.000000	50.176662
824.000000	50.169494
823.000000	50.242108
822.000000	50.448600
821.000000	50.511743
820.000000	50.517204
819.000000	50.641611
818.000000	50.673865
817.000000	50.699122
816.000000	50.887866
815.000000	50.920717
814.000000	51.045466
813.000000	51.076867
812.000000	51.121920
811.000000	51.216804
810.000000	51.305288
809.000000	51.443519
808.000000	51.459475
807.000000	51.423979
806.000000	51.567329
805.000000	51.543949
804.000000	51.602313
803.000000	51.687470
802.000000	51.727318
801.000000	51.725356
800.000000	51.739691
799.000000	51.726124
798.000000	51.749674
797.000000	51.797713
796.000000	51.800359
795.000000	51.848313
794.000000	51.745749
793.000000	51.747541
792.000000	51.727745
791.000000	51.714092
790.000000	51.666224
789.000000	51.644465
788.000000	51.589941
787.000000	51.537891
786.000000	51.531833
785.000000	51.447103
784.000000	51.377390
783.000000	51.324658
782.000000	51.208015
781.000000	51.082413
780.000000	51.041541
779.000000	50.952545
778.000000	50.877798
777.000000	50.740506
776.000000	50.586234
775.000000	50.523433
774.000000	50.451672
773.000000	50.362590
772.000000	50.256187
771.000000	50.180587
770.000000	50.055411
769.000000	49.924348
768.000000	49.810009
767.000000	49.693793
766.000000	49.588585
765.000000	49.508377
764.000000	49.405642
763.000000	49.278504
762.000000	49.207256
761.000000	49.112286
760.000000	49.016293
759.000000	48.898882
758.000000	48.778400
757.000000	48.673277
756.000000	48.621909
755.000000	48.580782
754.000000	48.449463
753.000000	48.321471
752.000000	48.254745
751.000000	48.138273
750.000000	48.045863
749.000000	47.963352
748.000000	47.841845
747.000000	47.740562
746.000000	47.643886
745.000000	47.559241
744.000000	47.510007
743.000000	47.413075
742.000000	47.279196
741.000000	47.168014
740.000000	47.086612
739.000000	46.964338
738.000000	46.822011
737.000000	46.721581
736.000000	46.613471
735.000000	46.522170
734.000000	46.396654
733.000000	46.226767
732.000000	46.126763
731.000000	46.019165
730.000000	45.928120
729.000000	45.853630
728.000000	45.751749
727.000000	45.665653
726.000000	45.542611
725.000000	45.446873
724.000000	45.344651
723.000000	45.237394
722.000000	45.130991
721.000000	45.019468
720.000000	44.937980
719.000000	44.815023
718.000000	44.711350
717.000000	44.603923
716.000000	44.504943
715.000000	44.371064
714.000000	44.264064
713.000000	44.184026
712.000000	44.116362
711.000000	44.016358
710.000000	43.866267
709.000000	43.758840
708.000000	43.678034
707.000000	43.532295
706.000000	43.395856
705.000000	43.252336
704.000000	43.115556
703.000000	42.952495
702.000000	42.807182
701.000000	42.622619
700.000000	42.478586
699.000000	42.335406
698.000000	42.142140
697.000000	41.926688
696.000000	41.743319
695.000000	41.568312
694.000000	41.345693
693.000000	41.154900
692.000000	40.979467
691.000000	40.737990
690.000000	40.466137
689.000000	40.252221
688.000000	40.023885
687.000000	39.848537
686.000000	39.675492
685.000000	39.438709
684.000000	39.219246
683.000000	38.983316
682.000000	38.728016
681.000000	38.516062
680.000000	38.306925
679.000000	38.055379
678.000000	37.869877
677.000000	37.655876
676.000000	37.459793
675.000000	37.259615
674.000000	37.039129
673.000000	36.864719
672.000000	36.682801
671.000000	36.514279
670.000000	36.368796
669.000000	36.247375
668.000000	36.096175
667.000000	35.965538
666.000000	35.838400
665.000000	35.758704
664.000000	35.662882
663.000000	35.603494
662.000000	35.559294
661.000000	35.517484
660.000000	35.446918
659.000000	35.427207
658.000000	35.424391
657.000000	35.398793
656.000000	35.431900
655.000000	35.441457
654.000000	35.472089
653.000000	35.536426
652.000000	35.636174
651.000000	35.744881
650.000000	35.831148
649.000000	35.958030
648.000000	36.119981
647.000000	36.262563
646.000000	36.424259
645.000000	36.582883
644.000000	36.770091
643.000000	36.881102
642.000000	37.076588
641.000000	37.270793
640.000000	37.469350
639.000000	37.633094
638.000000	37.846924
637.000000	38.048724
636.000000	38.275098
635.000000	38.456248
634.000000	38.648320
633.000000	38.916248
632.000000	39.192965
631.000000	39.437599
630.000000	39.715170
629.000000	40.006136
628.000000	40.215786
627.000000	40.429105
626.000000	40.680992
625.000000	40.955575
624.000000	41.224784
623.000000	41.526246
622.000000	41.795454
621.000000	42.080277
620.000000	42.350083
619.000000	42.566900
618.000000	42.860938
617.000000	43.165472
616.000000	43.451490
615.000000	43.732388
614.000000	43.995538
613.000000	44.261248
612.000000	44.499141
611.000000	44.753417
610.000000	44.996174
609.000000	45.218025
608.000000	45.444484
607.000000	45.688606
606.000000	45.907812
605.000000	46.137343
604.000000	46.406552
603.000000	46.661425
602.000000	46.880461
601.000000	47.140880
600.000000	47.412819
599.000000	47.652504
598.000000	47.890141
597.000000	48.112248
596.000000	48.378385
595.000000	48.602199
594.000000	48.783861
593.000000	48.927126
592.000000	49.179781
591.000000	49.360163
590.000000	49.511875
589.000000	49.671864
588.000000	49.798831
587.000000	49.912061
586.000000	49.980750
585.000000	50.057459
584.000000	50.170774
583.000000	50.271887
582.000000	50.303800
581.000000	50.368734
580.000000	50.452696
579.000000	50.462679
578.000000	50.500906
577.000000	50.544594
576.000000	50.533757
575.000000	50.580090
574.000000	50.542119
573.000000	50.551249
572.000000	50.538194
571.000000	50.518484
570.000000	50.466178
569.000000	50.454573
568.000000	50.381448
567.000000	50.299960
566.000000	50.207636
565.000000	50.106266
564.000000	49.967780
563.000000	49.810692
562.000000	49.662990
561.000000	49.544129
560.000000	49.459740
559.000000	49.820163
558.000000	49.610087
557.000000	49.416735
556.000000	49.208024
555.000000	48.976530
554.000000	48.728825
553.000000	48.475914
552.000000	48.257732
551.000000	47.973335
550.000000	47.730749
549.000000	47.439014
548.000000	47.102056
547.000000	46.787368
546.000000	46.462953
545.000000	46.126848
544.000000	45.784173
543.000000	45.366666
542.000000	44.932861
541.000000	44.503066
540.000000	44.055267
539.000000	43.551750
538.000000	43.095504
537.000000	42.637892
536.000000	42.128999
535.000000	41.596726
534.000000	41.050374
533.000000	40.533034
532.000000	39.984890
531.000000	39.425909
530.000000	38.848072
529.000000	38.295832
528.000000	37.774311
527.000000	37.250741
526.000000	36.715140
525.000000	36.178857
524.000000	35.622948
523.000000	35.104072
522.000000	34.568557
521.000000	34.063077
520.000000	33.545139
519.000000	33.008685
518.000000	32.508836
517.000000	31.992349
516.000000	31.465025
515.000000	30.948026
514.000000	30.434696
513.000000	29.924352
512.000000	29.407011
511.000000	28.877127
510.000000	28.365760
509.000000	27.866765
508.000000	27.367769
507.000000	26.861777
506.000000	26.386333
505.000000	25.903976
504.000000	25.406432
503.000000	24.920236
502.000000	24.446839
501.000000	23.989569
500.000000	23.545439
499.000000	23.091582
498.000000	22.649074
497.000000	22.219876
496.000000	21.803820
495.000000	21.396637
494.000000	20.996878
493.000000	20.600787
492.000000	20.209134
491.000000	19.854257
490.000000	19.521053
489.000000	19.197662
488.000000	18.913351
487.000000	18.623067
486.000000	18.357783
485.000000	18.136700
484.000000	17.942324
483.000000	17.756395
482.000000	17.562702
481.000000	17.379162
480.000000	17.203132
479.000000	17.059440
478.000000	16.968481
477.000000	16.890236
476.000000	16.823510
475.000000	16.757466
474.000000	16.694921
473.000000	16.649698
472.000000	16.618724
471.000000	16.591590
470.000000	16.568551
469.000000	16.548585
468.000000	16.518549
467.000000	16.493036
466.000000	16.490903
465.000000	16.491842
464.000000	16.494743
463.000000	16.495682
462.000000	16.487746
461.000000	16.496023
460.000000	16.501399
459.000000	16.488855
458.000000	16.490818
457.000000	16.481688
456.000000	16.458223
455.000000	16.454042
454.000000	16.447130
453.000000	16.417095
452.000000	16.376479
451.000000	16.346358
450.000000	16.313763
449.000000	16.251048
448.000000	16.183127
447.000000	16.138074
446.000000	16.097202
445.000000	16.052149
444.000000	15.985423
443.000000	15.874327
442.000000	15.761012
441.000000	15.659216
440.000000	15.539075
439.000000	15.401357
438.000000	15.269355
437.000000	15.146142
436.000000	15.006802
435.000000	14.859442
434.000000	14.699026
433.000000	14.525640
432.000000	14.352938
431.000000	14.186122
430.000000	14.017174
429.000000	13.833379
428.000000	13.645146
427.000000	13.455036
426.000000	13.261855
425.000000	13.053400
424.000000	12.849297
423.000000	12.647582
422.000000	12.427352
421.000000	12.209426
420.000000	11.985100
419.000000	11.767344
418.000000	11.551209
417.000000	11.316644
416.000000	11.086004
415.000000	10.863726
414.000000	10.640168
413.000000	10.407224
412.000000	10.179485
411.000000	9.946285
410.000000	9.724348
409.000000	9.496011
408.000000	9.281925
407.000000	9.076115
406.000000	8.852727
405.000000	8.640091
404.000000	8.431807
403.000000	8.210979
402.000000	8.002780
401.000000	7.800469
400.000000	7.611554
399.000000	7.423663
398.000000	7.243622
397.000000	7.065884
396.000000	6.880553
395.000000	6.718857
394.000000	6.559807
393.000000	6.393930
392.000000	6.238976
391.000000	6.094943
390.000000	5.958419
389.000000	5.829404
388.000000	5.688272
387.000000	5.561902
386.000000	5.450720
385.000000	5.339112
384.000000	5.237402
383.000000	5.137056
382.000000	5.060262
381.000000	4.952322
380.000000	4.867592
379.000000	4.784569
378.000000	4.702739
377.000000	4.643863
376.000000	4.781753
375.000000	4.799416
374.000000	4.757093
373.000000	4.700692
372.000000	4.666646
371.000000	4.592582
370.000000	4.498209
369.000000	4.469113
368.000000	4.452730
367.000000	4.419793
366.000000	4.384553
365.000000	4.342231
364.000000	4.321326
363.000000	4.285403
362.000000	4.286171
361.000000	4.242142
360.000000	4.213898
359.000000	4.178487
358.000000	4.136506
357.000000	4.120550
356.000000	4.061247
355.000000	4.108007
354.000000	4.026007
353.000000	3.994948
352.000000	3.983770
351.000000	3.958513
350.000000	3.957233
349.000000	3.942642
348.000000	3.885558
347.000000	3.872162
346.000000	3.824976
345.000000	3.811323
344.000000	3.826426
343.000000	3.873527
342.000000	3.858936
341.000000	3.782056
340.000000	3.864056
339.000000	3.827621
338.000000	3.825232
337.000000	3.870370
336.000000	3.822842
335.000000	3.833594
334.000000	3.841444
333.000000	3.808251
332.000000	3.808763
331.000000	3.737088
330.000000	3.777789
329.000000	3.789309
328.000000	3.749205
327.000000	3.724460
326.000000	3.819941
325.000000	3.773096
324.000000	3.743061
323.000000	3.727617
322.000000	3.736832
321.000000	3.847502
320.000000	3.701421
319.000000	3.686489
318.000000	3.706712
317.000000	3.759188
316.000000	3.639047
315.000000	3.649457
314.000000	3.677530
313.000000	3.655600
312.000000	3.656198
311.000000	3.635890
310.000000	3.664986
309.000000	3.675140
308.000000	3.641095
307.000000	3.673946
306.000000	3.672239
305.000000	3.657222
304.000000	3.662171
303.000000	3.662853
302.000000	3.733846
301.000000	3.682991
300.000000	3.669082
299.000000	3.691267
298.000000	3.701848
297.000000	3.706541
296.000000	3.711319
295.000000	3.709357
294.000000	3.691609
293.000000	3.743146
292.000000	3.715159
291.000000	3.720791
290.000000	3.710381
289.000000	3.729238
288.000000	3.751679
287.000000	3.717548
286.000000	3.701336
285.000000	3.707565
284.000000	3.720193
283.000000	3.775230
282.000000	3.715330
281.000000	3.745280
280.000000	3.739477
279.000000	3.772926
278.000000	3.773096
277.000000	3.767721
276.000000	3.759529
275.000000	3.797073
274.000000	3.765332
273.000000	3.803985
272.000000	3.782653
271.000000	3.772755
270.000000	3.843236
269.000000	3.824208
268.000000	3.838201
267.000000	3.864141
266.000000	3.832484
265.000000	3.859533
264.000000	3.867639
263.000000	3.873954
262.000000	3.899381
261.000000	3.919689
260.000000	3.925577
259.000000	3.943154
258.000000	3.956380
257.000000	3.956977
256.000000	3.943751
255.000000	3.941448
254.000000	3.970715
253.000000	4.001689
252.000000	3.997081
251.000000	4.042561
250.000000	4.029847
