PE UV       SUBTECH     SPECTRUM    ASCII       PEDS        4.00        
   -1
CICIMAUCR0018-2.Sample.ASC
24/04/12
14:49:23.00
24/04/12
14:49:23.00
Vinicio Soto Monge
C. cupreomarginata
250,000000
1
Lambda 1050
1050L1511233
PerkinElmer UV WinLab 6.3.2.0749 / 2.02.05 Lambda 900 UV/VIS/NIR, Aug  7 2015 09:38:08

0
0
3350/servo 860,8/2
0
0
UV/VIS
1
1
1
DoubleDePol,CommonBeamDepol,RBeamAtt,SBeamAtt,60mm sphere, WB InGaAs Detector
0
0
0
0
Program
Program
3350/servo 860,8/2
3350/0,2 860,8/0,2
3350/0,2 860,8/0,2
0
15.00
 
 
 
0
 
860,8
319,2
860,8
Front
100
on
S:100 R:100
0
0
0
0
 
0
 
 
 
0
 
 
0
0
0
0
0
 
 
 
 
0
0


0
0
#HDR
-1
-1
#GR
nm
%R
1.0
0.0
2500,000000
-1,000000
2251
8
47,780900
3,973400
#DATA
2500.000000	8.244200
2499.000000	8.155000
2498.000000	8.303000
2497.000000	8.137500
2496.000000	8.233900
2495.000000	8.172200
2494.000000	8.145700
2493.000000	8.166600
2492.000000	8.138300
2491.000000	8.115900
2490.000000	8.095300
2489.000000	8.088200
2488.000000	8.050800
2487.000000	8.009000
2486.000000	8.157100
2485.000000	8.102000
2484.000000	8.037200
2483.000000	8.084300
2482.000000	8.062400
2481.000000	8.078600
2480.000000	8.113800
2479.000000	8.055900
2478.000000	8.003500
2477.000000	8.085800
2476.000000	8.021800
2475.000000	8.064500
2474.000000	8.037400
2473.000000	8.049200
2472.000000	8.018000
2471.000000	8.030000
2470.000000	8.081800
2469.000000	8.075700
2468.000000	8.078600
2467.000000	8.087200
2466.000000	8.114800
2465.000000	8.138500
2464.000000	8.157100
2463.000000	8.196100
2462.000000	8.176100
2461.000000	8.207900
2460.000000	8.228000
2459.000000	8.289400
2458.000000	8.322400
2457.000000	8.345900
2456.000000	8.409800
2455.000000	8.456300
2454.000000	8.502800
2453.000000	8.539400
2452.000000	8.596300
2451.000000	8.649500
2450.000000	8.712900
2449.000000	8.770300
2448.000000	8.802400
2447.000000	8.842900
2446.000000	8.889500
2445.000000	8.962900
2444.000000	9.003800
2443.000000	9.036600
2442.000000	9.080800
2441.000000	9.144800
2440.000000	9.202900
2439.000000	9.268300
2438.000000	9.311400
2437.000000	9.352400
2436.000000	9.377800
2435.000000	9.416300
2434.000000	9.463300
2433.000000	9.506000
2432.000000	9.539300
2431.000000	9.574800
2430.000000	9.610200
2429.000000	9.629000
2428.000000	9.656100
2427.000000	9.691000
2426.000000	9.708400
2425.000000	9.775300
2424.000000	9.847600
2423.000000	9.924400
2422.000000	9.969000
2421.000000	10.013000
2420.000000	10.023500
2419.000000	10.045100
2418.000000	10.061900
2417.000000	10.101100
2416.000000	10.152200
2415.000000	10.188800
2414.000000	10.222500
2413.000000	10.264800
2412.000000	10.284300
2411.000000	10.306600
2410.000000	10.336000
2409.000000	10.360000
2408.000000	10.385800
2407.000000	10.416900
2406.000000	10.445800
2405.000000	10.475500
2404.000000	10.489600
2403.000000	10.515400
2402.000000	10.540400
2401.000000	10.560400
2400.000000	10.585300
2399.000000	10.614000
2398.000000	10.641200
2397.000000	10.659800
2396.000000	10.679600
2395.000000	10.703100
2394.000000	10.735800
2393.000000	10.761000
2392.000000	10.781400
2391.000000	10.788800
2390.000000	10.781400
2389.000000	10.798500
2388.000000	10.804900
2387.000000	10.810500
2386.000000	10.821900
2385.000000	10.830400
2384.000000	10.827100
2383.000000	10.812400
2382.000000	10.814700
2381.000000	10.824300
2380.000000	10.815400
2379.000000	10.805200
2378.000000	10.811200
2377.000000	10.801800
2376.000000	10.775000
2375.000000	10.753300
2374.000000	10.765000
2373.000000	10.758100
2372.000000	10.730400
2371.000000	10.706500
2370.000000	10.689400
2369.000000	10.673800
2368.000000	10.641600
2367.000000	10.614600
2366.000000	10.583500
2365.000000	10.536000
2364.000000	10.499000
2363.000000	10.465000
2362.000000	10.417300
2361.000000	10.387000
2360.000000	10.357100
2359.000000	10.319500
2358.000000	10.286200
2357.000000	10.262400
2356.000000	10.234500
2355.000000	10.226400
2354.000000	10.231300
2353.000000	10.223100
2352.000000	10.230200
2351.000000	10.250400
2350.000000	10.270100
2349.000000	10.298800
2348.000000	10.322600
2347.000000	10.366100
2346.000000	10.387600
2345.000000	10.419300
2344.000000	10.472900
2343.000000	10.510400
2342.000000	10.512300
2341.000000	10.527300
2340.000000	10.549400
2339.000000	10.569100
2338.000000	10.594700
2337.000000	10.588600
2336.000000	10.583300
2335.000000	10.572900
2334.000000	10.555100
2333.000000	10.530700
2332.000000	10.502500
2331.000000	10.477000
2330.000000	10.449300
2329.000000	10.414000
2328.000000	10.396900
2327.000000	10.364200
2326.000000	10.301800
2325.000000	10.251200
2324.000000	10.215100
2323.000000	10.155900
2322.000000	10.086400
2321.000000	10.038800
2320.000000	9.973000
2319.000000	9.896500
2318.000000	9.825800
2317.000000	9.749300
2316.000000	9.657400
2315.000000	9.586800
2314.000000	9.525200
2313.000000	9.477500
2312.000000	9.418800
2311.000000	9.354100
2310.000000	9.323700
2309.000000	9.297200
2308.000000	9.269300
2307.000000	9.264500
2306.000000	9.261300
2305.000000	9.273600
2304.000000	9.322500
2303.000000	9.371200
2302.000000	9.407800
2301.000000	9.460000
2300.000000	9.548700
2299.000000	9.610600
2298.000000	9.658200
2297.000000	9.725000
2296.000000	9.768700
2295.000000	9.818300
2294.000000	9.865400
2293.000000	9.908500
2292.000000	9.954300
2291.000000	9.966700
2290.000000	9.981300
2289.000000	9.990100
2288.000000	9.986300
2287.000000	9.968900
2286.000000	9.965900
2285.000000	9.947000
2284.000000	9.915400
2283.000000	9.879300
2282.000000	9.850100
2281.000000	9.824800
2280.000000	9.776600
2279.000000	9.741300
2278.000000	9.714800
2277.000000	9.689100
2276.000000	9.662600
2275.000000	9.631700
2274.000000	9.619400
2273.000000	9.618100
2272.000000	9.613600
2271.000000	9.639500
2270.000000	9.667800
2269.000000	9.696100
2268.000000	9.744700
2267.000000	9.813500
2266.000000	9.904000
2265.000000	10.011100
2264.000000	10.116700
2263.000000	10.238800
2262.000000	10.394700
2261.000000	10.541800
2260.000000	10.705200
2259.000000	10.878800
2258.000000	11.050600
2257.000000	11.239400
2256.000000	11.421900
2255.000000	11.580800
2254.000000	11.773100
2253.000000	11.946600
2252.000000	12.115700
2251.000000	12.262400
2250.000000	12.413600
2249.000000	12.560900
2248.000000	12.694300
2247.000000	12.843200
2246.000000	12.956000
2245.000000	13.092200
2244.000000	13.173800
2243.000000	13.243100
2242.000000	13.323400
2241.000000	13.413200
2240.000000	13.493300
2239.000000	13.592000
2238.000000	13.635000
2237.000000	13.695200
2236.000000	13.730800
2235.000000	13.777600
2234.000000	13.829900
2233.000000	13.877400
2232.000000	13.890400
2231.000000	13.907700
2230.000000	13.946300
2229.000000	13.962900
2228.000000	13.940000
2227.000000	13.953900
2226.000000	13.966400
2225.000000	13.957200
2224.000000	13.945100
2223.000000	13.921400
2222.000000	13.932600
2221.000000	13.892700
2220.000000	13.863200
2219.000000	13.860000
2218.000000	13.827300
2217.000000	13.806100
2216.000000	13.773200
2215.000000	13.760100
2214.000000	13.749300
2213.000000	13.709200
2212.000000	13.697400
2211.000000	13.654700
2210.000000	13.662800
2209.000000	13.640600
2208.000000	13.636700
2207.000000	13.599000
2206.000000	13.586100
2205.000000	13.569300
2204.000000	13.584200
2203.000000	13.572700
2202.000000	13.543800
2201.000000	13.539200
2200.000000	13.522700
2199.000000	13.514800
2198.000000	13.502900
2197.000000	13.477400
2196.000000	13.476800
2195.000000	13.484000
2194.000000	13.471300
2193.000000	13.463600
2192.000000	13.440700
2191.000000	13.433800
2190.000000	13.402500
2189.000000	13.393100
2188.000000	13.384100
2187.000000	13.395000
2186.000000	13.361100
2185.000000	13.352800
2184.000000	13.354100
2183.000000	13.334300
2182.000000	13.333400
2181.000000	13.308700
2180.000000	13.307700
2179.000000	13.298200
2178.000000	13.287500
2177.000000	13.298600
2176.000000	13.255700
2175.000000	13.262600
2174.000000	13.283500
2173.000000	13.274300
2172.000000	13.265500
2171.000000	13.287600
2170.000000	13.311000
2169.000000	13.309900
2168.000000	13.322300
2167.000000	13.343300
2166.000000	13.373500
2165.000000	13.385500
2164.000000	13.388500
2163.000000	13.410200
2162.000000	13.442500
2161.000000	13.472900
2160.000000	13.502400
2159.000000	13.529800
2158.000000	13.554000
2157.000000	13.602100
2156.000000	13.646400
2155.000000	13.679000
2154.000000	13.716800
2153.000000	13.765800
2152.000000	13.818800
2151.000000	13.853300
2150.000000	13.897700
2149.000000	13.933600
2148.000000	13.982000
2147.000000	14.030200
2146.000000	14.057500
2145.000000	14.084600
2144.000000	14.126300
2143.000000	14.178300
2142.000000	14.216000
2141.000000	14.233500
2140.000000	14.273000
2139.000000	14.312600
2138.000000	14.334100
2137.000000	14.356800
2136.000000	14.401400
2135.000000	14.432500
2134.000000	14.455100
2133.000000	14.474000
2132.000000	14.502200
2131.000000	14.537600
2130.000000	14.551000
2129.000000	14.545600
2128.000000	14.570900
2127.000000	14.596300
2126.000000	14.587300
2125.000000	14.601200
2124.000000	14.609800
2123.000000	14.617300
2122.000000	14.604200
2121.000000	14.593300
2120.000000	14.590200
2119.000000	14.599400
2118.000000	14.601000
2117.000000	14.590900
2116.000000	14.576400
2115.000000	14.559800
2114.000000	14.554700
2113.000000	14.539200
2112.000000	14.518200
2111.000000	14.497200
2110.000000	14.490900
2109.000000	14.491600
2108.000000	14.475200
2107.000000	14.447800
2106.000000	14.435700
2105.000000	14.419200
2104.000000	14.391600
2103.000000	14.376800
2102.000000	14.360800
2101.000000	14.346800
2100.000000	14.337500
2099.000000	14.322200
2098.000000	14.306200
2097.000000	14.294300
2096.000000	14.303100
2095.000000	14.302900
2094.000000	14.291700
2093.000000	14.271100
2092.000000	14.246100
2091.000000	14.227700
2090.000000	14.225200
2089.000000	14.234700
2088.000000	14.219300
2087.000000	14.205400
2086.000000	14.197700
2085.000000	14.181800
2084.000000	14.174100
2083.000000	14.167300
2082.000000	14.148300
2081.000000	14.120300
2080.000000	14.095700
2079.000000	14.067500
2078.000000	14.065300
2077.000000	14.049500
2076.000000	14.021300
2075.000000	13.984400
2074.000000	13.948200
2073.000000	13.924900
2072.000000	13.899100
2071.000000	13.869300
2070.000000	13.835600
2069.000000	13.812600
2068.000000	13.779900
2067.000000	13.744300
2066.000000	13.711700
2065.000000	13.684400
2064.000000	13.642000
2063.000000	13.627200
2062.000000	13.604200
2061.000000	13.594800
2060.000000	13.576000
2059.000000	13.564100
2058.000000	13.565400
2057.000000	13.575100
2056.000000	13.580300
2055.000000	13.600200
2054.000000	13.633400
2053.000000	13.650900
2052.000000	13.695600
2051.000000	13.760300
2050.000000	13.811600
2049.000000	13.889800
2048.000000	13.969700
2047.000000	14.037700
2046.000000	14.115900
2045.000000	14.211000
2044.000000	14.302300
2043.000000	14.398800
2042.000000	14.489600
2041.000000	14.580900
2040.000000	14.688400
2039.000000	14.789000
2038.000000	14.865100
2037.000000	14.945900
2036.000000	15.037400
2035.000000	15.120000
2034.000000	15.175500
2033.000000	15.228300
2032.000000	15.291700
2031.000000	15.365100
2030.000000	15.436000
2029.000000	15.508400
2028.000000	15.567600
2027.000000	15.612700
2026.000000	15.647400
2025.000000	15.683700
2024.000000	15.738900
2023.000000	15.778900
2022.000000	15.825100
2021.000000	15.858600
2020.000000	15.907000
2019.000000	15.937100
2018.000000	15.939400
2017.000000	15.982700
2016.000000	16.012100
2015.000000	16.030000
2014.000000	16.033400
2013.000000	16.063200
2012.000000	16.075700
2011.000000	16.066400
2010.000000	16.068000
2009.000000	16.056700
2008.000000	16.046800
2007.000000	16.038100
2006.000000	16.050000
2005.000000	16.017300
2004.000000	16.000200
2003.000000	15.977300
2002.000000	15.953500
2001.000000	15.895000
2000.000000	15.894800
1999.000000	15.874600
1998.000000	15.825800
1997.000000	15.786800
1996.000000	15.745900
1995.000000	15.686700
1994.000000	15.655700
1993.000000	15.595900
1992.000000	15.531700
1991.000000	15.468100
1990.000000	15.424000
1989.000000	15.339300
1988.000000	15.284400
1987.000000	15.253700
1986.000000	15.188100
1985.000000	15.121900
1984.000000	15.048300
1983.000000	14.971300
1982.000000	14.906000
1981.000000	14.868300
1980.000000	14.781200
1979.000000	14.721900
1978.000000	14.649300
1977.000000	14.551400
1976.000000	14.483600
1975.000000	14.428800
1974.000000	14.373600
1973.000000	14.303100
1972.000000	14.232100
1971.000000	14.188500
1970.000000	14.103800
1969.000000	14.045400
1968.000000	13.998200
1967.000000	13.918400
1966.000000	13.849800
1965.000000	13.782700
1964.000000	13.728900
1963.000000	13.669700
1962.000000	13.621900
1961.000000	13.563800
1960.000000	13.482100
1959.000000	13.441700
1958.000000	13.388700
1957.000000	13.311000
1956.000000	13.235100
1955.000000	13.193600
1954.000000	13.123900
1953.000000	13.065300
1952.000000	13.021000
1951.000000	12.951000
1950.000000	12.907400
1949.000000	12.866100
1948.000000	12.806500
1947.000000	12.761700
1946.000000	12.715600
1945.000000	12.684900
1944.000000	12.652700
1943.000000	12.630900
1942.000000	12.590300
1941.000000	12.548500
1940.000000	12.538500
1939.000000	12.569900
1938.000000	12.574000
1937.000000	12.585400
1936.000000	12.591000
1935.000000	12.599500
1934.000000	12.603600
1933.000000	12.633500
1932.000000	12.658200
1931.000000	12.704500
1930.000000	12.737600
1929.000000	12.808000
1928.000000	12.891000
1927.000000	12.984600
1926.000000	13.082100
1925.000000	13.199700
1924.000000	13.265000
1923.000000	13.297500
1922.000000	13.416700
1921.000000	13.597300
1920.000000	13.810900
1919.000000	13.975500
1918.000000	14.099600
1917.000000	14.192600
1916.000000	14.286200
1915.000000	14.395500
1914.000000	14.605500
1913.000000	14.893300
1912.000000	15.152700
1911.000000	15.382100
1910.000000	15.546800
1909.000000	15.613900
1908.000000	15.740800
1907.000000	15.944800
1906.000000	16.209400
1905.000000	16.579000
1904.000000	16.897000
1903.000000	17.104700
1902.000000	17.316400
1901.000000	17.515200
1900.000000	17.821500
1899.000000	18.216600
1898.000000	18.581400
1897.000000	18.885700
1896.000000	19.080200
1895.000000	19.217600
1894.000000	19.440900
1893.000000	19.697500
1892.000000	20.048100
1891.000000	20.443200
1890.000000	20.786400
1889.000000	21.090300
1888.000000	21.386000
1887.000000	21.621600
1886.000000	21.897600
1885.000000	22.255400
1884.000000	22.676900
1883.000000	23.092200
1882.000000	23.474500
1881.000000	23.805000
1880.000000	24.099500
1879.000000	24.355800
1878.000000	24.624600
1877.000000	24.878500
1876.000000	25.130300
1875.000000	25.378600
1874.000000	25.586800
1873.000000	25.858100
1872.000000	26.176300
1871.000000	26.434200
1870.000000	26.739800
1869.000000	26.991100
1868.000000	27.191600
1867.000000	27.305500
1866.000000	27.305000
1865.000000	27.338000
1864.000000	27.317100
1863.000000	27.258500
1862.000000	27.230900
1861.000000	27.269800
1860.000000	27.343700
1859.000000	27.443400
1858.000000	27.557400
1857.000000	27.574800
1856.000000	27.493400
1855.000000	27.448100
1854.000000	27.528000
1853.000000	27.559600
1852.000000	27.535800
1851.000000	27.442400
1850.000000	27.238600
1849.000000	27.155900
1848.000000	27.313500
1847.000000	27.547600
1846.000000	27.623400
1845.000000	27.473100
1844.000000	27.235100
1843.000000	27.054800
1842.000000	27.082900
1841.000000	27.224400
1840.000000	27.258800
1839.000000	27.196400
1838.000000	27.104600
1837.000000	27.111100
1836.000000	27.208900
1835.000000	27.255500
1834.000000	27.177000
1833.000000	26.992100
1832.000000	26.859800
1831.000000	26.812700
1830.000000	26.829500
1829.000000	26.806700
1828.000000	26.727000
1827.000000	26.708700
1826.000000	26.742300
1825.000000	26.715400
1824.000000	26.602900
1823.000000	26.435300
1822.000000	26.368400
1821.000000	26.476000
1820.000000	26.604000
1819.000000	26.613200
1818.000000	26.543400
1817.000000	26.461100
1816.000000	26.453400
1815.000000	26.482800
1814.000000	26.475500
1813.000000	26.444300
1812.000000	26.435300
1811.000000	26.467300
1810.000000	26.451600
1809.000000	26.384600
1808.000000	26.330900
1807.000000	26.293200
1806.000000	26.285000
1805.000000	26.279300
1804.000000	26.236200
1803.000000	26.182700
1802.000000	26.158600
1801.000000	26.156800
1800.000000	26.132400
1799.000000	26.091800
1798.000000	26.046700
1797.000000	26.012200
1796.000000	25.993500
1795.000000	25.977400
1794.000000	25.942900
1793.000000	25.889600
1792.000000	25.858300
1791.000000	25.823400
1790.000000	25.796300
1789.000000	25.754400
1788.000000	25.718900
1787.000000	25.694300
1786.000000	25.658200
1785.000000	25.609800
1784.000000	25.563300
1783.000000	25.513900
1782.000000	25.446000
1781.000000	25.403300
1780.000000	25.341000
1779.000000	25.296100
1778.000000	25.224900
1777.000000	25.168300
1776.000000	25.097600
1775.000000	25.014500
1774.000000	24.938600
1773.000000	24.839600
1772.000000	24.742500
1771.000000	24.634200
1770.000000	24.538000
1769.000000	24.445500
1768.000000	24.352700
1767.000000	24.269900
1766.000000	24.188700
1765.000000	24.140400
1764.000000	24.106800
1763.000000	24.070000
1762.000000	24.072300
1761.000000	24.121600
1760.000000	24.146800
1759.000000	24.180100
1758.000000	24.234800
1757.000000	24.251700
1756.000000	24.254900
1755.000000	24.294900
1754.000000	24.306700
1753.000000	24.303800
1752.000000	24.262400
1751.000000	24.237200
1750.000000	24.196200
1749.000000	24.155000
1748.000000	24.111500
1747.000000	24.010400
1746.000000	23.943000
1745.000000	23.834300
1744.000000	23.714900
1743.000000	23.567200
1742.000000	23.411400
1741.000000	23.244900
1740.000000	23.073900
1739.000000	22.910000
1738.000000	22.742300
1737.000000	22.610800
1736.000000	22.494200
1735.000000	22.417600
1734.000000	22.371000
1733.000000	22.355300
1732.000000	22.358000
1731.000000	22.409800
1730.000000	22.473000
1729.000000	22.550600
1728.000000	22.633000
1727.000000	22.713300
1726.000000	22.754400
1725.000000	22.821200
1724.000000	22.864600
1723.000000	22.891100
1722.000000	22.904300
1721.000000	22.928000
1720.000000	22.975100
1719.000000	22.995000
1718.000000	23.050900
1717.000000	23.101300
1716.000000	23.154700
1715.000000	23.234800
1714.000000	23.306000
1713.000000	23.369300
1712.000000	23.411500
1711.000000	23.447500
1710.000000	23.462300
1709.000000	23.467000
1708.000000	23.478600
1707.000000	23.451500
1706.000000	23.430200
1705.000000	23.376200
1704.000000	23.326200
1703.000000	23.266300
1702.000000	23.203000
1701.000000	23.109200
1700.000000	23.019800
1699.000000	22.886000
1698.000000	22.803500
1697.000000	22.711900
1696.000000	22.638400
1695.000000	22.614200
1694.000000	22.634300
1693.000000	22.698700
1692.000000	22.803700
1691.000000	22.919000
1690.000000	23.029200
1689.000000	23.143100
1688.000000	23.200200
1687.000000	23.234800
1686.000000	23.265600
1685.000000	23.289400
1684.000000	23.383700
1683.000000	23.528500
1682.000000	23.777500
1681.000000	24.077900
1680.000000	24.462400
1679.000000	24.906200
1678.000000	25.280700
1677.000000	25.653400
1676.000000	25.989600
1675.000000	26.287400
1674.000000	26.517400
1673.000000	26.753300
1672.000000	26.983000
1671.000000	27.141700
1670.000000	27.299500
1669.000000	27.418200
1668.000000	27.553000
1667.000000	27.682300
1666.000000	27.744900
1665.000000	27.828100
1664.000000	27.921200
1663.000000	27.978300
1662.000000	28.047100
1661.000000	28.083800
1660.000000	28.120800
1659.000000	28.163100
1658.000000	28.199900
1657.000000	28.230800
1656.000000	28.257200
1655.000000	28.253700
1654.000000	28.256500
1653.000000	28.251900
1652.000000	28.255700
1651.000000	28.238600
1650.000000	28.227300
1649.000000	28.223200
1648.000000	28.192600
1647.000000	28.159100
1646.000000	28.119800
1645.000000	28.086200
1644.000000	28.043100
1643.000000	28.030300
1642.000000	27.995700
1641.000000	27.962900
1640.000000	27.932300
1639.000000	27.879600
1638.000000	27.832900
1637.000000	27.791400
1636.000000	27.743500
1635.000000	27.697300
1634.000000	27.664800
1633.000000	27.604800
1632.000000	27.568800
1631.000000	27.521900
1630.000000	27.469200
1629.000000	27.421200
1628.000000	27.353500
1627.000000	27.315600
1626.000000	27.240200
1625.000000	27.182100
1624.000000	27.120900
1623.000000	27.070200
1622.000000	27.005800
1621.000000	26.950600
1620.000000	26.912700
1619.000000	26.883300
1618.000000	26.822500
1617.000000	26.758800
1616.000000	26.696500
1615.000000	26.657300
1614.000000	26.607700
1613.000000	26.549500
1612.000000	26.486300
1611.000000	26.436400
1610.000000	26.395600
1609.000000	26.344800
1608.000000	26.294700
1607.000000	26.234500
1606.000000	26.179200
1605.000000	26.144500
1604.000000	26.103800
1603.000000	26.046600
1602.000000	25.986700
1601.000000	25.931900
1600.000000	25.880500
1599.000000	25.822200
1598.000000	25.771700
1597.000000	25.731100
1596.000000	25.688500
1595.000000	25.645000
1594.000000	25.602400
1593.000000	25.561600
1592.000000	25.528400
1591.000000	25.483100
1590.000000	25.452600
1589.000000	25.422500
1588.000000	25.373000
1587.000000	25.343800
1586.000000	25.339700
1585.000000	25.322000
1584.000000	25.280300
1583.000000	25.242500
1582.000000	25.227700
1581.000000	25.214200
1580.000000	25.189000
1579.000000	25.174700
1578.000000	25.171100
1577.000000	25.181000
1576.000000	25.177900
1575.000000	25.169800
1574.000000	25.174700
1573.000000	25.168000
1572.000000	25.163800
1571.000000	25.177600
1570.000000	25.191800
1569.000000	25.209500
1568.000000	25.237000
1567.000000	25.244900
1566.000000	25.245700
1565.000000	25.255900
1564.000000	25.283000
1563.000000	25.302900
1562.000000	25.312200
1561.000000	25.314400
1560.000000	25.316800
1559.000000	25.331900
1558.000000	25.337600
1557.000000	25.330200
1556.000000	25.316800
1555.000000	25.313300
1554.000000	25.298000
1553.000000	25.292500
1552.000000	25.299200
1551.000000	25.276700
1550.000000	25.245200
1549.000000	25.225300
1548.000000	25.205400
1547.000000	25.195400
1546.000000	25.184200
1545.000000	25.154900
1544.000000	25.135500
1543.000000	25.130400
1542.000000	25.113700
1541.000000	25.109300
1540.000000	25.078700
1539.000000	25.048000
1538.000000	25.053900
1537.000000	25.048300
1536.000000	25.047000
1535.000000	25.039100
1534.000000	25.025800
1533.000000	25.007600
1532.000000	24.989200
1531.000000	24.962100
1530.000000	24.944200
1529.000000	24.921800
1528.000000	24.900700
1527.000000	24.884200
1526.000000	24.849600
1525.000000	24.829600
1524.000000	24.797600
1523.000000	24.769100
1522.000000	24.752600
1521.000000	24.727900
1520.000000	24.690600
1519.000000	24.662100
1518.000000	24.644000
1517.000000	24.600300
1516.000000	24.565000
1515.000000	24.533800
1514.000000	24.495300
1513.000000	24.464900
1512.000000	24.434500
1511.000000	24.399300
1510.000000	24.382000
1509.000000	24.337000
1508.000000	24.295000
1507.000000	24.273200
1506.000000	24.222300
1505.000000	24.199200
1504.000000	24.166900
1503.000000	24.141200
1502.000000	24.124600
1501.000000	24.091800
1500.000000	24.071900
1499.000000	24.048800
1498.000000	24.038900
1497.000000	24.023900
1496.000000	24.030300
1495.000000	24.018200
1494.000000	23.997900
1493.000000	23.990600
1492.000000	23.994000
1491.000000	24.019800
1490.000000	24.019700
1489.000000	24.026200
1488.000000	24.032100
1487.000000	24.041600
1486.000000	24.050800
1485.000000	24.064600
1484.000000	24.058500
1483.000000	24.066200
1482.000000	24.101700
1481.000000	24.144300
1480.000000	24.168300
1479.000000	24.182600
1478.000000	24.200100
1477.000000	24.239000
1476.000000	24.273000
1475.000000	24.306800
1474.000000	24.338400
1473.000000	24.371200
1472.000000	24.408900
1471.000000	24.427400
1470.000000	24.477000
1469.000000	24.519600
1468.000000	24.536200
1467.000000	24.580000
1466.000000	24.621400
1465.000000	24.682100
1464.000000	24.719100
1463.000000	24.761700
1462.000000	24.813800
1461.000000	24.858300
1460.000000	24.946100
1459.000000	24.994300
1458.000000	25.063600
1457.000000	25.157300
1456.000000	25.232800
1455.000000	25.315800
1454.000000	25.375300
1453.000000	25.456900
1452.000000	25.562400
1451.000000	25.630200
1450.000000	25.756300
1449.000000	25.818400
1448.000000	25.873700
1447.000000	25.960600
1446.000000	26.113700
1445.000000	26.272400
1444.000000	26.355100
1443.000000	26.392200
1442.000000	26.529800
1441.000000	26.656300
1440.000000	26.735900
1439.000000	26.847400
1438.000000	26.945300
1437.000000	27.052700
1436.000000	27.159500
1435.000000	27.248100
1434.000000	27.385600
1433.000000	27.483100
1432.000000	27.609500
1431.000000	27.759500
1430.000000	27.843900
1429.000000	27.956300
1428.000000	28.124900
1427.000000	28.280000
1426.000000	28.418200
1425.000000	28.592900
1424.000000	28.779400
1423.000000	28.966900
1422.000000	29.145000
1421.000000	29.267800
1420.000000	29.470100
1419.000000	29.691300
1418.000000	29.897500
1417.000000	30.046300
1416.000000	30.173600
1415.000000	30.349000
1414.000000	30.634200
1413.000000	30.844400
1412.000000	30.961500
1411.000000	31.108700
1410.000000	31.346500
1409.000000	31.651000
1408.000000	31.896100
1407.000000	32.149500
1406.000000	32.399900
1405.000000	32.708200
1404.000000	32.970600
1403.000000	33.221100
1402.000000	33.379700
1401.000000	33.663500
1400.000000	34.064600
1399.000000	34.303900
1398.000000	34.321500
1397.000000	34.381500
1396.000000	34.654400
1395.000000	35.010900
1394.000000	35.091300
1393.000000	35.106400
1392.000000	35.271100
1391.000000	35.469300
1390.000000	35.533200
1389.000000	35.618200
1388.000000	35.896300
1387.000000	36.129200
1386.000000	36.280500
1385.000000	36.462800
1384.000000	36.702200
1383.000000	36.949300
1382.000000	37.194900
1381.000000	37.457400
1380.000000	37.513400
1379.000000	37.601300
1378.000000	37.593900
1377.000000	37.648700
1376.000000	37.705600
1375.000000	37.832600
1374.000000	37.923300
1373.000000	38.075900
1372.000000	38.233200
1371.000000	38.486500
1370.000000	38.681000
1369.000000	38.781400
1368.000000	38.961500
1367.000000	39.136000
1366.000000	39.190300
1365.000000	39.302800
1364.000000	39.450800
1363.000000	39.479800
1362.000000	39.585300
1361.000000	39.740900
1360.000000	39.828100
1359.000000	39.744800
1358.000000	39.795100
1357.000000	39.885200
1356.000000	40.010700
1355.000000	40.233800
1354.000000	40.482300
1353.000000	40.667500
1352.000000	40.874200
1351.000000	41.181900
1350.000000	41.433500
1349.000000	41.611000
1348.000000	41.798800
1347.000000	42.018800
1346.000000	42.201000
1345.000000	42.331000
1344.000000	42.512500
1343.000000	42.657800
1342.000000	42.773800
1341.000000	42.883100
1340.000000	43.003400
1339.000000	43.132600
1338.000000	43.253800
1337.000000	43.363100
1336.000000	43.457800
1335.000000	43.563200
1334.000000	43.666500
1333.000000	43.745400
1332.000000	43.815500
1331.000000	43.904300
1330.000000	44.002900
1329.000000	44.063500
1328.000000	44.122300
1327.000000	44.189800
1326.000000	44.238200
1325.000000	44.273600
1324.000000	44.321900
1323.000000	44.383700
1322.000000	44.426000
1321.000000	44.468900
1320.000000	44.518900
1319.000000	44.571000
1318.000000	44.605500
1317.000000	44.640100
1316.000000	44.686500
1315.000000	44.713700
1314.000000	44.748100
1313.000000	44.785900
1312.000000	44.808600
1311.000000	44.812900
1310.000000	44.826800
1309.000000	44.860500
1308.000000	44.885000
1307.000000	44.897700
1306.000000	44.920700
1305.000000	44.924500
1304.000000	44.925100
1303.000000	44.935200
1302.000000	44.944800
1301.000000	44.958300
1300.000000	44.958900
1299.000000	44.943600
1298.000000	44.936800
1297.000000	44.915500
1296.000000	44.893800
1295.000000	44.901800
1294.000000	44.904500
1293.000000	44.881000
1292.000000	44.868200
1291.000000	44.883500
1290.000000	44.874100
1289.000000	44.851300
1288.000000	44.826900
1287.000000	44.806300
1286.000000	44.786500
1285.000000	44.757000
1284.000000	44.720400
1283.000000	44.695200
1282.000000	44.666900
1281.000000	44.635300
1280.000000	44.601500
1279.000000	44.581400
1278.000000	44.571900
1277.000000	44.537800
1276.000000	44.519300
1275.000000	44.498800
1274.000000	44.482200
1273.000000	44.470400
1272.000000	44.455500
1271.000000	44.439200
1270.000000	44.423400
1269.000000	44.402200
1268.000000	44.391500
1267.000000	44.383800
1266.000000	44.377100
1265.000000	44.373500
1264.000000	44.343400
1263.000000	44.322100
1262.000000	44.303100
1261.000000	44.272100
1260.000000	44.261900
1259.000000	44.264200
1258.000000	44.251500
1257.000000	44.233400
1256.000000	44.201100
1255.000000	44.183300
1254.000000	44.156100
1253.000000	44.121200
1252.000000	44.100500
1251.000000	44.079500
1250.000000	44.053800
1249.000000	44.014900
1248.000000	43.972600
1247.000000	43.907300
1246.000000	43.880500
1245.000000	43.826600
1244.000000	43.761900
1243.000000	43.692500
1242.000000	43.639200
1241.000000	43.594900
1240.000000	43.550900
1239.000000	43.477900
1238.000000	43.406600
1237.000000	43.340800
1236.000000	43.262700
1235.000000	43.222000
1234.000000	43.170500
1233.000000	43.093200
1232.000000	43.019100
1231.000000	42.955800
1230.000000	42.889100
1229.000000	42.812700
1228.000000	42.737700
1227.000000	42.666300
1226.000000	42.607600
1225.000000	42.519400
1224.000000	42.454400
1223.000000	42.391300
1222.000000	42.293300
1221.000000	42.218900
1220.000000	42.158500
1219.000000	42.093000
1218.000000	42.028800
1217.000000	41.959200
1216.000000	41.891000
1215.000000	41.839500
1214.000000	41.774200
1213.000000	41.720800
1212.000000	41.658700
1211.000000	41.610800
1210.000000	41.547600
1209.000000	41.480400
1208.000000	41.447600
1207.000000	41.423800
1206.000000	41.385400
1205.000000	41.351100
1204.000000	41.323500
1203.000000	41.301100
1202.000000	41.290400
1201.000000	41.264500
1200.000000	41.239300
1199.000000	41.202900
1198.000000	41.129800
1197.000000	41.048600
1196.000000	40.946000
1195.000000	40.849900
1194.000000	40.707500
1193.000000	40.518400
1192.000000	40.317600
1191.000000	40.111100
1190.000000	39.883600
1189.000000	39.688500
1188.000000	39.536100
1187.000000	39.434600
1186.000000	39.402000
1185.000000	39.423900
1184.000000	39.508200
1183.000000	39.667400
1182.000000	39.884700
1181.000000	40.118300
1180.000000	40.334800
1179.000000	40.565800
1178.000000	40.760900
1177.000000	40.927700
1176.000000	41.053100
1175.000000	41.194000
1174.000000	41.332300
1173.000000	41.473600
1172.000000	41.611200
1171.000000	41.735600
1170.000000	41.902300
1169.000000	42.051300
1168.000000	42.199500
1167.000000	42.342500
1166.000000	42.516900
1165.000000	42.658500
1164.000000	42.829500
1163.000000	42.967600
1162.000000	43.152000
1161.000000	43.294700
1160.000000	43.447400
1159.000000	43.565200
1158.000000	43.703400
1157.000000	43.837900
1156.000000	43.938800
1155.000000	44.028000
1154.000000	44.069500
1153.000000	44.112500
1152.000000	44.150800
1151.000000	44.175700
1150.000000	44.172100
1149.000000	44.181600
1148.000000	44.185100
1147.000000	44.187500
1146.000000	44.220300
1145.000000	44.310500
1144.000000	44.421500
1143.000000	44.503200
1142.000000	44.608700
1141.000000	44.750800
1140.000000	44.866300
1139.000000	44.993500
1138.000000	45.148600
1137.000000	45.275800
1136.000000	45.378900
1135.000000	45.561100
1134.000000	45.736900
1133.000000	45.817400
1132.000000	45.883800
1131.000000	45.963000
1130.000000	46.045800
1129.000000	46.107400
1128.000000	46.177700
1127.000000	46.233100
1126.000000	46.293200
1125.000000	46.319600
1124.000000	46.349600
1123.000000	46.373100
1122.000000	46.408100
1121.000000	46.400600
1120.000000	46.406600
1119.000000	46.397200
1118.000000	46.406100
1117.000000	46.406800
1116.000000	46.408400
1115.000000	46.382400
1114.000000	46.384200
1113.000000	46.387500
1112.000000	46.357900
1111.000000	46.351700
1110.000000	46.325000
1109.000000	46.324100
1108.000000	46.313300
1107.000000	46.301400
1106.000000	46.283800
1105.000000	46.266300
1104.000000	46.247800
1103.000000	46.230600
1102.000000	46.209300
1101.000000	46.195400
1100.000000	46.185000
1099.000000	46.174300
1098.000000	46.159600
1097.000000	46.117100
1096.000000	46.086900
1095.000000	46.058400
1094.000000	46.054800
1093.000000	46.038000
1092.000000	46.029500
1091.000000	46.000200
1090.000000	45.946100
1089.000000	45.921600
1088.000000	45.891300
1087.000000	45.863800
1086.000000	45.835200
1085.000000	45.837000
1084.000000	45.799100
1083.000000	45.783700
1082.000000	45.746000
1081.000000	45.713000
1080.000000	45.667500
1079.000000	45.634200
1078.000000	45.590100
1077.000000	45.556000
1076.000000	45.534100
1075.000000	45.518500
1074.000000	45.493100
1073.000000	45.458100
1072.000000	45.423500
1071.000000	45.391500
1070.000000	45.354600
1069.000000	45.321200
1068.000000	45.280600
1067.000000	45.256500
1066.000000	45.252400
1065.000000	45.223700
1064.000000	45.178800
1063.000000	45.150600
1062.000000	45.124200
1061.000000	45.082800
1060.000000	45.050900
1059.000000	45.046200
1058.000000	45.004600
1057.000000	44.945800
1056.000000	44.918000
1055.000000	44.907200
1054.000000	44.888400
1053.000000	44.843800
1052.000000	44.808100
1051.000000	44.788100
1050.000000	44.747200
1049.000000	44.730100
1048.000000	44.701100
1047.000000	44.653800
1046.000000	44.637700
1045.000000	44.617600
1044.000000	44.592600
1043.000000	44.579200
1042.000000	44.576000
1041.000000	44.564700
1040.000000	44.540100
1039.000000	44.515300
1038.000000	44.479700
1037.000000	44.450500
1036.000000	44.425900
1035.000000	44.401800
1034.000000	44.384700
1033.000000	44.364800
1032.000000	44.335100
1031.000000	44.298900
1030.000000	44.284700
1029.000000	44.256700
1028.000000	44.220900
1027.000000	44.196900
1026.000000	44.166200
1025.000000	44.128000
1024.000000	44.093500
1023.000000	44.053100
1022.000000	44.029300
1021.000000	44.008900
1020.000000	43.982500
1019.000000	43.957800
1018.000000	43.928000
1017.000000	43.893100
1016.000000	43.864700
1015.000000	43.837500
1014.000000	43.785900
1013.000000	43.757000
1012.000000	43.745000
1011.000000	43.716900
1010.000000	43.698200
1009.000000	43.679500
1008.000000	43.678000
1007.000000	43.679300
1006.000000	43.638700
1005.000000	43.605200
1004.000000	43.587300
1003.000000	43.571800
1002.000000	43.544900
1001.000000	43.509700
1000.000000	43.479500
999.000000	43.471600
998.000000	43.429100
997.000000	43.380200
996.000000	43.360000
995.000000	43.337600
994.000000	43.297500
993.000000	43.283000
992.000000	43.260300
991.000000	43.246300
990.000000	43.245900
989.000000	43.227200
988.000000	43.199100
987.000000	43.206700
986.000000	43.190500
985.000000	43.162100
984.000000	43.159000
983.000000	43.137300
982.000000	43.130400
981.000000	43.106700
980.000000	43.095600
979.000000	43.079800
978.000000	43.064500
977.000000	43.057200
976.000000	43.059300
975.000000	43.043400
974.000000	43.036900
973.000000	43.051900
972.000000	43.069100
971.000000	43.076900
970.000000	43.059300
969.000000	43.066900
968.000000	43.072900
967.000000	43.083400
966.000000	43.071000
965.000000	43.057300
964.000000	43.075200
963.000000	43.093600
962.000000	43.086500
961.000000	43.073200
960.000000	43.046200
959.000000	43.054000
958.000000	43.043100
957.000000	43.060800
956.000000	43.068300
955.000000	43.052100
954.000000	43.065100
953.000000	43.061500
952.000000	43.048700
951.000000	43.057600
950.000000	43.001800
949.000000	42.966900
948.000000	42.978900
947.000000	42.942200
946.000000	42.963300
945.000000	42.917900
944.000000	42.891300
943.000000	42.839200
942.000000	42.827100
941.000000	42.785800
940.000000	42.717800
939.000000	42.697300
938.000000	42.642700
937.000000	42.602900
936.000000	42.580000
935.000000	42.552600
934.000000	42.577900
933.000000	42.568600
932.000000	42.539800
931.000000	42.552000
930.000000	42.500900
929.000000	42.468600
928.000000	42.472800
927.000000	42.410500
926.000000	42.364900
925.000000	42.360600
924.000000	42.370900
923.000000	42.360700
922.000000	42.359600
921.000000	42.331400
920.000000	42.299000
919.000000	42.289100
918.000000	42.261000
917.000000	42.280000
916.000000	42.261500
915.000000	42.221200
914.000000	42.190600
913.000000	42.155000
912.000000	42.128900
911.000000	42.114600
910.000000	42.111700
909.000000	42.098200
908.000000	42.098700
907.000000	42.149600
906.000000	42.141900
905.000000	42.105600
904.000000	42.100000
903.000000	42.137900
902.000000	42.162800
901.000000	42.164200
900.000000	42.158700
899.000000	42.138200
898.000000	42.143400
897.000000	42.137700
896.000000	42.109800
895.000000	42.083900
894.000000	42.057800
893.000000	42.053500
892.000000	42.023000
891.000000	41.928600
890.000000	41.873100
889.000000	41.845700
888.000000	41.813600
887.000000	41.782400
886.000000	41.737400
885.000000	41.689000
884.000000	41.620400
883.000000	41.493500
882.000000	41.446200
881.000000	41.394000
880.000000	41.363500
879.000000	41.260200
878.000000	41.192400
877.000000	41.164100
876.000000	41.047000
875.000000	40.927700
874.000000	40.859600
873.000000	40.716100
872.000000	40.650700
871.000000	40.593300
870.000000	40.502300
869.000000	40.369700
868.000000	40.190800
867.000000	40.095600
866.000000	39.947400
865.000000	39.857300
864.000000	39.707900
863.000000	39.597700
862.000000	39.451100
861.000000	39.363700
860.000000	39.208400
859.000000	39.090400
858.000000	40.177300
857.000000	39.378580
856.000000	39.143454
855.000000	39.518387
854.000000	39.426156
853.000000	39.323492
852.000000	39.415305
851.000000	39.490342
850.000000	39.441514
849.000000	39.476069
848.000000	39.501109
847.000000	39.436673
846.000000	39.427241
845.000000	39.547850
844.000000	39.593340
843.000000	39.578149
842.000000	39.462464
841.000000	39.667124
840.000000	39.617712
839.000000	39.642919
838.000000	39.671047
837.000000	39.673969
836.000000	39.701179
835.000000	39.773461
834.000000	39.816446
833.000000	39.802424
832.000000	39.713198
831.000000	39.848748
830.000000	39.881133
829.000000	39.781223
828.000000	39.778135
827.000000	39.816363
826.000000	39.819201
825.000000	39.775798
824.000000	39.834642
823.000000	39.759939
822.000000	39.789486
821.000000	39.791740
820.000000	39.809018
819.000000	39.814443
818.000000	39.745833
817.000000	39.812440
816.000000	39.779053
815.000000	39.729641
814.000000	39.691747
813.000000	39.753095
812.000000	39.755015
811.000000	39.716870
810.000000	39.735650
809.000000	39.665538
808.000000	39.638829
807.000000	39.560788
806.000000	39.571305
805.000000	39.466804
804.000000	39.390933
803.000000	39.409296
802.000000	39.336262
801.000000	39.276500
800.000000	39.256134
799.000000	39.255634
798.000000	39.176591
797.000000	39.173502
796.000000	39.142286
795.000000	39.063326
794.000000	39.025599
793.000000	39.024097
792.000000	38.971096
791.000000	38.906242
790.000000	38.853241
789.000000	38.853241
788.000000	38.780291
787.000000	38.757337
786.000000	38.716940
785.000000	38.666025
784.000000	38.667778
783.000000	38.553428
782.000000	38.470796
781.000000	38.435657
780.000000	38.392755
779.000000	38.361705
778.000000	38.331490
777.000000	38.259125
776.000000	38.218143
775.000000	38.169649
774.000000	38.113392
773.000000	38.034182
772.000000	37.988693
771.000000	37.946459
770.000000	37.872841
769.000000	37.816751
768.000000	37.782947
767.000000	37.720765
766.000000	37.612258
765.000000	37.536136
764.000000	37.495488
763.000000	37.452085
762.000000	37.385062
761.000000	37.313614
760.000000	37.275386
759.000000	37.212286
758.000000	37.118553
757.000000	37.057622
756.000000	36.986675
755.000000	36.908467
754.000000	36.847954
753.000000	36.788609
752.000000	36.742535
751.000000	36.678182
750.000000	36.625515
749.000000	36.586870
748.000000	36.568591
747.000000	36.524103
746.000000	36.434376
745.000000	36.398235
744.000000	36.362094
743.000000	36.294152
742.000000	36.221035
741.000000	36.200920
740.000000	36.131142
739.000000	36.016709
738.000000	35.960703
737.000000	35.920722
736.000000	35.851612
735.000000	35.781333
734.000000	35.723824
733.000000	35.671741
732.000000	35.621494
731.000000	35.568743
730.000000	35.542702
729.000000	35.467164
728.000000	35.423511
727.000000	35.398638
726.000000	35.323268
725.000000	35.251904
724.000000	35.206999
723.000000	35.134800
722.000000	35.090312
721.000000	35.072033
720.000000	35.029381
719.000000	34.959436
718.000000	34.942326
717.000000	34.889825
716.000000	34.825556
715.000000	34.764625
714.000000	34.734494
713.000000	34.643265
712.000000	34.550283
711.000000	34.465564
710.000000	34.420325
709.000000	34.372833
708.000000	34.268917
707.000000	34.206483
706.000000	34.122516
705.000000	34.031287
704.000000	33.975865
703.000000	33.912848
702.000000	33.835641
701.000000	33.758601
700.000000	33.673883
699.000000	33.609112
698.000000	33.550352
697.000000	33.477819
696.000000	33.415804
695.000000	33.328664
694.000000	33.307881
693.000000	33.265647
692.000000	33.194283
691.000000	33.119330
690.000000	33.062239
689.000000	33.019921
688.000000	32.976018
687.000000	32.971928
686.000000	32.955485
685.000000	32.920178
684.000000	32.890047
683.000000	32.849482
682.000000	32.813341
681.000000	32.784962
680.000000	32.772275
679.000000	32.762092
678.000000	32.741309
677.000000	32.753996
676.000000	32.710176
675.000000	32.664770
674.000000	32.646491
673.000000	32.643820
672.000000	32.603923
671.000000	32.562440
670.000000	32.550504
669.000000	32.525381
668.000000	32.493997
667.000000	32.472797
666.000000	32.409446
665.000000	32.343924
664.000000	32.327648
663.000000	32.248772
662.000000	32.190596
661.000000	32.152201
660.000000	32.084426
659.000000	31.987939
658.000000	31.890366
657.000000	31.805564
656.000000	31.759491
655.000000	31.677276
654.000000	31.582792
653.000000	31.537386
652.000000	31.432552
651.000000	31.330806
650.000000	31.237156
649.000000	31.106197
648.000000	31.027321
647.000000	30.925575
646.000000	30.827168
645.000000	30.710481
644.000000	30.597968
643.000000	30.481449
642.000000	30.378618
641.000000	30.261347
640.000000	30.138735
639.000000	30.027140
638.000000	29.943506
637.000000	29.850608
636.000000	29.774069
635.000000	29.716811
634.000000	29.666397
633.000000	29.630339
632.000000	29.616317
631.000000	29.632760
630.000000	29.626500
629.000000	29.665395
628.000000	29.685844
627.000000	29.736008
626.000000	29.785837
625.000000	29.879654
624.000000	29.944675
623.000000	30.063281
622.000000	30.207010
621.000000	30.362509
620.000000	30.492550
619.000000	30.651220
618.000000	30.775919
617.000000	30.960130
616.000000	31.122056
615.000000	31.278889
614.000000	31.408931
613.000000	31.565264
612.000000	31.773179
611.000000	31.930597
610.000000	32.111720
609.000000	32.241260
608.000000	32.378980
607.000000	32.502595
606.000000	32.664436
605.000000	32.838798
604.000000	33.022175
603.000000	33.197622
602.000000	33.349614
601.000000	33.579398
600.000000	33.772457
599.000000	33.970940
598.000000	34.182529
597.000000	34.378258
596.000000	34.591098
595.000000	34.811283
594.000000	35.005677
593.000000	35.223108
592.000000	35.400975
591.000000	35.575587
590.000000	35.742437
589.000000	35.922892
588.000000	36.065203
587.000000	36.211520
586.000000	36.310845
585.000000	36.393227
584.000000	36.510999
583.000000	36.629688
582.000000	36.706895
581.000000	36.813148
580.000000	36.959131
579.000000	37.021230
578.000000	37.165628
577.000000	37.285319
576.000000	37.387983
575.000000	37.493318
574.000000	37.598903
573.000000	37.728110
572.000000	37.837451
571.000000	37.951967
570.000000	38.062978
569.000000	38.137597
568.000000	38.251279
567.000000	38.290341
566.000000	38.321641
565.000000	38.335831
564.000000	38.287837
563.000000	38.227825
562.000000	38.222566
561.000000	38.203619
560.000000	38.174573
559.000000	38.357365
558.000000	38.308203
557.000000	38.214721
556.000000	38.142939
555.000000	38.080005
554.000000	37.999794
553.000000	37.872090
552.000000	37.780360
551.000000	37.674107
550.000000	37.559591
549.000000	37.392574
548.000000	37.220382
547.000000	37.072396
546.000000	36.854965
545.000000	36.644462
544.000000	36.408084
543.000000	36.147000
542.000000	35.824902
541.000000	35.492955
540.000000	35.210421
539.000000	34.834988
538.000000	34.475997
537.000000	34.098644
536.000000	33.710191
535.000000	33.283258
534.000000	32.866175
533.000000	32.420630
532.000000	31.981262
531.000000	31.515017
530.000000	31.026904
529.000000	30.554733
528.000000	30.072379
527.000000	29.581344
526.000000	29.070528
525.000000	28.538595
524.000000	28.013089
523.000000	27.495011
522.000000	26.978602
521.000000	26.455600
520.000000	25.931847
519.000000	25.434552
518.000000	24.932584
517.000000	24.444804
516.000000	23.948845
515.000000	23.460899
514.000000	22.990898
513.000000	22.516724
512.000000	22.078524
511.000000	21.654346
510.000000	21.241770
509.000000	20.815005
508.000000	20.392831
507.000000	20.009969
506.000000	19.647139
505.000000	19.272541
504.000000	18.907791
503.000000	18.550888
502.000000	18.220109
501.000000	17.881485
500.000000	17.545699
499.000000	17.220179
498.000000	16.926042
497.000000	16.631405
496.000000	16.333178
495.000000	16.044216
494.000000	15.791229
493.000000	15.525554
492.000000	15.262551
491.000000	15.006141
490.000000	14.747895
489.000000	14.505508
488.000000	14.265208
487.000000	14.024657
486.000000	13.797377
485.000000	13.558245
484.000000	13.326374
483.000000	13.106440
482.000000	12.879994
481.000000	12.638275
480.000000	12.396472
479.000000	12.181629
478.000000	11.993996
477.000000	11.817046
476.000000	11.656790
475.000000	11.499622
474.000000	11.342121
473.000000	11.196388
472.000000	11.062841
471.000000	10.928293
470.000000	10.794579
469.000000	10.674471
468.000000	10.560205
467.000000	10.449862
466.000000	10.342273
465.000000	10.246036
464.000000	10.160733
463.000000	10.074262
462.000000	9.996972
461.000000	9.932702
460.000000	9.868516
459.000000	9.811008
458.000000	9.755670
457.000000	9.704087
456.000000	9.662604
455.000000	9.612190
454.000000	9.568537
453.000000	9.534399
452.000000	9.486573
451.000000	9.452602
450.000000	9.424641
449.000000	9.385328
448.000000	9.341842
447.000000	9.303781
446.000000	9.268808
445.000000	9.230831
444.000000	9.206876
443.000000	9.163724
442.000000	9.097368
441.000000	9.043114
440.000000	8.996039
439.000000	8.947378
438.000000	8.904393
437.000000	8.859571
436.000000	8.795886
435.000000	8.739463
434.000000	8.685543
433.000000	8.635714
432.000000	8.587720
431.000000	8.535887
430.000000	8.484472
429.000000	8.421622
428.000000	8.371959
427.000000	8.315035
426.000000	8.255857
425.000000	8.206361
424.000000	8.148685
423.000000	8.088840
422.000000	8.016474
421.000000	7.949450
420.000000	7.892693
419.000000	7.817573
418.000000	7.741451
417.000000	7.676181
416.000000	7.599057
415.000000	7.520766
414.000000	7.443642
413.000000	7.359842
412.000000	7.274038
411.000000	7.181974
410.000000	7.079477
409.000000	6.986996
408.000000	6.888339
407.000000	6.796525
406.000000	6.703293
405.000000	6.599126
404.000000	6.499718
403.000000	6.392296
402.000000	6.282287
401.000000	6.177536
400.000000	6.081383
399.000000	5.978969
398.000000	5.870045
397.000000	5.763291
396.000000	5.665134
395.000000	5.570984
394.000000	5.473411
393.000000	5.373836
392.000000	5.265830
391.000000	5.177689
390.000000	5.084123
389.000000	4.992142
388.000000	4.903250
387.000000	4.821203
386.000000	4.749171
385.000000	4.669043
384.000000	4.592170
383.000000	4.520556
382.000000	4.443933
381.000000	4.379163
380.000000	4.322740
379.000000	4.259138
378.000000	4.197706
377.000000	4.147960
376.000000	4.157976
375.000000	4.192949
374.000000	4.096962
373.000000	4.062991
372.000000	3.986118
371.000000	3.926356
370.000000	3.899647
369.000000	3.882870
368.000000	3.881785
367.000000	3.832206
366.000000	3.823776
365.000000	3.763012
364.000000	3.770441
363.000000	3.724367
362.000000	3.688560
361.000000	3.644489
360.000000	3.620952
359.000000	3.638480
358.000000	3.615192
357.000000	3.616444
356.000000	3.607514
355.000000	3.542910
354.000000	3.569035
353.000000	3.564695
352.000000	3.553844
351.000000	3.576047
350.000000	3.572791
349.000000	3.546833
348.000000	3.505851
347.000000	3.494667
346.000000	3.486821
345.000000	3.505517
344.000000	3.494166
343.000000	3.475219
342.000000	3.466455
341.000000	3.472464
340.000000	3.463700
339.000000	3.426641
338.000000	3.446840
337.000000	3.448927
336.000000	3.498756
335.000000	3.507354
334.000000	3.446256
333.000000	3.422969
332.000000	3.416542
331.000000	3.460195
330.000000	3.415457
329.000000	3.442083
328.000000	3.432901
327.000000	3.448510
326.000000	3.455938
325.000000	3.480060
324.000000	3.438827
323.000000	3.316465
322.000000	3.490243
321.000000	3.473132
320.000000	3.400934
319.000000	3.423136
318.000000	3.488907
317.000000	3.457607
316.000000	3.395759
315.000000	3.374141
314.000000	3.378564
313.000000	3.364876
312.000000	3.394924
311.000000	3.393422
310.000000	3.395258
309.000000	3.392336
308.000000	3.380317
307.000000	3.396009
306.000000	3.387662
305.000000	3.384908
304.000000	3.373974
303.000000	3.397511
302.000000	3.395675
301.000000	3.393338
300.000000	3.398096
299.000000	3.380067
298.000000	3.365878
297.000000	3.366295
296.000000	3.377229
295.000000	3.364542
294.000000	3.368298
293.000000	3.392336
292.000000	3.393422
291.000000	3.356028
290.000000	3.378648
289.000000	3.379650
288.000000	3.392754
287.000000	3.376645
286.000000	3.393922
285.000000	3.395341
284.000000	3.360786
283.000000	3.386911
282.000000	3.380067
281.000000	3.381569
280.000000	3.387078
279.000000	3.394173
278.000000	3.394089
277.000000	3.384407
276.000000	3.430731
275.000000	3.399682
274.000000	3.452432
273.000000	3.435990
272.000000	3.478224
271.000000	3.474551
270.000000	3.476220
269.000000	3.468625
268.000000	3.468959
267.000000	3.513447
266.000000	3.512528
265.000000	3.522628
264.000000	3.514031
263.000000	3.559186
262.000000	3.578050
261.000000	3.583392
260.000000	3.580637
259.000000	3.631802
258.000000	3.607096
257.000000	3.647995
256.000000	3.623456
255.000000	3.671282
254.000000	3.673953
253.000000	3.691982
252.000000	3.716771
251.000000	3.733799
250.000000	3.706422
