PE UV       SUBTECH     SPECTRUM    ASCII       PEDS        4.00        
   -1
CICIMAUCR0009-3.Sample.ASC
24/04/17
14:06:27.00
24/04/17
14:06:27.00
Vinicio Soto Monge
C. kalinini
250,000000
1
Lambda 1050
1050L1511233
PerkinElmer UV WinLab 6.3.2.0749 / 2.02.05 Lambda 900 UV/VIS/NIR, Aug  7 2015 09:38:08

0
0
3350/servo 860,8/2
0
0
UV/VIS
1
1
1
DoubleDePol,CommonBeamDepol,RBeamAtt,SBeamAtt,60mm sphere, WB InGaAs Detector
0
0
0
0
Program
Program
3350/servo 860,8/2
3350/0,2 860,8/0,2
3350/0,2 860,8/0,2
0
15.00
 
 
 
0
 
860,8
319,2
860,8
Front
100
on
S:100 R:100
0
0
0
0
 
0
 
 
 
0
 
 
0
0
0
0
0
 
 
 
 
0
0


0
0
#HDR
-1
-1
#GR
nm
%R
1.0
0.0
2500,000000
-1,000000
2251
8
78,444600
4,431300
#DATA
2500.000000	9.641800
2499.000000	9.611200
2498.000000	9.573300
2497.000000	9.525200
2496.000000	9.517800
2495.000000	9.543600
2494.000000	9.414300
2493.000000	9.351500
2492.000000	9.366600
2491.000000	9.307000
2490.000000	9.274900
2489.000000	9.313900
2488.000000	9.268000
2487.000000	9.286400
2486.000000	9.261300
2485.000000	9.253500
2484.000000	9.228000
2483.000000	9.252200
2482.000000	9.278100
2481.000000	9.221400
2480.000000	9.203700
2479.000000	9.266500
2478.000000	9.237900
2477.000000	9.236300
2476.000000	9.224900
2475.000000	9.219100
2474.000000	9.260500
2473.000000	9.245200
2472.000000	9.250800
2471.000000	9.247200
2470.000000	9.283400
2469.000000	9.236300
2468.000000	9.265700
2467.000000	9.264700
2466.000000	9.310800
2465.000000	9.345700
2464.000000	9.378500
2463.000000	9.426500
2462.000000	9.447300
2461.000000	9.489900
2460.000000	9.530600
2459.000000	9.613400
2458.000000	9.669700
2457.000000	9.748200
2456.000000	9.821500
2455.000000	9.898000
2454.000000	9.998100
2453.000000	10.093400
2452.000000	10.154200
2451.000000	10.246500
2450.000000	10.321000
2449.000000	10.435700
2448.000000	10.516200
2447.000000	10.629600
2446.000000	10.722600
2445.000000	10.791400
2444.000000	10.888000
2443.000000	10.965800
2442.000000	11.058600
2441.000000	11.136100
2440.000000	11.247300
2439.000000	11.310900
2438.000000	11.390200
2437.000000	11.473800
2436.000000	11.550100
2435.000000	11.626500
2434.000000	11.695000
2433.000000	11.768100
2432.000000	11.825100
2431.000000	11.865400
2430.000000	11.942400
2429.000000	11.992500
2428.000000	12.037800
2427.000000	12.096200
2426.000000	12.131100
2425.000000	12.192400
2424.000000	12.213600
2423.000000	12.259700
2422.000000	12.301800
2421.000000	12.334200
2420.000000	12.373000
2419.000000	12.403000
2418.000000	12.445500
2417.000000	12.500700
2416.000000	12.524900
2415.000000	12.567800
2414.000000	12.591200
2413.000000	12.641000
2412.000000	12.685700
2411.000000	12.721900
2410.000000	12.739800
2409.000000	12.761900
2408.000000	12.798700
2407.000000	12.838900
2406.000000	12.879200
2405.000000	12.904900
2404.000000	12.932600
2403.000000	12.964800
2402.000000	13.005300
2401.000000	13.030500
2400.000000	13.054100
2399.000000	13.086000
2398.000000	13.129400
2397.000000	13.173200
2396.000000	13.226700
2395.000000	13.245000
2394.000000	13.268900
2393.000000	13.310700
2392.000000	13.345800
2391.000000	13.353900
2390.000000	13.372000
2389.000000	13.394500
2388.000000	13.420200
2387.000000	13.424400
2386.000000	13.432900
2385.000000	13.436700
2384.000000	13.432600
2383.000000	13.437800
2382.000000	13.436800
2381.000000	13.408700
2380.000000	13.396700
2379.000000	13.385800
2378.000000	13.360000
2377.000000	13.347200
2376.000000	13.335500
2375.000000	13.316800
2374.000000	13.278500
2373.000000	13.229100
2372.000000	13.197400
2371.000000	13.179700
2370.000000	13.139500
2369.000000	13.097600
2368.000000	13.047800
2367.000000	12.981600
2366.000000	12.913100
2365.000000	12.856100
2364.000000	12.795100
2363.000000	12.714400
2362.000000	12.645800
2361.000000	12.577100
2360.000000	12.497800
2359.000000	12.430700
2358.000000	12.360100
2357.000000	12.296500
2356.000000	12.251500
2355.000000	12.209500
2354.000000	12.197700
2353.000000	12.188600
2352.000000	12.178100
2351.000000	12.182000
2350.000000	12.209200
2349.000000	12.256300
2348.000000	12.302300
2347.000000	12.353100
2346.000000	12.409400
2345.000000	12.453800
2344.000000	12.504700
2343.000000	12.570400
2342.000000	12.613700
2341.000000	12.654100
2340.000000	12.688700
2339.000000	12.706500
2338.000000	12.743800
2337.000000	12.744000
2336.000000	12.721300
2335.000000	12.719000
2334.000000	12.715400
2333.000000	12.691500
2332.000000	12.627500
2331.000000	12.575600
2330.000000	12.528100
2329.000000	12.478800
2328.000000	12.415500
2327.000000	12.332200
2326.000000	12.244600
2325.000000	12.156300
2324.000000	12.057700
2323.000000	11.946900
2322.000000	11.821600
2321.000000	11.708600
2320.000000	11.581100
2319.000000	11.441100
2318.000000	11.294900
2317.000000	11.145700
2316.000000	11.005900
2315.000000	10.847400
2314.000000	10.697600
2313.000000	10.579100
2312.000000	10.457400
2311.000000	10.345700
2310.000000	10.249300
2309.000000	10.150200
2308.000000	10.109400
2307.000000	10.086300
2306.000000	10.079400
2305.000000	10.094000
2304.000000	10.136300
2303.000000	10.186000
2302.000000	10.258300
2301.000000	10.365400
2300.000000	10.485600
2299.000000	10.581500
2298.000000	10.686000
2297.000000	10.818200
2296.000000	10.940000
2295.000000	11.037900
2294.000000	11.134400
2293.000000	11.208200
2292.000000	11.274000
2291.000000	11.342200
2290.000000	11.360800
2289.000000	11.384500
2288.000000	11.381200
2287.000000	11.375100
2286.000000	11.337200
2285.000000	11.318800
2284.000000	11.286100
2283.000000	11.233700
2282.000000	11.165500
2281.000000	11.117400
2280.000000	11.071800
2279.000000	11.004500
2278.000000	10.966200
2277.000000	10.910000
2276.000000	10.858800
2275.000000	10.822100
2274.000000	10.799200
2273.000000	10.775400
2272.000000	10.771900
2271.000000	10.775000
2270.000000	10.824200
2269.000000	10.876500
2268.000000	10.974500
2267.000000	11.059300
2266.000000	11.196000
2265.000000	11.342000
2264.000000	11.530100
2263.000000	11.729700
2262.000000	11.961100
2261.000000	12.225100
2260.000000	12.485900
2259.000000	12.775900
2258.000000	13.075200
2257.000000	13.407400
2256.000000	13.682700
2255.000000	14.006300
2254.000000	14.301400
2253.000000	14.603900
2252.000000	14.901100
2251.000000	15.148500
2250.000000	15.391000
2249.000000	15.620600
2248.000000	15.853600
2247.000000	16.068900
2246.000000	16.282400
2245.000000	16.439000
2244.000000	16.593100
2243.000000	16.758100
2242.000000	16.910900
2241.000000	17.043200
2240.000000	17.155300
2239.000000	17.253100
2238.000000	17.401700
2237.000000	17.451700
2236.000000	17.544700
2235.000000	17.613700
2234.000000	17.649200
2233.000000	17.740900
2232.000000	17.752800
2231.000000	17.816400
2230.000000	17.828900
2229.000000	17.856500
2228.000000	17.850200
2227.000000	17.887000
2226.000000	17.876100
2225.000000	17.837400
2224.000000	17.824700
2223.000000	17.823900
2222.000000	17.799100
2221.000000	17.757200
2220.000000	17.732000
2219.000000	17.694400
2218.000000	17.635900
2217.000000	17.596500
2216.000000	17.553800
2215.000000	17.544100
2214.000000	17.487400
2213.000000	17.460600
2212.000000	17.432800
2211.000000	17.375700
2210.000000	17.329700
2209.000000	17.322200
2208.000000	17.266800
2207.000000	17.248000
2206.000000	17.215900
2205.000000	17.205900
2204.000000	17.177000
2203.000000	17.168800
2202.000000	17.146000
2201.000000	17.132700
2200.000000	17.125300
2199.000000	17.092800
2198.000000	17.079000
2197.000000	17.063300
2196.000000	17.052000
2195.000000	17.039200
2194.000000	17.016300
2193.000000	17.011200
2192.000000	17.012300
2191.000000	16.999600
2190.000000	16.981600
2189.000000	16.976500
2188.000000	16.942800
2187.000000	16.933000
2186.000000	16.911100
2185.000000	16.897000
2184.000000	16.888500
2183.000000	16.862200
2182.000000	16.848100
2181.000000	16.824200
2180.000000	16.803200
2179.000000	16.780000
2178.000000	16.777600
2177.000000	16.750600
2176.000000	16.739500
2175.000000	16.745800
2174.000000	16.735300
2173.000000	16.739400
2172.000000	16.744000
2171.000000	16.765200
2170.000000	16.764700
2169.000000	16.779100
2168.000000	16.785100
2167.000000	16.813500
2166.000000	16.828300
2165.000000	16.831800
2164.000000	16.846000
2163.000000	16.878300
2162.000000	16.913000
2161.000000	16.949400
2160.000000	16.973700
2159.000000	17.002200
2158.000000	17.054700
2157.000000	17.105900
2156.000000	17.152200
2155.000000	17.199600
2154.000000	17.242400
2153.000000	17.314800
2152.000000	17.363600
2151.000000	17.410000
2150.000000	17.492100
2149.000000	17.545700
2148.000000	17.595300
2147.000000	17.664700
2146.000000	17.717900
2145.000000	17.766500
2144.000000	17.824800
2143.000000	17.867600
2142.000000	17.908500
2141.000000	17.961000
2140.000000	18.015300
2139.000000	18.057200
2138.000000	18.098800
2137.000000	18.147100
2136.000000	18.184300
2135.000000	18.231000
2134.000000	18.277600
2133.000000	18.294600
2132.000000	18.328900
2131.000000	18.356900
2130.000000	18.378200
2129.000000	18.394300
2128.000000	18.423000
2127.000000	18.440600
2126.000000	18.456800
2125.000000	18.459900
2124.000000	18.467400
2123.000000	18.477400
2122.000000	18.478700
2121.000000	18.470100
2120.000000	18.455800
2119.000000	18.459100
2118.000000	18.453200
2117.000000	18.430100
2116.000000	18.428100
2115.000000	18.412700
2114.000000	18.385000
2113.000000	18.367700
2112.000000	18.350400
2111.000000	18.336600
2110.000000	18.313700
2109.000000	18.291100
2108.000000	18.281600
2107.000000	18.257500
2106.000000	18.228300
2105.000000	18.202300
2104.000000	18.172500
2103.000000	18.157700
2102.000000	18.124300
2101.000000	18.099400
2100.000000	18.083600
2099.000000	18.069400
2098.000000	18.052600
2097.000000	18.028200
2096.000000	18.017600
2095.000000	17.988900
2094.000000	17.975700
2093.000000	17.966300
2092.000000	17.945800
2091.000000	17.943900
2090.000000	17.940600
2089.000000	17.930700
2088.000000	17.905300
2087.000000	17.890700
2086.000000	17.872800
2085.000000	17.860700
2084.000000	17.853200
2083.000000	17.834200
2082.000000	17.808000
2081.000000	17.777800
2080.000000	17.759400
2079.000000	17.727300
2078.000000	17.706900
2077.000000	17.688500
2076.000000	17.641400
2075.000000	17.604300
2074.000000	17.566200
2073.000000	17.511900
2072.000000	17.465000
2071.000000	17.432100
2070.000000	17.380800
2069.000000	17.342500
2068.000000	17.295700
2067.000000	17.268400
2066.000000	17.230900
2065.000000	17.163800
2064.000000	17.131300
2063.000000	17.104600
2062.000000	17.057300
2061.000000	17.030000
2060.000000	17.024600
2059.000000	17.015500
2058.000000	17.012500
2057.000000	17.027200
2056.000000	17.029500
2055.000000	17.073800
2054.000000	17.137900
2053.000000	17.172900
2052.000000	17.253700
2051.000000	17.338400
2050.000000	17.432100
2049.000000	17.541800
2048.000000	17.652800
2047.000000	17.800700
2046.000000	17.954100
2045.000000	18.084200
2044.000000	18.274700
2043.000000	18.431700
2042.000000	18.581000
2041.000000	18.746100
2040.000000	18.912800
2039.000000	19.075300
2038.000000	19.209200
2037.000000	19.345500
2036.000000	19.486400
2035.000000	19.627900
2034.000000	19.778000
2033.000000	19.907900
2032.000000	20.026600
2031.000000	20.132000
2030.000000	20.236000
2029.000000	20.338700
2028.000000	20.445600
2027.000000	20.553300
2026.000000	20.652800
2025.000000	20.732500
2024.000000	20.815500
2023.000000	20.877700
2022.000000	20.974900
2021.000000	21.033500
2020.000000	21.114900
2019.000000	21.171400
2018.000000	21.249300
2017.000000	21.317400
2016.000000	21.384000
2015.000000	21.432400
2014.000000	21.478400
2013.000000	21.516000
2012.000000	21.557200
2011.000000	21.576200
2010.000000	21.602700
2009.000000	21.629500
2008.000000	21.635700
2007.000000	21.644100
2006.000000	21.661100
2005.000000	21.656700
2004.000000	21.654400
2003.000000	21.658300
2002.000000	21.619600
2001.000000	21.587500
2000.000000	21.570000
1999.000000	21.562900
1998.000000	21.527400
1997.000000	21.493000
1996.000000	21.433600
1995.000000	21.399400
1994.000000	21.350200
1993.000000	21.309800
1992.000000	21.251400
1991.000000	21.165400
1990.000000	21.116300
1989.000000	21.056800
1988.000000	20.974700
1987.000000	20.898500
1986.000000	20.826600
1985.000000	20.755500
1984.000000	20.666900
1983.000000	20.615000
1982.000000	20.523400
1981.000000	20.424700
1980.000000	20.366100
1979.000000	20.286800
1978.000000	20.196000
1977.000000	20.110200
1976.000000	20.028000
1975.000000	19.949400
1974.000000	19.861400
1973.000000	19.788300
1972.000000	19.725200
1971.000000	19.629300
1970.000000	19.559000
1969.000000	19.476400
1968.000000	19.415500
1967.000000	19.334000
1966.000000	19.250600
1965.000000	19.182900
1964.000000	19.121700
1963.000000	19.027700
1962.000000	18.959200
1961.000000	18.882000
1960.000000	18.824800
1959.000000	18.750300
1958.000000	18.647100
1957.000000	18.580900
1956.000000	18.523100
1955.000000	18.436200
1954.000000	18.358200
1953.000000	18.296600
1952.000000	18.221300
1951.000000	18.134800
1950.000000	18.086100
1949.000000	18.021800
1948.000000	17.983900
1947.000000	17.909700
1946.000000	17.856600
1945.000000	17.817600
1944.000000	17.760300
1943.000000	17.734100
1942.000000	17.731300
1941.000000	17.702300
1940.000000	17.678800
1939.000000	17.695300
1938.000000	17.706800
1937.000000	17.713000
1936.000000	17.725300
1935.000000	17.756500
1934.000000	17.798200
1933.000000	17.877100
1932.000000	17.915200
1931.000000	18.003500
1930.000000	18.076500
1929.000000	18.164800
1928.000000	18.277900
1927.000000	18.391000
1926.000000	18.513400
1925.000000	18.654700
1924.000000	18.777000
1923.000000	18.909900
1922.000000	19.066200
1921.000000	19.272800
1920.000000	19.473400
1919.000000	19.664000
1918.000000	19.848100
1917.000000	20.058100
1916.000000	20.242000
1915.000000	20.441900
1914.000000	20.712000
1913.000000	20.988900
1912.000000	21.268600
1911.000000	21.511400
1910.000000	21.760900
1909.000000	21.963200
1908.000000	22.196600
1907.000000	22.452700
1906.000000	22.780200
1905.000000	23.141600
1904.000000	23.469300
1903.000000	23.758700
1902.000000	24.040500
1901.000000	24.342500
1900.000000	24.669000
1899.000000	25.017700
1898.000000	25.322700
1897.000000	25.653600
1896.000000	25.921200
1895.000000	26.154100
1894.000000	26.425600
1893.000000	26.704000
1892.000000	27.042200
1891.000000	27.401800
1890.000000	27.705000
1889.000000	27.976700
1888.000000	28.274800
1887.000000	28.556000
1886.000000	28.875800
1885.000000	29.243600
1884.000000	29.646700
1883.000000	30.057300
1882.000000	30.463600
1881.000000	30.833200
1880.000000	31.236800
1879.000000	31.585500
1878.000000	31.944800
1877.000000	32.298500
1876.000000	32.617100
1875.000000	32.929500
1874.000000	33.212500
1873.000000	33.481400
1872.000000	33.716800
1871.000000	33.934400
1870.000000	34.116500
1869.000000	34.267300
1868.000000	34.404900
1867.000000	34.481800
1866.000000	34.502500
1865.000000	34.518700
1864.000000	34.544000
1863.000000	34.552100
1862.000000	34.591700
1861.000000	34.635700
1860.000000	34.672900
1859.000000	34.708100
1858.000000	34.733300
1857.000000	34.705400
1856.000000	34.654300
1855.000000	34.627600
1854.000000	34.620800
1853.000000	34.559400
1852.000000	34.501600
1851.000000	34.456900
1850.000000	34.394100
1849.000000	34.356800
1848.000000	34.356500
1847.000000	34.342000
1846.000000	34.252600
1845.000000	34.160200
1844.000000	34.076900
1843.000000	34.017700
1842.000000	34.016700
1841.000000	34.030800
1840.000000	34.022500
1839.000000	33.972700
1838.000000	33.917100
1837.000000	33.862900
1836.000000	33.823600
1835.000000	33.764700
1834.000000	33.673900
1833.000000	33.569800
1832.000000	33.476400
1831.000000	33.409800
1830.000000	33.363300
1829.000000	33.308100
1828.000000	33.219000
1827.000000	33.145200
1826.000000	33.086300
1825.000000	33.022800
1824.000000	32.976600
1823.000000	32.917300
1822.000000	32.910800
1821.000000	32.938200
1820.000000	32.936400
1819.000000	32.918800
1818.000000	32.875200
1817.000000	32.826900
1816.000000	32.822200
1815.000000	32.812100
1814.000000	32.802800
1813.000000	32.803300
1812.000000	32.781000
1811.000000	32.758600
1810.000000	32.717400
1809.000000	32.672300
1808.000000	32.632700
1807.000000	32.607600
1806.000000	32.577500
1805.000000	32.512600
1804.000000	32.469500
1803.000000	32.449000
1802.000000	32.409100
1801.000000	32.372900
1800.000000	32.316700
1799.000000	32.256400
1798.000000	32.224200
1797.000000	32.187500
1796.000000	32.136200
1795.000000	32.094900
1794.000000	32.055900
1793.000000	32.011300
1792.000000	31.964800
1791.000000	31.916600
1790.000000	31.864100
1789.000000	31.822200
1788.000000	31.764800
1787.000000	31.712800
1786.000000	31.661600
1785.000000	31.616200
1784.000000	31.543300
1783.000000	31.467900
1782.000000	31.403000
1781.000000	31.348600
1780.000000	31.272000
1779.000000	31.192200
1778.000000	31.121600
1777.000000	31.041000
1776.000000	30.925300
1775.000000	30.819700
1774.000000	30.700700
1773.000000	30.586200
1772.000000	30.458700
1771.000000	30.326400
1770.000000	30.215000
1769.000000	30.110700
1768.000000	30.003500
1767.000000	29.918400
1766.000000	29.811800
1765.000000	29.750700
1764.000000	29.707200
1763.000000	29.688900
1762.000000	29.692400
1761.000000	29.739000
1760.000000	29.778300
1759.000000	29.831800
1758.000000	29.891100
1757.000000	29.960200
1756.000000	30.012800
1755.000000	30.039600
1754.000000	30.058200
1753.000000	30.052500
1752.000000	30.047900
1751.000000	30.015200
1750.000000	29.966600
1749.000000	29.910600
1748.000000	29.828300
1747.000000	29.748700
1746.000000	29.651700
1745.000000	29.507800
1744.000000	29.361800
1743.000000	29.186000
1742.000000	29.002400
1741.000000	28.776500
1740.000000	28.539700
1739.000000	28.322000
1738.000000	28.117800
1737.000000	27.948100
1736.000000	27.804400
1735.000000	27.692700
1734.000000	27.654600
1733.000000	27.639300
1732.000000	27.675600
1731.000000	27.725400
1730.000000	27.837500
1729.000000	27.914300
1728.000000	28.036400
1727.000000	28.127300
1726.000000	28.213800
1725.000000	28.278800
1724.000000	28.326200
1723.000000	28.369900
1722.000000	28.395400
1721.000000	28.424800
1720.000000	28.451100
1719.000000	28.511000
1718.000000	28.563700
1717.000000	28.617000
1716.000000	28.700200
1715.000000	28.786900
1714.000000	28.885400
1713.000000	28.956200
1712.000000	28.990700
1711.000000	29.029000
1710.000000	29.076600
1709.000000	29.093600
1708.000000	29.110600
1707.000000	29.096900
1706.000000	29.083800
1705.000000	29.050800
1704.000000	28.979100
1703.000000	28.925500
1702.000000	28.833300
1701.000000	28.696200
1700.000000	28.562000
1699.000000	28.413700
1698.000000	28.267200
1697.000000	28.142700
1696.000000	28.079800
1695.000000	28.059800
1694.000000	28.095400
1693.000000	28.157600
1692.000000	28.294500
1691.000000	28.444200
1690.000000	28.556900
1689.000000	28.664100
1688.000000	28.750700
1687.000000	28.763600
1686.000000	28.788400
1685.000000	28.813900
1684.000000	28.917300
1683.000000	29.094200
1682.000000	29.390800
1681.000000	29.785900
1680.000000	30.267000
1679.000000	30.812400
1678.000000	31.283900
1677.000000	31.771400
1676.000000	32.181600
1675.000000	32.552900
1674.000000	32.869000
1673.000000	33.153500
1672.000000	33.400900
1671.000000	33.623400
1670.000000	33.811400
1669.000000	33.989300
1668.000000	34.130800
1667.000000	34.298800
1666.000000	34.412100
1665.000000	34.502200
1664.000000	34.595200
1663.000000	34.671200
1662.000000	34.748900
1661.000000	34.845500
1660.000000	34.892600
1659.000000	34.921700
1658.000000	34.944900
1657.000000	34.981900
1656.000000	35.003400
1655.000000	35.019700
1654.000000	35.039700
1653.000000	35.023800
1652.000000	35.015800
1651.000000	35.007000
1650.000000	34.997400
1649.000000	34.980000
1648.000000	34.945900
1647.000000	34.896900
1646.000000	34.877800
1645.000000	34.844400
1644.000000	34.782700
1643.000000	34.759500
1642.000000	34.705500
1641.000000	34.658000
1640.000000	34.626400
1639.000000	34.570400
1638.000000	34.527600
1637.000000	34.471400
1636.000000	34.416300
1635.000000	34.377100
1634.000000	34.301800
1633.000000	34.251800
1632.000000	34.188200
1631.000000	34.124400
1630.000000	34.047100
1629.000000	33.993700
1628.000000	33.941800
1627.000000	33.884900
1626.000000	33.800600
1625.000000	33.737900
1624.000000	33.668200
1623.000000	33.612500
1622.000000	33.558200
1621.000000	33.489500
1620.000000	33.418600
1619.000000	33.363800
1618.000000	33.303300
1617.000000	33.238000
1616.000000	33.186400
1615.000000	33.139800
1614.000000	33.084700
1613.000000	33.003800
1612.000000	32.944400
1611.000000	32.891700
1610.000000	32.842500
1609.000000	32.779500
1608.000000	32.728500
1607.000000	32.665000
1606.000000	32.600900
1605.000000	32.544200
1604.000000	32.480900
1603.000000	32.432200
1602.000000	32.384800
1601.000000	32.317900
1600.000000	32.247400
1599.000000	32.195400
1598.000000	32.152400
1597.000000	32.089300
1596.000000	32.029700
1595.000000	31.978100
1594.000000	31.941200
1593.000000	31.907100
1592.000000	31.863000
1591.000000	31.814700
1590.000000	31.772300
1589.000000	31.740600
1588.000000	31.710900
1587.000000	31.667000
1586.000000	31.632500
1585.000000	31.603900
1584.000000	31.572600
1583.000000	31.551200
1582.000000	31.526300
1581.000000	31.516000
1580.000000	31.497700
1579.000000	31.479400
1578.000000	31.478500
1577.000000	31.473100
1576.000000	31.471600
1575.000000	31.487400
1574.000000	31.496800
1573.000000	31.497100
1572.000000	31.511900
1571.000000	31.524200
1570.000000	31.538900
1569.000000	31.574000
1568.000000	31.585900
1567.000000	31.605800
1566.000000	31.650500
1565.000000	31.677600
1564.000000	31.702200
1563.000000	31.737600
1562.000000	31.766800
1561.000000	31.780700
1560.000000	31.786400
1559.000000	31.790700
1558.000000	31.809800
1557.000000	31.823400
1556.000000	31.818300
1555.000000	31.822300
1554.000000	31.820300
1553.000000	31.817800
1552.000000	31.810600
1551.000000	31.791400
1550.000000	31.774400
1549.000000	31.764400
1548.000000	31.751300
1547.000000	31.736400
1546.000000	31.719700
1545.000000	31.701600
1544.000000	31.702900
1543.000000	31.696800
1542.000000	31.697000
1541.000000	31.688700
1540.000000	31.685200
1539.000000	31.688500
1538.000000	31.699100
1537.000000	31.700800
1536.000000	31.697000
1535.000000	31.689600
1534.000000	31.673400
1533.000000	31.656000
1532.000000	31.660600
1531.000000	31.649100
1530.000000	31.641600
1529.000000	31.627800
1528.000000	31.608600
1527.000000	31.594800
1526.000000	31.571200
1525.000000	31.556400
1524.000000	31.529500
1523.000000	31.526400
1522.000000	31.508600
1521.000000	31.485800
1520.000000	31.457600
1519.000000	31.439300
1518.000000	31.414700
1517.000000	31.377600
1516.000000	31.361200
1515.000000	31.336600
1514.000000	31.311800
1513.000000	31.287600
1512.000000	31.250000
1511.000000	31.218600
1510.000000	31.192600
1509.000000	31.182600
1508.000000	31.158100
1507.000000	31.100200
1506.000000	31.094300
1505.000000	31.067100
1504.000000	31.045200
1503.000000	31.020400
1502.000000	31.004500
1501.000000	30.989100
1500.000000	30.967300
1499.000000	30.970100
1498.000000	30.958300
1497.000000	30.945700
1496.000000	30.957700
1495.000000	30.965700
1494.000000	30.964000
1493.000000	30.970300
1492.000000	30.986800
1491.000000	30.996100
1490.000000	31.026500
1489.000000	31.036600
1488.000000	31.068300
1487.000000	31.078900
1486.000000	31.083400
1485.000000	31.103500
1484.000000	31.133100
1483.000000	31.161100
1482.000000	31.194400
1481.000000	31.231900
1480.000000	31.259800
1479.000000	31.283600
1478.000000	31.319000
1477.000000	31.363800
1476.000000	31.402100
1475.000000	31.448700
1474.000000	31.491500
1473.000000	31.547500
1472.000000	31.587000
1471.000000	31.653600
1470.000000	31.687800
1469.000000	31.719900
1468.000000	31.759600
1467.000000	31.820000
1466.000000	31.861800
1465.000000	31.930100
1464.000000	31.977300
1463.000000	32.034700
1462.000000	32.100900
1461.000000	32.174100
1460.000000	32.243900
1459.000000	32.289400
1458.000000	32.392200
1457.000000	32.474100
1456.000000	32.561800
1455.000000	32.657300
1454.000000	32.751900
1453.000000	32.853700
1452.000000	32.962500
1451.000000	33.065800
1450.000000	33.169200
1449.000000	33.254500
1448.000000	33.317000
1447.000000	33.451800
1446.000000	33.575000
1445.000000	33.699200
1444.000000	33.804400
1443.000000	33.885700
1442.000000	34.038400
1441.000000	34.147100
1440.000000	34.265800
1439.000000	34.388100
1438.000000	34.498800
1437.000000	34.608400
1436.000000	34.735200
1435.000000	34.821200
1434.000000	34.980200
1433.000000	35.104300
1432.000000	35.237200
1431.000000	35.358900
1430.000000	35.459500
1429.000000	35.630400
1428.000000	35.802100
1427.000000	35.942800
1426.000000	36.118600
1425.000000	36.310000
1424.000000	36.540900
1423.000000	36.722400
1422.000000	36.910700
1421.000000	37.113600
1420.000000	37.336600
1419.000000	37.575300
1418.000000	37.750700
1417.000000	37.935500
1416.000000	38.110500
1415.000000	38.297200
1414.000000	38.561500
1413.000000	38.749300
1412.000000	38.906000
1411.000000	39.095500
1410.000000	39.323300
1409.000000	39.672200
1408.000000	39.926200
1407.000000	40.232200
1406.000000	40.532100
1405.000000	40.878900
1404.000000	41.176200
1403.000000	41.513200
1402.000000	41.775100
1401.000000	42.137400
1400.000000	42.487700
1399.000000	42.726400
1398.000000	42.836900
1397.000000	43.000400
1396.000000	43.248300
1395.000000	43.476300
1394.000000	43.560700
1393.000000	43.614000
1392.000000	43.752800
1391.000000	43.875300
1390.000000	43.955200
1389.000000	44.120000
1388.000000	44.368900
1387.000000	44.573600
1386.000000	44.792900
1385.000000	45.053300
1384.000000	45.404700
1383.000000	45.658100
1382.000000	45.944500
1381.000000	46.140900
1380.000000	46.202800
1379.000000	46.276900
1378.000000	46.312200
1377.000000	46.352500
1376.000000	46.426500
1375.000000	46.552400
1374.000000	46.727500
1373.000000	46.993200
1372.000000	47.263500
1371.000000	47.571600
1370.000000	47.819500
1369.000000	48.056100
1368.000000	48.310600
1367.000000	48.517200
1366.000000	48.681400
1365.000000	48.827700
1364.000000	48.996300
1363.000000	49.088800
1362.000000	49.225800
1361.000000	49.355500
1360.000000	49.394500
1359.000000	49.410400
1358.000000	49.451900
1357.000000	49.548100
1356.000000	49.745000
1355.000000	50.066900
1354.000000	50.490200
1353.000000	50.912600
1352.000000	51.344600
1351.000000	51.802100
1350.000000	52.231500
1349.000000	52.603200
1348.000000	52.958600
1347.000000	53.301300
1346.000000	53.560600
1345.000000	53.857900
1344.000000	54.164500
1343.000000	54.411500
1342.000000	54.654900
1341.000000	54.898200
1340.000000	55.123000
1339.000000	55.338400
1338.000000	55.554800
1337.000000	55.761500
1336.000000	55.934700
1335.000000	56.117000
1334.000000	56.296100
1333.000000	56.465900
1332.000000	56.639200
1331.000000	56.782200
1330.000000	56.928700
1329.000000	57.061400
1328.000000	57.180400
1327.000000	57.293600
1326.000000	57.407000
1325.000000	57.508800
1324.000000	57.605000
1323.000000	57.686200
1322.000000	57.769600
1321.000000	57.857500
1320.000000	57.945300
1319.000000	58.011400
1318.000000	58.066900
1317.000000	58.141000
1316.000000	58.202400
1315.000000	58.257700
1314.000000	58.314900
1313.000000	58.370700
1312.000000	58.421500
1311.000000	58.448700
1310.000000	58.484600
1309.000000	58.528600
1308.000000	58.539000
1307.000000	58.550700
1306.000000	58.570100
1305.000000	58.580800
1304.000000	58.575100
1303.000000	58.554500
1302.000000	58.547800
1301.000000	58.542800
1300.000000	58.523600
1299.000000	58.491000
1298.000000	58.465700
1297.000000	58.454500
1296.000000	58.437600
1295.000000	58.411100
1294.000000	58.380700
1293.000000	58.354200
1292.000000	58.317800
1291.000000	58.277000
1290.000000	58.235500
1289.000000	58.194000
1288.000000	58.139900
1287.000000	58.082500
1286.000000	58.032200
1285.000000	57.972300
1284.000000	57.892400
1283.000000	57.808600
1282.000000	57.739300
1281.000000	57.672200
1280.000000	57.602600
1279.000000	57.531600
1278.000000	57.471500
1277.000000	57.393000
1276.000000	57.330900
1275.000000	57.284000
1274.000000	57.231700
1273.000000	57.172900
1272.000000	57.113400
1271.000000	57.067300
1270.000000	57.021500
1269.000000	56.967100
1268.000000	56.922900
1267.000000	56.879400
1266.000000	56.827200
1265.000000	56.772100
1264.000000	56.716600
1263.000000	56.668400
1262.000000	56.602900
1261.000000	56.549600
1260.000000	56.505300
1259.000000	56.455000
1258.000000	56.404800
1257.000000	56.342100
1256.000000	56.292700
1255.000000	56.240900
1254.000000	56.171600
1253.000000	56.105300
1252.000000	56.051600
1251.000000	55.993800
1250.000000	55.925100
1249.000000	55.835300
1248.000000	55.751800
1247.000000	55.657900
1246.000000	55.571400
1245.000000	55.483000
1244.000000	55.375800
1243.000000	55.242200
1242.000000	55.129900
1241.000000	55.009100
1240.000000	54.877600
1239.000000	54.765700
1238.000000	54.636800
1237.000000	54.480600
1236.000000	54.354000
1235.000000	54.221100
1234.000000	54.085700
1233.000000	53.933000
1232.000000	53.799300
1231.000000	53.641000
1230.000000	53.478600
1229.000000	53.328400
1228.000000	53.173400
1227.000000	53.043900
1226.000000	52.863700
1225.000000	52.705400
1224.000000	52.556800
1223.000000	52.399400
1222.000000	52.253600
1221.000000	52.113400
1220.000000	51.980000
1219.000000	51.836200
1218.000000	51.713800
1217.000000	51.586500
1216.000000	51.476200
1215.000000	51.360800
1214.000000	51.264700
1213.000000	51.161600
1212.000000	51.062700
1211.000000	50.968600
1210.000000	50.878500
1209.000000	50.796300
1208.000000	50.731600
1207.000000	50.653800
1206.000000	50.607000
1205.000000	50.558100
1204.000000	50.533800
1203.000000	50.523900
1202.000000	50.504000
1201.000000	50.482600
1200.000000	50.449600
1199.000000	50.393000
1198.000000	50.296500
1197.000000	50.184200
1196.000000	50.040900
1195.000000	49.869300
1194.000000	49.641800
1193.000000	49.336300
1192.000000	48.981100
1191.000000	48.621100
1190.000000	48.275000
1189.000000	47.969800
1188.000000	47.738500
1187.000000	47.586600
1186.000000	47.534900
1185.000000	47.594700
1184.000000	47.745500
1183.000000	48.003900
1182.000000	48.336300
1181.000000	48.718400
1180.000000	49.116800
1179.000000	49.489100
1178.000000	49.806600
1177.000000	50.076800
1176.000000	50.348800
1175.000000	50.575400
1174.000000	50.808900
1173.000000	51.052800
1172.000000	51.306100
1171.000000	51.551900
1170.000000	51.830000
1169.000000	52.092400
1168.000000	52.345600
1167.000000	52.637500
1166.000000	52.903100
1165.000000	53.189200
1164.000000	53.476800
1163.000000	53.755300
1162.000000	54.050200
1161.000000	54.319800
1160.000000	54.594400
1159.000000	54.852800
1158.000000	55.098700
1157.000000	55.329500
1156.000000	55.514800
1155.000000	55.660900
1154.000000	55.744900
1153.000000	55.806000
1152.000000	55.819600
1151.000000	55.805500
1150.000000	55.775500
1149.000000	55.735100
1148.000000	55.717200
1147.000000	55.708100
1146.000000	55.771800
1145.000000	55.901700
1144.000000	56.031800
1143.000000	56.233800
1142.000000	56.468700
1141.000000	56.699300
1140.000000	56.936000
1139.000000	57.190200
1138.000000	57.455800
1137.000000	57.726700
1136.000000	57.994800
1135.000000	58.284200
1134.000000	58.579300
1133.000000	58.742500
1132.000000	58.927500
1131.000000	59.100600
1130.000000	59.267100
1129.000000	59.409200
1128.000000	59.511500
1127.000000	59.592400
1126.000000	59.654500
1125.000000	59.694400
1124.000000	59.731300
1123.000000	59.772200
1122.000000	59.803200
1121.000000	59.838700
1120.000000	59.834300
1119.000000	59.813900
1118.000000	59.800400
1117.000000	59.775900
1116.000000	59.749800
1115.000000	59.723000
1114.000000	59.679300
1113.000000	59.646800
1112.000000	59.607100
1111.000000	59.574300
1110.000000	59.529400
1109.000000	59.486400
1108.000000	59.451300
1107.000000	59.422800
1106.000000	59.380000
1105.000000	59.332500
1104.000000	59.281500
1103.000000	59.239600
1102.000000	59.198900
1101.000000	59.148800
1100.000000	59.100600
1099.000000	59.049800
1098.000000	58.995900
1097.000000	58.955300
1096.000000	58.886500
1095.000000	58.819500
1094.000000	58.772100
1093.000000	58.731100
1092.000000	58.661400
1091.000000	58.592300
1090.000000	58.516000
1089.000000	58.445700
1088.000000	58.380600
1087.000000	58.307700
1086.000000	58.228100
1085.000000	58.151800
1084.000000	58.077000
1083.000000	58.015300
1082.000000	57.962100
1081.000000	57.871000
1080.000000	57.801900
1079.000000	57.728800
1078.000000	57.647800
1077.000000	57.583900
1076.000000	57.512200
1075.000000	57.447000
1074.000000	57.380800
1073.000000	57.318800
1072.000000	57.253200
1071.000000	57.190400
1070.000000	57.114500
1069.000000	57.032700
1068.000000	56.962800
1067.000000	56.886100
1066.000000	56.810600
1065.000000	56.729100
1064.000000	56.650200
1063.000000	56.569100
1062.000000	56.482200
1061.000000	56.396800
1060.000000	56.324300
1059.000000	56.250100
1058.000000	56.160000
1057.000000	56.069400
1056.000000	55.985700
1055.000000	55.904700
1054.000000	55.821400
1053.000000	55.745000
1052.000000	55.652100
1051.000000	55.567600
1050.000000	55.498500
1049.000000	55.423100
1048.000000	55.332900
1047.000000	55.248600
1046.000000	55.183900
1045.000000	55.106100
1044.000000	55.022500
1043.000000	54.946900
1042.000000	54.874700
1041.000000	54.812800
1040.000000	54.734500
1039.000000	54.669100
1038.000000	54.607000
1037.000000	54.524600
1036.000000	54.456500
1035.000000	54.391700
1034.000000	54.319700
1033.000000	54.242600
1032.000000	54.170300
1031.000000	54.099300
1030.000000	54.022700
1029.000000	53.952400
1028.000000	53.877500
1027.000000	53.791500
1026.000000	53.707400
1025.000000	53.629200
1024.000000	53.559900
1023.000000	53.486200
1022.000000	53.403400
1021.000000	53.335500
1020.000000	53.263800
1019.000000	53.196400
1018.000000	53.127500
1017.000000	53.065700
1016.000000	53.015400
1015.000000	52.948500
1014.000000	52.882200
1013.000000	52.837200
1012.000000	52.797400
1011.000000	52.768100
1010.000000	52.743000
1009.000000	52.702400
1008.000000	52.668600
1007.000000	52.642600
1006.000000	52.603800
1005.000000	52.574400
1004.000000	52.548900
1003.000000	52.513500
1002.000000	52.490100
1001.000000	52.468100
1000.000000	52.424200
999.000000	52.394600
998.000000	52.351900
997.000000	52.333500
996.000000	52.310000
995.000000	52.264000
994.000000	52.234000
993.000000	52.204900
992.000000	52.176700
991.000000	52.142500
990.000000	52.113300
989.000000	52.088900
988.000000	52.083600
987.000000	52.063800
986.000000	52.040100
985.000000	52.025300
984.000000	51.993800
983.000000	51.991600
982.000000	51.959400
981.000000	51.965000
980.000000	51.974500
979.000000	51.982300
978.000000	51.970900
977.000000	51.977500
976.000000	51.993100
975.000000	51.991800
974.000000	51.972100
973.000000	51.985600
972.000000	52.003700
971.000000	52.020200
970.000000	52.038100
969.000000	52.049600
968.000000	52.074300
967.000000	52.105000
966.000000	52.127900
965.000000	52.148400
964.000000	52.193800
963.000000	52.222400
962.000000	52.267300
961.000000	52.319600
960.000000	52.375200
959.000000	52.424600
958.000000	52.465100
957.000000	52.519200
956.000000	52.549300
955.000000	52.609800
954.000000	52.658100
953.000000	52.691700
952.000000	52.734400
951.000000	52.767400
950.000000	52.811900
949.000000	52.850900
948.000000	52.865000
947.000000	52.932800
946.000000	52.955100
945.000000	52.996200
944.000000	53.069900
943.000000	53.110400
942.000000	53.145600
941.000000	53.197700
940.000000	53.241100
939.000000	53.300500
938.000000	53.367400
937.000000	53.425300
936.000000	53.484400
935.000000	53.550100
934.000000	53.649700
933.000000	53.717900
932.000000	53.811200
931.000000	53.898900
930.000000	53.970000
929.000000	54.032600
928.000000	54.086300
927.000000	54.172600
926.000000	54.281000
925.000000	54.349300
924.000000	54.423700
923.000000	54.489800
922.000000	54.560600
921.000000	54.707700
920.000000	54.765800
919.000000	54.842300
918.000000	54.935600
917.000000	55.018400
916.000000	55.063100
915.000000	55.147300
914.000000	55.229200
913.000000	55.298500
912.000000	55.367200
911.000000	55.430100
910.000000	55.580500
909.000000	55.643400
908.000000	55.700600
907.000000	55.732800
906.000000	55.809900
905.000000	55.979600
904.000000	56.049700
903.000000	56.160300
902.000000	56.235800
901.000000	56.291500
900.000000	56.377800
899.000000	56.559400
898.000000	56.632600
897.000000	56.706100
896.000000	56.744900
895.000000	56.811400
894.000000	56.904400
893.000000	56.973700
892.000000	57.058800
891.000000	57.123900
890.000000	57.172500
889.000000	57.215500
888.000000	57.204100
887.000000	57.273200
886.000000	57.352300
885.000000	57.392100
884.000000	57.414000
883.000000	57.395200
882.000000	57.466800
881.000000	57.499100
880.000000	57.512700
879.000000	57.468800
878.000000	57.531200
877.000000	57.545400
876.000000	57.484400
875.000000	57.534600
874.000000	57.537300
873.000000	57.472300
872.000000	57.460300
871.000000	57.414500
870.000000	57.449900
869.000000	57.467300
868.000000	57.393000
867.000000	57.386700
866.000000	57.298400
865.000000	57.280300
864.000000	57.236700
863.000000	57.212400
862.000000	57.053400
861.000000	56.901900
860.000000	56.825700
859.000000	56.786900
858.000000	57.638900
857.000000	56.980580
856.000000	57.330524
855.000000	57.491367
854.000000	57.993641
853.000000	58.224220
852.000000	58.346030
851.000000	58.272220
850.000000	58.807459
849.000000	59.129056
848.000000	59.296602
847.000000	59.421400
846.000000	59.808476
845.000000	59.992595
844.000000	60.515065
843.000000	60.621750
842.000000	60.829054
841.000000	61.295193
840.000000	61.535190
839.000000	61.644955
838.000000	61.883322
837.000000	62.244496
836.000000	62.464660
835.000000	62.976896
834.000000	63.153860
833.000000	63.486597
832.000000	63.690459
831.000000	63.887347
830.000000	64.204144
829.000000	64.478556
828.000000	64.851141
827.000000	65.076739
826.000000	65.282684
825.000000	65.704989
824.000000	65.970888
823.000000	66.139430
822.000000	66.433676
821.000000	66.720677
820.000000	67.038470
819.000000	67.280097
818.000000	67.463311
817.000000	67.602600
816.000000	67.839246
815.000000	68.076527
814.000000	68.255212
813.000000	68.420674
812.000000	68.543662
811.000000	68.812097
810.000000	69.067581
809.000000	69.250704
808.000000	69.337556
807.000000	69.364544
806.000000	69.499848
805.000000	69.641583
804.000000	69.720374
803.000000	69.859120
802.000000	69.957836
801.000000	70.077382
800.000000	70.090876
799.000000	70.270648
798.000000	70.345364
797.000000	70.517710
796.000000	70.602388
795.000000	70.584909
794.000000	70.683263
793.000000	70.701195
792.000000	70.780439
791.000000	70.849812
790.000000	70.826537
789.000000	70.796650
788.000000	70.921721
787.000000	70.985297
786.000000	70.985750
785.000000	71.010927
784.000000	71.020527
783.000000	71.035380
782.000000	70.961931
781.000000	70.979139
780.000000	70.997705
779.000000	71.043440
778.000000	71.036919
777.000000	71.038368
776.000000	71.010112
775.000000	71.011289
774.000000	70.897902
773.000000	70.888574
772.000000	70.887306
771.000000	70.901072
770.000000	70.902883
769.000000	70.887125
768.000000	70.857419
767.000000	70.805344
766.000000	70.845284
765.000000	70.760424
764.000000	70.728364
763.000000	70.733889
762.000000	70.672123
761.000000	70.570781
760.000000	70.395718
759.000000	70.401605
758.000000	70.361304
757.000000	70.254075
756.000000	70.191403
755.000000	70.046952
754.000000	70.002122
753.000000	69.925414
752.000000	69.730789
751.000000	69.559440
750.000000	69.466339
749.000000	69.329767
748.000000	69.220274
747.000000	69.109332
746.000000	68.910722
745.000000	68.731947
744.000000	68.486334
743.000000	68.246427
742.000000	68.103787
741.000000	67.925464
740.000000	67.692803
739.000000	67.485318
738.000000	67.271765
737.000000	67.009670
736.000000	66.786789
735.000000	66.561192
734.000000	66.289768
733.000000	66.048593
732.000000	65.731706
731.000000	65.420615
730.000000	65.209869
729.000000	64.874416
728.000000	64.600004
727.000000	64.358829
726.000000	63.978637
725.000000	63.666640
724.000000	63.340787
723.000000	62.966028
722.000000	62.635647
721.000000	62.341944
720.000000	61.952424
719.000000	61.626027
718.000000	61.263314
717.000000	60.928947
716.000000	60.593585
715.000000	60.219007
714.000000	59.918603
713.000000	59.624176
712.000000	59.277855
711.000000	58.956982
710.000000	58.636110
709.000000	58.299570
708.000000	58.008132
707.000000	57.728195
706.000000	57.378885
705.000000	57.088805
704.000000	56.822997
703.000000	56.528660
702.000000	56.234595
701.000000	56.015337
700.000000	55.744185
699.000000	55.504188
698.000000	55.229051
697.000000	55.014864
696.000000	54.792074
695.000000	54.634944
694.000000	54.487232
693.000000	54.296683
692.000000	54.093545
691.000000	53.941487
690.000000	53.789065
689.000000	53.602320
688.000000	53.477431
687.000000	53.380164
686.000000	53.276739
685.000000	53.113721
684.000000	52.972802
683.000000	52.834147
682.000000	52.679099
681.000000	52.519161
680.000000	52.355148
679.000000	52.147573
678.000000	51.974412
677.000000	51.770369
676.000000	51.533541
675.000000	51.352592
674.000000	51.127447
673.000000	50.894876
672.000000	50.656962
671.000000	50.384361
670.000000	50.142371
669.000000	49.959610
668.000000	49.718798
667.000000	49.468295
666.000000	49.164539
665.000000	48.950534
664.000000	48.730008
663.000000	48.474161
662.000000	48.284518
661.000000	48.043524
660.000000	47.831058
659.000000	47.635075
658.000000	47.461734
657.000000	47.304151
656.000000	47.133073
655.000000	46.997859
654.000000	46.893257
653.000000	46.765650
652.000000	46.638044
651.000000	46.537607
650.000000	46.502921
649.000000	46.408280
648.000000	46.383647
647.000000	46.346968
646.000000	46.308297
645.000000	46.286923
644.000000	46.271980
643.000000	46.251965
642.000000	46.259120
641.000000	46.249520
640.000000	46.235754
639.000000	46.206320
638.000000	46.217913
637.000000	46.186758
636.000000	46.184856
635.000000	46.182773
634.000000	46.183679
633.000000	46.123000
632.000000	46.098186
631.000000	46.085144
630.000000	46.074005
629.000000	46.073733
628.000000	46.044752
627.000000	46.073824
626.000000	46.052994
625.000000	46.106518
624.000000	46.147544
623.000000	46.203513
622.000000	46.260207
621.000000	46.370062
620.000000	46.497306
619.000000	46.638225
618.000000	46.848155
617.000000	47.027836
616.000000	47.265479
615.000000	47.469522
614.000000	47.768931
613.000000	48.065350
612.000000	48.366389
611.000000	48.680287
610.000000	49.038925
609.000000	49.373835
608.000000	49.765982
607.000000	50.159669
606.000000	50.549733
605.000000	50.930106
604.000000	51.334570
603.000000	51.708875
602.000000	52.095951
601.000000	52.497969
600.000000	52.860592
599.000000	53.261524
598.000000	53.545898
597.000000	53.871661
596.000000	54.201952
595.000000	54.476455
594.000000	54.776044
593.000000	55.067301
592.000000	55.320521
591.000000	55.581077
590.000000	55.826328
589.000000	56.031639
588.000000	56.214127
587.000000	56.428223
586.000000	56.548494
585.000000	56.725639
584.000000	56.855600
583.000000	56.974240
582.000000	57.171401
581.000000	57.266766
580.000000	57.348093
579.000000	57.421813
578.000000	57.517088
577.000000	57.589449
576.000000	57.653569
575.000000	57.704014
574.000000	57.721040
573.000000	57.760255
572.000000	57.753282
571.000000	57.732633
570.000000	57.732723
569.000000	57.683909
568.000000	57.646324
567.000000	57.582838
566.000000	57.543352
565.000000	57.448983
564.000000	57.346191
563.000000	57.265498
562.000000	57.125665
561.000000	56.999327
560.000000	56.888204
559.000000	57.046874
558.000000	56.880324
557.000000	56.728537
556.000000	56.520871
555.000000	56.304964
554.000000	56.109162
553.000000	55.860742
552.000000	55.622828
551.000000	55.333653
550.000000	55.097278
549.000000	54.780482
548.000000	54.508968
547.000000	54.190993
546.000000	53.863872
545.000000	53.539921
544.000000	53.198038
543.000000	52.804351
542.000000	52.409034
541.000000	52.000676
540.000000	51.570764
539.000000	51.138859
538.000000	50.702063
537.000000	50.221706
536.000000	49.748503
535.000000	49.270591
534.000000	48.751381
533.000000	48.233530
532.000000	47.695392
531.000000	47.134522
530.000000	46.575917
529.000000	46.003545
528.000000	45.412155
527.000000	44.831089
526.000000	44.256544
525.000000	43.675931
524.000000	43.084269
523.000000	42.483370
522.000000	41.898138
521.000000	41.322053
520.000000	40.764082
519.000000	40.197687
518.000000	39.652033
517.000000	39.098408
516.000000	38.550399
515.000000	38.011174
514.000000	37.489247
513.000000	36.946490
512.000000	36.449741
511.000000	35.928629
510.000000	35.419200
509.000000	34.927522
508.000000	34.457580
507.000000	33.983653
506.000000	33.503658
505.000000	33.021489
504.000000	32.575909
503.000000	32.131415
502.000000	31.675873
501.000000	31.258005
500.000000	30.817406
499.000000	30.412580
498.000000	30.011467
497.000000	29.619139
496.000000	29.248818
495.000000	28.863645
494.000000	28.500841
493.000000	28.156875
492.000000	27.825950
491.000000	27.508247
490.000000	27.224778
489.000000	26.957249
488.000000	26.668709
487.000000	26.430070
486.000000	26.183551
485.000000	25.959674
484.000000	25.754092
483.000000	25.543618
482.000000	25.353522
481.000000	25.175743
480.000000	24.986824
479.000000	24.819731
478.000000	24.651914
477.000000	24.474678
476.000000	24.303782
475.000000	24.141942
474.000000	23.972585
473.000000	23.786836
472.000000	23.600453
471.000000	23.412712
470.000000	23.197348
469.000000	22.975011
468.000000	22.764356
467.000000	22.537672
466.000000	22.310897
465.000000	22.084846
464.000000	21.862237
463.000000	21.639990
462.000000	21.412128
461.000000	21.188614
460.000000	20.987650
459.000000	20.794384
458.000000	20.608906
457.000000	20.423520
456.000000	20.265212
455.000000	20.125923
454.000000	19.996415
453.000000	19.887736
452.000000	19.780145
451.000000	19.681972
450.000000	19.610426
449.000000	19.547212
448.000000	19.498759
447.000000	19.467424
446.000000	19.437718
445.000000	19.424949
444.000000	19.418156
443.000000	19.378579
442.000000	19.336648
441.000000	19.330670
440.000000	19.320165
439.000000	19.273977
438.000000	19.228422
437.000000	19.175442
436.000000	19.131789
435.000000	19.088137
434.000000	19.030628
433.000000	18.981904
432.000000	18.897769
431.000000	18.795249
430.000000	18.699613
429.000000	18.588580
428.000000	18.470664
427.000000	18.370771
426.000000	18.263089
425.000000	18.112932
424.000000	17.950730
423.000000	17.790067
422.000000	17.634748
421.000000	17.450629
420.000000	17.246495
419.000000	17.043358
418.000000	16.841579
417.000000	16.616253
416.000000	16.375712
415.000000	16.137435
414.000000	15.889830
413.000000	15.629546
412.000000	15.346349
411.000000	15.061703
410.000000	14.769449
409.000000	14.465150
408.000000	14.162844
407.000000	13.856643
406.000000	13.546820
405.000000	13.205208
404.000000	12.881348
403.000000	12.547253
402.000000	12.195226
401.000000	11.875260
400.000000	11.542252
399.000000	11.193123
398.000000	10.863014
397.000000	10.531998
396.000000	10.206960
395.000000	9.876850
394.000000	9.547012
393.000000	9.229219
392.000000	8.939592
391.000000	8.648606
390.000000	8.367764
389.000000	8.085925
388.000000	7.835241
387.000000	7.601764
386.000000	7.355970
385.000000	7.133089
384.000000	6.930405
383.000000	6.730346
382.000000	6.545775
381.000000	6.374788
380.000000	6.211770
379.000000	6.059440
378.000000	5.923049
377.000000	5.802869
376.000000	5.873781
375.000000	5.819624
374.000000	5.730779
373.000000	5.652621
372.000000	5.559973
371.000000	5.450752
370.000000	5.387628
369.000000	5.338994
368.000000	5.312097
367.000000	5.209577
366.000000	5.133502
365.000000	5.106514
364.000000	5.052809
363.000000	5.050907
362.000000	4.994485
361.000000	4.965232
360.000000	4.944493
359.000000	4.856282
358.000000	4.831286
357.000000	4.765808
356.000000	4.748057
355.000000	4.744072
354.000000	4.663469
353.000000	4.620089
352.000000	4.554429
351.000000	4.564934
350.000000	4.495018
349.000000	4.500996
348.000000	4.425917
347.000000	4.451728
346.000000	4.447743
345.000000	4.452090
344.000000	4.431894
343.000000	4.381268
342.000000	4.423925
341.000000	4.381993
340.000000	4.417042
339.000000	4.352016
338.000000	4.394219
337.000000	4.371487
336.000000	4.368499
335.000000	4.391955
334.000000	4.385887
333.000000	4.341148
332.000000	4.371850
331.000000	4.340967
330.000000	4.354914
329.000000	4.338159
328.000000	4.303111
327.000000	4.324846
326.000000	4.340061
325.000000	4.286175
324.000000	4.242432
323.000000	4.277571
322.000000	4.178946
321.000000	4.358265
320.000000	4.350114
319.000000	4.262356
318.000000	4.339518
317.000000	4.317058
316.000000	4.068094
315.000000	4.013212
314.000000	4.057589
313.000000	4.080230
312.000000	4.050977
311.000000	4.039747
310.000000	4.031868
309.000000	4.049891
308.000000	4.049619
307.000000	4.073256
306.000000	4.050434
305.000000	4.038298
304.000000	4.038932
303.000000	4.035038
302.000000	4.050072
301.000000	4.088381
300.000000	4.105317
299.000000	4.087837
298.000000	4.101875
297.000000	4.091913
296.000000	4.090917
295.000000	4.078872
294.000000	4.086117
293.000000	4.068004
292.000000	4.099611
291.000000	4.076879
290.000000	4.119807
289.000000	4.107943
288.000000	4.114101
287.000000	4.134026
286.000000	4.111656
285.000000	4.131762
284.000000	4.146614
283.000000	4.163097
282.000000	4.150599
281.000000	4.146252
280.000000	4.172244
279.000000	4.166810
278.000000	4.164365
277.000000	4.165542
276.000000	4.174961
275.000000	4.203580
274.000000	4.177678
273.000000	4.201497
272.000000	4.223595
271.000000	4.228213
270.000000	4.217708
269.000000	4.252666
268.000000	4.255564
267.000000	4.258281
266.000000	4.289345
265.000000	4.324756
264.000000	4.312348
263.000000	4.333812
262.000000	4.359533
261.000000	4.345405
260.000000	4.365148
259.000000	4.392408
258.000000	4.398114
257.000000	4.425011
256.000000	4.414778
255.000000	4.412332
254.000000	4.401374
253.000000	4.430898
252.000000	4.475184
251.000000	4.467034
250.000000	4.470113
