PE UV       SUBTECH     SPECTRUM    ASCII       PEDS        4.00        
   -1
CICIMAUCR0019-3.Sample.ASC
24/04/17
14:35:40.00
24/04/17
14:35:40.00
Vinicio Soto Monge
C. cupreomarginata
250,000000
1
Lambda 1050
1050L1511233
PerkinElmer UV WinLab 6.3.2.0749 / 2.02.05 Lambda 900 UV/VIS/NIR, Aug  7 2015 09:38:08

0
0
3350/servo 860,8/2
0
0
UV/VIS
1
1
1
DoubleDePol,CommonBeamDepol,RBeamAtt,SBeamAtt,60mm sphere, WB InGaAs Detector
0
0
0
0
Program
Program
3350/servo 860,8/2
3350/0,2 860,8/0,2
3350/0,2 860,8/0,2
0
15.00
 
 
 
0
 
860,8
319,2
860,8
Front
100
on
S:100 R:100
0
0
0
0
 
0
 
 
 
0
 
 
0
0
0
0
0
 
 
 
 
0
0


0
0
#HDR
-1
-1
#GR
nm
%R
1.0
0.0
2500,000000
-1,000000
2251
8
48,289000
3,625600
#DATA
2500.000000	7.729000
2499.000000	7.686600
2498.000000	7.612000
2497.000000	7.670800
2496.000000	7.714700
2495.000000	7.596300
2494.000000	7.599500
2493.000000	7.597700
2492.000000	7.590500
2491.000000	7.588600
2490.000000	7.548300
2489.000000	7.486700
2488.000000	7.519900
2487.000000	7.542000
2486.000000	7.485200
2485.000000	7.527500
2484.000000	7.552500
2483.000000	7.523400
2482.000000	7.491900
2481.000000	7.497200
2480.000000	7.540500
2479.000000	7.491900
2478.000000	7.490100
2477.000000	7.499800
2476.000000	7.456100
2475.000000	7.476500
2474.000000	7.507600
2473.000000	7.468500
2472.000000	7.494100
2471.000000	7.494700
2470.000000	7.481500
2469.000000	7.517700
2468.000000	7.519200
2467.000000	7.555100
2466.000000	7.553500
2465.000000	7.554100
2464.000000	7.563300
2463.000000	7.611800
2462.000000	7.648000
2461.000000	7.673400
2460.000000	7.696200
2459.000000	7.735700
2458.000000	7.805800
2457.000000	7.862800
2456.000000	7.889800
2455.000000	7.945200
2454.000000	7.987000
2453.000000	8.061100
2452.000000	8.112700
2451.000000	8.165800
2450.000000	8.206900
2449.000000	8.267300
2448.000000	8.317900
2447.000000	8.385200
2446.000000	8.439900
2445.000000	8.503400
2444.000000	8.542200
2443.000000	8.586800
2442.000000	8.654300
2441.000000	8.715300
2440.000000	8.754200
2439.000000	8.792900
2438.000000	8.845800
2437.000000	8.906000
2436.000000	8.956400
2435.000000	9.003300
2434.000000	9.028700
2433.000000	9.062800
2432.000000	9.103700
2431.000000	9.139600
2430.000000	9.175600
2429.000000	9.202000
2428.000000	9.234100
2427.000000	9.249600
2426.000000	9.283900
2425.000000	9.319800
2424.000000	9.342300
2423.000000	9.360400
2422.000000	9.383800
2421.000000	9.424000
2420.000000	9.462300
2419.000000	9.492100
2418.000000	9.542600
2417.000000	9.580900
2416.000000	9.608600
2415.000000	9.621100
2414.000000	9.644600
2413.000000	9.667300
2412.000000	9.720000
2411.000000	9.723600
2410.000000	9.754800
2409.000000	9.797200
2408.000000	9.804000
2407.000000	9.815700
2406.000000	9.849600
2405.000000	9.873500
2404.000000	9.901800
2403.000000	9.936000
2402.000000	9.961700
2401.000000	9.978500
2400.000000	9.995800
2399.000000	10.008500
2398.000000	10.045200
2397.000000	10.059800
2396.000000	10.084000
2395.000000	10.106800
2394.000000	10.118000
2393.000000	10.144700
2392.000000	10.151900
2391.000000	10.161100
2390.000000	10.172100
2389.000000	10.163600
2388.000000	10.157900
2387.000000	10.168800
2386.000000	10.178200
2385.000000	10.181200
2384.000000	10.174800
2383.000000	10.159100
2382.000000	10.142000
2381.000000	10.134600
2380.000000	10.134900
2379.000000	10.123700
2378.000000	10.104500
2377.000000	10.085600
2376.000000	10.080900
2375.000000	10.061300
2374.000000	10.032300
2373.000000	10.010500
2372.000000	9.980700
2371.000000	9.942300
2370.000000	9.910100
2369.000000	9.880200
2368.000000	9.853100
2367.000000	9.811100
2366.000000	9.744300
2365.000000	9.698000
2364.000000	9.653300
2363.000000	9.606900
2362.000000	9.560200
2361.000000	9.507900
2360.000000	9.464500
2359.000000	9.417800
2358.000000	9.378200
2357.000000	9.344600
2356.000000	9.315700
2355.000000	9.301300
2354.000000	9.284900
2353.000000	9.285500
2352.000000	9.293100
2351.000000	9.305000
2350.000000	9.330500
2349.000000	9.358100
2348.000000	9.373200
2347.000000	9.399400
2346.000000	9.436100
2345.000000	9.458400
2344.000000	9.484700
2343.000000	9.512700
2342.000000	9.539400
2341.000000	9.552900
2340.000000	9.566400
2339.000000	9.560100
2338.000000	9.551000
2337.000000	9.540000
2336.000000	9.525100
2335.000000	9.489600
2334.000000	9.463400
2333.000000	9.409800
2332.000000	9.367000
2331.000000	9.340200
2330.000000	9.307900
2329.000000	9.253600
2328.000000	9.200600
2327.000000	9.153800
2326.000000	9.102000
2325.000000	9.037100
2324.000000	8.950500
2323.000000	8.867700
2322.000000	8.805500
2321.000000	8.743500
2320.000000	8.650900
2319.000000	8.547100
2318.000000	8.462700
2317.000000	8.361800
2316.000000	8.267200
2315.000000	8.186000
2314.000000	8.119600
2313.000000	8.046600
2312.000000	7.966100
2311.000000	7.919400
2310.000000	7.866700
2309.000000	7.837900
2308.000000	7.826400
2307.000000	7.810200
2306.000000	7.819700
2305.000000	7.855500
2304.000000	7.875300
2303.000000	7.904000
2302.000000	7.947500
2301.000000	8.024900
2300.000000	8.086300
2299.000000	8.141300
2298.000000	8.197500
2297.000000	8.253700
2296.000000	8.309700
2295.000000	8.348100
2294.000000	8.391400
2293.000000	8.428800
2292.000000	8.465900
2291.000000	8.475200
2290.000000	8.475200
2289.000000	8.474900
2288.000000	8.455000
2287.000000	8.450400
2286.000000	8.417500
2285.000000	8.406100
2284.000000	8.361800
2283.000000	8.325000
2282.000000	8.274600
2281.000000	8.241700
2280.000000	8.208300
2279.000000	8.178100
2278.000000	8.138900
2277.000000	8.112600
2276.000000	8.081000
2275.000000	8.076000
2274.000000	8.036600
2273.000000	8.036500
2272.000000	8.033400
2271.000000	8.057800
2270.000000	8.068700
2269.000000	8.098000
2268.000000	8.165400
2267.000000	8.242300
2266.000000	8.326400
2265.000000	8.425400
2264.000000	8.538700
2263.000000	8.673000
2262.000000	8.833300
2261.000000	9.006800
2260.000000	9.158200
2259.000000	9.337800
2258.000000	9.534600
2257.000000	9.719600
2256.000000	9.907400
2255.000000	10.102100
2254.000000	10.267800
2253.000000	10.485000
2252.000000	10.634100
2251.000000	10.782600
2250.000000	10.973500
2249.000000	11.120800
2248.000000	11.239200
2247.000000	11.400000
2246.000000	11.501800
2245.000000	11.625800
2244.000000	11.730900
2243.000000	11.809400
2242.000000	11.912200
2241.000000	12.000800
2240.000000	12.081200
2239.000000	12.188800
2238.000000	12.244700
2237.000000	12.313300
2236.000000	12.382200
2235.000000	12.406500
2234.000000	12.463200
2233.000000	12.505100
2232.000000	12.530400
2231.000000	12.546800
2230.000000	12.588700
2229.000000	12.612100
2228.000000	12.606700
2227.000000	12.620800
2226.000000	12.616800
2225.000000	12.618700
2224.000000	12.632900
2223.000000	12.624500
2222.000000	12.579300
2221.000000	12.581200
2220.000000	12.583100
2219.000000	12.546500
2218.000000	12.545900
2217.000000	12.501800
2216.000000	12.495700
2215.000000	12.443000
2214.000000	12.448800
2213.000000	12.422200
2212.000000	12.392400
2211.000000	12.366100
2210.000000	12.337300
2209.000000	12.333000
2208.000000	12.327400
2207.000000	12.312600
2206.000000	12.292800
2205.000000	12.303900
2204.000000	12.266000
2203.000000	12.258700
2202.000000	12.263200
2201.000000	12.260000
2200.000000	12.253200
2199.000000	12.217400
2198.000000	12.202000
2197.000000	12.194200
2196.000000	12.197400
2195.000000	12.181800
2194.000000	12.186700
2193.000000	12.157400
2192.000000	12.134700
2191.000000	12.117200
2190.000000	12.110500
2189.000000	12.118500
2188.000000	12.088100
2187.000000	12.076000
2186.000000	12.076800
2185.000000	12.035600
2184.000000	12.032300
2183.000000	12.035700
2182.000000	12.015800
2181.000000	12.007800
2180.000000	11.999200
2179.000000	11.984000
2178.000000	12.000400
2177.000000	11.980200
2176.000000	11.965500
2175.000000	11.961700
2174.000000	11.981200
2173.000000	11.978000
2172.000000	11.997100
2171.000000	11.999900
2170.000000	12.004200
2169.000000	12.029400
2168.000000	12.026200
2167.000000	12.054700
2166.000000	12.068300
2165.000000	12.104000
2164.000000	12.131200
2163.000000	12.144600
2162.000000	12.178100
2161.000000	12.205500
2160.000000	12.222500
2159.000000	12.272400
2158.000000	12.302900
2157.000000	12.343700
2156.000000	12.400100
2155.000000	12.439200
2154.000000	12.471400
2153.000000	12.525200
2152.000000	12.563000
2151.000000	12.603300
2150.000000	12.639100
2149.000000	12.670200
2148.000000	12.701000
2147.000000	12.745200
2146.000000	12.779400
2145.000000	12.806100
2144.000000	12.850500
2143.000000	12.883100
2142.000000	12.919300
2141.000000	12.943100
2140.000000	12.979800
2139.000000	13.008100
2138.000000	13.015500
2137.000000	13.049100
2136.000000	13.094800
2135.000000	13.118200
2134.000000	13.148900
2133.000000	13.159200
2132.000000	13.152400
2131.000000	13.180600
2130.000000	13.203200
2129.000000	13.214000
2128.000000	13.227100
2127.000000	13.212100
2126.000000	13.207400
2125.000000	13.226000
2124.000000	13.228800
2123.000000	13.222100
2122.000000	13.196400
2121.000000	13.176900
2120.000000	13.173900
2119.000000	13.163700
2118.000000	13.150200
2117.000000	13.122500
2116.000000	13.109100
2115.000000	13.084700
2114.000000	13.066000
2113.000000	13.052500
2112.000000	13.028300
2111.000000	13.002700
2110.000000	12.992500
2109.000000	12.974900
2108.000000	12.945000
2107.000000	12.933200
2106.000000	12.926400
2105.000000	12.903200
2104.000000	12.873000
2103.000000	12.851000
2102.000000	12.832600
2101.000000	12.814000
2100.000000	12.794600
2099.000000	12.761800
2098.000000	12.742500
2097.000000	12.732900
2096.000000	12.713700
2095.000000	12.701100
2094.000000	12.700100
2093.000000	12.700100
2092.000000	12.676300
2091.000000	12.649700
2090.000000	12.654700
2089.000000	12.650700
2088.000000	12.641300
2087.000000	12.622300
2086.000000	12.606200
2085.000000	12.602600
2084.000000	12.579000
2083.000000	12.558800
2082.000000	12.554700
2081.000000	12.550300
2080.000000	12.533000
2079.000000	12.514100
2078.000000	12.484400
2077.000000	12.470300
2076.000000	12.452100
2075.000000	12.424200
2074.000000	12.406700
2073.000000	12.372200
2072.000000	12.350700
2071.000000	12.326500
2070.000000	12.292900
2069.000000	12.279700
2068.000000	12.253900
2067.000000	12.224500
2066.000000	12.218100
2065.000000	12.186100
2064.000000	12.158800
2063.000000	12.136300
2062.000000	12.115000
2061.000000	12.110200
2060.000000	12.091400
2059.000000	12.075000
2058.000000	12.069900
2057.000000	12.107300
2056.000000	12.135300
2055.000000	12.153600
2054.000000	12.188500
2053.000000	12.226800
2052.000000	12.275800
2051.000000	12.338100
2050.000000	12.406000
2049.000000	12.474400
2048.000000	12.568800
2047.000000	12.663500
2046.000000	12.755900
2045.000000	12.837100
2044.000000	12.943300
2043.000000	13.018200
2042.000000	13.123900
2041.000000	13.225900
2040.000000	13.356800
2039.000000	13.466900
2038.000000	13.552600
2037.000000	13.643100
2036.000000	13.728700
2035.000000	13.822000
2034.000000	13.906600
2033.000000	13.998700
2032.000000	14.080800
2031.000000	14.148400
2030.000000	14.207800
2029.000000	14.268700
2028.000000	14.343300
2027.000000	14.411300
2026.000000	14.462700
2025.000000	14.522800
2024.000000	14.587800
2023.000000	14.637000
2022.000000	14.681500
2021.000000	14.710700
2020.000000	14.752200
2019.000000	14.770800
2018.000000	14.818600
2017.000000	14.864800
2016.000000	14.908300
2015.000000	14.919700
2014.000000	14.934900
2013.000000	14.960600
2012.000000	14.968900
2011.000000	14.995300
2010.000000	15.006600
2009.000000	15.027900
2008.000000	14.989800
2007.000000	14.968400
2006.000000	14.976300
2005.000000	14.967100
2004.000000	14.943600
2003.000000	14.950200
2002.000000	14.920000
2001.000000	14.902300
2000.000000	14.876000
1999.000000	14.836700
1998.000000	14.789100
1997.000000	14.740400
1996.000000	14.702700
1995.000000	14.631800
1994.000000	14.607400
1993.000000	14.553200
1992.000000	14.503200
1991.000000	14.441600
1990.000000	14.385400
1989.000000	14.311800
1988.000000	14.260500
1987.000000	14.198400
1986.000000	14.135400
1985.000000	14.074700
1984.000000	13.984100
1983.000000	13.916000
1982.000000	13.826900
1981.000000	13.768300
1980.000000	13.681200
1979.000000	13.628000
1978.000000	13.572600
1977.000000	13.481200
1976.000000	13.419200
1975.000000	13.346700
1974.000000	13.278100
1973.000000	13.203700
1972.000000	13.149000
1971.000000	13.064400
1970.000000	13.015300
1969.000000	12.958500
1968.000000	12.877800
1967.000000	12.811100
1966.000000	12.731900
1965.000000	12.672600
1964.000000	12.608000
1963.000000	12.535500
1962.000000	12.497300
1961.000000	12.434500
1960.000000	12.353900
1959.000000	12.288400
1958.000000	12.238500
1957.000000	12.181100
1956.000000	12.088300
1955.000000	12.031200
1954.000000	11.999200
1953.000000	11.969400
1952.000000	11.871700
1951.000000	11.811500
1950.000000	11.736200
1949.000000	11.692300
1948.000000	11.652600
1947.000000	11.596800
1946.000000	11.571100
1945.000000	11.559700
1944.000000	11.470700
1943.000000	11.473700
1942.000000	11.423900
1941.000000	11.389000
1940.000000	11.377700
1939.000000	11.380900
1938.000000	11.425200
1937.000000	11.403200
1936.000000	11.438900
1935.000000	11.469200
1934.000000	11.460200
1933.000000	11.492700
1932.000000	11.490000
1931.000000	11.510800
1930.000000	11.551800
1929.000000	11.648400
1928.000000	11.760600
1927.000000	11.864600
1926.000000	11.988300
1925.000000	12.054500
1924.000000	12.105300
1923.000000	12.143300
1922.000000	12.255400
1921.000000	12.468800
1920.000000	12.691900
1919.000000	12.896800
1918.000000	13.008000
1917.000000	13.090500
1916.000000	13.137100
1915.000000	13.214300
1914.000000	13.451300
1913.000000	13.748000
1912.000000	14.076400
1911.000000	14.268300
1910.000000	14.435300
1909.000000	14.469000
1908.000000	14.513900
1907.000000	14.711000
1906.000000	14.991600
1905.000000	15.402200
1904.000000	15.754000
1903.000000	15.971700
1902.000000	16.137400
1901.000000	16.291900
1900.000000	16.577500
1899.000000	16.990700
1898.000000	17.386900
1897.000000	17.657200
1896.000000	17.811500
1895.000000	17.880000
1894.000000	17.999400
1893.000000	18.240700
1892.000000	18.593300
1891.000000	18.978600
1890.000000	19.333500
1889.000000	19.603100
1888.000000	19.861200
1887.000000	20.058000
1886.000000	20.297500
1885.000000	20.652700
1884.000000	21.093600
1883.000000	21.547700
1882.000000	22.004100
1881.000000	22.384200
1880.000000	22.680900
1879.000000	22.962800
1878.000000	23.282400
1877.000000	23.612400
1876.000000	23.904500
1875.000000	24.198300
1874.000000	24.479500
1873.000000	24.815600
1872.000000	25.163600
1871.000000	25.457500
1870.000000	25.840400
1869.000000	26.181500
1868.000000	26.396200
1867.000000	26.510900
1866.000000	26.507800
1865.000000	26.488300
1864.000000	26.426900
1863.000000	26.340400
1862.000000	26.304500
1861.000000	26.321100
1860.000000	26.379600
1859.000000	26.492300
1858.000000	26.625200
1857.000000	26.616700
1856.000000	26.514200
1855.000000	26.481900
1854.000000	26.549000
1853.000000	26.573400
1852.000000	26.543800
1851.000000	26.408500
1850.000000	26.140800
1849.000000	25.971500
1848.000000	26.111900
1847.000000	26.428200
1846.000000	26.539100
1845.000000	26.350800
1844.000000	26.038400
1843.000000	25.767200
1842.000000	25.747300
1841.000000	25.919500
1840.000000	26.009500
1839.000000	25.964500
1838.000000	25.865700
1837.000000	25.874900
1836.000000	25.960500
1835.000000	26.012000
1834.000000	25.929400
1833.000000	25.711600
1832.000000	25.530500
1831.000000	25.442000
1830.000000	25.465000
1829.000000	25.442700
1828.000000	25.349200
1827.000000	25.313500
1826.000000	25.321800
1825.000000	25.290000
1824.000000	25.169300
1823.000000	24.938600
1822.000000	24.838100
1821.000000	24.951400
1820.000000	25.124700
1819.000000	25.192500
1818.000000	25.095100
1817.000000	24.953200
1816.000000	24.955200
1815.000000	24.994300
1814.000000	24.990600
1813.000000	24.937500
1812.000000	24.908500
1811.000000	24.957800
1810.000000	24.955000
1809.000000	24.868600
1808.000000	24.783000
1807.000000	24.735100
1806.000000	24.741400
1805.000000	24.732400
1804.000000	24.669300
1803.000000	24.578800
1802.000000	24.536100
1801.000000	24.532100
1800.000000	24.522900
1799.000000	24.476800
1798.000000	24.419100
1797.000000	24.361600
1796.000000	24.313700
1795.000000	24.274600
1794.000000	24.234700
1793.000000	24.197500
1792.000000	24.150200
1791.000000	24.119300
1790.000000	24.077900
1789.000000	24.004200
1788.000000	23.954200
1787.000000	23.914700
1786.000000	23.849600
1785.000000	23.768100
1784.000000	23.689700
1783.000000	23.616000
1782.000000	23.542900
1781.000000	23.469200
1780.000000	23.408700
1779.000000	23.345100
1778.000000	23.272100
1777.000000	23.186500
1776.000000	23.100600
1775.000000	23.013200
1774.000000	22.910400
1773.000000	22.789300
1772.000000	22.665900
1771.000000	22.547500
1770.000000	22.421900
1769.000000	22.281100
1768.000000	22.149900
1767.000000	22.059800
1766.000000	21.996200
1765.000000	21.930400
1764.000000	21.893200
1763.000000	21.852800
1762.000000	21.857100
1761.000000	21.881700
1760.000000	21.924900
1759.000000	21.989700
1758.000000	22.031500
1757.000000	22.079100
1756.000000	22.140200
1755.000000	22.176400
1754.000000	22.196900
1753.000000	22.191500
1752.000000	22.166200
1751.000000	22.123800
1750.000000	22.075300
1749.000000	22.004600
1748.000000	21.921500
1747.000000	21.856200
1746.000000	21.756000
1745.000000	21.626100
1744.000000	21.484000
1743.000000	21.322800
1742.000000	21.130100
1741.000000	20.920800
1740.000000	20.695400
1739.000000	20.483500
1738.000000	20.267100
1737.000000	20.086400
1736.000000	19.949300
1735.000000	19.851300
1734.000000	19.789100
1733.000000	19.754400
1732.000000	19.804900
1731.000000	19.832600
1730.000000	19.933300
1729.000000	20.009300
1728.000000	20.105500
1727.000000	20.206500
1726.000000	20.298800
1725.000000	20.349400
1724.000000	20.394300
1723.000000	20.430000
1722.000000	20.440400
1721.000000	20.456400
1720.000000	20.464000
1719.000000	20.473000
1718.000000	20.529700
1717.000000	20.578200
1716.000000	20.592800
1715.000000	20.653100
1714.000000	20.717000
1713.000000	20.772600
1712.000000	20.814200
1711.000000	20.843200
1710.000000	20.864700
1709.000000	20.850600
1708.000000	20.848900
1707.000000	20.830600
1706.000000	20.809400
1705.000000	20.768100
1704.000000	20.715000
1703.000000	20.649600
1702.000000	20.555900
1701.000000	20.417000
1700.000000	20.281300
1699.000000	20.139800
1698.000000	19.979200
1697.000000	19.869700
1696.000000	19.811300
1695.000000	19.787300
1694.000000	19.797700
1693.000000	19.878100
1692.000000	20.010300
1691.000000	20.171000
1690.000000	20.309600
1689.000000	20.419300
1688.000000	20.500600
1687.000000	20.544300
1686.000000	20.547200
1685.000000	20.559500
1684.000000	20.624800
1683.000000	20.789000
1682.000000	21.071500
1681.000000	21.449600
1680.000000	21.902500
1679.000000	22.414400
1678.000000	22.902900
1677.000000	23.383900
1676.000000	23.789300
1675.000000	24.152500
1674.000000	24.489100
1673.000000	24.757000
1672.000000	24.984800
1671.000000	25.200100
1670.000000	25.381400
1669.000000	25.594200
1668.000000	25.692400
1667.000000	25.843600
1666.000000	25.954600
1665.000000	26.036500
1664.000000	26.092800
1663.000000	26.195700
1662.000000	26.236200
1661.000000	26.305700
1660.000000	26.348600
1659.000000	26.360700
1658.000000	26.395400
1657.000000	26.414100
1656.000000	26.437500
1655.000000	26.456300
1654.000000	26.460800
1653.000000	26.430300
1652.000000	26.406500
1651.000000	26.368700
1650.000000	26.367700
1649.000000	26.334000
1648.000000	26.306800
1647.000000	26.297600
1646.000000	26.265600
1645.000000	26.215700
1644.000000	26.161800
1643.000000	26.133200
1642.000000	26.101600
1641.000000	26.040500
1640.000000	25.997000
1639.000000	25.956700
1638.000000	25.884500
1637.000000	25.808800
1636.000000	25.779300
1635.000000	25.737600
1634.000000	25.672700
1633.000000	25.601600
1632.000000	25.543900
1631.000000	25.484700
1630.000000	25.432400
1629.000000	25.358100
1628.000000	25.290000
1627.000000	25.228400
1626.000000	25.154800
1625.000000	25.085900
1624.000000	25.014900
1623.000000	24.935300
1622.000000	24.901700
1621.000000	24.848100
1620.000000	24.774600
1619.000000	24.699000
1618.000000	24.637400
1617.000000	24.565800
1616.000000	24.523100
1615.000000	24.479000
1614.000000	24.415900
1613.000000	24.356700
1612.000000	24.312400
1611.000000	24.260900
1610.000000	24.200300
1609.000000	24.141200
1608.000000	24.083000
1607.000000	24.022500
1606.000000	23.968200
1605.000000	23.915800
1604.000000	23.869700
1603.000000	23.807200
1602.000000	23.747000
1601.000000	23.687600
1600.000000	23.641400
1599.000000	23.597300
1598.000000	23.562700
1597.000000	23.520800
1596.000000	23.472600
1595.000000	23.416500
1594.000000	23.351600
1593.000000	23.295100
1592.000000	23.265100
1591.000000	23.218700
1590.000000	23.180200
1589.000000	23.153600
1588.000000	23.126700
1587.000000	23.073300
1586.000000	23.044900
1585.000000	23.040600
1584.000000	23.018200
1583.000000	22.986100
1582.000000	22.969000
1581.000000	22.952100
1580.000000	22.946300
1579.000000	22.942200
1578.000000	22.935300
1577.000000	22.933700
1576.000000	22.937100
1575.000000	22.944200
1574.000000	22.938500
1573.000000	22.940800
1572.000000	22.953000
1571.000000	22.974300
1570.000000	22.994500
1569.000000	23.003700
1568.000000	23.022700
1567.000000	23.048700
1566.000000	23.076200
1565.000000	23.092100
1564.000000	23.116700
1563.000000	23.144200
1562.000000	23.158000
1561.000000	23.175600
1560.000000	23.194500
1559.000000	23.201800
1558.000000	23.205200
1557.000000	23.222500
1556.000000	23.219200
1555.000000	23.198500
1554.000000	23.195200
1553.000000	23.191300
1552.000000	23.195400
1551.000000	23.189300
1550.000000	23.179800
1549.000000	23.178600
1548.000000	23.160400
1547.000000	23.122800
1546.000000	23.121300
1545.000000	23.119600
1544.000000	23.095100
1543.000000	23.098500
1542.000000	23.095100
1541.000000	23.085900
1540.000000	23.078300
1539.000000	23.087100
1538.000000	23.077800
1537.000000	23.058100
1536.000000	23.042500
1535.000000	23.019600
1534.000000	23.010000
1533.000000	22.988700
1532.000000	22.970000
1531.000000	22.942500
1530.000000	22.929500
1529.000000	22.917700
1528.000000	22.894900
1527.000000	22.862200
1526.000000	22.837200
1525.000000	22.808100
1524.000000	22.774800
1523.000000	22.743400
1522.000000	22.719000
1521.000000	22.682400
1520.000000	22.648200
1519.000000	22.637400
1518.000000	22.609000
1517.000000	22.544800
1516.000000	22.522600
1515.000000	22.497600
1514.000000	22.451200
1513.000000	22.409100
1512.000000	22.372200
1511.000000	22.346200
1510.000000	22.308000
1509.000000	22.258800
1508.000000	22.240100
1507.000000	22.196800
1506.000000	22.164500
1505.000000	22.142000
1504.000000	22.105900
1503.000000	22.066000
1502.000000	22.039100
1501.000000	22.008400
1500.000000	21.991100
1499.000000	21.968500
1498.000000	21.946900
1497.000000	21.938200
1496.000000	21.931000
1495.000000	21.920100
1494.000000	21.923100
1493.000000	21.917600
1492.000000	21.935100
1491.000000	21.933700
1490.000000	21.929900
1489.000000	21.917200
1488.000000	21.946500
1487.000000	21.956600
1486.000000	21.949500
1485.000000	21.951000
1484.000000	21.967500
1483.000000	21.963400
1482.000000	21.985800
1481.000000	22.027000
1480.000000	22.054400
1479.000000	22.065500
1478.000000	22.093300
1477.000000	22.112600
1476.000000	22.148400
1475.000000	22.187200
1474.000000	22.202100
1473.000000	22.234800
1472.000000	22.257600
1471.000000	22.301500
1470.000000	22.342800
1469.000000	22.398600
1468.000000	22.436500
1467.000000	22.471900
1466.000000	22.522600
1465.000000	22.583400
1464.000000	22.617700
1463.000000	22.696900
1462.000000	22.735200
1461.000000	22.817600
1460.000000	22.893900
1459.000000	22.953500
1458.000000	23.005000
1457.000000	23.097900
1456.000000	23.163900
1455.000000	23.259900
1454.000000	23.347200
1453.000000	23.433500
1452.000000	23.536800
1451.000000	23.651500
1450.000000	23.782700
1449.000000	23.892200
1448.000000	23.962300
1447.000000	24.022100
1446.000000	24.162800
1445.000000	24.334600
1444.000000	24.460200
1443.000000	24.517000
1442.000000	24.634700
1441.000000	24.774400
1440.000000	24.882000
1439.000000	24.997500
1438.000000	25.110200
1437.000000	25.280600
1436.000000	25.376400
1435.000000	25.478300
1434.000000	25.623700
1433.000000	25.752900
1432.000000	25.895000
1431.000000	26.037500
1430.000000	26.139400
1429.000000	26.253800
1428.000000	26.461900
1427.000000	26.641700
1426.000000	26.812100
1425.000000	26.964800
1424.000000	27.176000
1423.000000	27.409100
1422.000000	27.619000
1421.000000	27.745000
1420.000000	27.952700
1419.000000	28.204600
1418.000000	28.488200
1417.000000	28.642300
1416.000000	28.767000
1415.000000	28.947100
1414.000000	29.266500
1413.000000	29.496400
1412.000000	29.614900
1411.000000	29.737400
1410.000000	29.955200
1409.000000	30.318800
1408.000000	30.604200
1407.000000	30.919500
1406.000000	31.167000
1405.000000	31.526000
1404.000000	31.879900
1403.000000	32.215200
1402.000000	32.311000
1401.000000	32.604500
1400.000000	33.128600
1399.000000	33.473400
1398.000000	33.456600
1397.000000	33.478700
1396.000000	33.754100
1395.000000	34.151300
1394.000000	34.249800
1393.000000	34.248000
1392.000000	34.414200
1391.000000	34.637000
1390.000000	34.724100
1389.000000	34.717700
1388.000000	35.039800
1387.000000	35.300000
1386.000000	35.480000
1385.000000	35.677900
1384.000000	35.982500
1383.000000	36.260800
1382.000000	36.607300
1381.000000	36.932200
1380.000000	37.021000
1379.000000	37.117300
1378.000000	37.137200
1377.000000	37.160100
1376.000000	37.242100
1375.000000	37.372600
1374.000000	37.488500
1373.000000	37.655100
1372.000000	37.857300
1371.000000	38.172300
1370.000000	38.421600
1369.000000	38.555200
1368.000000	38.788000
1367.000000	39.034200
1366.000000	39.109100
1365.000000	39.236000
1364.000000	39.406900
1363.000000	39.441400
1362.000000	39.548600
1361.000000	39.742800
1360.000000	39.842500
1359.000000	39.803100
1358.000000	39.819200
1357.000000	39.884200
1356.000000	40.017600
1355.000000	40.328000
1354.000000	40.704000
1353.000000	41.004900
1352.000000	41.313300
1351.000000	41.661200
1350.000000	41.981300
1349.000000	42.237100
1348.000000	42.518000
1347.000000	42.787700
1346.000000	42.989300
1345.000000	43.148600
1344.000000	43.375900
1343.000000	43.570300
1342.000000	43.740000
1341.000000	43.916400
1340.000000	44.089100
1339.000000	44.252000
1338.000000	44.405700
1337.000000	44.563700
1336.000000	44.703300
1335.000000	44.856400
1334.000000	44.980300
1333.000000	45.091900
1332.000000	45.218000
1331.000000	45.337800
1330.000000	45.441000
1329.000000	45.533600
1328.000000	45.603600
1327.000000	45.678400
1326.000000	45.766900
1325.000000	45.840700
1324.000000	45.916100
1323.000000	45.996900
1322.000000	46.065400
1321.000000	46.123100
1320.000000	46.165300
1319.000000	46.218100
1318.000000	46.282500
1317.000000	46.339700
1316.000000	46.398000
1315.000000	46.451800
1314.000000	46.492900
1313.000000	46.534400
1312.000000	46.554300
1311.000000	46.573900
1310.000000	46.598900
1309.000000	46.633800
1308.000000	46.671400
1307.000000	46.702100
1306.000000	46.729100
1305.000000	46.743800
1304.000000	46.754900
1303.000000	46.769600
1302.000000	46.795900
1301.000000	46.804100
1300.000000	46.792500
1299.000000	46.794700
1298.000000	46.789200
1297.000000	46.769900
1296.000000	46.774800
1295.000000	46.789000
1294.000000	46.782300
1293.000000	46.773400
1292.000000	46.757800
1291.000000	46.735000
1290.000000	46.711800
1289.000000	46.689000
1288.000000	46.674900
1287.000000	46.638500
1286.000000	46.598700
1285.000000	46.571800
1284.000000	46.550400
1283.000000	46.507700
1282.000000	46.470200
1281.000000	46.440700
1280.000000	46.399800
1279.000000	46.355400
1278.000000	46.326400
1277.000000	46.299500
1276.000000	46.263200
1275.000000	46.236600
1274.000000	46.207700
1273.000000	46.199400
1272.000000	46.184800
1271.000000	46.158800
1270.000000	46.137600
1269.000000	46.104400
1268.000000	46.086200
1267.000000	46.071300
1266.000000	46.028300
1265.000000	45.983400
1264.000000	45.954500
1263.000000	45.916000
1262.000000	45.860500
1261.000000	45.829900
1260.000000	45.803800
1259.000000	45.763100
1258.000000	45.724900
1257.000000	45.712000
1256.000000	45.674900
1255.000000	45.624500
1254.000000	45.569400
1253.000000	45.542100
1252.000000	45.488600
1251.000000	45.446100
1250.000000	45.407400
1249.000000	45.350900
1248.000000	45.265200
1247.000000	45.195000
1246.000000	45.151300
1245.000000	45.071200
1244.000000	44.990400
1243.000000	44.905800
1242.000000	44.827600
1241.000000	44.743800
1240.000000	44.647900
1239.000000	44.543500
1238.000000	44.460600
1237.000000	44.366300
1236.000000	44.274900
1235.000000	44.171800
1234.000000	44.071400
1233.000000	43.978900
1232.000000	43.868800
1231.000000	43.751200
1230.000000	43.614100
1229.000000	43.499200
1228.000000	43.385100
1227.000000	43.284900
1226.000000	43.171000
1225.000000	43.070500
1224.000000	42.962200
1223.000000	42.841700
1222.000000	42.727300
1221.000000	42.622500
1220.000000	42.515300
1219.000000	42.424300
1218.000000	42.327700
1217.000000	42.227000
1216.000000	42.146800
1215.000000	42.076400
1214.000000	41.995600
1213.000000	41.906000
1212.000000	41.834800
1211.000000	41.753100
1210.000000	41.696900
1209.000000	41.639100
1208.000000	41.584100
1207.000000	41.518800
1206.000000	41.502600
1205.000000	41.462600
1204.000000	41.444100
1203.000000	41.421700
1202.000000	41.406500
1201.000000	41.404200
1200.000000	41.377400
1199.000000	41.315600
1198.000000	41.266300
1197.000000	41.179100
1196.000000	41.063200
1195.000000	40.929900
1194.000000	40.759700
1193.000000	40.517100
1192.000000	40.260900
1191.000000	39.939800
1190.000000	39.622300
1189.000000	39.371900
1188.000000	39.155000
1187.000000	39.007000
1186.000000	38.978500
1185.000000	39.020000
1184.000000	39.155500
1183.000000	39.357100
1182.000000	39.658300
1181.000000	39.997700
1180.000000	40.312300
1179.000000	40.607000
1178.000000	40.887000
1177.000000	41.133800
1176.000000	41.341000
1175.000000	41.532200
1174.000000	41.712200
1173.000000	41.909900
1172.000000	42.102200
1171.000000	42.313200
1170.000000	42.535500
1169.000000	42.738900
1168.000000	42.939900
1167.000000	43.152400
1166.000000	43.361100
1165.000000	43.550000
1164.000000	43.764600
1163.000000	43.985500
1162.000000	44.203500
1161.000000	44.386700
1160.000000	44.578400
1159.000000	44.796800
1158.000000	44.964500
1157.000000	45.144600
1156.000000	45.276100
1155.000000	45.396700
1154.000000	45.467700
1153.000000	45.527700
1152.000000	45.545200
1151.000000	45.564100
1150.000000	45.553300
1149.000000	45.538800
1148.000000	45.522600
1147.000000	45.544200
1146.000000	45.583600
1145.000000	45.676100
1144.000000	45.795100
1143.000000	45.919100
1142.000000	46.057200
1141.000000	46.204800
1140.000000	46.357900
1139.000000	46.537400
1138.000000	46.716200
1137.000000	46.877300
1136.000000	47.049000
1135.000000	47.233200
1134.000000	47.451100
1133.000000	47.592800
1132.000000	47.673100
1131.000000	47.748900
1130.000000	47.852800
1129.000000	47.962700
1128.000000	48.047800
1127.000000	48.078200
1126.000000	48.117800
1125.000000	48.164800
1124.000000	48.205600
1123.000000	48.235200
1122.000000	48.261000
1121.000000	48.289000
1120.000000	48.263500
1119.000000	48.242400
1118.000000	48.248500
1117.000000	48.238000
1116.000000	48.245200
1115.000000	48.231500
1114.000000	48.197400
1113.000000	48.173600
1112.000000	48.157300
1111.000000	48.141700
1110.000000	48.136600
1109.000000	48.123200
1108.000000	48.107400
1107.000000	48.075300
1106.000000	48.075700
1105.000000	48.053600
1104.000000	48.032500
1103.000000	48.023900
1102.000000	48.010000
1101.000000	47.969700
1100.000000	47.933800
1099.000000	47.933700
1098.000000	47.919000
1097.000000	47.894100
1096.000000	47.871300
1095.000000	47.828600
1094.000000	47.801100
1093.000000	47.769800
1092.000000	47.747600
1091.000000	47.714900
1090.000000	47.652200
1089.000000	47.612000
1088.000000	47.565700
1087.000000	47.541200
1086.000000	47.508200
1085.000000	47.474300
1084.000000	47.420800
1083.000000	47.368800
1082.000000	47.330900
1081.000000	47.301600
1080.000000	47.280100
1079.000000	47.236000
1078.000000	47.181500
1077.000000	47.143600
1076.000000	47.088700
1075.000000	47.056100
1074.000000	47.010600
1073.000000	46.965000
1072.000000	46.923400
1071.000000	46.882400
1070.000000	46.844100
1069.000000	46.793600
1068.000000	46.744100
1067.000000	46.695700
1066.000000	46.668000
1065.000000	46.634200
1064.000000	46.599200
1063.000000	46.549900
1062.000000	46.468200
1061.000000	46.419500
1060.000000	46.380600
1059.000000	46.324800
1058.000000	46.259600
1057.000000	46.203400
1056.000000	46.172900
1055.000000	46.143500
1054.000000	46.094900
1053.000000	46.046400
1052.000000	46.030900
1051.000000	45.989500
1050.000000	45.939400
1049.000000	45.888200
1048.000000	45.835200
1047.000000	45.780100
1046.000000	45.720100
1045.000000	45.658800
1044.000000	45.629600
1043.000000	45.602500
1042.000000	45.561300
1041.000000	45.521700
1040.000000	45.476700
1039.000000	45.442400
1038.000000	45.413100
1037.000000	45.389800
1036.000000	45.343700
1035.000000	45.276700
1034.000000	45.217400
1033.000000	45.166900
1032.000000	45.125800
1031.000000	45.088100
1030.000000	45.036200
1029.000000	44.982900
1028.000000	44.938100
1027.000000	44.878700
1026.000000	44.834500
1025.000000	44.794700
1024.000000	44.728200
1023.000000	44.666400
1022.000000	44.620300
1021.000000	44.569700
1020.000000	44.524800
1019.000000	44.479300
1018.000000	44.412500
1017.000000	44.356100
1016.000000	44.314000
1015.000000	44.266000
1014.000000	44.231100
1013.000000	44.180800
1012.000000	44.150300
1011.000000	44.128300
1010.000000	44.100900
1009.000000	44.071000
1008.000000	44.036200
1007.000000	43.991100
1006.000000	43.971100
1005.000000	43.962000
1004.000000	43.950500
1003.000000	43.906800
1002.000000	43.872000
1001.000000	43.832500
1000.000000	43.809500
999.000000	43.794100
998.000000	43.748000
997.000000	43.713400
996.000000	43.676900
995.000000	43.637700
994.000000	43.585600
993.000000	43.562300
992.000000	43.535300
991.000000	43.472000
990.000000	43.437300
989.000000	43.415500
988.000000	43.396700
987.000000	43.370600
986.000000	43.328400
985.000000	43.284400
984.000000	43.275100
983.000000	43.263500
982.000000	43.203600
981.000000	43.154800
980.000000	43.139600
979.000000	43.110500
978.000000	43.066700
977.000000	43.032000
976.000000	43.018600
975.000000	42.993300
974.000000	42.945600
973.000000	42.914200
972.000000	42.896500
971.000000	42.874900
970.000000	42.819600
969.000000	42.777800
968.000000	42.734300
967.000000	42.704700
966.000000	42.689400
965.000000	42.635100
964.000000	42.598600
963.000000	42.581600
962.000000	42.540800
961.000000	42.510900
960.000000	42.488500
959.000000	42.449400
958.000000	42.445400
957.000000	42.400700
956.000000	42.343500
955.000000	42.341500
954.000000	42.313700
953.000000	42.268600
952.000000	42.250800
951.000000	42.194600
950.000000	42.185100
949.000000	42.145000
948.000000	42.095800
947.000000	42.049500
946.000000	42.018800
945.000000	42.003900
944.000000	41.936900
943.000000	41.899800
942.000000	41.870000
941.000000	41.835200
940.000000	41.843500
939.000000	41.774600
938.000000	41.691100
937.000000	41.629700
936.000000	41.623800
935.000000	41.649300
934.000000	41.630100
933.000000	41.618300
932.000000	41.617000
931.000000	41.625100
930.000000	41.568500
929.000000	41.508500
928.000000	41.515000
927.000000	41.467800
926.000000	41.389000
925.000000	41.364700
924.000000	41.320500
923.000000	41.314200
922.000000	41.274300
921.000000	41.235500
920.000000	41.235300
919.000000	41.214300
918.000000	41.176500
917.000000	41.188500
916.000000	41.160900
915.000000	41.146800
914.000000	41.135800
913.000000	41.105300
912.000000	41.108700
911.000000	41.082700
910.000000	41.060800
909.000000	41.055000
908.000000	41.069100
907.000000	41.045800
906.000000	41.056400
905.000000	41.066300
904.000000	41.118000
903.000000	41.124700
902.000000	41.148000
901.000000	41.153800
900.000000	41.184500
899.000000	41.170400
898.000000	41.190900
897.000000	41.228100
896.000000	41.270900
895.000000	41.283500
894.000000	41.319700
893.000000	41.326400
892.000000	41.307400
891.000000	41.303100
890.000000	41.308300
889.000000	41.322400
888.000000	41.308400
887.000000	41.302700
886.000000	41.298000
885.000000	41.247100
884.000000	41.238900
883.000000	41.201300
882.000000	41.174400
881.000000	41.105600
880.000000	41.075700
879.000000	41.012000
878.000000	40.911400
877.000000	40.872300
876.000000	40.844700
875.000000	40.758100
874.000000	40.641700
873.000000	40.526000
872.000000	40.408800
871.000000	40.304000
870.000000	40.158600
869.000000	40.033300
868.000000	39.890700
867.000000	39.792800
866.000000	39.650700
865.000000	39.509500
864.000000	39.354200
863.000000	39.197500
862.000000	39.024800
861.000000	38.872900
860.000000	38.643000
859.000000	38.437700
858.000000	39.388700
857.000000	38.751080
856.000000	38.559347
855.000000	38.874258
854.000000	39.121889
853.000000	39.054183
852.000000	38.904925
851.000000	38.940095
850.000000	39.136075
849.000000	38.961587
848.000000	38.979002
847.000000	39.128005
846.000000	39.107362
845.000000	39.152046
844.000000	39.075421
843.000000	38.935932
842.000000	38.986478
841.000000	38.996417
840.000000	39.057326
839.000000	39.182883
838.000000	39.047217
837.000000	39.038977
836.000000	38.989706
835.000000	38.824222
834.000000	38.947485
833.000000	38.927352
832.000000	38.896175
831.000000	38.833907
830.000000	38.833992
829.000000	38.721772
828.000000	38.790072
827.000000	38.724745
826.000000	38.668933
825.000000	38.592647
824.000000	38.632149
823.000000	38.520524
822.000000	38.405247
821.000000	38.392929
820.000000	38.371012
819.000000	38.356060
818.000000	38.318597
817.000000	38.283768
816.000000	38.296255
815.000000	38.144704
814.000000	38.184036
813.000000	38.121512
812.000000	37.988395
811.000000	37.949488
810.000000	37.928165
809.000000	37.961975
808.000000	37.930289
807.000000	37.893590
806.000000	37.783240
805.000000	37.721735
804.000000	37.675353
803.000000	37.646639
802.000000	37.582332
801.000000	37.629139
800.000000	37.602465
799.000000	37.488546
798.000000	37.412176
797.000000	37.395866
796.000000	37.364859
795.000000	37.292056
794.000000	37.183065
793.000000	37.108903
792.000000	37.030833
791.000000	36.964912
790.000000	36.829926
789.000000	36.787620
788.000000	36.711675
787.000000	36.572526
786.000000	36.478910
785.000000	36.451302
784.000000	36.376715
783.000000	36.257105
782.000000	36.175977
781.000000	36.146924
780.000000	36.082277
779.000000	35.989511
778.000000	35.951453
777.000000	35.869731
776.000000	35.820375
775.000000	35.812559
774.000000	35.752159
773.000000	35.675109
772.000000	35.609443
771.000000	35.593982
770.000000	35.534007
769.000000	35.447697
768.000000	35.431132
767.000000	35.404032
766.000000	35.362152
765.000000	35.341934
764.000000	35.366824
763.000000	35.341509
762.000000	35.285357
761.000000	35.264034
760.000000	35.294192
759.000000	35.284082
758.000000	35.226911
757.000000	35.222154
756.000000	35.226571
755.000000	35.208986
754.000000	35.164642
753.000000	35.106791
752.000000	35.073915
751.000000	35.000008
750.000000	34.950652
749.000000	34.908941
748.000000	34.822462
747.000000	34.772256
746.000000	34.768943
745.000000	34.741079
744.000000	34.640158
743.000000	34.560559
742.000000	34.530317
741.000000	34.487077
740.000000	34.482320
739.000000	34.496932
738.000000	34.441884
737.000000	34.406035
736.000000	34.403996
735.000000	34.393972
734.000000	34.353790
733.000000	34.335781
732.000000	34.320150
731.000000	34.303839
730.000000	34.302140
729.000000	34.270029
728.000000	34.233330
727.000000	34.224835
726.000000	34.204107
725.000000	34.186608
724.000000	34.189156
723.000000	34.177943
722.000000	34.158574
721.000000	34.158914
720.000000	34.112616
719.000000	34.074813
718.000000	34.058842
717.000000	34.007277
716.000000	33.966926
715.000000	33.983151
714.000000	33.926235
713.000000	33.892339
712.000000	33.861927
711.000000	33.789634
710.000000	33.747924
709.000000	33.682682
708.000000	33.596457
707.000000	33.529941
706.000000	33.520511
705.000000	33.476677
704.000000	33.429614
703.000000	33.386289
702.000000	33.312383
701.000000	33.219447
700.000000	33.138659
699.000000	33.091426
698.000000	33.026439
697.000000	32.937581
696.000000	32.850167
695.000000	32.814573
694.000000	32.764962
693.000000	32.661152
692.000000	32.570850
691.000000	32.449626
690.000000	32.367649
689.000000	32.296715
688.000000	32.234616
687.000000	32.175406
686.000000	32.100140
685.000000	32.009073
684.000000	31.950967
683.000000	31.897618
682.000000	31.818869
681.000000	31.740205
680.000000	31.676917
679.000000	31.587039
678.000000	31.503278
677.000000	31.442963
676.000000	31.379930
675.000000	31.362260
674.000000	31.320974
673.000000	31.241206
672.000000	31.188282
671.000000	31.165940
670.000000	31.138756
669.000000	31.097470
668.000000	31.077166
667.000000	31.033672
666.000000	30.984740
665.000000	30.919159
664.000000	30.878467
663.000000	30.831745
662.000000	30.776017
661.000000	30.729209
660.000000	30.671018
659.000000	30.609429
658.000000	30.520146
657.000000	30.449638
656.000000	30.387964
655.000000	30.304797
654.000000	30.216703
653.000000	30.117142
652.000000	30.014521
651.000000	29.885991
650.000000	29.777764
649.000000	29.651018
648.000000	29.530729
647.000000	29.393449
646.000000	29.256339
645.000000	29.107675
644.000000	28.966828
643.000000	28.780871
642.000000	28.609101
641.000000	28.410232
640.000000	28.218839
639.000000	28.056244
638.000000	27.902483
637.000000	27.732667
636.000000	27.518253
635.000000	27.331107
634.000000	27.217273
633.000000	27.115333
632.000000	26.992154
631.000000	26.929546
630.000000	26.851816
629.000000	26.797788
628.000000	26.749111
627.000000	26.687862
626.000000	26.702388
625.000000	26.701454
624.000000	26.715216
623.000000	26.705447
622.000000	26.729912
621.000000	26.774596
620.000000	26.849098
619.000000	26.942798
618.000000	27.051535
617.000000	27.218547
616.000000	27.376895
615.000000	27.579417
614.000000	27.805045
613.000000	28.042142
612.000000	28.296908
611.000000	28.560849
610.000000	28.813237
609.000000	29.092299
608.000000	29.377563
607.000000	29.636917
606.000000	29.929316
605.000000	30.249494
604.000000	30.526433
603.000000	30.828007
602.000000	31.123549
601.000000	31.433619
600.000000	31.723130
599.000000	31.972799
598.000000	32.301133
597.000000	32.583933
596.000000	32.891453
595.000000	33.162105
594.000000	33.500378
593.000000	33.796685
592.000000	34.092652
591.000000	34.390319
590.000000	34.667512
589.000000	34.945555
588.000000	35.189957
587.000000	35.397151
586.000000	35.634163
585.000000	35.851297
584.000000	36.016950
583.000000	36.200188
582.000000	36.347662
581.000000	36.534468
580.000000	36.684406
579.000000	36.860678
578.000000	36.989633
577.000000	37.104146
576.000000	37.226729
575.000000	37.347019
574.000000	37.461447
573.000000	37.608751
572.000000	37.747985
571.000000	37.873967
570.000000	38.037581
569.000000	38.166281
568.000000	38.336352
567.000000	38.439312
566.000000	38.532503
565.000000	38.609553
564.000000	38.683374
563.000000	38.755837
562.000000	38.777754
561.000000	38.757281
560.000000	38.701639
559.000000	38.850472
558.000000	38.825242
557.000000	38.783361
556.000000	38.722282
555.000000	38.650754
554.000000	38.573958
553.000000	38.526896
552.000000	38.437953
551.000000	38.346631
550.000000	38.295576
549.000000	38.239763
548.000000	38.130517
547.000000	38.043698
546.000000	37.956369
545.000000	37.848397
544.000000	37.727257
543.000000	37.604589
542.000000	37.445392
541.000000	37.254168
540.000000	37.047824
539.000000	36.796455
538.000000	36.474238
537.000000	36.132907
536.000000	35.772293
535.000000	35.396812
534.000000	34.982338
533.000000	34.569904
532.000000	34.112191
531.000000	33.626614
530.000000	33.113174
529.000000	32.605000
528.000000	32.057325
527.000000	31.534115
526.000000	30.996124
525.000000	30.425342
524.000000	29.856683
523.000000	29.306969
522.000000	28.721151
521.000000	28.126668
520.000000	27.524539
519.000000	26.919267
518.000000	26.351883
517.000000	25.793079
516.000000	25.252199
515.000000	24.701211
514.000000	24.165258
513.000000	23.617158
512.000000	23.092589
511.000000	22.588748
510.000000	22.111751
509.000000	21.650555
508.000000	21.183498
507.000000	20.740906
506.000000	20.341384
505.000000	19.932178
504.000000	19.527899
503.000000	19.144857
502.000000	18.786536
501.000000	18.458033
500.000000	18.127915
499.000000	17.810116
498.000000	17.501661
497.000000	17.206713
496.000000	16.919835
495.000000	16.638989
494.000000	16.346080
493.000000	16.069311
492.000000	15.780395
491.000000	15.501248
490.000000	15.227792
489.000000	14.954422
488.000000	14.683515
487.000000	14.443105
486.000000	14.202185
485.000000	13.951327
484.000000	13.709728
483.000000	13.470252
482.000000	13.221772
481.000000	12.952734
480.000000	12.677919
479.000000	12.452121
478.000000	12.286978
477.000000	12.118351
476.000000	11.941569
475.000000	11.769205
474.000000	11.603466
473.000000	11.445373
472.000000	11.286856
471.000000	11.125960
470.000000	10.953850
469.000000	10.789471
468.000000	10.630274
467.000000	10.468783
466.000000	10.311540
465.000000	10.147925
464.000000	9.997648
463.000000	9.851363
462.000000	9.699642
461.000000	9.553782
460.000000	9.410725
459.000000	9.283809
458.000000	9.162160
457.000000	9.033460
456.000000	8.913001
455.000000	8.803245
454.000000	8.695952
453.000000	8.585602
452.000000	8.482132
451.000000	8.388092
450.000000	8.292013
449.000000	8.207147
448.000000	8.131202
447.000000	8.044637
446.000000	7.974723
445.000000	7.928765
444.000000	7.883826
443.000000	7.815101
442.000000	7.753087
441.000000	7.708488
440.000000	7.669071
439.000000	7.629569
438.000000	7.589982
437.000000	7.554983
436.000000	7.528563
435.000000	7.515481
434.000000	7.485663
433.000000	7.449474
432.000000	7.418128
431.000000	7.389839
430.000000	7.357643
429.000000	7.337340
428.000000	7.321879
427.000000	7.288154
426.000000	7.260884
425.000000	7.246868
424.000000	7.227669
423.000000	7.215181
422.000000	7.193519
421.000000	7.162597
420.000000	7.138641
419.000000	7.121736
418.000000	7.097610
417.000000	7.059382
416.000000	7.007477
415.000000	6.972563
414.000000	6.932551
413.000000	6.881156
412.000000	6.823305
411.000000	6.763075
410.000000	6.703525
409.000000	6.651365
408.000000	6.610504
407.000000	6.547471
406.000000	6.475433
405.000000	6.408916
404.000000	6.343844
403.000000	6.266624
402.000000	6.179380
401.000000	6.088398
400.000000	5.994783
399.000000	5.902782
398.000000	5.816472
397.000000	5.731776
396.000000	5.638501
395.000000	5.529424
394.000000	5.440311
393.000000	5.344233
392.000000	5.231673
391.000000	5.134660
390.000000	5.049115
389.000000	4.943776
388.000000	4.848292
387.000000	4.753997
386.000000	4.665733
385.000000	4.569569
384.000000	4.483090
383.000000	4.405615
382.000000	4.326271
381.000000	4.235289
380.000000	4.172936
379.000000	4.088070
378.000000	4.021979
377.000000	3.956312
376.000000	3.978484
375.000000	3.624411
374.000000	3.517798
373.000000	3.568598
372.000000	3.640127
371.000000	3.573271
370.000000	3.500638
369.000000	3.487301
368.000000	3.475493
367.000000	3.458842
366.000000	3.449923
365.000000	3.477277
364.000000	3.486961
363.000000	3.545577
362.000000	3.432847
361.000000	3.388758
360.000000	3.312218
359.000000	3.323261
358.000000	3.326320
357.000000	3.336514
356.000000	3.215714
355.000000	3.213336
354.000000	3.166868
353.000000	3.286478
352.000000	3.345433
351.000000	3.334475
350.000000	3.243918
349.000000	3.270677
348.000000	3.232619
347.000000	3.173579
346.000000	3.168057
345.000000	3.282825
344.000000	3.315956
343.000000	3.333116
342.000000	3.303553
341.000000	3.315021
340.000000	3.193797
339.000000	3.223445
338.000000	3.270677
337.000000	3.356137
336.000000	3.315446
335.000000	3.158458
334.000000	3.307376
333.000000	3.369390
332.000000	3.306016
331.000000	3.264985
330.000000	3.235678
329.000000	3.410590
328.000000	3.387909
327.000000	3.421124
326.000000	3.179865
325.000000	3.493162
324.000000	3.514400
323.000000	3.370154
322.000000	3.288347
321.000000	3.448988
320.000000	3.816484
319.000000	3.533854
318.000000	3.432253
317.000000	3.592724
316.000000	3.224209
315.000000	3.170436
314.000000	3.173239
313.000000	3.108337
312.000000	3.148179
311.000000	3.181139
310.000000	3.128300
309.000000	3.083701
308.000000	3.140023
307.000000	3.079963
306.000000	3.154210
305.000000	3.152256
304.000000	3.084721
303.000000	3.194986
302.000000	3.186916
301.000000	3.104259
300.000000	3.150642
299.000000	3.119125
298.000000	3.137645
297.000000	3.169416
296.000000	3.143082
295.000000	3.154210
294.000000	3.150302
293.000000	3.153361
292.000000	3.143591
291.000000	3.202972
290.000000	3.168822
289.000000	3.154805
288.000000	3.198384
287.000000	3.230835
286.000000	3.192862
285.000000	3.162620
284.000000	3.140533
283.000000	3.200253
282.000000	3.183008
281.000000	3.207729
280.000000	3.125072
279.000000	3.179101
278.000000	3.173494
277.000000	3.171540
276.000000	3.203481
275.000000	3.189634
274.000000	3.253772
273.000000	3.269318
272.000000	3.209513
271.000000	3.221746
270.000000	3.213251
269.000000	3.255726
268.000000	3.229221
267.000000	3.285289
266.000000	3.216394
265.000000	3.250799
264.000000	3.260823
263.000000	3.302364
262.000000	3.303893
261.000000	3.330567
260.000000	3.359535
259.000000	3.352484
258.000000	3.360215
257.000000	3.340676
256.000000	3.377290
255.000000	3.412289
254.000000	3.417556
253.000000	3.408297
252.000000	3.420615
251.000000	3.424692
250.000000	3.473709
