PE UV       SUBTECH     SPECTRUM    ASCII       PEDS        4.00        
   -1
CICIMAUCR0001-2.Sample.ASC
24/04/11
16:12:16.00
24/04/11
16:12:16.00
Vinicio Soto Monge
C. kalinini
250,000000
1
Lambda 1050
1050L1511233
PerkinElmer UV WinLab 6.3.2.0749 / 2.02.05 Lambda 900 UV/VIS/NIR, Aug  7 2015 09:38:08

0
0
3350/2 860,8/2
0
0
UV/VIS
1
1
1
DoubleDePol,CommonBeamDepol,RBeamAtt,SBeamAtt,60mm sphere, WB InGaAs Detector
0
0
0
0
Program
Program
3350/2 860,8/2
3350/0,2 860,8/0,2
3350/0,2 860,8/0,2
0
15.00
 
 
 
0
 
860,8
319,2
860,8
Front
100
on
S:100 R:100
0
0
0
0
 
0
 
 
 
0
 
 
0
0
0
0
0
 
 
 
 
0
0


0
0
#HDR
-1
-1
#GR
nm
%R
1.0
0.0
2400,000000
-1,000000
2151
8
66,817200
3,930300
#DATA
2400.000000	18.401900
2399.000000	18.349600
2398.000000	18.691800
2397.000000	19.624900
2396.000000	18.904400
2395.000000	19.229900
2394.000000	17.995200
2393.000000	19.008900
2392.000000	18.310100
2391.000000	19.086600
2390.000000	18.201200
2389.000000	19.422700
2388.000000	19.870400
2387.000000	18.221900
2386.000000	19.149900
2385.000000	19.510700
2384.000000	18.435400
2383.000000	19.696200
2382.000000	19.434700
2381.000000	18.652400
2380.000000	17.662700
2379.000000	18.467200
2378.000000	18.485900
2377.000000	18.588500
2376.000000	19.536300
2375.000000	19.046300
2374.000000	18.047700
2373.000000	18.137300
2372.000000	18.051400
2371.000000	18.921100
2370.000000	18.114900
2369.000000	18.353600
2368.000000	18.490600
2367.000000	18.701800
2366.000000	19.162500
2365.000000	19.295200
2364.000000	18.510000
2363.000000	18.350600
2362.000000	17.454100
2361.000000	18.202500
2360.000000	17.868900
2359.000000	19.028900
2358.000000	18.626900
2357.000000	18.569900
2356.000000	18.485500
2355.000000	18.276300
2354.000000	18.544100
2353.000000	18.348700
2352.000000	17.772900
2351.000000	18.520400
2350.000000	18.452700
2349.000000	18.505900
2348.000000	18.276600
2347.000000	17.604900
2346.000000	18.122200
2345.000000	18.300500
2344.000000	18.261200
2343.000000	18.600400
2342.000000	18.643100
2341.000000	18.294300
2340.000000	17.995600
2339.000000	18.127100
2338.000000	18.093500
2337.000000	17.911800
2336.000000	17.816100
2335.000000	17.971300
2334.000000	17.986100
2333.000000	17.915300
2332.000000	17.546400
2331.000000	17.530600
2330.000000	17.829600
2329.000000	18.293200
2328.000000	17.758100
2327.000000	17.895000
2326.000000	17.890300
2325.000000	17.516800
2324.000000	17.544200
2323.000000	18.065200
2322.000000	17.877100
2321.000000	17.693200
2320.000000	17.769200
2319.000000	18.055900
2318.000000	18.220000
2317.000000	17.918500
2316.000000	17.537600
2315.000000	17.650200
2314.000000	17.685100
2313.000000	17.434600
2312.000000	17.301800
2311.000000	17.269400
2310.000000	17.034000
2309.000000	17.510400
2308.000000	17.444300
2307.000000	17.225500
2306.000000	17.152200
2305.000000	16.920000
2304.000000	16.901800
2303.000000	17.400400
2302.000000	17.480100
2301.000000	17.167600
2300.000000	17.058500
2299.000000	17.137400
2298.000000	17.213000
2297.000000	17.401900
2296.000000	17.488200
2295.000000	17.196900
2294.000000	17.174900
2293.000000	17.385500
2292.000000	17.422700
2291.000000	17.124300
2290.000000	16.965200
2289.000000	17.157400
2288.000000	17.180300
2287.000000	17.269100
2286.000000	17.324200
2285.000000	17.161200
2284.000000	16.897800
2283.000000	17.138300
2282.000000	17.162900
2281.000000	17.277600
2280.000000	17.531600
2279.000000	17.371100
2278.000000	17.506000
2277.000000	17.545800
2276.000000	17.412000
2275.000000	17.344800
2274.000000	17.064800
2273.000000	17.377900
2272.000000	17.622000
2271.000000	17.309500
2270.000000	17.338500
2269.000000	17.422400
2268.000000	17.594500
2267.000000	17.736600
2266.000000	17.729700
2265.000000	17.893700
2264.000000	17.878700
2263.000000	17.652100
2262.000000	17.511500
2261.000000	17.647100
2260.000000	18.083400
2259.000000	18.228400
2258.000000	18.324400
2257.000000	18.373600
2256.000000	18.624800
2255.000000	18.827300
2254.000000	18.754800
2253.000000	18.802600
2252.000000	19.201000
2251.000000	19.213800
2250.000000	19.351000
2249.000000	19.339500
2248.000000	19.419700
2247.000000	19.676100
2246.000000	19.504100
2245.000000	19.587700
2244.000000	19.824400
2243.000000	19.658800
2242.000000	19.649300
2241.000000	19.536200
2240.000000	19.726300
2239.000000	20.006200
2238.000000	20.270100
2237.000000	20.120500
2236.000000	19.794200
2235.000000	19.931500
2234.000000	20.090600
2233.000000	20.144800
2232.000000	20.082700
2231.000000	20.320600
2230.000000	20.468200
2229.000000	20.274000
2228.000000	20.242100
2227.000000	20.089600
2226.000000	20.073300
2225.000000	19.774300
2224.000000	19.586200
2223.000000	19.602800
2222.000000	19.618900
2221.000000	19.735200
2220.000000	19.566200
2219.000000	19.375900
2218.000000	19.524700
2217.000000	19.453000
2216.000000	19.150300
2215.000000	19.296500
2214.000000	19.001800
2213.000000	19.223400
2212.000000	19.160200
2211.000000	18.802900
2210.000000	18.703300
2209.000000	18.902900
2208.000000	18.722500
2207.000000	18.487000
2206.000000	18.416000
2205.000000	18.857200
2204.000000	18.900400
2203.000000	18.849400
2202.000000	18.693100
2201.000000	18.367400
2200.000000	18.543900
2199.000000	18.475100
2198.000000	18.503400
2197.000000	18.534100
2196.000000	18.406500
2195.000000	18.831300
2194.000000	18.665300
2193.000000	18.543800
2192.000000	18.349200
2191.000000	18.395600
2190.000000	18.585300
2189.000000	18.268500
2188.000000	18.165500
2187.000000	18.355800
2186.000000	18.334100
2185.000000	18.052400
2184.000000	18.238900
2183.000000	18.306900
2182.000000	18.370000
2181.000000	18.331300
2180.000000	17.894300
2179.000000	18.221500
2178.000000	18.224200
2177.000000	18.275600
2176.000000	17.991100
2175.000000	18.337900
2174.000000	18.113300
2173.000000	17.993700
2172.000000	18.069500
2171.000000	18.446200
2170.000000	18.440400
2169.000000	18.325300
2168.000000	18.310200
2167.000000	17.977800
2166.000000	18.082900
2165.000000	18.121600
2164.000000	18.485800
2163.000000	18.604700
2162.000000	18.517100
2161.000000	18.271200
2160.000000	18.564200
2159.000000	18.800800
2158.000000	18.646300
2157.000000	18.918600
2156.000000	18.766000
2155.000000	19.408500
2154.000000	19.034100
2153.000000	19.415200
2152.000000	18.925000
2151.000000	19.039900
2150.000000	19.116300
2149.000000	20.109200
2148.000000	19.745700
2147.000000	20.038900
2146.000000	19.720500
2145.000000	19.925700
2144.000000	19.984400
2143.000000	19.951900
2142.000000	20.401500
2141.000000	20.072200
2140.000000	20.533400
2139.000000	19.810200
2138.000000	20.445200
2137.000000	20.595800
2136.000000	20.568900
2135.000000	20.657600
2134.000000	20.554700
2133.000000	20.654200
2132.000000	20.410300
2131.000000	20.721400
2130.000000	20.439900
2129.000000	20.966400
2128.000000	20.860800
2127.000000	20.895900
2126.000000	20.913400
2125.000000	21.148600
2124.000000	21.168200
2123.000000	20.860200
2122.000000	20.903200
2121.000000	21.009300
2120.000000	20.936300
2119.000000	21.128400
2118.000000	21.192500
2117.000000	20.998200
2116.000000	21.355400
2115.000000	21.141100
2114.000000	21.017500
2113.000000	20.951200
2112.000000	21.123000
2111.000000	21.315700
2110.000000	21.078100
2109.000000	21.325500
2108.000000	21.106200
2107.000000	20.745200
2106.000000	21.205600
2105.000000	21.441800
2104.000000	21.320900
2103.000000	21.231700
2102.000000	21.104600
2101.000000	21.252600
2100.000000	21.207700
2099.000000	21.333500
2098.000000	21.141600
2097.000000	21.161700
2096.000000	20.800600
2095.000000	21.143100
2094.000000	20.945000
2093.000000	21.055300
2092.000000	21.256900
2091.000000	21.224300
2090.000000	21.077700
2089.000000	21.052300
2088.000000	21.163400
2087.000000	21.335000
2086.000000	21.121100
2085.000000	21.272400
2084.000000	21.124800
2083.000000	21.004000
2082.000000	20.887200
2081.000000	20.932700
2080.000000	21.029200
2079.000000	20.940100
2078.000000	20.968600
2077.000000	20.918300
2076.000000	20.864700
2075.000000	20.858500
2074.000000	20.773400
2073.000000	20.824200
2072.000000	20.735700
2071.000000	20.601000
2070.000000	20.547100
2069.000000	20.389600
2068.000000	20.081500
2067.000000	20.166200
2066.000000	20.186000
2065.000000	20.009200
2064.000000	19.801800
2063.000000	19.816000
2062.000000	19.698300
2061.000000	19.708900
2060.000000	19.723000
2059.000000	19.572800
2058.000000	19.434900
2057.000000	19.364500
2056.000000	19.339100
2055.000000	19.216400
2054.000000	19.438900
2053.000000	19.375000
2052.000000	19.145300
2051.000000	19.229900
2050.000000	19.506500
2049.000000	19.504000
2048.000000	19.474200
2047.000000	19.602200
2046.000000	19.658300
2045.000000	19.706400
2044.000000	19.903600
2043.000000	20.180100
2042.000000	20.214000
2041.000000	20.254900
2040.000000	20.456600
2039.000000	20.389400
2038.000000	20.499000
2037.000000	20.565800
2036.000000	20.728700
2035.000000	20.788700
2034.000000	20.876000
2033.000000	20.939800
2032.000000	21.081900
2031.000000	21.252700
2030.000000	21.180800
2029.000000	21.238000
2028.000000	21.367900
2027.000000	21.411900
2026.000000	21.394600
2025.000000	21.291100
2024.000000	21.349800
2023.000000	21.474100
2022.000000	21.559200
2021.000000	21.545700
2020.000000	21.509100
2019.000000	21.515900
2018.000000	21.627900
2017.000000	21.632500
2016.000000	21.615700
2015.000000	21.605700
2014.000000	21.593300
2013.000000	21.710500
2012.000000	21.682700
2011.000000	21.535400
2010.000000	21.470600
2009.000000	21.535800
2008.000000	21.553900
2007.000000	21.544400
2006.000000	21.503300
2005.000000	21.397800
2004.000000	21.329400
2003.000000	21.380400
2002.000000	21.366100
2001.000000	21.220900
2000.000000	21.119100
1999.000000	21.120900
1998.000000	21.084300
1997.000000	21.007700
1996.000000	20.844800
1995.000000	20.803600
1994.000000	20.869500
1993.000000	20.767100
1992.000000	20.643300
1991.000000	20.570700
1990.000000	20.494800
1989.000000	20.400600
1988.000000	20.225500
1987.000000	20.161500
1986.000000	20.143700
1985.000000	19.988300
1984.000000	19.886500
1983.000000	19.847100
1982.000000	19.774900
1981.000000	19.646200
1980.000000	19.583100
1979.000000	19.530200
1978.000000	19.468500
1977.000000	19.362700
1976.000000	19.268300
1975.000000	19.210400
1974.000000	19.091800
1973.000000	19.005800
1972.000000	18.958900
1971.000000	18.900500
1970.000000	18.811900
1969.000000	18.733500
1968.000000	18.593900
1967.000000	18.509500
1966.000000	18.462400
1965.000000	18.373400
1964.000000	18.293800
1963.000000	18.224000
1962.000000	18.146800
1961.000000	18.177500
1960.000000	18.052700
1959.000000	17.878300
1958.000000	17.822400
1957.000000	17.769600
1956.000000	17.779400
1955.000000	17.731800
1954.000000	17.631900
1953.000000	17.529500
1952.000000	17.461500
1951.000000	17.352800
1950.000000	17.330100
1949.000000	17.205500
1948.000000	17.127400
1947.000000	17.145800
1946.000000	17.094400
1945.000000	17.005000
1944.000000	16.901400
1943.000000	16.873700
1942.000000	16.898600
1941.000000	16.911700
1940.000000	16.860100
1939.000000	16.860000
1938.000000	16.888100
1937.000000	16.855300
1936.000000	16.823100
1935.000000	16.815200
1934.000000	16.820700
1933.000000	16.898800
1932.000000	16.891400
1931.000000	16.942400
1930.000000	16.998700
1929.000000	17.115200
1928.000000	17.211900
1927.000000	17.335700
1926.000000	17.383500
1925.000000	17.429300
1924.000000	17.528800
1923.000000	17.742500
1922.000000	17.687800
1921.000000	17.899500
1920.000000	18.185700
1919.000000	18.266400
1918.000000	18.302200
1917.000000	18.510700
1916.000000	18.792200
1915.000000	18.973700
1914.000000	19.305300
1913.000000	19.562600
1912.000000	19.682700
1911.000000	20.037600
1910.000000	20.252400
1909.000000	20.532800
1908.000000	20.757200
1907.000000	21.106200
1906.000000	21.653300
1905.000000	22.089100
1904.000000	22.267400
1903.000000	22.649300
1902.000000	23.061400
1901.000000	23.482400
1900.000000	23.895200
1899.000000	24.683800
1898.000000	24.955300
1897.000000	25.345200
1896.000000	25.754200
1895.000000	26.225900
1894.000000	26.694600
1893.000000	27.305000
1892.000000	27.647200
1891.000000	28.175900
1890.000000	28.726700
1889.000000	29.143600
1888.000000	29.461400
1887.000000	29.930600
1886.000000	30.370800
1885.000000	30.820600
1884.000000	31.255100
1883.000000	31.542900
1882.000000	31.876200
1881.000000	32.230100
1880.000000	32.582900
1879.000000	32.776600
1878.000000	33.074800
1877.000000	33.455800
1876.000000	33.779500
1875.000000	33.775800
1874.000000	34.138000
1873.000000	34.486900
1872.000000	34.546300
1871.000000	34.733300
1870.000000	35.031000
1869.000000	35.169100
1868.000000	35.203700
1867.000000	35.275900
1866.000000	35.170200
1865.000000	35.208300
1864.000000	35.436300
1863.000000	35.553200
1862.000000	35.442300
1861.000000	35.733000
1860.000000	35.947200
1859.000000	35.985800
1858.000000	35.837900
1857.000000	35.868000
1856.000000	36.032200
1855.000000	35.972700
1854.000000	36.047800
1853.000000	36.157900
1852.000000	36.049500
1851.000000	35.986100
1850.000000	36.151600
1849.000000	36.173300
1848.000000	36.380700
1847.000000	36.458500
1846.000000	36.168200
1845.000000	35.963400
1844.000000	36.018800
1843.000000	36.111300
1842.000000	36.277900
1841.000000	36.271100
1840.000000	36.130100
1839.000000	36.094100
1838.000000	36.050400
1837.000000	36.196000
1836.000000	36.174800
1835.000000	35.959500
1834.000000	35.897700
1833.000000	35.829200
1832.000000	35.858700
1831.000000	35.874900
1830.000000	35.815800
1829.000000	35.741300
1828.000000	35.718300
1827.000000	35.670300
1826.000000	35.710600
1825.000000	35.636400
1824.000000	35.565900
1823.000000	35.676800
1822.000000	35.729500
1821.000000	35.828800
1820.000000	35.879300
1819.000000	35.690500
1818.000000	35.579200
1817.000000	35.629400
1816.000000	35.676900
1815.000000	35.729600
1814.000000	35.594200
1813.000000	35.554100
1812.000000	35.588500
1811.000000	35.575000
1810.000000	35.563700
1809.000000	35.486400
1808.000000	35.465000
1807.000000	35.503800
1806.000000	35.423700
1805.000000	35.403200
1804.000000	35.372900
1803.000000	35.404100
1802.000000	35.350300
1801.000000	35.345300
1800.000000	35.327600
1799.000000	35.323300
1798.000000	35.286600
1797.000000	35.272700
1796.000000	35.267300
1795.000000	35.235500
1794.000000	35.202100
1793.000000	35.210000
1792.000000	35.185900
1791.000000	35.161600
1790.000000	35.171200
1789.000000	35.202100
1788.000000	35.212600
1787.000000	35.217900
1786.000000	35.249100
1785.000000	35.258600
1784.000000	35.237200
1783.000000	35.228000
1782.000000	35.222500
1781.000000	35.193300
1780.000000	35.231300
1779.000000	35.262000
1778.000000	35.200100
1777.000000	35.172500
1776.000000	35.170800
1775.000000	35.125000
1774.000000	35.080400
1773.000000	35.046300
1772.000000	35.037400
1771.000000	35.000100
1770.000000	34.967900
1769.000000	34.991400
1768.000000	34.964400
1767.000000	34.918800
1766.000000	34.897800
1765.000000	34.867700
1764.000000	34.853500
1763.000000	34.836500
1762.000000	34.819600
1761.000000	34.796800
1760.000000	34.794600
1759.000000	34.806200
1758.000000	34.819500
1757.000000	34.841200
1756.000000	34.843100
1755.000000	34.835400
1754.000000	34.822500
1753.000000	34.846100
1752.000000	34.847500
1751.000000	34.829400
1750.000000	34.803500
1749.000000	34.784700
1748.000000	34.747700
1747.000000	34.711300
1746.000000	34.680100
1745.000000	34.640100
1744.000000	34.609500
1743.000000	34.576800
1742.000000	34.487600
1741.000000	34.415500
1740.000000	34.389500
1739.000000	34.325500
1738.000000	34.281800
1737.000000	34.241800
1736.000000	34.179600
1735.000000	34.147000
1734.000000	34.125300
1733.000000	34.094400
1732.000000	34.064200
1731.000000	34.029100
1730.000000	33.969900
1729.000000	33.943000
1728.000000	33.936700
1727.000000	33.918300
1726.000000	33.880800
1725.000000	33.856500
1724.000000	33.859100
1723.000000	33.865500
1722.000000	33.909800
1721.000000	34.005200
1720.000000	34.128500
1719.000000	34.259200
1718.000000	34.394400
1717.000000	34.541000
1716.000000	34.721500
1715.000000	34.881200
1714.000000	35.045400
1713.000000	35.226700
1712.000000	35.339700
1711.000000	35.431200
1710.000000	35.549400
1709.000000	35.618600
1708.000000	35.701900
1707.000000	35.774400
1706.000000	35.847400
1705.000000	35.893400
1704.000000	35.913400
1703.000000	35.923000
1702.000000	35.949800
1701.000000	35.956300
1700.000000	36.002300
1699.000000	36.004200
1698.000000	35.953700
1697.000000	35.966900
1696.000000	35.958100
1695.000000	35.895600
1694.000000	35.860200
1693.000000	35.837600
1692.000000	35.782000
1691.000000	35.744700
1690.000000	35.698500
1689.000000	35.671000
1688.000000	35.664200
1687.000000	35.732900
1686.000000	35.793800
1685.000000	35.899100
1684.000000	36.045000
1683.000000	36.201400
1682.000000	36.355400
1681.000000	36.532700
1680.000000	36.703800
1679.000000	36.850100
1678.000000	37.020000
1677.000000	37.185000
1676.000000	37.318300
1675.000000	37.408400
1674.000000	37.546400
1673.000000	37.662800
1672.000000	37.766300
1671.000000	37.900400
1670.000000	38.048000
1669.000000	38.204400
1668.000000	38.331300
1667.000000	38.446200
1666.000000	38.574900
1665.000000	38.666800
1664.000000	38.755800
1663.000000	38.805800
1662.000000	38.923100
1661.000000	38.994500
1660.000000	39.052100
1659.000000	39.147300
1658.000000	39.229600
1657.000000	39.262000
1656.000000	39.316900
1655.000000	39.372700
1654.000000	39.441900
1653.000000	39.452000
1652.000000	39.463200
1651.000000	39.448400
1650.000000	39.480000
1649.000000	39.498900
1648.000000	39.500700
1647.000000	39.459000
1646.000000	39.442400
1645.000000	39.439700
1644.000000	39.455300
1643.000000	39.432600
1642.000000	39.424900
1641.000000	39.409000
1640.000000	39.413700
1639.000000	39.439800
1638.000000	39.408500
1637.000000	39.422000
1636.000000	39.389200
1635.000000	39.419400
1634.000000	39.385200
1633.000000	39.364000
1632.000000	39.333400
1631.000000	39.303400
1630.000000	39.229100
1629.000000	39.224500
1628.000000	39.188500
1627.000000	39.132500
1626.000000	39.144300
1625.000000	39.123600
1624.000000	39.077800
1623.000000	39.058600
1622.000000	39.040900
1621.000000	38.969100
1620.000000	38.974500
1619.000000	38.926400
1618.000000	38.898500
1617.000000	38.904600
1616.000000	38.865200
1615.000000	38.799000
1614.000000	38.801800
1613.000000	38.782200
1612.000000	38.713700
1611.000000	38.736700
1610.000000	38.681900
1609.000000	38.649400
1608.000000	38.584900
1607.000000	38.533300
1606.000000	38.499700
1605.000000	38.443100
1604.000000	38.416500
1603.000000	38.307100
1602.000000	38.276900
1601.000000	38.216000
1600.000000	38.167400
1599.000000	38.123000
1598.000000	38.031300
1597.000000	38.000600
1596.000000	37.953800
1595.000000	37.932600
1594.000000	37.895900
1593.000000	37.849300
1592.000000	37.836300
1591.000000	37.814900
1590.000000	37.776400
1589.000000	37.729800
1588.000000	37.711100
1587.000000	37.668800
1586.000000	37.656100
1585.000000	37.597600
1584.000000	37.581700
1583.000000	37.509500
1582.000000	37.493400
1581.000000	37.503500
1580.000000	37.454400
1579.000000	37.448100
1578.000000	37.448100
1577.000000	37.408700
1576.000000	37.397400
1575.000000	37.425600
1574.000000	37.429700
1573.000000	37.407700
1572.000000	37.399500
1571.000000	37.419400
1570.000000	37.413900
1569.000000	37.410900
1568.000000	37.429300
1567.000000	37.449200
1566.000000	37.463600
1565.000000	37.499000
1564.000000	37.534300
1563.000000	37.518900
1562.000000	37.511500
1561.000000	37.497600
1560.000000	37.502600
1559.000000	37.489300
1558.000000	37.466300
1557.000000	37.419400
1556.000000	37.414300
1555.000000	37.368100
1554.000000	37.327800
1553.000000	37.290300
1552.000000	37.239600
1551.000000	37.168900
1550.000000	37.128900
1549.000000	37.077800
1548.000000	37.012400
1547.000000	36.957000
1546.000000	36.880500
1545.000000	36.825200
1544.000000	36.786700
1543.000000	36.751100
1542.000000	36.748000
1541.000000	36.693700
1540.000000	36.649700
1539.000000	36.631300
1538.000000	36.603600
1537.000000	36.594300
1536.000000	36.609600
1535.000000	36.555000
1534.000000	36.519000
1533.000000	36.485600
1532.000000	36.457200
1531.000000	36.418500
1530.000000	36.395100
1529.000000	36.314900
1528.000000	36.287600
1527.000000	36.262700
1526.000000	36.206800
1525.000000	36.165100
1524.000000	36.121600
1523.000000	36.073400
1522.000000	36.024200
1521.000000	35.976300
1520.000000	35.928300
1519.000000	35.889000
1518.000000	35.842400
1517.000000	35.789600
1516.000000	35.739700
1515.000000	35.718400
1514.000000	35.663600
1513.000000	35.594900
1512.000000	35.535500
1511.000000	35.486700
1510.000000	35.442300
1509.000000	35.392500
1508.000000	35.369000
1507.000000	35.291300
1506.000000	35.213400
1505.000000	35.166700
1504.000000	35.130600
1503.000000	35.095000
1502.000000	35.043100
1501.000000	34.992500
1500.000000	34.971800
1499.000000	34.948000
1498.000000	34.921300
1497.000000	34.918400
1496.000000	34.896400
1495.000000	34.864300
1494.000000	34.849500
1493.000000	34.855600
1492.000000	34.844100
1491.000000	34.857400
1490.000000	34.880000
1489.000000	34.887100
1488.000000	34.899000
1487.000000	34.913900
1486.000000	34.922600
1485.000000	34.911200
1484.000000	34.923400
1483.000000	34.944000
1482.000000	34.965000
1481.000000	34.972200
1480.000000	34.970900
1479.000000	34.995400
1478.000000	35.041300
1477.000000	35.066500
1476.000000	35.088000
1475.000000	35.119800
1474.000000	35.168400
1473.000000	35.214600
1472.000000	35.241400
1471.000000	35.300300
1470.000000	35.366900
1469.000000	35.399000
1468.000000	35.433700
1467.000000	35.480700
1466.000000	35.546600
1465.000000	35.615300
1464.000000	35.696900
1463.000000	35.764800
1462.000000	35.817700
1461.000000	35.896200
1460.000000	35.979400
1459.000000	36.039300
1458.000000	36.115400
1457.000000	36.200400
1456.000000	36.290000
1455.000000	36.370500
1454.000000	36.434900
1453.000000	36.500500
1452.000000	36.580300
1451.000000	36.668700
1450.000000	36.725500
1449.000000	36.768300
1448.000000	36.825300
1447.000000	36.932800
1446.000000	37.048900
1445.000000	37.134600
1444.000000	37.187300
1443.000000	37.273400
1442.000000	37.367500
1441.000000	37.429100
1440.000000	37.503500
1439.000000	37.610000
1438.000000	37.732600
1437.000000	37.805600
1436.000000	37.883200
1435.000000	37.998600
1434.000000	38.115800
1433.000000	38.219300
1432.000000	38.350700
1431.000000	38.493400
1430.000000	38.620700
1429.000000	38.747000
1428.000000	38.892200
1427.000000	39.042600
1426.000000	39.197200
1425.000000	39.372000
1424.000000	39.583600
1423.000000	39.785100
1422.000000	39.940400
1421.000000	40.122900
1420.000000	40.356900
1419.000000	40.624700
1418.000000	40.838600
1417.000000	41.005900
1416.000000	41.241400
1415.000000	41.540000
1414.000000	41.895100
1413.000000	42.102500
1412.000000	42.307100
1411.000000	42.600800
1410.000000	42.934000
1409.000000	43.270600
1408.000000	43.561800
1407.000000	43.892900
1406.000000	44.182600
1405.000000	44.493600
1404.000000	44.836600
1403.000000	45.059800
1402.000000	45.369400
1401.000000	45.768500
1400.000000	46.098100
1399.000000	46.250500
1398.000000	46.455900
1397.000000	46.756100
1396.000000	47.124300
1395.000000	47.453700
1394.000000	47.564700
1393.000000	47.695500
1392.000000	48.006500
1391.000000	48.222300
1390.000000	48.382900
1389.000000	48.641200
1388.000000	48.946900
1387.000000	49.129300
1386.000000	49.271800
1385.000000	49.548700
1384.000000	49.723600
1383.000000	49.898300
1382.000000	50.101900
1381.000000	50.157900
1380.000000	50.268700
1379.000000	50.275100
1378.000000	50.348800
1377.000000	50.463100
1376.000000	50.557600
1375.000000	50.618500
1374.000000	50.721200
1373.000000	50.799400
1372.000000	50.966500
1371.000000	51.064200
1370.000000	51.095700
1369.000000	51.102200
1368.000000	51.293600
1367.000000	51.386700
1366.000000	51.332100
1365.000000	51.464700
1364.000000	51.557300
1363.000000	51.511800
1362.000000	51.746500
1361.000000	51.860100
1360.000000	51.719700
1359.000000	51.722100
1358.000000	51.801900
1357.000000	51.868600
1356.000000	51.890500
1355.000000	51.976200
1354.000000	52.101800
1353.000000	52.145800
1352.000000	52.244400
1351.000000	52.340700
1350.000000	52.488100
1349.000000	52.603100
1348.000000	52.756800
1347.000000	52.872300
1346.000000	52.907700
1345.000000	53.024400
1344.000000	53.132800
1343.000000	53.246000
1342.000000	53.333000
1341.000000	53.456600
1340.000000	53.540500
1339.000000	53.637600
1338.000000	53.741200
1337.000000	53.797000
1336.000000	53.856300
1335.000000	53.945800
1334.000000	54.018000
1333.000000	54.054700
1332.000000	54.109900
1331.000000	54.166200
1330.000000	54.227000
1329.000000	54.296500
1328.000000	54.340700
1327.000000	54.379000
1326.000000	54.418900
1325.000000	54.475700
1324.000000	54.490600
1323.000000	54.492300
1322.000000	54.573500
1321.000000	54.597200
1320.000000	54.634700
1319.000000	54.666200
1318.000000	54.670600
1317.000000	54.700000
1316.000000	54.716000
1315.000000	54.738600
1314.000000	54.766200
1313.000000	54.778300
1312.000000	54.810000
1311.000000	54.812500
1310.000000	54.844400
1309.000000	54.857800
1308.000000	54.896500
1307.000000	54.888100
1306.000000	54.884400
1305.000000	54.888100
1304.000000	54.877500
1303.000000	54.901900
1302.000000	54.905700
1301.000000	54.896900
1300.000000	54.914700
1299.000000	54.915100
1298.000000	54.892400
1297.000000	54.912800
1296.000000	54.915500
1295.000000	54.908100
1294.000000	54.900300
1293.000000	54.900200
1292.000000	54.896900
1291.000000	54.885000
1290.000000	54.860900
1289.000000	54.842200
1288.000000	54.815600
1287.000000	54.812100
1286.000000	54.808300
1285.000000	54.774500
1284.000000	54.757400
1283.000000	54.720400
1282.000000	54.699500
1281.000000	54.687600
1280.000000	54.685800
1279.000000	54.672800
1278.000000	54.660300
1277.000000	54.642400
1276.000000	54.621400
1275.000000	54.598800
1274.000000	54.604800
1273.000000	54.612200
1272.000000	54.601000
1271.000000	54.630200
1270.000000	54.620700
1269.000000	54.606600
1268.000000	54.598900
1267.000000	54.585600
1266.000000	54.583400
1265.000000	54.557800
1264.000000	54.550200
1263.000000	54.555200
1262.000000	54.572000
1261.000000	54.569100
1260.000000	54.547400
1259.000000	54.548900
1258.000000	54.554700
1257.000000	54.522800
1256.000000	54.535600
1255.000000	54.529000
1254.000000	54.519900
1253.000000	54.521500
1252.000000	54.501400
1251.000000	54.456500
1250.000000	54.437100
1249.000000	54.399400
1248.000000	54.370500
1247.000000	54.342400
1246.000000	54.299500
1245.000000	54.267100
1244.000000	54.223300
1243.000000	54.184800
1242.000000	54.139400
1241.000000	54.106400
1240.000000	54.076300
1239.000000	54.036700
1238.000000	53.985200
1237.000000	53.950000
1236.000000	53.932400
1235.000000	53.908700
1234.000000	53.892900
1233.000000	53.860000
1232.000000	53.806000
1231.000000	53.775600
1230.000000	53.754300
1229.000000	53.719200
1228.000000	53.662900
1227.000000	53.623900
1226.000000	53.600000
1225.000000	53.563200
1224.000000	53.519200
1223.000000	53.511800
1222.000000	53.512300
1221.000000	53.466100
1220.000000	53.411800
1219.000000	53.379200
1218.000000	53.356900
1217.000000	53.337600
1216.000000	53.320000
1215.000000	53.326700
1214.000000	53.305200
1213.000000	53.263600
1212.000000	53.225700
1211.000000	53.176800
1210.000000	53.131200
1209.000000	53.085300
1208.000000	53.040200
1207.000000	53.007300
1206.000000	52.966500
1205.000000	52.922700
1204.000000	52.880900
1203.000000	52.828100
1202.000000	52.786800
1201.000000	52.770400
1200.000000	52.731800
1199.000000	52.679600
1198.000000	52.643400
1197.000000	52.586600
1196.000000	52.509300
1195.000000	52.441400
1194.000000	52.358200
1193.000000	52.294600
1192.000000	52.263700
1191.000000	52.216300
1190.000000	52.169700
1189.000000	52.144800
1188.000000	52.107900
1187.000000	52.079900
1186.000000	52.071800
1185.000000	52.065800
1184.000000	52.040100
1183.000000	52.032600
1182.000000	52.042400
1181.000000	52.054300
1180.000000	52.073100
1179.000000	52.087200
1178.000000	52.107900
1177.000000	52.140700
1176.000000	52.168200
1175.000000	52.182300
1174.000000	52.211000
1173.000000	52.228900
1172.000000	52.253000
1171.000000	52.286000
1170.000000	52.333800
1169.000000	52.403600
1168.000000	52.447800
1167.000000	52.477000
1166.000000	52.530200
1165.000000	52.579600
1164.000000	52.642000
1163.000000	52.724300
1162.000000	52.793000
1161.000000	52.823700
1160.000000	52.883100
1159.000000	52.966900
1158.000000	53.013100
1157.000000	53.051500
1156.000000	53.103300
1155.000000	53.155100
1154.000000	53.203900
1153.000000	53.246600
1152.000000	53.294300
1151.000000	53.325900
1150.000000	53.361800
1149.000000	53.368100
1148.000000	53.399200
1147.000000	53.440300
1146.000000	53.465600
1145.000000	53.475400
1144.000000	53.473000
1143.000000	53.502000
1142.000000	53.511900
1141.000000	53.558400
1140.000000	53.610000
1139.000000	53.654900
1138.000000	53.690600
1137.000000	53.756900
1136.000000	53.808900
1135.000000	53.907400
1134.000000	53.957100
1133.000000	53.939200
1132.000000	53.931900
1131.000000	53.925400
1130.000000	53.960600
1129.000000	53.984300
1128.000000	54.017500
1127.000000	54.004500
1126.000000	54.008700
1125.000000	53.999200
1124.000000	54.007000
1123.000000	54.032700
1122.000000	54.004600
1121.000000	53.958400
1120.000000	53.919000
1119.000000	53.900400
1118.000000	53.850000
1117.000000	53.846000
1116.000000	53.854600
1115.000000	53.793000
1114.000000	53.777600
1113.000000	53.736700
1112.000000	53.725900
1111.000000	53.713500
1110.000000	53.657300
1109.000000	53.605400
1108.000000	53.578600
1107.000000	53.562700
1106.000000	53.534100
1105.000000	53.494000
1104.000000	53.461700
1103.000000	53.443600
1102.000000	53.413700
1101.000000	53.330900
1100.000000	53.307700
1099.000000	53.294900
1098.000000	53.243000
1097.000000	53.200900
1096.000000	53.184600
1095.000000	53.120100
1094.000000	53.127600
1093.000000	53.082700
1092.000000	53.013000
1091.000000	52.983400
1090.000000	52.949500
1089.000000	52.915600
1088.000000	52.914500
1087.000000	52.827000
1086.000000	52.823200
1085.000000	52.821000
1084.000000	52.741500
1083.000000	52.713800
1082.000000	52.699100
1081.000000	52.718000
1080.000000	52.647800
1079.000000	52.605300
1078.000000	52.597700
1077.000000	52.523100
1076.000000	52.531300
1075.000000	52.459900
1074.000000	52.433900
1073.000000	52.396800
1072.000000	52.394400
1071.000000	52.322900
1070.000000	52.295200
1069.000000	52.226500
1068.000000	52.219900
1067.000000	52.152800
1066.000000	52.097000
1065.000000	52.081900
1064.000000	51.993100
1063.000000	52.008400
1062.000000	51.949500
1061.000000	51.918300
1060.000000	51.867600
1059.000000	51.818200
1058.000000	51.790900
1057.000000	51.741900
1056.000000	51.610800
1055.000000	51.588200
1054.000000	51.592000
1053.000000	51.489300
1052.000000	51.485000
1051.000000	51.432400
1050.000000	51.389000
1049.000000	51.370200
1048.000000	51.277800
1047.000000	51.267400
1046.000000	51.159600
1045.000000	51.203800
1044.000000	51.193100
1043.000000	51.088500
1042.000000	51.120300
1041.000000	51.066400
1040.000000	51.088500
1039.000000	51.018400
1038.000000	51.035300
1037.000000	51.030800
1036.000000	50.962700
1035.000000	50.901200
1034.000000	50.887500
1033.000000	50.865100
1032.000000	50.828500
1031.000000	50.814900
1030.000000	50.830600
1029.000000	50.749600
1028.000000	50.681200
1027.000000	50.644500
1026.000000	50.611300
1025.000000	50.605200
1024.000000	50.540200
1023.000000	50.535800
1022.000000	50.516900
1021.000000	50.483100
1020.000000	50.477300
1019.000000	50.459100
1018.000000	50.429600
1017.000000	50.423000
1016.000000	50.368800
1015.000000	50.354100
1014.000000	50.340300
1013.000000	50.329600
1012.000000	50.279400
1011.000000	50.279500
1010.000000	50.243400
1009.000000	50.223800
1008.000000	50.270500
1007.000000	50.233400
1006.000000	50.175200
1005.000000	50.131800
1004.000000	50.113700
1003.000000	50.135800
1002.000000	50.159100
1001.000000	50.102800
1000.000000	50.075200
999.000000	50.076600
998.000000	50.066100
997.000000	49.947300
996.000000	49.970900
995.000000	49.954200
994.000000	49.986000
993.000000	49.962600
992.000000	49.980400
991.000000	49.973600
990.000000	49.947000
989.000000	49.935900
988.000000	49.886400
987.000000	49.877500
986.000000	49.895900
985.000000	49.942600
984.000000	49.924500
983.000000	49.866500
982.000000	49.952000
981.000000	49.960700
980.000000	49.955100
979.000000	49.937300
978.000000	49.977600
977.000000	49.967200
976.000000	49.939600
975.000000	49.913200
974.000000	49.904800
973.000000	49.986400
972.000000	49.894300
971.000000	49.882000
970.000000	49.856000
969.000000	49.941300
968.000000	49.924600
967.000000	49.929900
966.000000	49.945000
965.000000	49.990000
964.000000	49.967300
963.000000	49.927300
962.000000	49.953600
961.000000	49.974600
960.000000	50.000700
959.000000	50.040300
958.000000	50.019900
957.000000	49.989100
956.000000	49.994500
955.000000	49.995100
954.000000	50.046000
953.000000	50.139800
952.000000	50.114000
951.000000	50.148800
950.000000	50.163600
949.000000	50.115100
948.000000	50.073200
947.000000	50.079600
946.000000	50.206000
945.000000	50.292600
944.000000	50.325700
943.000000	50.275400
942.000000	50.314900
941.000000	50.220700
940.000000	50.279500
939.000000	50.279900
938.000000	50.203500
937.000000	50.203200
936.000000	50.170800
935.000000	50.277800
934.000000	50.373600
933.000000	50.474700
932.000000	50.435000
931.000000	50.391700
930.000000	50.510600
929.000000	50.515600
928.000000	50.448000
927.000000	50.441000
926.000000	50.451100
925.000000	50.534700
924.000000	50.525500
923.000000	50.666000
922.000000	50.597600
921.000000	50.507300
920.000000	50.684600
919.000000	50.650900
918.000000	50.674800
917.000000	50.704300
916.000000	50.630100
915.000000	50.721400
914.000000	50.868000
913.000000	50.872600
912.000000	50.813200
911.000000	51.092600
910.000000	50.966800
909.000000	50.838800
908.000000	50.946000
907.000000	51.069200
906.000000	51.377700
905.000000	51.357900
904.000000	51.332700
903.000000	51.341300
902.000000	51.371700
901.000000	51.448500
900.000000	51.367900
899.000000	51.437000
898.000000	51.498200
897.000000	51.382200
896.000000	51.577300
895.000000	51.988300
894.000000	51.876400
893.000000	51.808000
892.000000	51.733000
891.000000	51.836500
890.000000	51.862600
889.000000	52.278800
888.000000	52.204000
887.000000	52.106100
886.000000	52.630700
885.000000	52.833000
884.000000	52.578300
883.000000	52.651700
882.000000	52.870500
881.000000	52.863100
880.000000	52.790400
879.000000	52.759700
878.000000	52.796000
877.000000	52.951900
876.000000	53.427200
875.000000	53.432600
874.000000	53.908800
873.000000	53.478200
872.000000	53.696400
871.000000	54.379100
870.000000	53.828500
869.000000	53.954700
868.000000	53.529200
867.000000	54.446200
866.000000	54.236900
865.000000	53.929300
864.000000	54.438500
863.000000	54.627800
862.000000	54.740100
861.000000	55.209400
860.000000	54.912600
859.000000	54.878400
858.000000	51.602000
857.000000	54.243640
856.000000	54.100250
855.000000	54.167287
854.000000	54.283798
853.000000	54.339804
852.000000	54.415408
851.000000	54.473556
850.000000	54.584820
849.000000	54.607522
848.000000	54.853502
847.000000	54.882629
846.000000	54.990788
845.000000	55.236553
844.000000	55.287419
843.000000	55.864726
842.000000	55.503521
841.000000	55.422242
840.000000	55.584051
839.000000	55.663188
838.000000	55.925552
837.000000	55.965281
836.000000	56.046668
835.000000	56.372213
834.000000	56.651282
833.000000	56.549977
832.000000	56.723352
831.000000	56.827226
830.000000	56.979933
829.000000	57.135209
828.000000	57.334820
827.000000	57.534644
826.000000	57.713694
825.000000	57.758028
824.000000	57.974345
823.000000	58.140758
822.000000	58.377421
821.000000	58.528200
820.000000	58.751262
819.000000	59.179397
818.000000	59.248790
817.000000	59.505906
816.000000	59.705624
815.000000	59.892384
814.000000	60.150464
813.000000	60.460374
812.000000	60.559644
811.000000	60.787312
810.000000	61.249929
809.000000	61.508330
808.000000	61.760735
807.000000	62.182765
806.000000	62.287175
805.000000	62.549432
804.000000	62.879689
803.000000	63.013120
802.000000	63.430867
801.000000	63.700191
800.000000	63.994360
799.000000	64.288207
798.000000	64.510949
797.000000	64.738188
796.000000	64.992841
795.000000	65.243318
794.000000	65.496794
793.000000	65.593386
792.000000	65.894408
791.000000	66.204854
790.000000	66.359917
789.000000	66.478034
788.000000	66.822105
787.000000	66.982200
786.000000	67.265018
785.000000	67.375211
784.000000	67.501038
783.000000	67.825084
782.000000	68.025230
781.000000	68.184897
780.000000	68.473176
779.000000	68.702878
778.000000	68.758670
777.000000	68.953890
776.000000	69.125337
775.000000	69.315417
774.000000	69.665485
773.000000	69.856743
772.000000	69.974967
771.000000	69.963830
770.000000	70.118357
769.000000	70.259177
768.000000	70.358339
767.000000	70.471852
766.000000	70.571871
765.000000	70.648331
764.000000	70.739141
763.000000	70.806392
762.000000	70.823955
761.000000	70.947854
760.000000	71.014784
759.000000	71.135471
758.000000	71.136328
757.000000	71.228637
756.000000	71.146073
755.000000	71.326301
754.000000	71.326087
753.000000	71.361961
752.000000	71.440884
751.000000	71.552683
750.000000	71.395265
749.000000	71.396014
748.000000	71.414541
747.000000	71.408758
746.000000	71.405759
745.000000	71.411863
744.000000	71.366565
743.000000	71.334761
742.000000	71.230886
741.000000	71.193941
740.000000	71.143289
739.000000	71.078180
738.000000	70.898273
737.000000	70.787224
736.000000	70.790650
735.000000	70.736464
734.000000	70.577333
733.000000	70.491663
732.000000	70.290339
731.000000	70.252109
730.000000	70.134420
729.000000	70.040933
728.000000	69.877196
727.000000	69.764434
726.000000	69.615582
725.000000	69.432142
724.000000	69.305244
723.000000	69.210150
722.000000	69.016858
721.000000	68.788869
720.000000	68.602002
719.000000	68.381509
718.000000	68.218951
717.000000	67.967617
716.000000	67.727528
715.000000	67.419330
714.000000	67.147757
713.000000	66.876827
712.000000	66.472144
711.000000	66.120684
710.000000	65.838295
709.000000	65.491011
708.000000	65.132911
707.000000	64.786377
706.000000	64.425065
705.000000	64.084206
704.000000	63.770441
703.000000	63.460744
702.000000	63.099539
701.000000	62.815437
700.000000	62.508096
699.000000	62.122368
698.000000	61.787506
697.000000	61.444613
696.000000	61.046891
695.000000	60.753579
694.000000	60.500318
693.000000	60.226924
692.000000	59.880283
691.000000	59.562984
690.000000	59.236368
689.000000	58.876876
688.000000	58.568893
687.000000	58.275688
686.000000	57.963422
685.000000	57.678891
684.000000	57.319828
683.000000	56.963013
682.000000	56.605234
681.000000	56.280118
680.000000	55.929086
679.000000	55.651302
678.000000	55.349316
677.000000	54.986825
676.000000	54.646502
675.000000	54.340982
674.000000	54.029573
673.000000	53.741615
672.000000	53.479680
671.000000	53.221600
670.000000	52.930215
669.000000	52.599958
668.000000	52.302042
667.000000	52.008944
666.000000	51.756004
665.000000	51.477577
664.000000	51.155780
663.000000	50.789970
662.000000	50.456072
661.000000	50.117034
660.000000	49.750260
659.000000	49.359820
658.000000	48.992083
657.000000	48.646298
656.000000	48.281773
655.000000	47.925708
654.000000	47.609587
653.000000	47.320023
652.000000	47.050163
651.000000	46.796045
650.000000	46.561203
649.000000	46.344672
648.000000	46.150952
647.000000	46.004992
646.000000	45.848216
645.000000	45.709966
644.000000	45.614980
643.000000	45.517745
642.000000	45.465272
641.000000	45.460346
640.000000	45.394809
639.000000	45.302714
638.000000	45.216187
637.000000	45.110706
636.000000	45.014114
635.000000	44.904992
634.000000	44.765564
633.000000	44.599365
632.000000	44.417531
631.000000	44.224452
630.000000	44.030196
629.000000	43.844293
628.000000	43.622408
627.000000	43.367969
626.000000	43.128201
625.000000	42.901604
624.000000	42.673508
623.000000	42.474647
622.000000	42.272359
621.000000	42.079281
620.000000	41.899268
619.000000	41.727821
618.000000	41.606384
617.000000	41.486661
616.000000	41.369079
615.000000	41.261884
614.000000	41.151370
613.000000	41.064416
612.000000	40.986670
611.000000	40.960006
610.000000	40.979710
609.000000	41.029934
608.000000	41.057134
607.000000	41.113997
606.000000	41.192064
605.000000	41.261884
604.000000	41.377324
603.000000	41.524248
602.000000	41.697408
601.000000	41.876886
600.000000	42.078103
599.000000	42.312731
598.000000	42.573382
597.000000	42.870335
596.000000	43.145977
595.000000	43.452996
594.000000	43.745130
593.000000	44.037799
592.000000	44.348459
591.000000	44.671435
590.000000	44.998479
589.000000	45.346619
588.000000	45.638646
587.000000	45.951341
586.000000	46.251292
585.000000	46.543748
584.000000	46.799579
583.000000	47.033136
582.000000	47.288646
581.000000	47.578210
580.000000	47.765720
579.000000	47.965223
578.000000	48.164834
577.000000	48.381578
576.000000	48.560200
575.000000	48.696736
574.000000	48.820422
573.000000	48.953210
572.000000	49.097349
571.000000	49.253054
570.000000	49.348576
569.000000	49.419468
568.000000	49.523449
567.000000	49.632785
566.000000	49.649384
565.000000	49.688471
564.000000	49.741265
563.000000	49.779495
562.000000	49.843961
561.000000	49.865486
560.000000	49.873089
559.000000	49.971931
558.000000	50.003843
557.000000	50.029222
556.000000	50.079660
555.000000	50.040359
554.000000	50.026117
553.000000	50.044536
552.000000	50.030615
551.000000	49.996347
550.000000	49.956189
549.000000	49.889366
548.000000	49.811300
547.000000	49.655702
546.000000	49.586631
545.000000	49.442170
544.000000	49.225961
543.000000	49.037702
542.000000	48.804680
541.000000	48.570802
540.000000	48.341635
539.000000	48.082163
538.000000	47.820977
537.000000	47.571464
536.000000	47.271191
535.000000	46.956247
534.000000	46.593971
533.000000	46.233302
532.000000	45.867599
531.000000	45.479943
530.000000	45.055128
529.000000	44.611680
528.000000	44.173265
527.000000	43.678201
526.000000	43.218368
525.000000	42.683467
524.000000	42.156919
523.000000	41.602422
522.000000	41.005625
521.000000	40.452091
520.000000	39.894702
519.000000	39.355304
518.000000	38.812371
517.000000	38.225962
516.000000	37.705411
515.000000	37.181968
514.000000	36.655206
513.000000	36.129515
512.000000	35.611641
511.000000	35.134996
510.000000	34.666918
509.000000	34.230216
508.000000	33.757640
507.000000	33.328113
506.000000	32.896017
505.000000	32.482446
504.000000	32.080226
503.000000	31.607650
502.000000	31.214319
501.000000	30.832660
500.000000	30.420160
499.000000	30.085727
498.000000	29.706102
497.000000	29.351001
496.000000	29.022779
495.000000	28.684812
494.000000	28.399531
493.000000	28.064348
492.000000	27.725631
491.000000	27.443456
490.000000	27.153786
489.000000	26.894206
488.000000	26.619099
487.000000	26.368729
486.000000	26.110113
485.000000	25.869488
484.000000	25.559899
483.000000	25.295929
482.000000	24.987411
481.000000	24.596971
480.000000	24.181258
479.000000	23.857748
478.000000	23.586389
477.000000	23.339017
476.000000	23.079438
475.000000	22.844917
474.000000	22.597760
473.000000	22.378980
472.000000	22.138356
471.000000	21.893019
470.000000	21.661175
469.000000	21.447107
468.000000	21.214193
467.000000	21.009656
466.000000	20.786165
465.000000	20.589125
464.000000	20.401294
463.000000	20.189368
462.000000	19.991899
461.000000	19.770229
460.000000	19.580898
459.000000	19.375398
458.000000	19.219051
457.000000	19.017406
456.000000	18.824434
455.000000	18.596124
454.000000	18.377024
453.000000	18.183089
452.000000	17.983478
451.000000	17.764164
450.000000	17.535425
449.000000	17.286341
448.000000	17.031152
447.000000	16.777569
446.000000	16.537587
445.000000	16.310776
444.000000	16.096280
443.000000	15.798578
442.000000	15.523364
441.000000	15.201888
440.000000	14.915001
439.000000	14.619440
438.000000	14.323666
437.000000	14.053377
436.000000	13.746572
435.000000	13.449941
434.000000	13.157700
433.000000	12.873276
432.000000	12.558226
431.000000	12.276800
430.000000	12.020541
429.000000	11.737188
428.000000	11.432311
427.000000	11.152813
426.000000	10.907262
425.000000	10.634725
424.000000	10.390138
423.000000	10.160757
422.000000	9.922916
421.000000	9.702316
420.000000	9.469830
419.000000	9.249338
418.000000	9.035913
417.000000	8.823773
416.000000	8.626304
415.000000	8.445862
414.000000	8.249785
413.000000	8.079195
412.000000	7.927239
411.000000	7.756756
410.000000	7.603193
409.000000	7.446417
408.000000	7.321875
407.000000	7.167776
406.000000	7.040664
405.000000	6.914301
404.000000	6.792757
403.000000	6.698948
402.000000	6.593039
401.000000	6.496339
400.000000	6.402745
399.000000	6.301440
398.000000	6.219733
397.000000	6.146057
396.000000	6.078164
395.000000	6.008557
394.000000	5.946768
393.000000	5.885300
392.000000	5.826723
391.000000	5.776285
390.000000	5.721884
389.000000	5.677872
388.000000	5.623150
387.000000	5.588132
386.000000	5.557291
385.000000	5.497644
384.000000	5.448598
383.000000	5.407155
382.000000	5.374815
381.000000	5.349542
380.000000	5.310884
379.000000	5.279293
378.000000	5.266335
377.000000	5.247809
376.000000	5.191053
375.000000	5.043915
374.000000	4.748569
373.000000	4.621563
372.000000	4.779196
371.000000	4.914768
370.000000	4.750603
369.000000	4.805646
368.000000	4.875253
367.000000	4.805325
366.000000	4.732291
365.000000	4.686030
364.000000	4.750496
363.000000	4.797293
362.000000	4.704342
361.000000	4.727580
360.000000	4.656795
359.000000	4.641910
358.000000	4.615352
357.000000	4.618136
356.000000	4.587188
355.000000	4.551635
354.000000	4.546602
353.000000	4.532788
352.000000	4.621135
351.000000	4.565557
350.000000	4.544139
349.000000	4.483314
348.000000	4.385543
347.000000	4.352881
346.000000	4.350311
345.000000	4.531610
344.000000	4.541462
343.000000	4.572624
342.000000	4.662899
341.000000	4.437373
340.000000	4.358450
339.000000	4.485991
338.000000	4.531503
337.000000	4.506552
336.000000	4.511692
335.000000	4.473783
334.000000	4.401820
333.000000	4.514797
332.000000	4.557204
331.000000	4.420239
330.000000	4.569305
329.000000	4.622955
328.000000	4.598432
327.000000	4.708518
326.000000	4.781337
325.000000	4.831883
324.000000	4.632058
323.000000	4.621456
322.000000	4.739252
321.000000	4.945823
320.000000	4.755422
319.000000	4.618244
318.000000	4.945395
317.000000	4.840771
316.000000	4.459112
315.000000	4.275029
314.000000	4.258430
313.000000	4.251791
312.000000	4.267961
311.000000	4.314651
310.000000	4.320862
309.000000	4.314223
308.000000	4.295804
307.000000	4.245473
306.000000	4.285309
305.000000	4.306941
304.000000	4.276528
303.000000	4.308012
302.000000	4.316579
301.000000	4.320969
300.000000	4.322254
299.000000	4.285095
298.000000	4.355344
297.000000	4.386400
296.000000	4.370872
295.000000	4.266355
294.000000	4.208849
293.000000	4.244937
292.000000	4.279634
291.000000	4.278991
290.000000	4.306620
289.000000	4.289700
288.000000	4.258966
287.000000	4.252005
286.000000	4.262071
285.000000	4.297839
284.000000	4.247079
283.000000	4.228767
282.000000	4.271816
281.000000	4.366803
280.000000	4.334998
279.000000	4.304799
278.000000	4.268175
277.000000	4.269460
276.000000	4.284346
275.000000	4.301801
274.000000	4.318292
273.000000	4.275886
272.000000	4.324182
271.000000	4.328465
270.000000	4.329965
269.000000	4.377619
268.000000	4.438337
267.000000	4.398286
266.000000	4.379439
265.000000	4.414778
264.000000	4.418419
263.000000	4.436731
262.000000	4.464788
261.000000	4.446369
260.000000	4.443584
259.000000	4.499805
258.000000	4.522722
257.000000	4.543925
256.000000	4.565557
255.000000	4.550350
254.000000	4.570054
253.000000	4.577015
252.000000	4.613210
251.000000	4.605393
250.000000	4.603144
