PE UV       SUBTECH     SPECTRUM    ASCII       PEDS        4.00        
   -1
CICIMAUCR0020-2.Sample.ASC
24/04/17
09:09:44.00
24/04/17
09:09:44.00
Vinicio Soto Monge
C. resplendens
250,000000
1
Lambda 1050
1050L1511233
PerkinElmer UV WinLab 6.3.2.0749 / 2.02.05 Lambda 900 UV/VIS/NIR, Aug  7 2015 09:38:08

0
0
3350/servo 860,8/2
0
0
UV/VIS
1
1
1
DoubleDePol,CommonBeamDepol,RBeamAtt,SBeamAtt,60mm sphere, WB InGaAs Detector
0
0
0
0
Program
Program
3350/servo 860,8/2
3350/0,2 860,8/0,2
3350/0,2 860,8/0,2
0
15.00
 
 
 
0
 
860,8
319,2
860,8
Front
100
on
S:100 R:100
0
0
0
0
 
0
 
 
 
0
 
 
0
0
0
0
0
 
 
 
 
0
0


0
0
#HDR
-1
-1
#GR
nm
%R
1.0
0.0
2500,000000
-1,000000
2251
8
83,706800
5,981400
#DATA
2500.000000	17.281800
2499.000000	17.197600
2498.000000	17.209300
2497.000000	17.150200
2496.000000	17.128800
2495.000000	17.130000
2494.000000	17.128800
2493.000000	17.123000
2492.000000	17.125800
2491.000000	17.102600
2490.000000	17.182900
2489.000000	17.082900
2488.000000	17.075300
2487.000000	17.110500
2486.000000	17.155200
2485.000000	17.169900
2484.000000	17.146800
2483.000000	17.176000
2482.000000	17.154100
2481.000000	17.190400
2480.000000	17.212800
2479.000000	17.173000
2478.000000	17.244400
2477.000000	17.284000
2476.000000	17.280900
2475.000000	17.300000
2474.000000	17.302100
2473.000000	17.410300
2472.000000	17.458400
2471.000000	17.440300
2470.000000	17.518500
2469.000000	17.537500
2468.000000	17.543200
2467.000000	17.614100
2466.000000	17.650400
2465.000000	17.708900
2464.000000	17.755400
2463.000000	17.830600
2462.000000	17.878500
2461.000000	17.937600
2460.000000	17.997600
2459.000000	18.041900
2458.000000	18.124500
2457.000000	18.190800
2456.000000	18.275200
2455.000000	18.371300
2454.000000	18.439400
2453.000000	18.515600
2452.000000	18.597900
2451.000000	18.708900
2450.000000	18.829000
2449.000000	18.912000
2448.000000	18.994000
2447.000000	19.120500
2446.000000	19.222300
2445.000000	19.350200
2444.000000	19.458900
2443.000000	19.561000
2442.000000	19.662600
2441.000000	19.767700
2440.000000	19.867300
2439.000000	19.961700
2438.000000	20.069000
2437.000000	20.171100
2436.000000	20.249200
2435.000000	20.356400
2434.000000	20.445600
2433.000000	20.531000
2432.000000	20.628100
2431.000000	20.717800
2430.000000	20.802100
2429.000000	20.900200
2428.000000	20.956500
2427.000000	21.035100
2426.000000	21.126200
2425.000000	21.262800
2424.000000	21.469500
2423.000000	21.688700
2422.000000	21.832200
2421.000000	21.944500
2420.000000	21.997900
2419.000000	22.107100
2418.000000	22.233800
2417.000000	22.309400
2416.000000	22.420900
2415.000000	22.482300
2414.000000	22.556100
2413.000000	22.678600
2412.000000	22.794700
2411.000000	22.822800
2410.000000	22.896000
2409.000000	23.004100
2408.000000	23.065000
2407.000000	23.150300
2406.000000	23.180500
2405.000000	23.234300
2404.000000	23.319500
2403.000000	23.372200
2402.000000	23.437800
2401.000000	23.459200
2400.000000	23.514800
2399.000000	23.589400
2398.000000	23.619700
2397.000000	23.667600
2396.000000	23.724300
2395.000000	23.733000
2394.000000	23.779900
2393.000000	23.847500
2392.000000	23.868100
2391.000000	23.860400
2390.000000	23.889100
2389.000000	23.945800
2388.000000	23.951100
2387.000000	24.004300
2386.000000	24.053300
2385.000000	24.041200
2384.000000	24.066200
2383.000000	24.118700
2382.000000	24.117700
2381.000000	24.099400
2380.000000	24.115800
2379.000000	24.142200
2378.000000	24.115700
2377.000000	24.094000
2376.000000	24.123400
2375.000000	24.156100
2374.000000	24.137900
2373.000000	24.119900
2372.000000	24.145200
2371.000000	24.175600
2370.000000	24.160200
2369.000000	24.190200
2368.000000	24.221600
2367.000000	24.206600
2366.000000	24.193200
2365.000000	24.215900
2364.000000	24.234400
2363.000000	24.222500
2362.000000	24.220300
2361.000000	24.260400
2360.000000	24.285400
2359.000000	24.276700
2358.000000	24.277200
2357.000000	24.298000
2356.000000	24.309400
2355.000000	24.303200
2354.000000	24.301900
2353.000000	24.343500
2352.000000	24.357400
2351.000000	24.332000
2350.000000	24.315800
2349.000000	24.338900
2348.000000	24.361900
2347.000000	24.357500
2346.000000	24.395000
2345.000000	24.415500
2344.000000	24.390100
2343.000000	24.414500
2342.000000	24.433400
2341.000000	24.438300
2340.000000	24.487100
2339.000000	24.508700
2338.000000	24.499400
2337.000000	24.558000
2336.000000	24.587700
2335.000000	24.617200
2334.000000	24.643900
2333.000000	24.652400
2332.000000	24.694300
2331.000000	24.736600
2330.000000	24.788200
2329.000000	24.833500
2328.000000	24.861200
2327.000000	24.928800
2326.000000	24.966600
2325.000000	25.002100
2324.000000	25.041600
2323.000000	25.057200
2322.000000	25.062000
2321.000000	25.106600
2320.000000	25.144000
2319.000000	25.150000
2318.000000	25.137500
2317.000000	25.118400
2316.000000	25.136500
2315.000000	25.120400
2314.000000	25.083700
2313.000000	25.085400
2312.000000	25.057000
2311.000000	25.027800
2310.000000	24.984700
2309.000000	24.974200
2308.000000	24.932000
2307.000000	24.878400
2306.000000	24.876900
2305.000000	24.851000
2304.000000	24.838500
2303.000000	24.813000
2302.000000	24.808500
2301.000000	24.808400
2300.000000	24.807400
2299.000000	24.826600
2298.000000	24.830100
2297.000000	24.831400
2296.000000	24.853300
2295.000000	24.889300
2294.000000	24.910900
2293.000000	24.929400
2292.000000	24.988500
2291.000000	25.035800
2290.000000	25.067500
2289.000000	25.068900
2288.000000	25.143700
2287.000000	25.187600
2286.000000	25.224300
2285.000000	25.272500
2284.000000	25.333400
2283.000000	25.386800
2282.000000	25.440800
2281.000000	25.485100
2280.000000	25.559300
2279.000000	25.590300
2278.000000	25.623400
2277.000000	25.672800
2276.000000	25.738100
2275.000000	25.763500
2274.000000	25.796900
2273.000000	25.820100
2272.000000	25.891900
2271.000000	25.945400
2270.000000	25.982400
2269.000000	26.027300
2268.000000	26.134700
2267.000000	26.190900
2266.000000	26.261200
2265.000000	26.360500
2264.000000	26.481500
2263.000000	26.569000
2262.000000	26.697400
2261.000000	26.841500
2260.000000	26.980500
2259.000000	27.163500
2258.000000	27.340200
2257.000000	27.507200
2256.000000	27.667500
2255.000000	27.852100
2254.000000	28.071400
2253.000000	28.249400
2252.000000	28.432100
2251.000000	28.602400
2250.000000	28.799200
2249.000000	28.989600
2248.000000	29.122300
2247.000000	29.288600
2246.000000	29.419900
2245.000000	29.605700
2244.000000	29.709500
2243.000000	29.819200
2242.000000	29.913400
2241.000000	29.983100
2240.000000	30.097200
2239.000000	30.171200
2238.000000	30.205100
2237.000000	30.233900
2236.000000	30.263000
2235.000000	30.284200
2234.000000	30.328500
2233.000000	30.324300
2232.000000	30.317000
2231.000000	30.291300
2230.000000	30.262600
2229.000000	30.226400
2228.000000	30.207200
2227.000000	30.150700
2226.000000	30.089900
2225.000000	30.005800
2224.000000	29.953800
2223.000000	29.884600
2222.000000	29.797200
2221.000000	29.700500
2220.000000	29.605100
2219.000000	29.514700
2218.000000	29.431000
2217.000000	29.355100
2216.000000	29.262800
2215.000000	29.194600
2214.000000	29.097100
2213.000000	29.019000
2212.000000	28.923100
2211.000000	28.847400
2210.000000	28.783800
2209.000000	28.702900
2208.000000	28.639000
2207.000000	28.563000
2206.000000	28.509000
2205.000000	28.446200
2204.000000	28.404300
2203.000000	28.359500
2202.000000	28.333600
2201.000000	28.278400
2200.000000	28.239000
2199.000000	28.171600
2198.000000	28.154500
2197.000000	28.135200
2196.000000	28.074600
2195.000000	28.047200
2194.000000	28.027000
2193.000000	28.015300
2192.000000	27.991300
2191.000000	27.957400
2190.000000	27.939700
2189.000000	27.928600
2188.000000	27.887300
2187.000000	27.851800
2186.000000	27.820600
2185.000000	27.804200
2184.000000	27.779800
2183.000000	27.741600
2182.000000	27.733200
2181.000000	27.717900
2180.000000	27.698700
2179.000000	27.666100
2178.000000	27.640800
2177.000000	27.615900
2176.000000	27.615700
2175.000000	27.599600
2174.000000	27.596200
2173.000000	27.605000
2172.000000	27.614900
2171.000000	27.633300
2170.000000	27.653800
2169.000000	27.678100
2168.000000	27.678900
2167.000000	27.725100
2166.000000	27.753700
2165.000000	27.777800
2164.000000	27.833200
2163.000000	27.883200
2162.000000	27.953700
2161.000000	28.031600
2160.000000	28.089800
2159.000000	28.153000
2158.000000	28.242900
2157.000000	28.356300
2156.000000	28.456200
2155.000000	28.550200
2154.000000	28.663400
2153.000000	28.776400
2152.000000	28.901100
2151.000000	29.031600
2150.000000	29.145100
2149.000000	29.256900
2148.000000	29.387200
2147.000000	29.522000
2146.000000	29.659700
2145.000000	29.780100
2144.000000	29.896800
2143.000000	30.016200
2142.000000	30.135800
2141.000000	30.258800
2140.000000	30.362000
2139.000000	30.474100
2138.000000	30.591600
2137.000000	30.714400
2136.000000	30.819500
2135.000000	30.939100
2134.000000	31.065000
2133.000000	31.159000
2132.000000	31.266800
2131.000000	31.370000
2130.000000	31.428000
2129.000000	31.506400
2128.000000	31.600900
2127.000000	31.700400
2126.000000	31.766000
2125.000000	31.833500
2124.000000	31.911000
2123.000000	31.985800
2122.000000	32.039500
2121.000000	32.094400
2120.000000	32.138700
2119.000000	32.190200
2118.000000	32.246500
2117.000000	32.286000
2116.000000	32.323300
2115.000000	32.340600
2114.000000	32.381200
2113.000000	32.414400
2112.000000	32.433000
2111.000000	32.448900
2110.000000	32.464100
2109.000000	32.489000
2108.000000	32.504800
2107.000000	32.503800
2106.000000	32.510600
2105.000000	32.550200
2104.000000	32.561300
2103.000000	32.560900
2102.000000	32.570400
2101.000000	32.575800
2100.000000	32.575000
2099.000000	32.581500
2098.000000	32.597400
2097.000000	32.614300
2096.000000	32.620000
2095.000000	32.642800
2094.000000	32.664300
2093.000000	32.664400
2092.000000	32.679000
2091.000000	32.704300
2090.000000	32.704200
2089.000000	32.715700
2088.000000	32.730600
2087.000000	32.716300
2086.000000	32.718100
2085.000000	32.707400
2084.000000	32.674200
2083.000000	32.654900
2082.000000	32.617100
2081.000000	32.570400
2080.000000	32.520500
2079.000000	32.442900
2078.000000	32.379300
2077.000000	32.306400
2076.000000	32.219500
2075.000000	32.127400
2074.000000	32.024500
2073.000000	31.906000
2072.000000	31.781900
2071.000000	31.671700
2070.000000	31.549000
2069.000000	31.416600
2068.000000	31.283400
2067.000000	31.154100
2066.000000	31.020200
2065.000000	30.894800
2064.000000	30.768400
2063.000000	30.650700
2062.000000	30.535700
2061.000000	30.426100
2060.000000	30.330900
2059.000000	30.243500
2058.000000	30.171900
2057.000000	30.116500
2056.000000	30.086900
2055.000000	30.081300
2054.000000	30.084900
2053.000000	30.115500
2052.000000	30.174400
2051.000000	30.250700
2050.000000	30.342300
2049.000000	30.468200
2048.000000	30.586700
2047.000000	30.744200
2046.000000	30.889700
2045.000000	31.047800
2044.000000	31.234900
2043.000000	31.401600
2042.000000	31.582500
2041.000000	31.759600
2040.000000	31.939900
2039.000000	32.117500
2038.000000	32.268400
2037.000000	32.429800
2036.000000	32.580400
2035.000000	32.732400
2034.000000	32.870400
2033.000000	33.009700
2032.000000	33.120500
2031.000000	33.253600
2030.000000	33.368600
2029.000000	33.472700
2028.000000	33.578800
2027.000000	33.678800
2026.000000	33.769100
2025.000000	33.863600
2024.000000	33.926200
2023.000000	34.004000
2022.000000	34.065700
2021.000000	34.135200
2020.000000	34.194200
2019.000000	34.248500
2018.000000	34.294000
2017.000000	34.329600
2016.000000	34.355200
2015.000000	34.395000
2014.000000	34.404700
2013.000000	34.412800
2012.000000	34.416900
2011.000000	34.417900
2010.000000	34.403700
2009.000000	34.397000
2008.000000	34.364300
2007.000000	34.324000
2006.000000	34.299400
2005.000000	34.264400
2004.000000	34.218200
2003.000000	34.158300
2002.000000	34.100200
2001.000000	34.027400
2000.000000	33.968800
1999.000000	33.891200
1998.000000	33.801200
1997.000000	33.722000
1996.000000	33.623100
1995.000000	33.528100
1994.000000	33.414700
1993.000000	33.337800
1992.000000	33.219400
1991.000000	33.108300
1990.000000	32.988200
1989.000000	32.891700
1988.000000	32.788200
1987.000000	32.647400
1986.000000	32.533100
1985.000000	32.415900
1984.000000	32.307300
1983.000000	32.184200
1982.000000	32.052700
1981.000000	31.935100
1980.000000	31.838900
1979.000000	31.704200
1978.000000	31.585000
1977.000000	31.487300
1976.000000	31.356600
1975.000000	31.242100
1974.000000	31.164800
1973.000000	31.046400
1972.000000	30.941800
1971.000000	30.825300
1970.000000	30.727600
1969.000000	30.617700
1968.000000	30.522800
1967.000000	30.429600
1966.000000	30.323400
1965.000000	30.210100
1964.000000	30.123700
1963.000000	30.010300
1962.000000	29.886300
1961.000000	29.796300
1960.000000	29.693400
1959.000000	29.567000
1958.000000	29.458500
1957.000000	29.357500
1956.000000	29.240700
1955.000000	29.142200
1954.000000	29.026900
1953.000000	28.897300
1952.000000	28.794700
1951.000000	28.697000
1950.000000	28.610000
1949.000000	28.525200
1948.000000	28.450600
1947.000000	28.353300
1946.000000	28.272200
1945.000000	28.208100
1944.000000	28.118000
1943.000000	28.070900
1942.000000	28.046000
1941.000000	27.992600
1940.000000	27.971300
1939.000000	27.943900
1938.000000	27.926000
1937.000000	27.909100
1936.000000	27.904200
1935.000000	27.916500
1934.000000	27.951300
1933.000000	27.997700
1932.000000	28.062700
1931.000000	28.128500
1930.000000	28.208500
1929.000000	28.310900
1928.000000	28.423300
1927.000000	28.536000
1926.000000	28.651000
1925.000000	28.806600
1924.000000	28.932800
1923.000000	29.133500
1922.000000	29.345400
1921.000000	29.567300
1920.000000	29.791300
1919.000000	29.983800
1918.000000	30.251400
1917.000000	30.472300
1916.000000	30.746300
1915.000000	31.068800
1914.000000	31.440100
1913.000000	31.812000
1912.000000	32.159800
1911.000000	32.519200
1910.000000	32.870600
1909.000000	33.215700
1908.000000	33.654600
1907.000000	34.156500
1906.000000	34.703600
1905.000000	35.280200
1904.000000	35.799500
1903.000000	36.294200
1902.000000	36.853500
1901.000000	37.424700
1900.000000	38.045000
1899.000000	38.665200
1898.000000	39.277500
1897.000000	39.893000
1896.000000	40.427900
1895.000000	41.018700
1894.000000	41.646900
1893.000000	42.303000
1892.000000	43.006700
1891.000000	43.681700
1890.000000	44.308700
1889.000000	44.873800
1888.000000	45.415300
1887.000000	45.961000
1886.000000	46.503500
1885.000000	47.055000
1884.000000	47.567900
1883.000000	48.039000
1882.000000	48.470000
1881.000000	48.884300
1880.000000	49.241800
1879.000000	49.625000
1878.000000	49.988800
1877.000000	50.339400
1876.000000	50.687800
1875.000000	51.010000
1874.000000	51.312300
1873.000000	51.588900
1872.000000	51.849700
1871.000000	52.059300
1870.000000	52.226600
1869.000000	52.410200
1868.000000	52.519000
1867.000000	52.597100
1866.000000	52.657700
1865.000000	52.740600
1864.000000	52.827800
1863.000000	52.928300
1862.000000	53.062100
1861.000000	53.193100
1860.000000	53.308300
1859.000000	53.395500
1858.000000	53.456100
1857.000000	53.494200
1856.000000	53.538400
1855.000000	53.608200
1854.000000	53.620000
1853.000000	53.602200
1852.000000	53.639600
1851.000000	53.672400
1850.000000	53.756000
1849.000000	53.852600
1848.000000	53.844400
1847.000000	53.800400
1846.000000	53.725700
1845.000000	53.669200
1844.000000	53.660700
1843.000000	53.712800
1842.000000	53.749700
1841.000000	53.731900
1840.000000	53.708600
1839.000000	53.673700
1838.000000	53.649000
1837.000000	53.603800
1836.000000	53.540500
1835.000000	53.460200
1834.000000	53.373800
1833.000000	53.311800
1832.000000	53.289300
1831.000000	53.275700
1830.000000	53.264000
1829.000000	53.238200
1828.000000	53.173900
1827.000000	53.144500
1826.000000	53.112700
1825.000000	53.062100
1824.000000	53.051200
1823.000000	53.126200
1822.000000	53.185200
1821.000000	53.177000
1820.000000	53.143200
1819.000000	53.089400
1818.000000	53.048500
1817.000000	53.046000
1816.000000	53.051400
1815.000000	53.028100
1814.000000	53.010100
1813.000000	52.995000
1812.000000	52.972800
1811.000000	52.914600
1810.000000	52.874000
1809.000000	52.853700
1808.000000	52.828100
1807.000000	52.819700
1806.000000	52.777900
1805.000000	52.733600
1804.000000	52.716500
1803.000000	52.704800
1802.000000	52.705100
1801.000000	52.688600
1800.000000	52.621700
1799.000000	52.581100
1798.000000	52.550500
1797.000000	52.537300
1796.000000	52.517500
1795.000000	52.486800
1794.000000	52.469700
1793.000000	52.453800
1792.000000	52.430900
1791.000000	52.416900
1790.000000	52.406400
1789.000000	52.396700
1788.000000	52.398200
1787.000000	52.398700
1786.000000	52.391400
1785.000000	52.381900
1784.000000	52.373500
1783.000000	52.352300
1782.000000	52.336500
1781.000000	52.312700
1780.000000	52.289200
1779.000000	52.260900
1778.000000	52.213800
1777.000000	52.168300
1776.000000	52.122500
1775.000000	52.073600
1774.000000	52.006100
1773.000000	51.963400
1772.000000	51.908200
1771.000000	51.852600
1770.000000	51.795300
1769.000000	51.735000
1768.000000	51.674100
1767.000000	51.619200
1766.000000	51.567700
1765.000000	51.513400
1764.000000	51.478800
1763.000000	51.442900
1762.000000	51.411300
1761.000000	51.380100
1760.000000	51.353100
1759.000000	51.321800
1758.000000	51.298900
1757.000000	51.270100
1756.000000	51.251800
1755.000000	51.211900
1754.000000	51.173800
1753.000000	51.131900
1752.000000	51.078900
1751.000000	51.041900
1750.000000	50.992200
1749.000000	50.934800
1748.000000	50.869800
1747.000000	50.801300
1746.000000	50.711000
1745.000000	50.649200
1744.000000	50.550500
1743.000000	50.473100
1742.000000	50.381100
1741.000000	50.309300
1740.000000	50.235600
1739.000000	50.159100
1738.000000	50.108400
1737.000000	50.055000
1736.000000	49.995700
1735.000000	49.961500
1734.000000	49.917700
1733.000000	49.902400
1732.000000	49.872000
1731.000000	49.844700
1730.000000	49.811400
1729.000000	49.784600
1728.000000	49.764300
1727.000000	49.742100
1726.000000	49.733100
1725.000000	49.751500
1724.000000	49.778800
1723.000000	49.844100
1722.000000	49.926800
1721.000000	50.073600
1720.000000	50.236300
1719.000000	50.438300
1718.000000	50.632400
1717.000000	50.874000
1716.000000	51.078200
1715.000000	51.272000
1714.000000	51.468500
1713.000000	51.633800
1712.000000	51.806200
1711.000000	51.930800
1710.000000	52.036200
1709.000000	52.145100
1708.000000	52.225500
1707.000000	52.284100
1706.000000	52.342200
1705.000000	52.376000
1704.000000	52.388600
1703.000000	52.399000
1702.000000	52.388500
1701.000000	52.395400
1700.000000	52.400900
1699.000000	52.380800
1698.000000	52.374000
1697.000000	52.352100
1696.000000	52.334100
1695.000000	52.314900
1694.000000	52.252800
1693.000000	52.188200
1692.000000	52.151100
1691.000000	52.093000
1690.000000	52.051700
1689.000000	52.070600
1688.000000	52.127400
1687.000000	52.242800
1686.000000	52.414600
1685.000000	52.580600
1684.000000	52.807600
1683.000000	53.000900
1682.000000	53.252800
1681.000000	53.499900
1680.000000	53.746600
1679.000000	53.956600
1678.000000	54.168900
1677.000000	54.387500
1676.000000	54.592600
1675.000000	54.778100
1674.000000	54.963500
1673.000000	55.183300
1672.000000	55.356800
1671.000000	55.558200
1670.000000	55.756600
1669.000000	55.958000
1668.000000	56.148900
1667.000000	56.304000
1666.000000	56.465200
1665.000000	56.630700
1664.000000	56.796300
1663.000000	56.940200
1662.000000	57.066800
1661.000000	57.191800
1660.000000	57.324700
1659.000000	57.410700
1658.000000	57.504300
1657.000000	57.579300
1656.000000	57.663600
1655.000000	57.702000
1654.000000	57.756300
1653.000000	57.785200
1652.000000	57.817500
1651.000000	57.852500
1650.000000	57.842000
1649.000000	57.840700
1648.000000	57.849300
1647.000000	57.850300
1646.000000	57.838700
1645.000000	57.832500
1644.000000	57.829300
1643.000000	57.813400
1642.000000	57.795500
1641.000000	57.787500
1640.000000	57.796000
1639.000000	57.775600
1638.000000	57.752700
1637.000000	57.737900
1636.000000	57.724800
1635.000000	57.687500
1634.000000	57.646500
1633.000000	57.606600
1632.000000	57.572000
1631.000000	57.525700
1630.000000	57.484700
1629.000000	57.442500
1628.000000	57.400600
1627.000000	57.358100
1626.000000	57.305500
1625.000000	57.260700
1624.000000	57.222900
1623.000000	57.187300
1622.000000	57.152100
1621.000000	57.101200
1620.000000	57.067700
1619.000000	57.036600
1618.000000	56.999000
1617.000000	56.973900
1616.000000	56.931000
1615.000000	56.891600
1614.000000	56.849600
1613.000000	56.797800
1612.000000	56.740900
1611.000000	56.692500
1610.000000	56.640400
1609.000000	56.589800
1608.000000	56.506000
1607.000000	56.429900
1606.000000	56.358800
1605.000000	56.286600
1604.000000	56.199300
1603.000000	56.117700
1602.000000	56.048700
1601.000000	55.975300
1600.000000	55.888700
1599.000000	55.803800
1598.000000	55.731500
1597.000000	55.670300
1596.000000	55.590100
1595.000000	55.516200
1594.000000	55.448200
1593.000000	55.393900
1592.000000	55.333900
1591.000000	55.272700
1590.000000	55.208300
1589.000000	55.163300
1588.000000	55.112900
1587.000000	55.055100
1586.000000	55.004800
1585.000000	54.960100
1584.000000	54.909000
1583.000000	54.860500
1582.000000	54.825700
1581.000000	54.790200
1580.000000	54.738600
1579.000000	54.696500
1578.000000	54.670100
1577.000000	54.645300
1576.000000	54.624300
1575.000000	54.613100
1574.000000	54.608500
1573.000000	54.602300
1572.000000	54.613300
1571.000000	54.624400
1570.000000	54.624700
1569.000000	54.630200
1568.000000	54.637900
1567.000000	54.657400
1566.000000	54.681600
1565.000000	54.690100
1564.000000	54.695600
1563.000000	54.710400
1562.000000	54.707300
1561.000000	54.694500
1560.000000	54.686900
1559.000000	54.672600
1558.000000	54.635500
1557.000000	54.589300
1556.000000	54.545100
1555.000000	54.486600
1554.000000	54.423200
1553.000000	54.355000
1552.000000	54.269800
1551.000000	54.183300
1550.000000	54.100000
1549.000000	54.014900
1548.000000	53.929500
1547.000000	53.848300
1546.000000	53.776000
1545.000000	53.710500
1544.000000	53.659600
1543.000000	53.606000
1542.000000	53.557400
1541.000000	53.521600
1540.000000	53.479000
1539.000000	53.431600
1538.000000	53.396800
1537.000000	53.348900
1536.000000	53.311700
1535.000000	53.273900
1534.000000	53.229100
1533.000000	53.187200
1532.000000	53.130700
1531.000000	53.069100
1530.000000	53.021700
1529.000000	52.954500
1528.000000	52.890300
1527.000000	52.838700
1526.000000	52.782700
1525.000000	52.720000
1524.000000	52.665800
1523.000000	52.593000
1522.000000	52.525000
1521.000000	52.465900
1520.000000	52.405900
1519.000000	52.336300
1518.000000	52.269300
1517.000000	52.204800
1516.000000	52.142300
1515.000000	52.078300
1514.000000	52.004200
1513.000000	51.932300
1512.000000	51.850900
1511.000000	51.778300
1510.000000	51.726800
1509.000000	51.658700
1508.000000	51.590200
1507.000000	51.527500
1506.000000	51.478300
1505.000000	51.419600
1504.000000	51.365900
1503.000000	51.301500
1502.000000	51.253500
1501.000000	51.212300
1500.000000	51.164300
1499.000000	51.141300
1498.000000	51.107000
1497.000000	51.081000
1496.000000	51.093000
1495.000000	51.087500
1494.000000	51.089800
1493.000000	51.094100
1492.000000	51.119800
1491.000000	51.141400
1490.000000	51.178000
1489.000000	51.224400
1488.000000	51.275500
1487.000000	51.313000
1486.000000	51.353800
1485.000000	51.389100
1484.000000	51.407700
1483.000000	51.456800
1482.000000	51.519700
1481.000000	51.565100
1480.000000	51.592400
1479.000000	51.630900
1478.000000	51.683900
1477.000000	51.716500
1476.000000	51.752200
1475.000000	51.801400
1474.000000	51.876700
1473.000000	51.949500
1472.000000	52.028200
1471.000000	52.100200
1470.000000	52.126300
1469.000000	52.184300
1468.000000	52.247500
1467.000000	52.354200
1466.000000	52.416400
1465.000000	52.476000
1464.000000	52.555200
1463.000000	52.638500
1462.000000	52.730600
1461.000000	52.806000
1460.000000	52.903800
1459.000000	52.981700
1458.000000	53.103600
1457.000000	53.198300
1456.000000	53.282500
1455.000000	53.376000
1454.000000	53.481000
1453.000000	53.589400
1452.000000	53.712400
1451.000000	53.824600
1450.000000	53.886500
1449.000000	53.924900
1448.000000	54.030200
1447.000000	54.181000
1446.000000	54.331900
1445.000000	54.379300
1444.000000	54.450700
1443.000000	54.569100
1442.000000	54.677700
1441.000000	54.784500
1440.000000	54.899000
1439.000000	55.025900
1438.000000	55.169800
1437.000000	55.250700
1436.000000	55.385400
1435.000000	55.517600
1434.000000	55.670400
1433.000000	55.850300
1432.000000	55.979500
1431.000000	56.146500
1430.000000	56.262100
1429.000000	56.484600
1428.000000	56.655600
1427.000000	56.809000
1426.000000	57.044500
1425.000000	57.261000
1424.000000	57.534100
1423.000000	57.748600
1422.000000	57.913700
1421.000000	58.229100
1420.000000	58.546100
1419.000000	58.808800
1418.000000	59.031600
1417.000000	59.249400
1416.000000	59.604100
1415.000000	60.007900
1414.000000	60.336500
1413.000000	60.587500
1412.000000	60.882700
1411.000000	61.295700
1410.000000	61.703000
1409.000000	62.114400
1408.000000	62.456000
1407.000000	62.823800
1406.000000	63.209800
1405.000000	63.572300
1404.000000	63.863400
1403.000000	64.228700
1402.000000	64.633700
1401.000000	65.199300
1400.000000	65.445500
1399.000000	65.639100
1398.000000	65.870500
1397.000000	66.290000
1396.000000	66.736800
1395.000000	66.992100
1394.000000	67.163100
1393.000000	67.421100
1392.000000	67.737700
1391.000000	67.934900
1390.000000	68.172100
1389.000000	68.506800
1388.000000	68.836300
1387.000000	69.069400
1386.000000	69.309400
1385.000000	69.603000
1384.000000	69.954900
1383.000000	70.114900
1382.000000	70.314300
1381.000000	70.426000
1380.000000	70.477100
1379.000000	70.549700
1378.000000	70.603800
1377.000000	70.705900
1376.000000	70.804500
1375.000000	70.887100
1374.000000	71.011100
1373.000000	71.167600
1372.000000	71.293300
1371.000000	71.411300
1370.000000	71.482000
1369.000000	71.621400
1368.000000	71.750600
1367.000000	71.823100
1366.000000	71.913200
1365.000000	72.025000
1364.000000	72.075700
1363.000000	72.179400
1362.000000	72.327100
1361.000000	72.336900
1360.000000	72.258800
1359.000000	72.362100
1358.000000	72.402400
1357.000000	72.458000
1356.000000	72.563500
1355.000000	72.695100
1354.000000	72.780500
1353.000000	72.830500
1352.000000	72.974900
1351.000000	73.123200
1350.000000	73.272800
1349.000000	73.433600
1348.000000	73.587300
1347.000000	73.694400
1346.000000	73.826200
1345.000000	74.002400
1344.000000	74.142800
1343.000000	74.262200
1342.000000	74.386600
1341.000000	74.522100
1340.000000	74.647500
1339.000000	74.755600
1338.000000	74.858500
1337.000000	74.958000
1336.000000	75.053400
1335.000000	75.137900
1334.000000	75.215100
1333.000000	75.317000
1332.000000	75.406000
1331.000000	75.475400
1330.000000	75.533100
1329.000000	75.589200
1328.000000	75.653200
1327.000000	75.710200
1326.000000	75.763300
1325.000000	75.824400
1324.000000	75.878400
1323.000000	75.920200
1322.000000	75.952700
1321.000000	76.001900
1320.000000	76.046300
1319.000000	76.090700
1318.000000	76.138400
1317.000000	76.170700
1316.000000	76.208600
1315.000000	76.250600
1314.000000	76.294100
1313.000000	76.313800
1312.000000	76.338900
1311.000000	76.370400
1310.000000	76.381900
1309.000000	76.400300
1308.000000	76.427900
1307.000000	76.451000
1306.000000	76.461000
1305.000000	76.473100
1304.000000	76.481500
1303.000000	76.478200
1302.000000	76.483100
1301.000000	76.483100
1300.000000	76.490400
1299.000000	76.494600
1298.000000	76.482500
1297.000000	76.480300
1296.000000	76.475100
1295.000000	76.457800
1294.000000	76.439800
1293.000000	76.433500
1292.000000	76.415300
1291.000000	76.382500
1290.000000	76.368300
1289.000000	76.347200
1288.000000	76.316800
1287.000000	76.289000
1286.000000	76.262400
1285.000000	76.235400
1284.000000	76.201000
1283.000000	76.170900
1282.000000	76.147500
1281.000000	76.123500
1280.000000	76.097800
1279.000000	76.070900
1278.000000	76.057600
1277.000000	76.036500
1276.000000	76.019900
1275.000000	76.002300
1274.000000	75.987200
1273.000000	75.992900
1272.000000	75.995000
1271.000000	75.993900
1270.000000	75.989800
1269.000000	75.988000
1268.000000	75.992900
1267.000000	75.993100
1266.000000	75.990600
1265.000000	75.986900
1264.000000	75.980100
1263.000000	75.969600
1262.000000	75.972000
1261.000000	75.961600
1260.000000	75.943400
1259.000000	75.942900
1258.000000	75.929500
1257.000000	75.899400
1256.000000	75.897100
1255.000000	75.895200
1254.000000	75.873700
1253.000000	75.824600
1252.000000	75.795600
1251.000000	75.770600
1250.000000	75.728500
1249.000000	75.695600
1248.000000	75.655500
1247.000000	75.584600
1246.000000	75.541600
1245.000000	75.512400
1244.000000	75.454700
1243.000000	75.395200
1242.000000	75.335400
1241.000000	75.284900
1240.000000	75.256700
1239.000000	75.206000
1238.000000	75.158400
1237.000000	75.133100
1236.000000	75.087900
1235.000000	75.049900
1234.000000	75.017100
1233.000000	74.977500
1232.000000	74.936400
1231.000000	74.900400
1230.000000	74.861200
1229.000000	74.839100
1228.000000	74.796100
1227.000000	74.770100
1226.000000	74.724700
1225.000000	74.672900
1224.000000	74.644900
1223.000000	74.593600
1222.000000	74.549200
1221.000000	74.512600
1220.000000	74.486000
1219.000000	74.426300
1218.000000	74.394100
1217.000000	74.356000
1216.000000	74.292600
1215.000000	74.244200
1214.000000	74.192400
1213.000000	74.135100
1212.000000	74.085100
1211.000000	73.999200
1210.000000	73.934200
1209.000000	73.882500
1208.000000	73.786000
1207.000000	73.728400
1206.000000	73.649900
1205.000000	73.567800
1204.000000	73.504000
1203.000000	73.443700
1202.000000	73.347600
1201.000000	73.280200
1200.000000	73.219200
1199.000000	73.116000
1198.000000	73.054600
1197.000000	72.975200
1196.000000	72.913700
1195.000000	72.820900
1194.000000	72.752400
1193.000000	72.659300
1192.000000	72.581900
1191.000000	72.513000
1190.000000	72.443500
1189.000000	72.393200
1188.000000	72.360300
1187.000000	72.336900
1186.000000	72.331400
1185.000000	72.331600
1184.000000	72.359300
1183.000000	72.375500
1182.000000	72.419800
1181.000000	72.468700
1180.000000	72.522000
1179.000000	72.593300
1178.000000	72.619700
1177.000000	72.667000
1176.000000	72.728500
1175.000000	72.796300
1174.000000	72.841400
1173.000000	72.918800
1172.000000	72.971800
1171.000000	73.054900
1170.000000	73.137500
1169.000000	73.223100
1168.000000	73.337800
1167.000000	73.447000
1166.000000	73.535100
1165.000000	73.631600
1164.000000	73.748700
1163.000000	73.843900
1162.000000	73.947300
1161.000000	74.033300
1160.000000	74.154200
1159.000000	74.236700
1158.000000	74.327700
1157.000000	74.382800
1156.000000	74.451800
1155.000000	74.520100
1154.000000	74.577900
1153.000000	74.647600
1152.000000	74.635700
1151.000000	74.680800
1150.000000	74.697300
1149.000000	74.747700
1148.000000	74.750500
1147.000000	74.812500
1146.000000	74.827100
1145.000000	74.834100
1144.000000	74.853200
1143.000000	74.876500
1142.000000	74.910400
1141.000000	74.966100
1140.000000	75.002200
1139.000000	75.048500
1138.000000	75.097300
1137.000000	75.158500
1136.000000	75.255500
1135.000000	75.365900
1134.000000	75.386100
1133.000000	75.359100
1132.000000	75.390300
1131.000000	75.428000
1130.000000	75.478900
1129.000000	75.509700
1128.000000	75.521700
1127.000000	75.533300
1126.000000	75.555600
1125.000000	75.549200
1124.000000	75.550600
1123.000000	75.525000
1122.000000	75.509000
1121.000000	75.477900
1120.000000	75.465500
1119.000000	75.417300
1118.000000	75.396000
1117.000000	75.376600
1116.000000	75.337900
1115.000000	75.301900
1114.000000	75.261400
1113.000000	75.235200
1112.000000	75.222300
1111.000000	75.189800
1110.000000	75.137000
1109.000000	75.137400
1108.000000	75.104400
1107.000000	75.079000
1106.000000	75.056000
1105.000000	75.032900
1104.000000	75.008700
1103.000000	74.981400
1102.000000	74.951000
1101.000000	74.917100
1100.000000	74.895300
1099.000000	74.879000
1098.000000	74.854300
1097.000000	74.818800
1096.000000	74.803200
1095.000000	74.780600
1094.000000	74.762700
1093.000000	74.728900
1092.000000	74.697400
1091.000000	74.681900
1090.000000	74.647800
1089.000000	74.604600
1088.000000	74.579500
1087.000000	74.549900
1086.000000	74.508700
1085.000000	74.463200
1084.000000	74.444500
1083.000000	74.412000
1082.000000	74.366900
1081.000000	74.313300
1080.000000	74.283000
1079.000000	74.245700
1078.000000	74.202300
1077.000000	74.170200
1076.000000	74.119300
1075.000000	74.082900
1074.000000	74.042100
1073.000000	73.992900
1072.000000	73.941000
1071.000000	73.903400
1070.000000	73.857100
1069.000000	73.815500
1068.000000	73.767600
1067.000000	73.707900
1066.000000	73.662200
1065.000000	73.614700
1064.000000	73.587600
1063.000000	73.544300
1062.000000	73.476900
1061.000000	73.453900
1060.000000	73.415600
1059.000000	73.370300
1058.000000	73.332000
1057.000000	73.289200
1056.000000	73.258900
1055.000000	73.216500
1054.000000	73.177100
1053.000000	73.132600
1052.000000	73.112700
1051.000000	73.088800
1050.000000	73.043600
1049.000000	73.019500
1048.000000	72.996700
1047.000000	72.957600
1046.000000	72.917400
1045.000000	72.884000
1044.000000	72.862000
1043.000000	72.837300
1042.000000	72.800300
1041.000000	72.763900
1040.000000	72.738700
1039.000000	72.708900
1038.000000	72.671700
1037.000000	72.637000
1036.000000	72.586500
1035.000000	72.537500
1034.000000	72.496700
1033.000000	72.454900
1032.000000	72.410000
1031.000000	72.363700
1030.000000	72.323300
1029.000000	72.280400
1028.000000	72.230400
1027.000000	72.179600
1026.000000	72.131400
1025.000000	72.072800
1024.000000	72.025300
1023.000000	71.990300
1022.000000	71.944900
1021.000000	71.887900
1020.000000	71.844800
1019.000000	71.810200
1018.000000	71.771700
1017.000000	71.738100
1016.000000	71.697600
1015.000000	71.653600
1014.000000	71.625500
1013.000000	71.612000
1012.000000	71.590700
1011.000000	71.567400
1010.000000	71.554800
1009.000000	71.550400
1008.000000	71.554100
1007.000000	71.538700
1006.000000	71.523900
1005.000000	71.540300
1004.000000	71.538000
1003.000000	71.542300
1002.000000	71.558900
1001.000000	71.553200
1000.000000	71.568500
999.000000	71.598000
998.000000	71.625100
997.000000	71.637400
996.000000	71.651900
995.000000	71.663600
994.000000	71.693500
993.000000	71.732400
992.000000	71.745400
991.000000	71.760000
990.000000	71.787400
989.000000	71.823900
988.000000	71.854500
987.000000	71.869800
986.000000	71.885900
985.000000	71.889600
984.000000	71.906500
983.000000	71.908400
982.000000	71.928100
981.000000	71.917800
980.000000	71.924000
979.000000	71.909900
978.000000	71.910200
977.000000	71.877900
976.000000	71.859800
975.000000	71.854700
974.000000	71.840900
973.000000	71.790800
972.000000	71.770500
971.000000	71.771900
970.000000	71.735000
969.000000	71.675000
968.000000	71.658400
967.000000	71.609800
966.000000	71.594900
965.000000	71.580900
964.000000	71.542000
963.000000	71.511500
962.000000	71.508600
961.000000	71.473800
960.000000	71.446800
959.000000	71.456200
958.000000	71.461100
957.000000	71.433200
956.000000	71.413100
955.000000	71.392700
954.000000	71.383200
953.000000	71.427100
952.000000	71.442400
951.000000	71.426200
950.000000	71.419400
949.000000	71.415100
948.000000	71.459900
947.000000	71.457200
946.000000	71.491300
945.000000	71.536300
944.000000	71.545600
943.000000	71.559700
942.000000	71.581100
941.000000	71.645700
940.000000	71.676900
939.000000	71.681900
938.000000	71.686200
937.000000	71.723900
936.000000	71.801900
935.000000	71.830000
934.000000	71.919100
933.000000	71.928400
932.000000	71.954500
931.000000	71.968600
930.000000	72.016400
929.000000	72.024100
928.000000	72.043300
927.000000	72.061900
926.000000	72.149500
925.000000	72.131200
924.000000	72.136400
923.000000	72.145000
922.000000	72.158200
921.000000	72.171600
920.000000	72.253800
919.000000	72.222700
918.000000	72.248600
917.000000	72.246700
916.000000	72.247200
915.000000	72.248200
914.000000	72.237900
913.000000	72.229400
912.000000	72.208000
911.000000	72.186200
910.000000	72.164900
909.000000	72.128300
908.000000	72.100700
907.000000	72.034200
906.000000	72.122500
905.000000	72.048200
904.000000	71.966700
903.000000	71.892800
902.000000	71.808100
901.000000	71.748200
900.000000	71.692400
899.000000	71.609600
898.000000	71.560400
897.000000	71.486900
896.000000	71.428600
895.000000	71.361300
894.000000	71.207300
893.000000	71.122600
892.000000	70.873600
891.000000	70.754600
890.000000	70.632300
889.000000	70.504500
888.000000	70.403600
887.000000	70.297000
886.000000	70.081500
885.000000	69.823500
884.000000	69.682900
883.000000	69.470100
882.000000	69.160600
881.000000	68.983300
880.000000	68.830200
879.000000	68.647000
878.000000	68.448800
877.000000	68.101500
876.000000	67.886100
875.000000	67.545400
874.000000	67.294700
873.000000	66.963100
872.000000	66.773800
871.000000	66.541600
870.000000	66.215200
869.000000	65.930100
868.000000	65.561300
867.000000	65.240000
866.000000	64.898100
865.000000	64.656100
864.000000	64.264400
863.000000	63.964300
862.000000	63.462900
861.000000	62.977600
860.000000	62.495100
859.000000	62.142200
858.000000	64.270100
857.000000	62.779520
856.000000	62.754703
855.000000	63.105719
854.000000	62.576429
853.000000	63.054947
852.000000	63.738834
851.000000	63.721829
850.000000	63.590503
849.000000	63.719388
848.000000	63.943228
847.000000	64.067800
846.000000	64.278296
845.000000	64.341274
844.000000	64.342332
843.000000	64.402218
842.000000	64.414748
841.000000	64.471380
840.000000	64.606042
839.000000	64.639972
838.000000	64.740541
837.000000	65.120280
836.000000	65.032973
835.000000	65.165357
834.000000	65.046887
833.000000	65.143469
832.000000	65.189279
831.000000	65.183420
830.000000	65.370645
829.000000	65.560637
828.000000	65.541434
827.000000	65.468367
826.000000	65.554941
825.000000	65.532809
824.000000	65.708155
823.000000	65.636959
822.000000	65.665030
821.000000	65.733623
820.000000	65.750140
819.000000	65.848431
818.000000	65.916128
817.000000	65.948349
816.000000	66.112548
815.000000	66.142328
814.000000	66.018162
813.000000	66.213931
812.000000	66.303515
811.000000	66.368690
810.000000	66.380733
809.000000	66.595053
808.000000	66.588706
807.000000	66.533946
806.000000	66.692449
805.000000	66.816452
804.000000	66.898225
803.000000	67.026541
802.000000	67.137769
801.000000	67.094563
800.000000	67.149730
799.000000	67.227191
798.000000	67.255100
797.000000	67.342000
796.000000	67.388542
795.000000	67.451845
794.000000	67.496597
793.000000	67.543952
792.000000	67.485612
791.000000	67.608395
790.000000	67.695538
789.000000	67.608151
788.000000	67.688704
787.000000	67.752902
786.000000	67.821250
785.000000	67.813032
784.000000	67.861771
783.000000	67.889761
782.000000	67.913683
781.000000	67.958353
780.000000	67.971372
779.000000	68.049972
778.000000	68.028085
777.000000	67.975766
776.000000	68.029956
775.000000	68.004244
774.000000	68.083821
773.000000	68.109533
772.000000	68.057783
771.000000	68.051844
770.000000	68.095782
769.000000	68.078776
768.000000	68.057214
767.000000	67.994155
766.000000	67.945660
765.000000	67.951518
764.000000	67.980648
763.000000	67.934106
762.000000	67.916612
761.000000	67.932072
760.000000	67.889842
759.000000	67.856238
758.000000	67.819948
757.000000	67.724668
756.000000	67.621169
755.000000	67.522878
754.000000	67.440779
753.000000	67.384961
752.000000	67.345336
751.000000	67.243139
750.000000	67.162342
749.000000	67.062342
748.000000	66.957379
747.000000	66.866248
746.000000	66.737282
745.000000	66.568039
744.000000	66.465110
743.000000	66.416534
742.000000	66.253231
741.000000	66.114175
740.000000	65.979187
739.000000	65.834355
738.000000	65.665437
737.000000	65.493265
736.000000	65.379840
735.000000	65.295951
734.000000	65.169995
733.000000	65.000426
732.000000	64.855838
731.000000	64.727604
730.000000	64.620199
729.000000	64.512877
728.000000	64.406856
727.000000	64.292454
726.000000	64.190827
725.000000	64.119061
724.000000	64.054049
723.000000	63.947052
722.000000	63.841438
721.000000	63.808403
720.000000	63.737695
719.000000	63.642903
718.000000	63.635743
717.000000	63.555434
716.000000	63.465849
715.000000	63.395060
714.000000	63.346972
713.000000	63.311008
712.000000	63.281553
711.000000	63.265768
710.000000	63.220447
709.000000	63.164385
708.000000	63.103929
707.000000	63.096281
706.000000	63.115158
705.000000	63.102953
704.000000	63.112880
703.000000	63.094328
702.000000	63.131269
701.000000	63.142579
700.000000	63.116867
699.000000	63.097095
698.000000	63.156655
697.000000	63.129723
696.000000	63.093596
695.000000	63.092945
694.000000	63.047217
693.000000	62.983100
692.000000	62.895386
691.000000	62.844613
690.000000	62.734606
689.000000	62.585623
688.000000	62.494329
687.000000	62.410847
686.000000	62.281230
685.000000	62.129481
684.000000	62.020775
683.000000	61.838350
682.000000	61.694575
681.000000	61.542013
680.000000	61.400272
679.000000	61.188148
678.000000	61.003609
677.000000	60.827043
676.000000	60.636644
675.000000	60.404586
674.000000	60.225254
673.000000	60.000031
672.000000	59.694742
671.000000	59.386769
670.000000	59.115004
669.000000	58.784248
668.000000	58.439172
667.000000	58.053005
666.000000	57.657725
665.000000	57.241941
664.000000	56.816474
663.000000	56.371560
662.000000	55.875304
661.000000	55.442758
660.000000	54.935599
659.000000	54.424941
658.000000	53.935032
657.000000	53.466603
656.000000	52.941218
655.000000	52.498501
654.000000	52.053506
653.000000	51.631782
652.000000	51.223484
651.000000	50.771898
650.000000	50.410548
649.000000	50.061973
648.000000	49.717384
647.000000	49.431136
646.000000	49.115352
645.000000	48.879632
644.000000	48.653921
643.000000	48.407705
642.000000	48.196965
641.000000	48.027315
640.000000	47.906567
639.000000	47.752621
638.000000	47.698430
637.000000	47.625851
636.000000	47.597780
635.000000	47.596152
634.000000	47.632523
633.000000	47.724712
632.000000	47.866046
631.000000	48.052132
630.000000	48.254572
629.000000	48.449039
628.000000	48.766451
627.000000	49.056361
626.000000	49.398671
625.000000	49.767506
624.000000	50.134633
623.000000	50.544315
622.000000	50.899969
621.000000	51.356762
620.000000	51.798421
619.000000	52.182961
618.000000	52.563350
617.000000	52.979542
616.000000	53.341542
615.000000	53.733161
614.000000	54.127057
613.000000	54.488895
612.000000	54.852524
611.000000	55.189057
610.000000	55.591822
609.000000	55.939991
608.000000	56.288159
607.000000	56.620136
606.000000	56.982137
605.000000	57.374324
604.000000	57.747961
603.000000	58.117447
602.000000	58.492385
601.000000	58.884899
600.000000	59.260162
599.000000	59.603612
598.000000	59.983025
597.000000	60.339411
596.000000	60.718011
595.000000	61.039817
594.000000	61.410036
593.000000	61.646976
592.000000	61.960889
591.000000	62.260237
590.000000	62.527690
589.000000	62.808161
588.000000	62.984971
587.000000	63.208893
586.000000	63.356166
585.000000	63.493432
584.000000	63.657386
583.000000	63.793757
582.000000	63.879192
581.000000	63.943553
580.000000	64.036800
579.000000	64.115156
578.000000	64.157792
577.000000	64.164139
576.000000	64.165440
575.000000	64.192210
574.000000	64.173984
573.000000	64.159826
572.000000	64.157955
571.000000	64.120282
570.000000	64.065359
569.000000	64.037125
568.000000	63.989607
567.000000	63.929721
566.000000	63.891723
565.000000	63.852341
564.000000	63.768045
563.000000	63.676670
562.000000	63.573009
561.000000	63.467720
560.000000	63.357061
559.000000	63.253644
558.000000	63.138266
557.000000	62.959666
556.000000	62.791318
555.000000	62.677323
554.000000	62.442824
553.000000	62.250799
552.000000	62.064794
551.000000	61.803688
550.000000	61.551695
549.000000	61.331924
548.000000	61.032982
547.000000	60.738271
546.000000	60.416873
545.000000	60.087663
544.000000	59.732822
543.000000	59.337949
542.000000	58.941042
541.000000	58.459676
540.000000	57.988237
539.000000	57.555284
538.000000	57.027621
537.000000	56.495400
536.000000	55.930471
535.000000	55.341782
534.000000	54.740563
533.000000	54.110784
532.000000	53.494756
531.000000	52.851877
530.000000	52.183612
529.000000	51.498259
528.000000	50.840327
527.000000	50.195333
526.000000	49.531787
525.000000	48.868647
524.000000	48.222595
523.000000	47.585493
522.000000	46.959213
521.000000	46.324878
520.000000	45.686799
519.000000	45.064506
518.000000	44.439691
517.000000	43.850839
516.000000	43.270531
515.000000	42.685830
514.000000	42.114879
513.000000	41.509998
512.000000	40.913824
511.000000	40.330668
510.000000	39.765413
509.000000	39.182745
508.000000	38.598288
507.000000	38.028964
506.000000	37.437346
505.000000	36.860619
504.000000	36.306348
503.000000	35.752240
502.000000	35.156473
501.000000	34.565587
500.000000	34.008957
499.000000	33.442969
498.000000	32.865916
497.000000	32.297406
496.000000	31.718319
495.000000	31.113438
494.000000	30.501479
493.000000	29.898388
492.000000	29.298064
491.000000	28.689766
490.000000	28.071460
489.000000	27.476587
488.000000	26.918411
487.000000	26.366744
486.000000	25.814182
485.000000	25.277650
484.000000	24.765609
483.000000	24.269434
482.000000	23.817930
481.000000	23.410282
480.000000	23.019884
479.000000	22.638518
478.000000	22.254223
477.000000	21.894093
476.000000	21.565941
475.000000	21.270336
474.000000	20.993282
473.000000	20.737871
472.000000	20.529654
471.000000	20.335675
470.000000	20.171559
469.000000	20.029329
468.000000	19.905815
467.000000	19.813707
466.000000	19.723065
465.000000	19.644139
464.000000	19.599143
463.000000	19.561308
462.000000	19.534375
461.000000	19.521275
460.000000	19.505246
459.000000	19.498004
458.000000	19.510697
457.000000	19.524042
456.000000	19.525913
455.000000	19.545522
454.000000	19.557809
453.000000	19.569526
452.000000	19.572373
451.000000	19.572129
450.000000	19.566515
449.000000	19.564806
448.000000	19.557402
447.000000	19.546743
446.000000	19.545034
445.000000	19.521926
444.000000	19.466759
443.000000	19.410779
442.000000	19.356752
441.000000	19.272862
440.000000	19.181243
439.000000	19.083766
438.000000	18.979372
437.000000	18.866923
436.000000	18.750488
435.000000	18.629007
434.000000	18.494182
433.000000	18.345851
432.000000	18.198414
431.000000	18.030066
430.000000	17.862044
429.000000	17.705738
428.000000	17.526812
427.000000	17.331369
426.000000	17.137798
425.000000	16.934788
424.000000	16.715992
423.000000	16.483690
422.000000	16.250005
421.000000	16.025921
420.000000	15.788492
419.000000	15.545775
418.000000	15.293213
417.000000	15.033490
416.000000	14.774744
415.000000	14.498422
414.000000	14.215754
413.000000	13.943338
412.000000	13.665959
411.000000	13.379385
410.000000	13.116245
409.000000	12.854488
408.000000	12.570843
407.000000	12.295742
406.000000	12.008924
405.000000	11.734067
404.000000	11.480609
403.000000	11.229511
402.000000	10.968487
401.000000	10.714541
400.000000	10.453923
399.000000	10.212183
398.000000	9.985657
397.000000	9.741801
396.000000	9.513730
395.000000	9.292575
394.000000	9.090541
393.000000	8.879232
392.000000	8.670363
391.000000	8.488020
390.000000	8.299087
389.000000	8.120242
388.000000	7.952546
387.000000	7.795508
386.000000	7.653685
385.000000	7.512595
384.000000	7.369878
383.000000	7.242946
382.000000	7.118455
381.000000	6.990058
380.000000	6.887129
379.000000	6.794045
378.000000	6.683793
377.000000	6.597870
376.000000	6.445470
375.000000	6.271426
374.000000	6.140182
373.000000	6.083957
372.000000	6.100719
371.000000	6.035300
370.000000	5.963860
369.000000	5.963534
368.000000	5.972566
367.000000	5.990548
366.000000	5.892257
365.000000	5.874519
364.000000	5.844007
363.000000	5.809182
362.000000	5.674276
361.000000	5.640590
360.000000	5.639776
359.000000	5.607311
358.000000	5.563861
357.000000	5.449296
356.000000	5.395513
355.000000	5.392746
354.000000	5.360688
353.000000	5.386969
352.000000	5.373869
351.000000	5.324887
350.000000	5.264919
349.000000	5.306172
348.000000	5.374764
347.000000	5.331803
346.000000	5.318621
345.000000	5.263292
344.000000	5.180949
343.000000	5.213740
342.000000	5.170452
341.000000	5.030339
340.000000	5.081193
339.000000	5.149867
338.000000	4.968337
337.000000	5.082007
336.000000	5.118378
335.000000	5.190062
334.000000	5.275416
333.000000	5.212031
332.000000	5.095269
331.000000	5.158491
330.000000	5.116262
329.000000	5.047751
328.000000	4.866873
327.000000	4.954017
326.000000	5.039289
325.000000	5.162478
324.000000	5.125782
323.000000	5.103732
322.000000	5.208044
321.000000	5.395838
320.000000	5.190631
319.000000	5.061258
318.000000	5.083309
317.000000	5.331640
316.000000	4.907556
315.000000	4.919680
314.000000	4.948565
313.000000	4.983960
312.000000	4.991934
311.000000	4.980135
310.000000	4.988272
309.000000	4.952308
308.000000	4.938801
307.000000	4.915612
306.000000	4.933105
305.000000	4.922365
304.000000	4.981926
303.000000	4.991445
302.000000	4.987540
301.000000	4.998362
300.000000	4.940754
299.000000	4.999826
298.000000	4.960038
297.000000	4.953610
296.000000	4.972731
295.000000	4.984367
294.000000	5.004952
293.000000	4.992259
292.000000	5.014879
291.000000	4.993561
290.000000	5.006417
289.000000	4.975009
288.000000	4.998850
287.000000	5.030908
286.000000	5.033838
285.000000	5.032373
284.000000	4.992991
283.000000	5.004464
282.000000	5.009183
281.000000	4.978996
280.000000	5.020575
279.000000	5.016506
278.000000	5.011624
277.000000	5.053610
276.000000	5.028874
275.000000	5.036360
274.000000	5.024236
273.000000	4.991120
272.000000	5.018703
271.000000	5.052552
270.000000	5.115204
269.000000	5.072731
268.000000	5.074765
267.000000	5.088353
266.000000	5.094700
265.000000	5.123911
264.000000	5.165570
263.000000	5.189492
262.000000	5.200884
261.000000	5.181518
260.000000	5.200233
259.000000	5.233512
258.000000	5.260119
257.000000	5.350273
256.000000	5.327409
255.000000	5.305196
254.000000	5.299500
253.000000	5.315204
252.000000	5.336766
251.000000	5.381030
250.000000	5.356376
