PE UV       SUBTECH     SPECTRUM    ASCII       PEDS        4.00        
   -1
CICIMAUCR0113-6.Sample.ASC
24/04/25
11:40:20.00
24/04/25
11:40:20.00
Vinicio Soto Monge
C. kalinini
250,000000
1
Lambda 1050
1050L1511233
PerkinElmer UV WinLab 6.3.2.0749 / 2.02.05 Lambda 900 UV/VIS/NIR, Aug  7 2015 09:38:08

0
0
3350/servo 860,8/2
0
0
UV/VIS
1
1
1
DoubleDePol,CommonBeamDepol,RBeamAtt,SBeamAtt,60mm sphere, WB InGaAs Detector
0
0
0
0
Program
Program
3350/servo 860,8/2
3350/0,2 860,8/0,2
3350/0,2 860,8/0,2
0
15.00
 
 
 
0
 
860,8
319,2
860,8
Front
100
on
S:100 R:100
0
0
0
0
 
0
 
 
 
0
 
 
0
0
0
0
0
 
 
 
 
0
0


0
0
#HDR
-1
-1
#GR
nm
%R
1.0
0.0
2500,000000
-1,000000
2251
8
101,774400
5,807200
#DATA
2500.000000	7.710142
2499.000000	7.621393
2498.000000	7.548583
2497.000000	7.536146
2496.000000	7.432666
2495.000000	7.453193
2494.000000	7.447760
2493.000000	7.484950
2492.000000	7.368912
2491.000000	7.405498
2490.000000	7.355630
2489.000000	7.340295
2488.000000	7.271470
2487.000000	7.295861
2486.000000	7.318199
2485.000000	7.371206
2484.000000	7.331722
2483.000000	7.333292
2482.000000	7.344763
2481.000000	7.332447
2480.000000	7.290548
2479.000000	7.330756
2478.000000	7.283545
2477.000000	7.285235
2476.000000	7.280888
2475.000000	7.208440
2474.000000	7.283424
2473.000000	7.366014
2472.000000	7.310592
2471.000000	7.253720
2470.000000	7.255169
2469.000000	7.347178
2468.000000	7.330394
2467.000000	7.340778
2466.000000	7.299845
2465.000000	7.389318
2464.000000	7.409242
2463.000000	7.392699
2462.000000	7.397891
2461.000000	7.451503
2460.000000	7.460559
2459.000000	7.487365
2458.000000	7.542666
2457.000000	7.567178
2456.000000	7.596882
2455.000000	7.665828
2454.000000	7.699033
2453.000000	7.752041
2452.000000	7.772205
2451.000000	7.833786
2450.000000	7.882809
2449.000000	7.934247
2448.000000	7.966728
2447.000000	8.046541
2446.000000	8.104137
2445.000000	8.138308
2444.000000	8.199648
2443.000000	8.242633
2442.000000	8.286947
2441.000000	8.334763
2440.000000	8.368813
2439.000000	8.449351
2438.000000	8.469395
2437.000000	8.524214
2436.000000	8.594247
2435.000000	8.618034
2434.000000	8.677200
2433.000000	8.700504
2432.000000	8.714752
2431.000000	8.753270
2430.000000	8.798912
2429.000000	8.838758
2428.000000	8.870515
2427.000000	8.889351
2426.000000	8.931371
2425.000000	8.967112
2424.000000	9.000076
2423.000000	9.002491
2422.000000	9.018067
2421.000000	9.039077
2420.000000	9.070712
2419.000000	9.096311
2418.000000	9.105004
2417.000000	9.116958
2416.000000	9.145696
2415.000000	9.161755
2414.000000	9.195443
2413.000000	9.221162
2412.000000	9.228286
2411.000000	9.245191
2410.000000	9.255817
2409.000000	9.247606
2408.000000	9.227441
2407.000000	9.218023
2406.000000	9.221162
2405.000000	9.237946
2404.000000	9.258835
2403.000000	9.290954
2402.000000	9.306892
2401.000000	9.327178
2400.000000	9.336596
2399.000000	9.350119
2398.000000	9.359296
2397.000000	9.364005
2396.000000	9.383566
2395.000000	9.408199
2394.000000	9.434400
2393.000000	9.439110
2392.000000	9.435729
2391.000000	9.448407
2390.000000	9.463983
2389.000000	9.479077
2388.000000	9.488978
2387.000000	9.485718
2386.000000	9.490668
2385.000000	9.482458
2384.000000	9.479680
2383.000000	9.475092
2382.000000	9.489944
2381.000000	9.483061
2380.000000	9.456376
2379.000000	9.455893
2378.000000	9.449977
2377.000000	9.428122
2376.000000	9.417617
2375.000000	9.407353
2374.000000	9.391777
2373.000000	9.364005
2372.000000	9.357847
2371.000000	9.351568
2370.000000	9.306047
2369.000000	9.282984
2368.000000	9.257265
2367.000000	9.216695
2366.000000	9.172502
2365.000000	9.141832
2364.000000	9.098605
2363.000000	9.063588
2362.000000	9.029055
2361.000000	8.985828
2360.000000	8.953588
2359.000000	8.923643
2358.000000	8.884038
2357.000000	8.846245
2356.000000	8.824993
2355.000000	8.804225
2354.000000	8.788649
2353.000000	8.782732
2352.000000	8.777057
2351.000000	8.791184
2350.000000	8.801086
2349.000000	8.821371
2348.000000	8.855904
2347.000000	8.884884
2346.000000	8.908912
2345.000000	8.926058
2344.000000	8.975202
2343.000000	9.015652
2342.000000	9.022776
2341.000000	9.047408
2340.000000	9.076025
2339.000000	9.084960
2338.000000	9.099571
2337.000000	9.109955
2336.000000	9.097759
2335.000000	9.090394
2334.000000	9.099933
2333.000000	9.083994
2332.000000	9.051755
2331.000000	9.019757
2330.000000	9.010822
2329.000000	8.984982
2328.000000	8.962403
2327.000000	8.939702
2326.000000	8.909878
2325.000000	8.849626
2324.000000	8.802293
2323.000000	8.770657
2322.000000	8.711975
2321.000000	8.658122
2320.000000	8.594971
2319.000000	8.515400
2318.000000	8.444642
2317.000000	8.415904
2316.000000	8.359395
2315.000000	8.291053
2314.000000	8.233457
2313.000000	8.173687
2312.000000	8.110054
2311.000000	8.063325
2310.000000	8.033501
2309.000000	8.016838
2308.000000	8.000416
2307.000000	7.983995
2306.000000	7.971437
2305.000000	8.001865
2304.000000	8.021547
2303.000000	8.043643
2302.000000	8.113435
2301.000000	8.157024
2300.000000	8.232974
2299.000000	8.277529
2298.000000	8.317858
2297.000000	8.379318
2296.000000	8.458286
2295.000000	8.518297
2294.000000	8.554642
2293.000000	8.604631
2292.000000	8.661503
2291.000000	8.667781
2290.000000	8.706903
2289.000000	8.707628
2288.000000	8.719823
2287.000000	8.713424
2286.000000	8.720548
2285.000000	8.717771
2284.000000	8.702556
2283.000000	8.673215
2282.000000	8.637233
2281.000000	8.648824
2280.000000	8.615498
2279.000000	8.591108
2278.000000	8.575893
2277.000000	8.561162
2276.000000	8.541601
2275.000000	8.536892
2274.000000	8.531700
2273.000000	8.526991
2272.000000	8.530855
2271.000000	8.559834
2270.000000	8.574082
2269.000000	8.616344
2268.000000	8.640855
2267.000000	8.713786
2266.000000	8.779834
2265.000000	8.855904
2264.000000	8.971579
2263.000000	9.066728
2262.000000	9.201722
2261.000000	9.337441
2260.000000	9.489461
2259.000000	9.659713
2258.000000	9.825136
2257.000000	10.021228
2256.000000	10.176508
2255.000000	10.362216
2254.000000	10.514236
2253.000000	10.691250
2252.000000	10.905454
2251.000000	11.037792
2250.000000	11.209252
2249.000000	11.383368
2248.000000	11.498198
2247.000000	11.651063
2246.000000	11.747660
2245.000000	11.896903
2244.000000	12.021996
2243.000000	12.095651
2242.000000	12.186694
2241.000000	12.307682
2240.000000	12.393654
2239.000000	12.482765
2238.000000	12.531305
2237.000000	12.608462
2236.000000	12.653983
2235.000000	12.743215
2234.000000	12.769779
2233.000000	12.822303
2232.000000	12.857199
2231.000000	12.904652
2230.000000	12.904411
2229.000000	12.962611
2228.000000	12.974444
2227.000000	12.998593
2226.000000	12.995333
2225.000000	12.962369
2224.000000	12.983138
2223.000000	12.986881
2222.000000	12.986277
2221.000000	12.945586
2220.000000	12.956453
2219.000000	12.923247
2218.000000	12.921436
2217.000000	12.889076
2216.000000	12.869757
2215.000000	12.846090
2214.000000	12.828220
2213.000000	12.831601
2212.000000	12.785717
2211.000000	12.772677
2210.000000	12.738868
2209.000000	12.741283
2208.000000	12.722929
2207.000000	12.727035
2206.000000	12.703247
2205.000000	12.680064
2204.000000	12.667627
2203.000000	12.673182
2202.000000	12.644202
2201.000000	12.609065
2200.000000	12.634543
2199.000000	12.628385
2198.000000	12.632128
2197.000000	12.628988
2196.000000	12.607254
2195.000000	12.628988
2194.000000	12.623555
2193.000000	12.603632
2192.000000	12.585037
2191.000000	12.596749
2190.000000	12.588297
2189.000000	12.576947
2188.000000	12.579965
2187.000000	12.577188
2186.000000	12.554971
2185.000000	12.523698
2184.000000	12.525388
2183.000000	12.515487
2182.000000	12.490372
2181.000000	12.488681
2180.000000	12.488440
2179.000000	12.499910
2178.000000	12.485059
2177.000000	12.457046
2176.000000	12.454751
2175.000000	12.462358
2174.000000	12.481074
2173.000000	12.480350
2172.000000	12.464653
2171.000000	12.476003
2170.000000	12.491217
2169.000000	12.505586
2168.000000	12.503774
2167.000000	12.516815
2166.000000	12.532271
2165.000000	12.553643
2164.000000	12.563665
2163.000000	12.565838
2162.000000	12.591557
2161.000000	12.623555
2160.000000	12.646859
2159.000000	12.666420
2158.000000	12.682721
2157.000000	12.719669
2156.000000	12.752150
2155.000000	12.794773
2154.000000	12.824839
2153.000000	12.866859
2152.000000	12.875190
2151.000000	12.913105
2150.000000	12.954159
2149.000000	12.999680
2148.000000	13.020328
2147.000000	13.062227
2146.000000	13.114268
2145.000000	13.144455
2144.000000	13.178626
2143.000000	13.206398
2142.000000	13.258439
2141.000000	13.281019
2140.000000	13.288143
2139.000000	13.300821
2138.000000	13.332699
2137.000000	13.376892
2136.000000	13.419394
2135.000000	13.412753
2134.000000	13.433522
2133.000000	13.466606
2132.000000	13.503555
2131.000000	13.522995
2130.000000	13.522391
2129.000000	13.540624
2128.000000	13.567913
2127.000000	13.551612
2126.000000	13.564290
2125.000000	13.587353
2124.000000	13.596650
2123.000000	13.591941
2122.000000	13.585179
2121.000000	13.609691
2120.000000	13.609208
2119.000000	13.606793
2118.000000	13.606793
2117.000000	13.607034
2116.000000	13.601722
2115.000000	13.582402
2114.000000	13.574433
2113.000000	13.562600
2112.000000	13.550042
2111.000000	13.558132
2110.000000	13.543763
2109.000000	13.516595
2108.000000	13.506453
2107.000000	13.501140
2106.000000	13.489910
2105.000000	13.488944
2104.000000	13.489548
2103.000000	13.466848
2102.000000	13.466123
2101.000000	13.462742
2100.000000	13.438835
2099.000000	13.438955
2098.000000	13.431590
2097.000000	13.412753
2096.000000	13.413236
2095.000000	13.417463
2094.000000	13.405871
2093.000000	13.397056
2092.000000	13.398143
2091.000000	13.390415
2090.000000	13.380273
2089.000000	13.396936
2088.000000	13.414565
2087.000000	13.407803
2086.000000	13.389208
2085.000000	13.383654
2084.000000	13.391261
2083.000000	13.378824
2082.000000	13.359866
2081.000000	13.362161
2080.000000	13.347792
2079.000000	13.328472
2078.000000	13.329438
2077.000000	13.319658
2076.000000	13.312655
2075.000000	13.296475
2074.000000	13.284521
2073.000000	13.259043
2072.000000	13.241776
2071.000000	13.214246
2070.000000	13.200481
2069.000000	13.216178
2068.000000	13.203500
2067.000000	13.178626
2066.000000	13.145662
2065.000000	13.131173
2064.000000	13.116804
2063.000000	13.119340
2062.000000	13.113302
2061.000000	13.093258
2060.000000	13.086376
2059.000000	13.095311
2058.000000	13.126826
2057.000000	13.128637
2056.000000	13.137693
2055.000000	13.170778
2054.000000	13.210865
2053.000000	13.256870
2052.000000	13.311568
2051.000000	13.400075
2050.000000	13.455498
2049.000000	13.527100
2048.000000	13.634323
2047.000000	13.715465
2046.000000	13.819427
2045.000000	13.921579
2044.000000	14.029526
2043.000000	14.138077
2042.000000	14.259669
2041.000000	14.357111
2040.000000	14.463006
2039.000000	14.583028
2038.000000	14.683368
2037.000000	14.798922
2036.000000	14.874027
2035.000000	14.979076
2034.000000	15.072775
2033.000000	15.167561
2032.000000	15.251963
2031.000000	15.317045
2030.000000	15.389251
2029.000000	15.458922
2028.000000	15.525695
2027.000000	15.582204
2026.000000	15.662501
2025.000000	15.750404
2024.000000	15.796650
2023.000000	15.830097
2022.000000	15.880689
2021.000000	15.945530
2020.000000	16.011941
2019.000000	16.048406
2018.000000	16.086924
2017.000000	16.116386
2016.000000	16.185091
2015.000000	16.212259
2014.000000	16.254279
2013.000000	16.268889
2012.000000	16.295695
2011.000000	16.315135
2010.000000	16.331315
2009.000000	16.362951
2008.000000	16.363192
2007.000000	16.378527
2006.000000	16.351238
2005.000000	16.359449
2004.000000	16.367056
2003.000000	16.338801
2002.000000	16.332402
2001.000000	16.320448
2000.000000	16.313082
1999.000000	16.278066
1998.000000	16.274443
1997.000000	16.251864
1996.000000	16.194389
1995.000000	16.163115
1994.000000	16.114092
1993.000000	16.070261
1992.000000	16.022204
1991.000000	15.986584
1990.000000	15.955794
1989.000000	15.908944
1988.000000	15.859921
1987.000000	15.809087
1986.000000	15.740865
1985.000000	15.699691
1984.000000	15.636299
1983.000000	15.601282
1982.000000	15.541633
1981.000000	15.495629
1980.000000	15.413884
1979.000000	15.367276
1978.000000	15.297726
1977.000000	15.261985
1976.000000	15.182413
1975.000000	15.144619
1974.000000	15.100788
1973.000000	15.045124
1972.000000	14.986079
1971.000000	14.944542
1970.000000	14.908922
1969.000000	14.872578
1968.000000	14.820657
1967.000000	14.769581
1966.000000	14.715486
1965.000000	14.663928
1964.000000	14.653423
1963.000000	14.598604
1962.000000	14.556222
1961.000000	14.498988
1960.000000	14.478824
1959.000000	14.413862
1958.000000	14.379691
1957.000000	14.334290
1956.000000	14.281524
1955.000000	14.239746
1954.000000	14.213181
1953.000000	14.163072
1952.000000	14.134817
1951.000000	14.107166
1950.000000	14.051985
1949.000000	14.021195
1948.000000	13.977001
1947.000000	13.948988
1946.000000	13.946090
1945.000000	13.920371
1944.000000	13.923269
1943.000000	13.928341
1942.000000	13.915421
1941.000000	13.911678
1940.000000	13.942106
1939.000000	13.931842
1938.000000	13.927978
1937.000000	13.956716
1936.000000	13.974224
1935.000000	14.049329
1934.000000	14.074685
1933.000000	14.127331
1932.000000	14.209076
1931.000000	14.263291
1930.000000	14.308692
1929.000000	14.393214
1928.000000	14.473028
1927.000000	14.555135
1926.000000	14.657407
1925.000000	14.782621
1924.000000	14.888999
1923.000000	14.999965
1922.000000	15.129767
1921.000000	15.282029
1920.000000	15.404466
1919.000000	15.556244
1918.000000	15.732775
1917.000000	15.874894
1916.000000	16.038505
1915.000000	16.226507
1914.000000	16.405453
1913.000000	16.600459
1912.000000	16.803313
1911.000000	16.978154
1910.000000	17.195376
1909.000000	17.420206
1908.000000	17.630909
1907.000000	17.872039
1906.000000	18.092160
1905.000000	18.320250
1904.000000	18.576715
1903.000000	18.814827
1902.000000	19.061391
1901.000000	19.320513
1900.000000	19.571304
1899.000000	19.812796
1898.000000	20.049339
1897.000000	20.349031
1896.000000	20.604893
1895.000000	20.878746
1894.000000	21.122533
1893.000000	21.394454
1892.000000	21.686056
1891.000000	21.946023
1890.000000	22.216495
1889.000000	22.497231
1888.000000	22.795716
1887.000000	23.118592
1886.000000	23.494717
1885.000000	23.894991
1884.000000	24.307823
1883.000000	24.748427
1882.000000	25.216923
1881.000000	25.695562
1880.000000	26.149448
1879.000000	26.591621
1878.000000	27.030896
1877.000000	27.396154
1876.000000	27.754771
1875.000000	28.102159
1874.000000	28.412356
1873.000000	28.685485
1872.000000	28.924804
1871.000000	29.108580
1870.000000	29.256253
1869.000000	29.414672
1868.000000	29.531796
1867.000000	29.602312
1866.000000	29.673794
1865.000000	29.745397
1864.000000	29.819052
1863.000000	29.895967
1862.000000	29.932191
1861.000000	29.957065
1860.000000	29.953805
1859.000000	29.901039
1858.000000	29.871214
1857.000000	29.844167
1856.000000	29.800940
1855.000000	29.743585
1854.000000	29.652422
1853.000000	29.553893
1852.000000	29.483135
1851.000000	29.462005
1850.000000	29.452707
1849.000000	29.364200
1848.000000	29.193223
1847.000000	29.034804
1846.000000	28.914661
1845.000000	28.872400
1844.000000	28.874090
1843.000000	28.902345
1842.000000	28.871313
1841.000000	28.764573
1840.000000	28.681258
1839.000000	28.625111
1838.000000	28.556165
1837.000000	28.470435
1836.000000	28.374321
1835.000000	28.267823
1834.000000	28.168207
1833.000000	28.092499
1832.000000	28.048789
1831.000000	27.965111
1830.000000	27.859096
1829.000000	27.746319
1828.000000	27.633783
1827.000000	27.549502
1826.000000	27.462565
1825.000000	27.401105
1824.000000	27.390600
1823.000000	27.417285
1822.000000	27.400622
1821.000000	27.337109
1820.000000	27.279030
1819.000000	27.254640
1818.000000	27.253191
1817.000000	27.259832
1816.000000	27.266714
1815.000000	27.258503
1814.000000	27.243289
1813.000000	27.239788
1812.000000	27.235441
1811.000000	27.185090
1810.000000	27.132203
1809.000000	27.115781
1808.000000	27.093202
1807.000000	27.059030
1806.000000	26.996121
1805.000000	26.948306
1804.000000	26.903630
1803.000000	26.855210
1802.000000	26.817900
1801.000000	26.758251
1800.000000	26.710315
1799.000000	26.654892
1798.000000	26.608767
1797.000000	26.563608
1796.000000	26.532817
1795.000000	26.490798
1794.000000	26.437307
1793.000000	26.382971
1792.000000	26.317527
1791.000000	26.279250
1790.000000	26.203904
1789.000000	26.150293
1788.000000	26.081105
1787.000000	26.002499
1786.000000	25.922565
1785.000000	25.846978
1784.000000	25.755090
1783.000000	25.665254
1782.000000	25.575540
1781.000000	25.501160
1780.000000	25.434629
1779.000000	25.341413
1778.000000	25.221391
1777.000000	25.117549
1776.000000	24.999459
1775.000000	24.855046
1774.000000	24.705441
1773.000000	24.551490
1772.000000	24.410578
1771.000000	24.262785
1770.000000	24.109195
1769.000000	23.964903
1768.000000	23.828822
1767.000000	23.736089
1766.000000	23.636232
1765.000000	23.556539
1764.000000	23.515123
1763.000000	23.518625
1762.000000	23.527439
1761.000000	23.580085
1760.000000	23.632247
1759.000000	23.715441
1758.000000	23.771588
1757.000000	23.818317
1756.000000	23.841984
1755.000000	23.866737
1754.000000	23.881951
1753.000000	23.843312
1752.000000	23.804190
1751.000000	23.764706
1750.000000	23.705419
1749.000000	23.621259
1748.000000	23.522247
1747.000000	23.377231
1746.000000	23.218208
1745.000000	23.045057
1744.000000	22.842807
1743.000000	22.611940
1742.000000	22.360184
1741.000000	22.116155
1740.000000	21.851962
1739.000000	21.586561
1738.000000	21.378998
1737.000000	21.196067
1736.000000	21.080030
1735.000000	20.999854
1734.000000	20.961578
1733.000000	20.963027
1732.000000	21.018691
1731.000000	21.091863
1730.000000	21.217198
1729.000000	21.289404
1728.000000	21.406045
1727.000000	21.488274
1726.000000	21.587165
1725.000000	21.620008
1724.000000	21.659613
1723.000000	21.687868
1722.000000	21.684487
1721.000000	21.703323
1720.000000	21.701995
1719.000000	21.740875
1718.000000	21.772632
1717.000000	21.826726
1716.000000	21.883597
1715.000000	21.949767
1714.000000	22.010502
1713.000000	22.055178
1712.000000	22.102752
1711.000000	22.139821
1710.000000	22.118449
1709.000000	22.150689
1708.000000	22.113378
1707.000000	22.070754
1706.000000	22.054333
1705.000000	21.989130
1704.000000	21.914509
1703.000000	21.815859
1702.000000	21.680140
1701.000000	21.550096
1700.000000	21.392763
1699.000000	21.248713
1698.000000	21.099832
1697.000000	21.003718
1696.000000	20.957593
1695.000000	20.979448
1694.000000	21.091863
1693.000000	21.231567
1692.000000	21.381896
1691.000000	21.551062
1690.000000	21.720469
1689.000000	21.816462
1688.000000	21.867900
1687.000000	21.902675
1686.000000	21.931896
1685.000000	21.990096
1684.000000	22.149240
1683.000000	22.424904
1682.000000	22.840754
1681.000000	23.419492
1680.000000	24.002818
1679.000000	24.632873
1678.000000	25.235759
1677.000000	25.812807
1676.000000	26.336001
1675.000000	26.786143
1674.000000	27.177966
1673.000000	27.536462
1672.000000	27.819008
1671.000000	28.068712
1670.000000	28.318053
1669.000000	28.526099
1668.000000	28.734025
1667.000000	28.880852
1666.000000	29.026835
1665.000000	29.159294
1664.000000	29.251665
1663.000000	29.363717
1662.000000	29.443048
1661.000000	29.518393
1660.000000	29.570677
1659.000000	29.654112
1658.000000	29.722817
1657.000000	29.760490
1656.000000	29.783794
1655.000000	29.785847
1654.000000	29.808668
1653.000000	29.797197
1652.000000	29.785484
1651.000000	29.783070
1650.000000	29.745517
1649.000000	29.728251
1648.000000	29.692872
1647.000000	29.634672
1646.000000	29.571280
1645.000000	29.526483
1644.000000	29.481445
1643.000000	29.424090
1642.000000	29.345967
1641.000000	29.295133
1640.000000	29.216165
1639.000000	29.153377
1638.000000	29.066923
1637.000000	29.008361
1636.000000	28.912367
1635.000000	28.834727
1634.000000	28.749601
1633.000000	28.662664
1632.000000	28.587197
1631.000000	28.499414
1630.000000	28.396055
1629.000000	28.307790
1628.000000	28.205397
1627.000000	28.101434
1626.000000	28.005682
1625.000000	27.914036
1624.000000	27.801742
1623.000000	27.707801
1622.000000	27.618086
1621.000000	27.514124
1620.000000	27.407263
1619.000000	27.314892
1618.000000	27.234716
1617.000000	27.135825
1616.000000	27.035002
1615.000000	26.953377
1614.000000	26.876824
1613.000000	26.784091
1612.000000	26.695584
1611.000000	26.630139
1610.000000	26.538734
1609.000000	26.450710
1608.000000	26.377779
1607.000000	26.307142
1606.000000	26.227450
1605.000000	26.137614
1604.000000	26.045002
1603.000000	25.957823
1602.000000	25.880908
1601.000000	25.804475
1600.000000	25.720677
1599.000000	25.668032
1598.000000	25.624925
1597.000000	25.554168
1596.000000	25.486671
1595.000000	25.425814
1594.000000	25.375101
1593.000000	25.314848
1592.000000	25.279953
1591.000000	25.239503
1590.000000	25.190842
1589.000000	25.149909
1588.000000	25.112960
1587.000000	25.080600
1586.000000	25.066111
1585.000000	25.050655
1584.000000	25.034234
1583.000000	25.019986
1582.000000	25.009722
1581.000000	24.994025
1580.000000	24.996561
1579.000000	25.002477
1578.000000	25.011413
1577.000000	25.029162
1576.000000	25.049569
1575.000000	25.068888
1574.000000	25.098109
1573.000000	25.140008
1572.000000	25.176473
1571.000000	25.207746
1570.000000	25.252181
1569.000000	25.296253
1568.000000	25.343586
1567.000000	25.398767
1566.000000	25.448515
1565.000000	25.500556
1564.000000	25.546561
1563.000000	25.588581
1562.000000	25.637604
1561.000000	25.680831
1560.000000	25.728284
1559.000000	25.760282
1558.000000	25.781896
1557.000000	25.808460
1556.000000	25.816308
1555.000000	25.839129
1554.000000	25.862313
1553.000000	25.865573
1552.000000	25.880062
1551.000000	25.875957
1550.000000	25.871006
1549.000000	25.876802
1548.000000	25.873301
1547.000000	25.886100
1546.000000	25.893224
1545.000000	25.893344
1544.000000	25.906506
1543.000000	25.910249
1542.000000	25.917614
1541.000000	25.933795
1540.000000	25.935485
1539.000000	25.947318
1538.000000	25.962532
1537.000000	25.973158
1536.000000	25.975694
1535.000000	25.973279
1534.000000	25.963136
1533.000000	25.958306
1532.000000	25.975935
1531.000000	25.980161
1530.000000	25.957340
1529.000000	25.933432
1528.000000	25.913871
1527.000000	25.897088
1526.000000	25.881149
1525.000000	25.872576
1524.000000	25.839733
1523.000000	25.808097
1522.000000	25.785639
1521.000000	25.766319
1520.000000	25.750501
1519.000000	25.715847
1518.000000	25.676846
1517.000000	25.643037
1516.000000	25.609953
1515.000000	25.606813
1514.000000	25.570106
1513.000000	25.532554
1512.000000	25.501522
1511.000000	25.489689
1510.000000	25.466506
1509.000000	25.439459
1508.000000	25.408548
1507.000000	25.365924
1506.000000	25.360611
1505.000000	25.346363
1504.000000	25.310743
1503.000000	25.284179
1502.000000	25.272829
1501.000000	25.263531
1500.000000	25.242884
1499.000000	25.235276
1498.000000	25.257373
1497.000000	25.250008
1496.000000	25.245298
1495.000000	25.257132
1494.000000	25.267395
1493.000000	25.281885
1492.000000	25.307000
1491.000000	25.316056
1490.000000	25.343465
1489.000000	25.369547
1488.000000	25.398043
1487.000000	25.432938
1486.000000	25.448394
1485.000000	25.478822
1484.000000	25.498383
1483.000000	25.540282
1482.000000	25.596429
1481.000000	25.648833
1480.000000	25.681676
1479.000000	25.724058
1478.000000	25.800973
1477.000000	25.873301
1476.000000	25.896363
1475.000000	25.966396
1474.000000	26.052126
1473.000000	26.143410
1472.000000	26.187724
1471.000000	26.251237
1470.000000	26.313180
1469.000000	26.369206
1468.000000	26.423783
1467.000000	26.504563
1466.000000	26.587033
1465.000000	26.625551
1464.000000	26.725529
1463.000000	26.817538
1462.000000	26.923432
1461.000000	27.029810
1460.000000	27.121215
1459.000000	27.228921
1458.000000	27.352565
1457.000000	27.465342
1456.000000	27.611204
1455.000000	27.723136
1454.000000	27.863443
1453.000000	27.978514
1452.000000	28.132708
1451.000000	28.287504
1450.000000	28.404387
1449.000000	28.509557
1448.000000	28.674497
1447.000000	28.853081
1446.000000	29.017416
1445.000000	29.184650
1444.000000	29.316626
1443.000000	29.464540
1442.000000	29.606176
1441.000000	29.782828
1440.000000	29.935331
1439.000000	30.096165
1438.000000	30.248668
1437.000000	30.388975
1436.000000	30.533871
1435.000000	30.696758
1434.000000	30.851434
1433.000000	31.029414
1432.000000	31.167306
1431.000000	31.341302
1430.000000	31.495012
1429.000000	31.731917
1428.000000	31.956626
1427.000000	32.155012
1426.000000	32.418602
1425.000000	32.696922
1424.000000	32.950852
1423.000000	33.185462
1422.000000	33.482015
1421.000000	33.772290
1420.000000	34.056406
1419.000000	34.292344
1418.000000	34.540841
1417.000000	34.787163
1416.000000	35.066691
1415.000000	35.374957
1414.000000	35.602322
1413.000000	35.838623
1412.000000	36.113321
1411.000000	36.455154
1410.000000	36.833574
1409.000000	37.221773
1408.000000	37.664671
1407.000000	38.059874
1406.000000	38.535253
1405.000000	38.974166
1404.000000	39.418030
1403.000000	39.849819
1402.000000	40.321817
1401.000000	40.800093
1400.000000	41.167766
1399.000000	41.407448
1398.000000	41.660774
1397.000000	41.971334
1396.000000	42.257140
1395.000000	42.391773
1394.000000	42.502859
1393.000000	42.667799
1392.000000	42.879105
1391.000000	43.069643
1390.000000	43.315000
1389.000000	43.645966
1388.000000	43.983573
1387.000000	44.325285
1386.000000	44.761300
1385.000000	45.267952
1384.000000	45.728962
1383.000000	46.143243
1382.000000	46.478435
1381.000000	46.656174
1380.000000	46.768347
1379.000000	46.862409
1378.000000	46.925438
1377.000000	47.053067
1376.000000	47.255559
1375.000000	47.527601
1374.000000	47.909039
1373.000000	48.335756
1372.000000	48.807513
1371.000000	49.289895
1370.000000	49.695723
1369.000000	50.096239
1368.000000	50.461376
1367.000000	50.753341
1366.000000	51.007392
1365.000000	51.279192
1364.000000	51.483253
1363.000000	51.733681
1362.000000	51.905141
1361.000000	52.012485
1360.000000	52.066821
1359.000000	52.173440
1358.000000	52.335361
1357.000000	52.628412
1356.000000	53.107172
1355.000000	53.742419
1354.000000	54.383461
1353.000000	55.053725
1352.000000	55.819981
1351.000000	56.514636
1350.000000	57.152780
1349.000000	57.737435
1348.000000	58.269685
1347.000000	58.751463
1346.000000	59.186995
1345.000000	59.640760
1344.000000	60.051660
1343.000000	60.425854
1342.000000	60.776380
1341.000000	61.112659
1340.000000	61.461496
1339.000000	61.762637
1338.000000	62.036490
1337.000000	62.308652
1336.000000	62.578521
1335.000000	62.827500
1334.000000	63.058246
1333.000000	63.282714
1332.000000	63.476753
1331.000000	63.664031
1330.000000	63.860968
1329.000000	64.032066
1328.000000	64.186138
1327.000000	64.328257
1326.000000	64.472549
1325.000000	64.610441
1324.000000	64.747609
1323.000000	64.873427
1322.000000	64.979201
1321.000000	65.073625
1320.000000	65.178070
1319.000000	65.278048
1318.000000	65.380200
1317.000000	65.474503
1316.000000	65.551660
1315.000000	65.632318
1314.000000	65.710320
1313.000000	65.787236
1312.000000	65.864514
1311.000000	65.917884
1310.000000	65.970408
1309.000000	66.025106
1308.000000	66.062779
1307.000000	66.099124
1306.000000	66.128827
1305.000000	66.136193
1304.000000	66.138849
1303.000000	66.138125
1302.000000	66.132571
1301.000000	66.131122
1300.000000	66.129190
1299.000000	66.130880
1298.000000	66.110716
1297.000000	66.097071
1296.000000	66.073163
1295.000000	66.035491
1294.000000	66.013998
1293.000000	65.995886
1292.000000	65.955556
1291.000000	65.893251
1290.000000	65.850749
1289.000000	65.795930
1288.000000	65.719497
1287.000000	65.642219
1286.000000	65.549124
1285.000000	65.463394
1284.000000	65.372110
1283.000000	65.257401
1282.000000	65.169014
1281.000000	65.085095
1280.000000	64.984393
1279.000000	64.890814
1278.000000	64.829355
1277.000000	64.765600
1276.000000	64.708487
1275.000000	64.666951
1274.000000	64.616841
1273.000000	64.563471
1272.000000	64.510826
1271.000000	64.460716
1270.000000	64.418455
1269.000000	64.361945
1268.000000	64.317752
1267.000000	64.269091
1266.000000	64.208959
1265.000000	64.159453
1264.000000	64.092077
1263.000000	64.026029
1262.000000	63.984130
1261.000000	63.924602
1260.000000	63.874009
1259.000000	63.811342
1258.000000	63.746018
1257.000000	63.667291
1256.000000	63.594964
1255.000000	63.513098
1254.000000	63.430024
1253.000000	63.341879
1252.000000	63.239366
1251.000000	63.127313
1250.000000	63.013811
1249.000000	62.885217
1248.000000	62.761693
1247.000000	62.594942
1246.000000	62.450167
1245.000000	62.310826
1244.000000	62.118356
1243.000000	61.925765
1242.000000	61.739695
1241.000000	61.553867
1240.000000	61.346545
1239.000000	61.160233
1238.000000	60.958949
1237.000000	60.742813
1236.000000	60.524141
1235.000000	60.307160
1234.000000	60.105876
1233.000000	59.895415
1232.000000	59.631946
1231.000000	59.396853
1230.000000	59.188444
1229.000000	58.933911
1228.000000	58.697369
1227.000000	58.474954
1226.000000	58.237445
1225.000000	57.994504
1224.000000	57.750113
1223.000000	57.524559
1222.000000	57.298763
1221.000000	57.075020
1220.000000	56.852605
1219.000000	56.647215
1218.000000	56.451364
1217.000000	56.271573
1216.000000	56.103253
1215.000000	55.954734
1214.000000	55.783395
1213.000000	55.617610
1212.000000	55.469817
1211.000000	55.325887
1210.000000	55.203450
1209.000000	55.072320
1208.000000	54.978620
1207.000000	54.888181
1206.000000	54.813439
1205.000000	54.777940
1204.000000	54.729038
1203.000000	54.695953
1202.000000	54.644877
1201.000000	54.582814
1200.000000	54.512781
1199.000000	54.377062
1198.000000	54.203549
1197.000000	53.983308
1196.000000	53.689532
1195.000000	53.299038
1194.000000	52.856623
1193.000000	52.301793
1192.000000	51.725229
1191.000000	51.139247
1190.000000	50.610498
1189.000000	50.173758
1188.000000	49.876481
1187.000000	49.783868
1186.000000	49.810674
1185.000000	50.032002
1184.000000	50.417425
1183.000000	50.929993
1182.000000	51.566810
1181.000000	52.198434
1180.000000	52.850586
1179.000000	53.435602
1178.000000	53.948050
1177.000000	54.396864
1176.000000	54.770816
1175.000000	55.190168
1174.000000	55.561101
1173.000000	55.979487
1172.000000	56.413692
1171.000000	56.850190
1170.000000	57.310475
1169.000000	57.746611
1168.000000	58.169707
1167.000000	58.628181
1166.000000	59.104042
1165.000000	59.599465
1164.000000	60.041880
1163.000000	60.518345
1162.000000	60.940837
1161.000000	61.376732
1160.000000	61.808158
1159.000000	62.188147
1158.000000	62.566446
1157.000000	62.908279
1156.000000	63.153877
1155.000000	63.343208
1154.000000	63.451759
1153.000000	63.508630
1152.000000	63.508268
1151.000000	63.516600
1150.000000	63.461781
1149.000000	63.433888
1148.000000	63.467214
1147.000000	63.546424
1146.000000	63.712812
1145.000000	63.962395
1144.000000	64.282494
1143.000000	64.624689
1142.000000	64.992121
1141.000000	65.387927
1140.000000	65.767675
1139.000000	66.190891
1138.000000	66.610606
1137.000000	67.066182
1136.000000	67.491330
1135.000000	67.936643
1134.000000	68.293086
1133.000000	68.575271
1132.000000	68.867115
1131.000000	69.164513
1130.000000	69.416752
1129.000000	69.610913
1128.000000	69.741319
1127.000000	69.871000
1126.000000	69.977257
1125.000000	70.049222
1124.000000	70.139903
1123.000000	70.171418
1122.000000	70.239881
1121.000000	70.261253
1120.000000	70.257027
1119.000000	70.272965
1118.000000	70.259925
1117.000000	70.241813
1116.000000	70.201483
1115.000000	70.171538
1114.000000	70.133865
1113.000000	70.099573
1112.000000	70.053328
1111.000000	70.020364
1110.000000	69.990539
1109.000000	69.948278
1108.000000	69.903119
1107.000000	69.853492
1106.000000	69.823306
1105.000000	69.779716
1104.000000	69.724656
1103.000000	69.653657
1102.000000	69.607773
1101.000000	69.594008
1100.000000	69.522043
1099.000000	69.468673
1098.000000	69.408059
1097.000000	69.350463
1096.000000	69.279222
1095.000000	69.218366
1094.000000	69.159200
1093.000000	69.089771
1092.000000	69.016357
1091.000000	68.920968
1090.000000	68.854436
1089.000000	68.781989
1088.000000	68.682614
1087.000000	68.612581
1086.000000	68.552329
1085.000000	68.470704
1084.000000	68.390166
1083.000000	68.306248
1082.000000	68.209288
1081.000000	68.150002
1080.000000	68.064272
1079.000000	67.994963
1078.000000	67.926983
1077.000000	67.839442
1076.000000	67.756368
1075.000000	67.672087
1074.000000	67.575249
1073.000000	67.479980
1072.000000	67.401978
1071.000000	67.321440
1070.000000	67.246939
1069.000000	67.156621
1068.000000	67.060990
1067.000000	66.965721
1066.000000	66.873350
1065.000000	66.784601
1064.000000	66.687521
1063.000000	66.605051
1062.000000	66.524634
1061.000000	66.424898
1060.000000	66.321660
1059.000000	66.208399
1058.000000	66.107093
1057.000000	66.023054
1056.000000	65.922713
1055.000000	65.835534
1054.000000	65.744733
1053.000000	65.667455
1052.000000	65.579794
1051.000000	65.506138
1050.000000	65.446369
1049.000000	65.391671
1048.000000	65.308356
1047.000000	65.240255
1046.000000	65.191473
1045.000000	65.145106
1044.000000	65.087269
1043.000000	65.027137
1042.000000	64.968454
1041.000000	64.910013
1040.000000	64.853504
1039.000000	64.798081
1038.000000	64.755216
1037.000000	64.701967
1036.000000	64.615996
1035.000000	64.542703
1034.000000	64.483537
1033.000000	64.396358
1032.000000	64.312922
1031.000000	64.237697
1030.000000	64.154261
1029.000000	64.074569
1028.000000	63.999464
1027.000000	63.892483
1026.000000	63.780913
1025.000000	63.698685
1024.000000	63.624426
1023.000000	63.531934
1022.000000	63.442944
1021.000000	63.354920
1020.000000	63.261100
1019.000000	63.183219
1018.000000	63.117291
1017.000000	63.026369
1016.000000	62.956215
1015.000000	62.905623
1014.000000	62.860343
1013.000000	62.820617
1012.000000	62.787050
1011.000000	62.767972
1010.000000	62.752758
1009.000000	62.760244
1008.000000	62.748169
1007.000000	62.749618
1006.000000	62.763866
1005.000000	62.769179
1004.000000	62.766161
1003.000000	62.773405
1002.000000	62.771232
1001.000000	62.753361
1000.000000	62.758554
999.000000	62.763866
998.000000	62.759640
997.000000	62.771836
996.000000	62.789223
995.000000	62.815667
994.000000	62.815908
993.000000	62.840299
992.000000	62.869157
991.000000	62.876644
990.000000	62.870727
989.000000	62.907675
988.000000	62.928564
987.000000	62.947522
986.000000	62.983866
985.000000	63.005842
984.000000	63.040255
983.000000	63.054020
982.000000	63.120068
981.000000	63.152911
980.000000	63.185271
979.000000	63.237434
978.000000	63.270156
977.000000	63.301429
976.000000	63.357214
975.000000	63.401287
974.000000	63.425677
973.000000	63.495831
972.000000	63.544613
971.000000	63.592791
970.000000	63.654371
969.000000	63.740946
968.000000	63.797576
967.000000	63.868092
966.000000	63.971331
965.000000	64.071792
964.000000	64.121539
963.000000	64.199662
962.000000	64.312681
961.000000	64.427148
960.000000	64.535941
959.000000	64.662966
958.000000	64.774053
957.000000	64.895161
956.000000	65.033175
955.000000	65.158389
954.000000	65.289157
953.000000	65.400364
952.000000	65.542966
951.000000	65.675183
950.000000	65.811627
949.000000	65.950847
948.000000	66.095260
947.000000	66.285073
946.000000	66.413427
945.000000	66.587785
944.000000	66.788827
943.000000	66.956906
942.000000	67.103372
941.000000	67.282801
940.000000	67.502922
939.000000	67.671484
938.000000	67.862746
937.000000	68.080452
936.000000	68.313130
935.000000	68.535666
934.000000	68.788267
933.000000	69.017927
932.000000	69.231527
931.000000	69.499343
930.000000	69.715841
929.000000	69.927630
928.000000	70.182526
927.000000	70.413997
926.000000	70.655007
925.000000	70.889738
924.000000	71.094282
923.000000	71.335534
922.000000	71.617477
921.000000	71.859452
920.000000	72.114227
919.000000	72.310561
918.000000	72.527905
917.000000	72.740660
916.000000	72.933975
915.000000	73.171241
914.000000	73.357312
913.000000	73.548453
912.000000	73.759639
911.000000	73.958629
910.000000	74.193360
909.000000	74.404545
908.000000	74.604139
907.000000	74.840681
906.000000	75.050418
905.000000	75.307487
904.000000	75.527125
903.000000	75.762460
902.000000	75.978716
901.000000	76.184227
900.000000	76.385511
899.000000	76.507344
898.000000	76.712855
897.000000	76.906411
896.000000	77.096466
895.000000	77.269858
894.000000	77.419100
893.000000	77.567618
892.000000	77.577640
891.000000	77.727125
890.000000	77.802470
889.000000	77.758519
888.000000	77.859221
887.000000	77.972602
886.000000	78.085379
885.000000	78.115083
884.000000	78.001098
883.000000	77.993974
882.000000	77.871899
881.000000	77.845456
880.000000	77.655160
879.000000	77.590681
878.000000	77.404732
877.000000	77.306444
876.000000	77.079803
875.000000	76.911603
874.000000	76.657191
873.000000	76.456993
872.000000	76.150539
871.000000	75.898903
870.000000	75.418695
869.000000	74.973382
868.000000	74.513459
867.000000	74.172471
866.000000	74.143492
865.000000	74.370253
864.000000	74.647970
863.000000	74.986543
862.000000	75.289013
861.000000	75.578080
860.000000	75.921845
859.000000	76.204391
858.000000	79.254567
857.000000	79.000600
856.000000	79.304100
855.000000	79.459000
854.000000	79.511700
853.000000	80.621500
852.000000	80.816000
851.000000	80.959200
850.000000	81.376300
849.000000	81.576800
848.000000	81.672700
847.000000	82.502500
846.000000	82.958900
845.000000	83.127200
844.000000	83.625200
843.000000	84.054200
842.000000	84.440700
841.000000	85.108100
840.000000	85.626900
839.000000	85.663500
838.000000	85.940400
837.000000	86.302800
836.000000	86.974900
835.000000	87.425300
834.000000	87.847700
833.000000	88.269900
832.000000	88.709000
831.000000	89.148500
830.000000	89.724900
829.000000	89.917100
828.000000	90.266900
827.000000	90.782000
826.000000	91.190900
825.000000	91.502400
824.000000	92.040400
823.000000	92.408500
822.000000	92.687900
821.000000	92.954000
820.000000	93.464500
819.000000	94.060300
818.000000	94.305300
817.000000	94.632900
816.000000	94.931000
815.000000	95.095100
814.000000	95.606900
813.000000	96.044100
812.000000	96.408900
811.000000	96.578100
810.000000	96.791700
809.000000	97.158500
808.000000	97.648500
807.000000	97.801300
806.000000	97.992200
805.000000	98.212300
804.000000	98.448700
803.000000	98.652700
802.000000	99.049500
801.000000	99.253500
800.000000	99.425000
799.000000	99.595100
798.000000	99.803700
797.000000	99.926500
796.000000	100.083900
795.000000	100.277000
794.000000	100.308400
793.000000	100.444400
792.000000	100.628300
791.000000	100.736200
790.000000	100.906200
789.000000	101.169000
788.000000	101.191800
787.000000	101.257000
786.000000	101.203000
785.000000	101.252300
784.000000	101.387300
783.000000	101.355200
782.000000	101.448200
781.000000	101.517100
780.000000	101.422800
779.000000	101.460900
778.000000	101.489000
777.000000	101.517900
776.000000	101.620000
775.000000	101.651700
774.000000	101.716000
773.000000	101.600300
772.000000	101.510600
771.000000	101.604800
770.000000	101.774400
769.000000	101.755500
768.000000	101.661700
767.000000	101.669300
766.000000	101.663000
765.000000	101.644600
764.000000	101.581400
763.000000	101.580500
762.000000	101.551600
761.000000	101.506600
760.000000	101.490800
759.000000	101.420400
758.000000	101.326100
757.000000	101.181000
756.000000	101.077000
755.000000	101.019800
754.000000	100.962200
753.000000	100.876600
752.000000	100.735700
751.000000	100.620500
750.000000	100.414900
749.000000	100.221300
748.000000	100.046800
747.000000	99.892100
746.000000	99.726300
745.000000	99.535800
744.000000	99.380300
743.000000	99.172400
742.000000	98.907500
741.000000	98.631900
740.000000	98.366800
739.000000	98.073900
738.000000	97.865200
737.000000	97.598100
736.000000	97.250900
735.000000	96.964800
734.000000	96.624400
733.000000	96.348900
732.000000	96.020600
731.000000	95.606500
730.000000	95.178800
729.000000	94.741800
728.000000	94.392700
727.000000	93.916700
726.000000	93.447000
725.000000	93.013200
724.000000	92.513800
723.000000	92.004100
722.000000	91.482500
721.000000	91.030100
720.000000	90.591200
719.000000	90.045800
718.000000	89.572900
717.000000	89.054300
716.000000	88.608000
715.000000	88.169300
714.000000	87.646300
713.000000	87.224900
712.000000	86.778500
711.000000	86.363700
710.000000	85.957400
709.000000	85.465500
708.000000	85.021900
707.000000	84.643600
706.000000	84.207200
705.000000	83.842800
704.000000	83.492600
703.000000	83.170000
702.000000	82.851600
701.000000	82.555700
700.000000	82.296400
699.000000	82.038400
698.000000	81.735000
697.000000	81.589400
696.000000	81.469700
695.000000	81.271600
694.000000	81.147300
693.000000	81.056800
692.000000	80.874100
691.000000	80.678200
690.000000	80.520700
689.000000	80.309600
688.000000	80.171100
687.000000	79.941600
686.000000	79.696900
685.000000	79.448800
684.000000	79.163200
683.000000	78.859500
682.000000	78.502000
681.000000	78.216000
680.000000	77.852400
679.000000	77.455200
678.000000	77.071600
677.000000	76.704200
676.000000	76.258500
675.000000	75.824500
674.000000	75.439300
673.000000	75.046500
672.000000	74.511500
671.000000	73.989100
670.000000	73.474100
669.000000	73.070900
668.000000	72.576400
667.000000	72.019600
666.000000	71.512200
665.000000	71.063700
664.000000	70.516600
663.000000	69.968000
662.000000	69.414000
661.000000	68.934000
660.000000	68.475900
659.000000	68.065400
658.000000	67.648300
657.000000	67.261500
656.000000	66.968900
655.000000	66.654000
654.000000	66.379500
653.000000	66.185800
652.000000	65.967600
651.000000	65.810800
650.000000	65.636700
649.000000	65.550500
648.000000	65.482600
647.000000	65.395400
646.000000	65.332700
645.000000	65.267700
644.000000	65.219900
643.000000	65.204400
642.000000	65.210100
641.000000	65.188800
640.000000	65.207500
639.000000	65.328900
638.000000	65.405900
637.000000	65.553800
636.000000	65.691700
635.000000	65.869500
634.000000	66.093400
633.000000	66.338400
632.000000	66.645100
631.000000	66.947500
630.000000	67.266300
629.000000	67.590300
628.000000	67.971900
627.000000	68.386700
626.000000	68.773100
625.000000	69.217200
624.000000	69.611000
623.000000	70.015500
622.000000	70.457300
621.000000	70.912300
620.000000	71.295400
619.000000	71.683500
618.000000	72.058700
617.000000	72.484900
616.000000	72.838100
615.000000	73.298000
614.000000	73.634400
613.000000	74.066800
612.000000	74.423000
611.000000	74.737900
610.000000	75.087200
609.000000	75.499200
608.000000	75.744300
607.000000	76.032900
606.000000	76.382500
605.000000	76.681100
604.000000	77.005400
603.000000	77.296900
602.000000	77.601800
601.000000	77.884600
600.000000	78.152700
599.000000	78.363800
598.000000	78.523100
597.000000	78.702900
596.000000	78.865600
595.000000	78.983000
594.000000	79.096300
593.000000	79.199500
592.000000	79.231200
591.000000	79.270000
590.000000	79.280000
589.000000	79.259300
588.000000	79.272500
587.000000	79.214800
586.000000	79.165400
585.000000	79.120500
584.000000	79.026100
583.000000	78.948300
582.000000	78.804900
581.000000	78.710200
580.000000	78.612100
579.000000	78.438700
578.000000	78.272800
577.000000	78.171400
576.000000	78.014200
575.000000	77.847200
574.000000	77.684000
573.000000	77.443600
572.000000	77.293000
571.000000	77.074000
570.000000	76.829300
569.000000	76.568400
568.000000	76.300200
567.000000	75.990100
566.000000	75.689900
565.000000	75.314200
564.000000	74.966500
563.000000	74.542300
562.000000	74.152900
561.000000	73.710200
560.000000	73.235600
559.000000	72.729600
558.000000	72.251800
557.000000	71.743300
556.000000	71.172500
555.000000	70.576600
554.000000	69.994300
553.000000	69.413200
552.000000	68.753600
551.000000	68.136200
550.000000	67.470600
549.000000	66.797600
548.000000	66.122900
547.000000	65.426600
546.000000	64.696700
545.000000	63.996400
544.000000	63.257900
543.000000	62.503700
542.000000	61.737300
541.000000	60.989700
540.000000	60.216300
539.000000	59.451700
538.000000	58.683400
537.000000	57.933100
536.000000	57.179000
535.000000	56.426200
534.000000	55.696500
533.000000	54.936900
532.000000	54.207800
531.000000	53.469300
530.000000	52.722800
529.000000	52.019700
528.000000	51.282000
527.000000	50.532000
526.000000	49.807000
525.000000	49.050400
524.000000	48.310900
523.000000	47.559100
522.000000	46.782700
521.000000	45.992800
520.000000	45.200700
519.000000	44.366200
518.000000	43.554400
517.000000	42.739400
516.000000	41.920200
515.000000	41.081300
514.000000	40.236300
513.000000	39.405300
512.000000	38.570800
511.000000	37.705100
510.000000	36.878600
509.000000	36.084700
508.000000	35.303600
507.000000	34.555200
506.000000	33.853800
505.000000	33.188000
504.000000	32.573800
503.000000	31.992000
502.000000	31.484900
501.000000	31.035900
500.000000	30.670800
499.000000	30.382200
498.000000	30.145000
497.000000	29.970900
496.000000	29.874300
495.000000	29.854300
494.000000	29.854000
493.000000	29.891700
492.000000	29.978700
491.000000	30.125100
490.000000	30.238600
489.000000	30.374100
488.000000	30.505900
487.000000	30.628000
486.000000	30.771600
485.000000	30.901900
484.000000	31.015900
483.000000	31.107900
482.000000	31.167800
481.000000	31.178800
480.000000	31.156500
479.000000	31.158900
478.000000	31.187600
477.000000	31.186600
476.000000	31.173100
475.000000	31.144900
474.000000	31.086300
473.000000	31.036500
472.000000	30.973800
471.000000	30.899400
470.000000	30.828700
469.000000	30.746300
468.000000	30.653500
467.000000	30.551800
466.000000	30.439400
465.000000	30.328700
464.000000	30.183300
463.000000	30.050900
462.000000	29.901800
461.000000	29.743500
460.000000	29.587900
459.000000	29.410800
458.000000	29.215000
457.000000	29.031200
456.000000	28.836400
455.000000	28.604500
454.000000	28.373500
453.000000	28.154000
452.000000	27.908100
451.000000	27.634900
450.000000	27.364500
449.000000	27.084200
448.000000	26.786000
447.000000	26.463100
446.000000	26.132400
445.000000	25.793200
444.000000	25.448900
443.000000	25.080300
442.000000	24.679600
441.000000	24.270600
440.000000	23.856600
439.000000	23.424400
438.000000	22.981600
437.000000	22.513600
436.000000	22.045600
435.000000	21.581300
434.000000	21.078900
433.000000	20.580100
432.000000	20.089900
431.000000	19.568000
430.000000	19.030200
429.000000	18.513300
428.000000	18.003900
427.000000	17.490100
426.000000	16.994300
425.000000	16.497800
424.000000	15.986700
423.000000	15.474000
422.000000	14.990800
421.000000	14.519700
420.000000	14.045300
419.000000	13.582500
418.000000	13.147200
417.000000	12.731400
416.000000	12.335800
415.000000	11.948400
414.000000	11.577000
413.000000	11.223000
412.000000	10.891500
411.000000	10.567800
410.000000	10.256400
409.000000	9.994800
408.000000	9.737900
407.000000	9.489300
406.000000	9.262300
405.000000	9.045900
404.000000	8.852700
403.000000	8.668000
402.000000	8.494100
401.000000	8.344100
400.000000	8.204100
399.000000	8.061800
398.000000	7.939100
397.000000	7.846200
396.000000	7.721300
395.000000	7.619800
394.000000	7.536900
393.000000	7.477700
392.000000	7.396300
391.000000	7.311900
390.000000	7.263500
389.000000	7.192200
388.000000	7.117000
387.000000	7.054800
386.000000	7.009700
385.000000	6.967200
384.000000	6.932800
383.000000	6.879100
382.000000	6.851700
381.000000	6.824000
380.000000	6.780600
379.000000	6.743900
378.000000	6.716900
377.000000	6.677700
376.000000	6.769800
375.000000	6.472800
374.000000	6.271400
373.000000	6.404200
372.000000	6.438800
371.000000	6.399300
370.000000	6.495300
369.000000	6.417800
368.000000	6.278800
367.000000	6.310600
366.000000	6.292400
365.000000	6.247300
364.000000	6.356700
363.000000	6.181400
362.000000	6.121900
361.000000	6.276800
360.000000	6.234600
359.000000	6.262000
358.000000	6.371900
357.000000	6.303100
356.000000	6.192500
355.000000	6.199200
354.000000	6.215200
353.000000	6.110600
352.000000	6.223300
351.000000	6.233800
350.000000	6.103800
349.000000	5.981000
348.000000	6.082200
347.000000	6.009500
346.000000	6.195000
345.000000	6.036200
344.000000	6.043000
343.000000	6.153500
342.000000	6.254300
341.000000	5.960800
340.000000	5.982100
339.000000	5.970100
338.000000	6.036000
337.000000	6.081000
336.000000	5.898800
335.000000	5.960200
334.000000	5.994500
333.000000	5.969400
332.000000	5.868800
331.000000	6.122500
330.000000	6.108800
329.000000	6.225900
328.000000	6.191300
327.000000	6.106900
326.000000	6.138500
325.000000	6.112500
324.000000	6.177900
323.000000	6.176400
322.000000	6.349200
321.000000	5.973500
320.000000	6.005400
319.000000	6.360900
318.000000	6.626400
317.000000	6.124900
316.000000	5.858500
315.000000	5.812000
314.000000	5.819900
313.000000	5.847000
312.000000	5.818600
311.000000	5.829700
310.000000	5.842300
309.000000	5.819000
308.000000	5.807200
307.000000	5.897500
306.000000	5.927600
305.000000	5.841900
304.000000	5.894200
303.000000	5.852400
302.000000	5.862300
301.000000	5.894300
300.000000	5.884400
299.000000	5.865800
298.000000	5.903200
297.000000	5.890300
296.000000	5.921400
295.000000	5.873000
294.000000	5.870000
293.000000	5.838700
292.000000	5.944300
291.000000	5.889500
290.000000	5.944800
289.000000	5.893700
288.000000	5.942900
287.000000	5.962600
286.000000	5.950400
285.000000	5.880300
284.000000	5.963200
283.000000	5.907700
282.000000	5.925900
281.000000	5.951800
280.000000	5.979200
279.000000	6.007000
278.000000	6.006800
277.000000	5.996500
276.000000	6.033200
275.000000	6.066000
274.000000	6.040900
273.000000	6.075000
272.000000	6.143300
271.000000	6.119100
270.000000	6.126600
269.000000	6.182400
268.000000	6.126500
267.000000	6.179500
266.000000	6.206500
265.000000	6.270600
264.000000	6.244500
263.000000	6.338900
262.000000	6.335600
261.000000	6.356400
260.000000	6.355800
259.000000	6.381900
258.000000	6.406200
257.000000	6.483800
256.000000	6.453600
255.000000	6.438000
254.000000	6.488900
253.000000	6.498400
252.000000	6.541400
251.000000	6.550800
250.000000	6.550900
