PE UV       SUBTECH     SPECTRUM    ASCII       PEDS        4.00        
   -1
CICIMAUCR0070-3.Sample.ASC
24/04/18
13:44:03.00
24/04/18
13:44:03.00
Vinicio Soto Monge
C. resplendens
250,000000
1
Lambda 1050
1050L1511233
PerkinElmer UV WinLab 6.3.2.0749 / 2.02.05 Lambda 900 UV/VIS/NIR, Aug  7 2015 09:38:08

0
0
3350/servo 860,8/2
0
0
UV/VIS
1
1
1
DoubleDePol,CommonBeamDepol,RBeamAtt,SBeamAtt,60mm sphere, WB InGaAs Detector
0
0
0
0
Program
Program
3350/servo 860,8/2
3350/0,2 860,8/0,2
3350/0,2 860,8/0,2
0
15.00
 
 
 
0
 
860,8
319,2
860,8
Front
100
on
S:100 R:100
0
0
0
0
 
0
 
 
 
0
 
 
0
0
0
0
0
 
 
 
 
0
0


0
0
#HDR
-1
-1
#GR
nm
%R
1.0
0.0
2500,000000
-1,000000
2251
8
85,171500
5,254500
#DATA
2500.000000	22.591007
2499.000000	22.597342
2498.000000	22.487262
2497.000000	22.562270
2496.000000	22.442234
2495.000000	22.479229
2494.000000	22.355346
2493.000000	22.497670
2492.000000	22.394264
2491.000000	22.346182
2490.000000	22.336452
2489.000000	22.418362
2488.000000	22.412592
2487.000000	22.384761
2486.000000	22.488506
2485.000000	22.495747
2484.000000	22.460335
2483.000000	22.439518
2482.000000	22.553220
2481.000000	22.552654
2480.000000	22.562157
2479.000000	22.570077
2478.000000	22.577770
2477.000000	22.638071
2476.000000	22.730503
2475.000000	22.738309
2474.000000	22.763086
2473.000000	22.863324
2472.000000	22.889798
2471.000000	22.944103
2470.000000	23.008703
2469.000000	23.045698
2468.000000	23.148878
2467.000000	23.217438
2466.000000	23.285885
2465.000000	23.354106
2464.000000	23.397437
2463.000000	23.473351
2462.000000	23.606058
2461.000000	23.645316
2460.000000	23.734920
2459.000000	23.819206
2458.000000	23.903944
2457.000000	24.007011
2456.000000	24.107249
2455.000000	24.228304
2454.000000	24.340987
2453.000000	24.460118
2452.000000	24.585133
2451.000000	24.744201
2450.000000	24.848512
2449.000000	24.971830
2448.000000	25.109742
2447.000000	25.258063
2446.000000	25.420073
2445.000000	25.564660
2444.000000	25.669989
2443.000000	25.825098
2442.000000	25.952488
2441.000000	26.113367
2440.000000	26.246867
2439.000000	26.397111
2438.000000	26.532195
2437.000000	26.682212
2436.000000	26.826347
2435.000000	26.936654
2434.000000	27.060085
2433.000000	27.215986
2432.000000	27.334325
2431.000000	27.463526
2430.000000	27.600080
2429.000000	27.707559
2428.000000	27.838457
2427.000000	27.939261
2426.000000	28.055451
2425.000000	28.154444
2424.000000	28.289528
2423.000000	28.439546
2422.000000	28.659255
2421.000000	28.878738
2420.000000	29.071860
2419.000000	29.229005
2418.000000	29.307748
2417.000000	29.405044
2416.000000	29.527004
2415.000000	29.660051
2414.000000	29.750220
2413.000000	29.885757
2412.000000	29.980225
2411.000000	30.078087
2410.000000	30.140538
2409.000000	30.226068
2408.000000	30.364433
2407.000000	30.469762
2406.000000	30.514677
2405.000000	30.543300
2404.000000	30.606995
2403.000000	30.721262
2402.000000	30.808037
2401.000000	30.849445
2400.000000	30.893228
2399.000000	30.951154
2398.000000	31.038607
2397.000000	31.117463
2396.000000	31.145860
2395.000000	31.163396
2394.000000	31.203446
2393.000000	31.244627
2392.000000	31.308096
2391.000000	31.375185
2390.000000	31.432206
2389.000000	31.439899
2388.000000	31.450420
2387.000000	31.495335
2386.000000	31.537761
2385.000000	31.540024
2384.000000	31.574191
2383.000000	31.614806
2382.000000	31.605077
2381.000000	31.583468
2380.000000	31.611073
2379.000000	31.636981
2378.000000	31.622952
2377.000000	31.610394
2376.000000	31.627704
2375.000000	31.657232
2374.000000	31.636981
2373.000000	31.652820
2372.000000	31.665378
2371.000000	31.652480
2370.000000	31.645127
2369.000000	31.664247
2368.000000	31.699205
2367.000000	31.706333
2366.000000	31.697056
2365.000000	31.724774
2364.000000	31.748532
2363.000000	31.728168
2362.000000	31.763014
2361.000000	31.793560
2360.000000	31.789148
2359.000000	31.798538
2358.000000	31.822749
2357.000000	31.832479
2356.000000	31.812228
2355.000000	31.798312
2354.000000	31.814038
2353.000000	31.817432
2352.000000	31.796728
2351.000000	31.778627
2350.000000	31.802611
2349.000000	31.804195
2348.000000	31.770028
2347.000000	31.795936
2346.000000	31.810983
2345.000000	31.786772
2344.000000	31.763579
2343.000000	31.777382
2342.000000	31.815282
2341.000000	31.826935
2340.000000	31.816187
2339.000000	31.793221
2338.000000	31.818903
2337.000000	31.856464
2336.000000	31.833950
2335.000000	31.881354
2334.000000	31.937129
2333.000000	31.946067
2332.000000	31.955231
2331.000000	31.962245
2330.000000	32.027977
2329.000000	32.089410
2328.000000	32.131496
2327.000000	32.163513
2326.000000	32.181502
2325.000000	32.220873
2324.000000	32.257982
2323.000000	32.305159
2322.000000	32.328352
2321.000000	32.359351
2320.000000	32.387974
2319.000000	32.376095
2318.000000	32.364555
2317.000000	32.381186
2316.000000	32.371570
2315.000000	32.334122
2314.000000	32.327447
2313.000000	32.290338
2312.000000	32.254474
2311.000000	32.226304
2310.000000	32.186706
2309.000000	32.142470
2308.000000	32.096085
2307.000000	32.088278
2306.000000	32.068253
2305.000000	32.023225
2304.000000	32.031484
2303.000000	32.004445
2302.000000	31.975595
2301.000000	31.991547
2300.000000	31.986117
2299.000000	31.972541
2298.000000	31.968468
2297.000000	31.999580
2296.000000	32.014288
2295.000000	32.024809
2294.000000	32.066217
2293.000000	32.079227
2292.000000	32.101402
2291.000000	32.140094
2290.000000	32.199264
2289.000000	32.248931
2288.000000	32.268956
2287.000000	32.304028
2286.000000	32.370551
2285.000000	32.416145
2284.000000	32.473392
2283.000000	32.560506
2282.000000	32.592863
2281.000000	32.642190
2280.000000	32.714596
2279.000000	32.760756
2278.000000	32.823998
2277.000000	32.869931
2276.000000	32.899912
2275.000000	32.960666
2274.000000	33.015650
2273.000000	33.059773
2272.000000	33.091451
2271.000000	33.137271
2270.000000	33.217144
2269.000000	33.280048
2268.000000	33.335371
2267.000000	33.398840
2266.000000	33.500662
2265.000000	33.585061
2264.000000	33.686996
2263.000000	33.797982
2262.000000	33.954674
2261.000000	34.097338
2260.000000	34.219751
2259.000000	34.389794
2258.000000	34.557913
2257.000000	34.767892
2256.000000	34.952190
2255.000000	35.143389
2254.000000	35.348390
2253.000000	35.523072
2252.000000	35.796746
2251.000000	35.967468
2250.000000	36.168623
2249.000000	36.342173
2248.000000	36.504635
2247.000000	36.720385
2246.000000	36.846644
2245.000000	37.009898
2244.000000	37.146792
2243.000000	37.309142
2242.000000	37.396256
2241.000000	37.489706
2240.000000	37.581232
2239.000000	37.632370
2238.000000	37.742111
2237.000000	37.770056
2236.000000	37.809427
2235.000000	37.841105
2234.000000	37.833298
2233.000000	37.831714
2232.000000	37.841897
2231.000000	37.825266
2230.000000	37.771300
2229.000000	37.746637
2228.000000	37.691879
2227.000000	37.641081
2226.000000	37.586550
2225.000000	37.516971
2224.000000	37.436532
2223.000000	37.341838
2222.000000	37.250877
2221.000000	37.146226
2220.000000	37.032412
2219.000000	36.933871
2218.000000	36.826845
2217.000000	36.733282
2216.000000	36.616866
2215.000000	36.518211
2214.000000	36.423064
2213.000000	36.326220
2212.000000	36.228698
2211.000000	36.140452
2210.000000	36.081282
2209.000000	35.995752
2208.000000	35.921648
2207.000000	35.834421
2206.000000	35.766766
2205.000000	35.711555
2204.000000	35.629419
2203.000000	35.602719
2202.000000	35.536422
2201.000000	35.468767
2200.000000	35.437541
2199.000000	35.400885
2198.000000	35.362532
2197.000000	35.322482
2196.000000	35.286392
2195.000000	35.237970
2194.000000	35.213872
2193.000000	35.187399
2192.000000	35.153006
2191.000000	35.128795
2190.000000	35.109448
2189.000000	35.084559
2188.000000	35.027878
2187.000000	35.006156
2186.000000	35.007287
2185.000000	34.969500
2184.000000	34.951172
2183.000000	34.931373
2182.000000	34.900487
2181.000000	34.879331
2180.000000	34.839507
2179.000000	34.842222
2178.000000	34.823102
2177.000000	34.795158
2176.000000	34.775472
2175.000000	34.778301
2174.000000	34.770947
2173.000000	34.756013
2172.000000	34.787352
2171.000000	34.807603
2170.000000	34.823668
2169.000000	34.856930
2168.000000	34.897432
2167.000000	34.924472
2166.000000	34.961693
2165.000000	35.007061
2164.000000	35.097343
2163.000000	35.154250
2162.000000	35.218850
2161.000000	35.285487
2160.000000	35.390024
2159.000000	35.467748
2158.000000	35.579413
2157.000000	35.694359
2156.000000	35.778758
2155.000000	35.903773
2154.000000	36.052206
2153.000000	36.175298
2152.000000	36.316151
2151.000000	36.457797
2150.000000	36.581567
2149.000000	36.729662
2148.000000	36.850490
2147.000000	36.993267
2146.000000	37.149507
2145.000000	37.274862
2144.000000	37.400668
2143.000000	37.543558
2142.000000	37.663369
2141.000000	37.791778
2140.000000	37.921205
2139.000000	38.046332
2138.000000	38.167840
2137.000000	38.293420
2136.000000	38.408932
2135.000000	38.521162
2134.000000	38.627283
2133.000000	38.741550
2132.000000	38.844843
2131.000000	38.918833
2130.000000	39.022465
2129.000000	39.118404
2128.000000	39.178027
2127.000000	39.249415
2126.000000	39.337548
2125.000000	39.407465
2124.000000	39.472858
2123.000000	39.543115
2122.000000	39.569589
2121.000000	39.615635
2120.000000	39.677294
2119.000000	39.732051
2118.000000	39.760901
2117.000000	39.774251
2116.000000	39.807513
2115.000000	39.844734
2114.000000	39.879919
2113.000000	39.894401
2112.000000	39.890893
2111.000000	39.896324
2110.000000	39.910240
2109.000000	39.914878
2108.000000	39.919177
2107.000000	39.916349
2106.000000	39.909334
2105.000000	39.920195
2104.000000	39.930604
2103.000000	39.933206
2102.000000	39.935695
2101.000000	39.921214
2100.000000	39.918272
2099.000000	39.937279
2098.000000	39.946103
2097.000000	39.953005
2096.000000	39.955720
2095.000000	39.960924
2094.000000	39.972803
2093.000000	39.997580
2092.000000	40.024620
2091.000000	40.043513
2090.000000	40.060370
2089.000000	40.078019
2088.000000	40.109019
2087.000000	40.111734
2086.000000	40.081074
2085.000000	40.093632
2084.000000	40.105172
2083.000000	40.078925
2082.000000	40.055392
2081.000000	40.018736
2080.000000	39.958548
2079.000000	39.914312
2078.000000	39.855595
2077.000000	39.777871
2076.000000	39.704559
2075.000000	39.607150
2074.000000	39.502726
2073.000000	39.403506
2072.000000	39.293991
2071.000000	39.171917
2070.000000	39.044979
2069.000000	38.913403
2068.000000	38.769947
2067.000000	38.629659
2066.000000	38.487221
2065.000000	38.349649
2064.000000	38.206645
2063.000000	38.057985
2062.000000	37.922336
2061.000000	37.802073
2060.000000	37.682941
2059.000000	37.570937
2058.000000	37.473641
2057.000000	37.423861
2056.000000	37.350662
2055.000000	37.309594
2054.000000	37.319776
2053.000000	37.315930
2052.000000	37.343874
2051.000000	37.426916
2050.000000	37.510636
2049.000000	37.621169
2048.000000	37.727177
2047.000000	37.862940
2046.000000	38.027665
2045.000000	38.231761
2044.000000	38.424771
2043.000000	38.591872
2042.000000	38.744831
2041.000000	38.938179
2040.000000	39.141597
2039.000000	39.316278
2038.000000	39.495145
2037.000000	39.667903
2036.000000	39.813735
2035.000000	39.978573
2034.000000	40.137642
2033.000000	40.267069
2032.000000	40.396835
2031.000000	40.522868
2030.000000	40.636004
2029.000000	40.761018
2028.000000	40.869968
2027.000000	40.945769
2026.000000	41.027452
2025.000000	41.112530
2024.000000	41.211976
2023.000000	41.292642
2022.000000	41.340725
2021.000000	41.383603
2020.000000	41.462232
2019.000000	41.534413
2018.000000	41.580232
2017.000000	41.601615
2016.000000	41.602294
2015.000000	41.633406
2014.000000	41.676624
2013.000000	41.682394
2012.000000	41.672890
2011.000000	41.667686
2010.000000	41.669270
2009.000000	41.652639
2008.000000	41.601615
2007.000000	41.577291
2006.000000	41.538146
2005.000000	41.508391
2004.000000	41.434175
2003.000000	41.392767
2002.000000	41.317079
2001.000000	41.242070
2000.000000	41.157106
1999.000000	41.080966
1998.000000	41.004373
1997.000000	40.894518
1996.000000	40.816568
1995.000000	40.710334
1994.000000	40.617110
1993.000000	40.484289
1992.000000	40.382580
1991.000000	40.283134
1990.000000	40.152689
1989.000000	40.017831
1988.000000	39.911823
1987.000000	39.790655
1986.000000	39.671524
1985.000000	39.535648
1984.000000	39.395699
1983.000000	39.262878
1982.000000	39.152911
1981.000000	39.025633
1980.000000	38.886703
1979.000000	38.740871
1978.000000	38.616309
1977.000000	38.500571
1976.000000	38.396713
1975.000000	38.247827
1974.000000	38.123943
1973.000000	38.018275
1972.000000	37.907741
1971.000000	37.792456
1970.000000	37.665971
1969.000000	37.550460
1968.000000	37.409945
1967.000000	37.286514
1966.000000	37.183787
1965.000000	37.070878
1964.000000	36.945411
1963.000000	36.834991
1962.000000	36.714841
1961.000000	36.593899
1960.000000	36.480764
1959.000000	36.359595
1958.000000	36.245102
1957.000000	36.101760
1956.000000	36.003671
1955.000000	35.876846
1954.000000	35.739952
1953.000000	35.646729
1952.000000	35.510174
1951.000000	35.393532
1950.000000	35.285940
1949.000000	35.161378
1948.000000	35.078110
1947.000000	35.001404
1946.000000	34.901618
1945.000000	34.827515
1944.000000	34.736667
1943.000000	34.686774
1942.000000	34.620703
1941.000000	34.576580
1940.000000	34.522954
1939.000000	34.513677
1938.000000	34.493312
1937.000000	34.466839
1936.000000	34.472722
1935.000000	34.492181
1934.000000	34.521596
1933.000000	34.555537
1932.000000	34.620477
1931.000000	34.685303
1930.000000	34.779432
1929.000000	34.868130
1928.000000	35.013623
1927.000000	35.145652
1926.000000	35.277341
1925.000000	35.420910
1924.000000	35.629872
1923.000000	35.790863
1922.000000	36.015890
1921.000000	36.295221
1920.000000	36.558375
1919.000000	36.799806
1918.000000	37.067824
1917.000000	37.361976
1916.000000	37.632483
1915.000000	37.971097
1914.000000	38.383363
1913.000000	38.831945
1912.000000	39.242514
1911.000000	39.639959
1910.000000	40.076436
1909.000000	40.436772
1908.000000	40.855713
1907.000000	41.391409
1906.000000	42.002567
1905.000000	42.660224
1904.000000	43.299892
1903.000000	43.855613
1902.000000	44.461793
1901.000000	45.032562
1900.000000	45.730042
1899.000000	46.452752
1898.000000	47.162111
1897.000000	47.868190
1896.000000	48.492924
1895.000000	49.047853
1894.000000	49.685711
1893.000000	50.351061
1892.000000	51.080672
1891.000000	51.806096
1890.000000	52.460472
1889.000000	53.028752
1888.000000	53.637873
1887.000000	54.165876
1886.000000	54.695577
1885.000000	55.224372
1884.000000	55.784279
1883.000000	56.264992
1882.000000	56.669112
1881.000000	57.087148
1880.000000	57.471695
1879.000000	57.819134
1878.000000	58.176529
1877.000000	58.515483
1876.000000	58.832489
1875.000000	59.154812
1874.000000	59.448285
1873.000000	59.754656
1872.000000	60.030820
1871.000000	60.265124
1870.000000	60.464016
1869.000000	60.627496
1868.000000	60.784868
1867.000000	60.884427
1866.000000	60.920744
1865.000000	60.976633
1864.000000	61.051076
1863.000000	61.132081
1862.000000	61.233337
1861.000000	61.346473
1860.000000	61.473184
1859.000000	61.572065
1858.000000	61.640059
1857.000000	61.702170
1856.000000	61.742220
1855.000000	61.768581
1854.000000	61.819605
1853.000000	61.831597
1852.000000	61.833860
1851.000000	61.858637
1850.000000	61.891446
1849.000000	61.961364
1848.000000	62.023249
1847.000000	62.051307
1846.000000	61.995870
1845.000000	61.890654
1844.000000	61.812138
1843.000000	61.817456
1842.000000	61.895858
1841.000000	61.954689
1840.000000	61.925161
1839.000000	61.865312
1838.000000	61.826167
1837.000000	61.805576
1836.000000	61.770278
1835.000000	61.705678
1834.000000	61.613359
1833.000000	61.521946
1832.000000	61.467527
1831.000000	61.470243
1830.000000	61.466396
1829.000000	61.421368
1828.000000	61.349980
1827.000000	61.319207
1826.000000	61.315813
1825.000000	61.271690
1824.000000	61.229264
1823.000000	61.221797
1822.000000	61.271577
1821.000000	61.346246
1820.000000	61.356089
1819.000000	61.270219
1818.000000	61.222815
1817.000000	61.217272
1816.000000	61.216819
1815.000000	61.210936
1814.000000	61.187065
1813.000000	61.185028
1812.000000	61.169981
1811.000000	61.145091
1810.000000	61.083093
1809.000000	61.042025
1808.000000	61.027996
1807.000000	61.018719
1806.000000	61.012157
1805.000000	60.973125
1804.000000	60.931492
1803.000000	60.930021
1802.000000	60.941900
1801.000000	60.928776
1800.000000	60.874019
1799.000000	60.833290
1798.000000	60.818130
1797.000000	60.798218
1796.000000	60.783171
1795.000000	60.769482
1794.000000	60.744931
1793.000000	60.726943
1792.000000	60.720381
1791.000000	60.704768
1790.000000	60.683725
1789.000000	60.690739
1788.000000	60.696170
1787.000000	60.707031
1786.000000	60.726377
1785.000000	60.747986
1784.000000	60.737577
1783.000000	60.712914
1782.000000	60.711896
1781.000000	60.704202
1780.000000	60.701261
1779.000000	60.683499
1778.000000	60.659514
1777.000000	60.634511
1776.000000	60.608150
1775.000000	60.575115
1774.000000	60.550791
1773.000000	60.515153
1772.000000	60.485059
1771.000000	60.450666
1770.000000	60.412539
1769.000000	60.386631
1768.000000	60.357442
1767.000000	60.332779
1766.000000	60.301553
1765.000000	60.274174
1764.000000	60.247927
1763.000000	60.253810
1762.000000	60.232767
1761.000000	60.235369
1760.000000	60.233672
1759.000000	60.248606
1758.000000	60.249511
1757.000000	60.259240
1756.000000	60.265237
1755.000000	60.276098
1754.000000	60.287185
1753.000000	60.273609
1752.000000	60.301779
1751.000000	60.278700
1750.000000	60.257657
1749.000000	60.237066
1748.000000	60.209913
1747.000000	60.162623
1746.000000	60.137959
1745.000000	60.078676
1744.000000	60.015886
1743.000000	59.946308
1742.000000	59.874693
1741.000000	59.836114
1740.000000	59.769816
1739.000000	59.692432
1738.000000	59.646159
1737.000000	59.579862
1736.000000	59.541848
1735.000000	59.510170
1734.000000	59.469781
1733.000000	59.423509
1732.000000	59.385608
1731.000000	59.341033
1730.000000	59.316709
1729.000000	59.298946
1728.000000	59.275414
1727.000000	59.248714
1726.000000	59.244415
1725.000000	59.261046
1724.000000	59.267721
1723.000000	59.325307
1722.000000	59.393528
1721.000000	59.525896
1720.000000	59.721508
1719.000000	59.914064
1718.000000	60.144295
1717.000000	60.375883
1716.000000	60.605209
1715.000000	60.828991
1714.000000	61.015099
1713.000000	61.237297
1712.000000	61.409715
1711.000000	61.570820
1710.000000	61.721969
1709.000000	61.829674
1708.000000	61.920974
1707.000000	62.049270
1706.000000	62.125297
1705.000000	62.193178
1704.000000	62.227345
1703.000000	62.241148
1702.000000	62.283800
1701.000000	62.296924
1700.000000	62.324868
1699.000000	62.322605
1698.000000	62.321927
1697.000000	62.333240
1696.000000	62.308124
1695.000000	62.301789
1694.000000	62.229495
1693.000000	62.194536
1692.000000	62.118170
1691.000000	62.057868
1690.000000	62.018045
1689.000000	61.995078
1688.000000	62.033431
1687.000000	62.095656
1686.000000	62.232210
1685.000000	62.372951
1684.000000	62.555665
1683.000000	62.780012
1682.000000	62.986824
1681.000000	63.199179
1680.000000	63.430541
1679.000000	63.651382
1678.000000	63.830701
1677.000000	64.042831
1676.000000	64.218077
1675.000000	64.374883
1674.000000	64.574794
1673.000000	64.732165
1672.000000	64.900850
1671.000000	65.069874
1670.000000	65.243085
1669.000000	65.395818
1668.000000	65.581813
1667.000000	65.742465
1666.000000	65.890107
1665.000000	66.022588
1664.000000	66.161971
1663.000000	66.297734
1662.000000	66.423541
1661.000000	66.538260
1660.000000	66.656034
1659.000000	66.747221
1658.000000	66.816347
1657.000000	66.887962
1656.000000	66.948715
1655.000000	67.004944
1654.000000	67.045107
1653.000000	67.087306
1652.000000	67.108237
1651.000000	67.122492
1650.000000	67.130977
1649.000000	67.140820
1648.000000	67.143874
1647.000000	67.135389
1646.000000	67.116043
1645.000000	67.117514
1644.000000	67.101448
1643.000000	67.098620
1642.000000	67.082328
1641.000000	67.082102
1640.000000	67.069092
1639.000000	67.058683
1638.000000	67.058796
1637.000000	67.029268
1636.000000	67.003360
1635.000000	66.999174
1634.000000	66.951544
1633.000000	66.935365
1632.000000	66.895316
1631.000000	66.855152
1630.000000	66.820646
1629.000000	66.779352
1628.000000	66.740886
1627.000000	66.692350
1626.000000	66.645626
1625.000000	66.616210
1624.000000	66.578423
1623.000000	66.531811
1622.000000	66.487575
1621.000000	66.459404
1620.000000	66.424106
1619.000000	66.382133
1618.000000	66.354980
1617.000000	66.328507
1616.000000	66.305767
1615.000000	66.265264
1614.000000	66.238451
1613.000000	66.204510
1612.000000	66.170909
1611.000000	66.115246
1610.000000	66.074178
1609.000000	66.029490
1608.000000	65.968849
1607.000000	65.931288
1606.000000	65.866122
1605.000000	65.796657
1604.000000	65.728889
1603.000000	65.671190
1602.000000	65.610888
1601.000000	65.546741
1600.000000	65.470713
1599.000000	65.397175
1598.000000	65.347622
1597.000000	65.296032
1596.000000	65.250552
1595.000000	65.181765
1594.000000	65.125537
1593.000000	65.085487
1592.000000	65.031635
1591.000000	65.005387
1590.000000	64.961717
1589.000000	64.907978
1588.000000	64.868493
1587.000000	64.829688
1586.000000	64.774478
1585.000000	64.739858
1584.000000	64.732731
1583.000000	64.692907
1582.000000	64.648332
1581.000000	64.623894
1580.000000	64.597760
1579.000000	64.576151
1578.000000	64.557484
1577.000000	64.529992
1576.000000	64.518905
1575.000000	64.518905
1574.000000	64.527729
1573.000000	64.539382
1572.000000	64.547754
1571.000000	64.569816
1570.000000	64.596402
1569.000000	64.616088
1568.000000	64.633058
1567.000000	64.665528
1566.000000	64.688382
1565.000000	64.702184
1564.000000	64.729902
1563.000000	64.761354
1562.000000	64.775948
1561.000000	64.771310
1560.000000	64.772894
1559.000000	64.761807
1558.000000	64.743252
1557.000000	64.727413
1556.000000	64.694038
1555.000000	64.642788
1554.000000	64.608508
1553.000000	64.561670
1552.000000	64.487679
1551.000000	64.423645
1550.000000	64.368661
1549.000000	64.290032
1548.000000	64.218191
1547.000000	64.153364
1546.000000	64.100190
1545.000000	64.053465
1544.000000	63.993956
1543.000000	63.948928
1542.000000	63.904240
1541.000000	63.862719
1540.000000	63.832964
1539.000000	63.820067
1538.000000	63.797666
1537.000000	63.758295
1536.000000	63.722205
1535.000000	63.676724
1534.000000	63.635430
1533.000000	63.609069
1532.000000	63.561439
1531.000000	63.517429
1530.000000	63.473872
1529.000000	63.431673
1528.000000	63.392188
1527.000000	63.352365
1526.000000	63.290593
1525.000000	63.237080
1524.000000	63.188318
1523.000000	63.126659
1522.000000	63.068055
1521.000000	63.014882
1520.000000	62.966460
1519.000000	62.904348
1518.000000	62.856379
1517.000000	62.786687
1516.000000	62.720616
1515.000000	62.670271
1514.000000	62.600014
1513.000000	62.528512
1512.000000	62.472736
1511.000000	62.422278
1510.000000	62.376119
1509.000000	62.308803
1508.000000	62.252235
1507.000000	62.183675
1506.000000	62.116699
1505.000000	62.068729
1504.000000	62.021891
1503.000000	61.974261
1502.000000	61.924595
1501.000000	61.875833
1500.000000	61.844608
1499.000000	61.824583
1498.000000	61.786230
1497.000000	61.777406
1496.000000	61.769486
1495.000000	61.768015
1494.000000	61.781478
1493.000000	61.802861
1492.000000	61.832842
1491.000000	61.873684
1490.000000	61.887600
1489.000000	61.910340
1488.000000	61.944733
1487.000000	61.985914
1486.000000	62.003903
1485.000000	62.048478
1484.000000	62.076762
1483.000000	62.121790
1482.000000	62.178584
1481.000000	62.209131
1480.000000	62.242845
1479.000000	62.268753
1478.000000	62.313555
1477.000000	62.369896
1476.000000	62.390147
1475.000000	62.461423
1474.000000	62.535753
1473.000000	62.605670
1472.000000	62.702062
1471.000000	62.778541
1470.000000	62.828095
1469.000000	62.843708
1468.000000	62.940665
1467.000000	63.054705
1466.000000	63.119871
1465.000000	63.179267
1464.000000	63.251222
1463.000000	63.344106
1462.000000	63.439140
1461.000000	63.539151
1460.000000	63.613934
1459.000000	63.723223
1458.000000	63.803210
1457.000000	63.882518
1456.000000	63.999952
1455.000000	64.102453
1454.000000	64.179724
1453.000000	64.270233
1452.000000	64.400791
1451.000000	64.511551
1450.000000	64.585315
1449.000000	64.619482
1448.000000	64.693360
1447.000000	64.819053
1446.000000	64.958210
1445.000000	65.040233
1444.000000	65.108567
1443.000000	65.195681
1442.000000	65.304744
1441.000000	65.434736
1440.000000	65.499789
1439.000000	65.643698
1438.000000	65.775387
1437.000000	65.868272
1436.000000	65.983670
1435.000000	66.128031
1434.000000	66.303730
1433.000000	66.455332
1432.000000	66.626958
1431.000000	66.751407
1430.000000	66.876761
1429.000000	67.063209
1428.000000	67.285972
1427.000000	67.465405
1426.000000	67.651400
1425.000000	67.903918
1424.000000	68.156097
1423.000000	68.378522
1422.000000	68.574359
1421.000000	68.862515
1420.000000	69.212104
1419.000000	69.517117
1418.000000	69.736940
1417.000000	69.985385
1416.000000	70.279764
1415.000000	70.644852
1414.000000	71.064132
1413.000000	71.333734
1412.000000	71.622229
1411.000000	71.994784
1410.000000	72.407616
1409.000000	72.890478
1408.000000	73.220607
1407.000000	73.591126
1406.000000	73.946711
1405.000000	74.330580
1404.000000	74.603010
1403.000000	74.995364
1402.000000	75.311577
1401.000000	75.817293
1400.000000	76.240533
1399.000000	76.435918
1398.000000	76.558330
1397.000000	76.950345
1396.000000	77.408431
1395.000000	77.755191
1394.000000	77.907019
1393.000000	78.096407
1392.000000	78.408209
1391.000000	78.640589
1390.000000	78.828847
1389.000000	79.123112
1388.000000	79.515013
1387.000000	79.668199
1386.000000	79.889265
1385.000000	80.136127
1384.000000	80.465238
1383.000000	80.653269
1382.000000	80.831231
1381.000000	80.928528
1380.000000	80.914839
1379.000000	81.066666
1378.000000	81.141449
1377.000000	81.229016
1376.000000	81.323258
1375.000000	81.417160
1374.000000	81.490133
1373.000000	81.639585
1372.000000	81.809175
1371.000000	81.933737
1370.000000	81.993812
1369.000000	82.109436
1368.000000	82.258775
1367.000000	82.305839
1366.000000	82.387184
1365.000000	82.503827
1364.000000	82.613342
1363.000000	82.689256
1362.000000	82.802052
1361.000000	82.892221
1360.000000	82.891429
1359.000000	82.900593
1358.000000	82.935778
1357.000000	82.978317
1356.000000	83.076066
1355.000000	83.206172
1354.000000	83.281180
1353.000000	83.316592
1352.000000	83.409024
1351.000000	83.525440
1350.000000	83.672742
1349.000000	83.790743
1348.000000	83.942118
1347.000000	84.026178
1346.000000	84.106051
1345.000000	84.243850
1344.000000	84.395904
1343.000000	84.490033
1342.000000	84.580655
1341.000000	84.683608
1340.000000	84.790634
1339.000000	84.877748
1338.000000	84.974253
1337.000000	85.063630
1336.000000	85.140336
1335.000000	85.216363
1334.000000	85.297594
1333.000000	85.371698
1332.000000	85.430415
1331.000000	85.481552
1330.000000	85.542193
1329.000000	85.618673
1328.000000	85.654537
1327.000000	85.691758
1326.000000	85.735655
1325.000000	85.779212
1324.000000	85.824240
1323.000000	85.859199
1322.000000	85.882392
1321.000000	85.916106
1320.000000	85.943032
1319.000000	85.973239
1318.000000	86.015439
1317.000000	86.043836
1316.000000	86.063069
1315.000000	86.085357
1314.000000	86.118732
1313.000000	86.145545
1312.000000	86.165796
1311.000000	86.179146
1310.000000	86.187631
1309.000000	86.201999
1308.000000	86.221232
1307.000000	86.236279
1306.000000	86.243294
1305.000000	86.256644
1304.000000	86.279045
1303.000000	86.281873
1302.000000	86.270107
1301.000000	86.264676
1300.000000	86.265242
1299.000000	86.277008
1298.000000	86.277347
1297.000000	86.271804
1296.000000	86.260490
1295.000000	86.243520
1294.000000	86.241710
1293.000000	86.236279
1292.000000	86.223834
1291.000000	86.216707
1290.000000	86.201094
1289.000000	86.186047
1288.000000	86.172358
1287.000000	86.148712
1286.000000	86.130950
1285.000000	86.111038
1284.000000	86.090674
1283.000000	86.076419
1282.000000	86.052660
1281.000000	86.034106
1280.000000	86.022114
1279.000000	86.017588
1278.000000	86.003673
1277.000000	85.976860
1276.000000	85.974144
1275.000000	85.974144
1274.000000	85.987381
1273.000000	85.988965
1272.000000	85.976520
1271.000000	85.977425
1270.000000	85.996432
1269.000000	85.997450
1268.000000	86.007180
1267.000000	86.037274
1266.000000	86.055376
1265.000000	86.050850
1264.000000	86.060693
1263.000000	86.064653
1262.000000	86.077550
1261.000000	86.092597
1260.000000	86.104024
1259.000000	86.120768
1258.000000	86.130611
1257.000000	86.117148
1256.000000	86.110699
1255.000000	86.144187
1254.000000	86.152559
1253.000000	86.145997
1252.000000	86.143282
1251.000000	86.116129
1250.000000	86.099499
1249.000000	86.097462
1248.000000	86.088751
1247.000000	86.055602
1246.000000	86.042591
1245.000000	86.038292
1244.000000	86.013855
1243.000000	85.982177
1242.000000	85.968940
1241.000000	85.949820
1240.000000	85.930248
1239.000000	85.917464
1238.000000	85.885446
1237.000000	85.869042
1236.000000	85.872322
1235.000000	85.853542
1234.000000	85.833404
1233.000000	85.820733
1232.000000	85.820733
1231.000000	85.792901
1230.000000	85.794598
1229.000000	85.772989
1228.000000	85.789507
1227.000000	85.746629
1226.000000	85.734637
1225.000000	85.719024
1224.000000	85.700922
1223.000000	85.691758
1222.000000	85.685875
1221.000000	85.670149
1220.000000	85.653632
1219.000000	85.630552
1218.000000	85.616749
1217.000000	85.605323
1216.000000	85.595932
1215.000000	85.581904
1214.000000	85.541401
1213.000000	85.526354
1212.000000	85.489133
1211.000000	85.466053
1210.000000	85.430981
1209.000000	85.382559
1208.000000	85.365815
1207.000000	85.325199
1206.000000	85.273270
1205.000000	85.253924
1204.000000	85.220662
1203.000000	85.175634
1202.000000	85.132077
1201.000000	85.084673
1200.000000	85.038627
1199.000000	84.993260
1198.000000	84.937258
1197.000000	84.889401
1196.000000	84.831250
1195.000000	84.776266
1194.000000	84.713476
1193.000000	84.652043
1192.000000	84.591402
1191.000000	84.535174
1190.000000	84.510397
1189.000000	84.463559
1188.000000	84.433918
1187.000000	84.429506
1186.000000	84.426790
1185.000000	84.411517
1184.000000	84.430637
1183.000000	84.464691
1182.000000	84.467293
1181.000000	84.488223
1180.000000	84.529404
1179.000000	84.555652
1178.000000	84.616405
1177.000000	84.655098
1176.000000	84.682816
1175.000000	84.732596
1174.000000	84.784412
1173.000000	84.812922
1172.000000	84.859647
1171.000000	84.929904
1170.000000	84.971990
1169.000000	85.052543
1168.000000	85.122121
1167.000000	85.211385
1166.000000	85.289222
1165.000000	85.380636
1164.000000	85.480421
1163.000000	85.566291
1162.000000	85.662796
1161.000000	85.751946
1160.000000	85.847998
1159.000000	85.930813
1158.000000	86.013855
1157.000000	86.093955
1156.000000	86.164438
1155.000000	86.230283
1154.000000	86.310722
1153.000000	86.360728
1152.000000	86.419106
1151.000000	86.461871
1150.000000	86.498301
1149.000000	86.555774
1148.000000	86.590620
1147.000000	86.640399
1146.000000	86.704547
1145.000000	86.755345
1144.000000	86.774352
1143.000000	86.793132
1142.000000	86.861805
1141.000000	86.932628
1140.000000	86.992816
1139.000000	87.035129
1138.000000	87.105952
1137.000000	87.222142
1136.000000	87.347949
1135.000000	87.398973
1134.000000	87.498984
1133.000000	87.521385
1132.000000	87.522064
1131.000000	87.614948
1130.000000	87.682490
1129.000000	87.764740
1128.000000	87.787480
1127.000000	87.825833
1126.000000	87.879572
1125.000000	87.940552
1124.000000	87.966800
1123.000000	87.970194
1122.000000	88.019860
1121.000000	88.003682
1120.000000	88.008999
1119.000000	88.023594
1118.000000	88.025178
1117.000000	88.041469
1116.000000	88.033436
1115.000000	88.042827
1114.000000	88.017711
1113.000000	88.022010
1112.000000	88.032871
1111.000000	88.028572
1110.000000	88.026648
1109.000000	88.028459
1108.000000	88.038414
1107.000000	88.037623
1106.000000	88.024951
1105.000000	88.023481
1104.000000	88.015222
1103.000000	88.014995
1102.000000	88.011828
1101.000000	88.011941
1100.000000	87.992821
1099.000000	88.000853
1098.000000	87.980602
1097.000000	87.950395
1096.000000	87.923016
1095.000000	87.910119
1094.000000	87.906046
1093.000000	87.887605
1092.000000	87.878215
1091.000000	87.858982
1090.000000	87.834997
1089.000000	87.815651
1088.000000	87.793589
1087.000000	87.763608
1086.000000	87.737813
1085.000000	87.716431
1084.000000	87.688826
1083.000000	87.666538
1082.000000	87.645608
1081.000000	87.615401
1080.000000	87.564716
1079.000000	87.534396
1078.000000	87.505320
1077.000000	87.475905
1076.000000	87.446376
1075.000000	87.416848
1074.000000	87.389356
1073.000000	87.353605
1072.000000	87.304957
1071.000000	87.270451
1070.000000	87.242280
1069.000000	87.218182
1068.000000	87.170213
1067.000000	87.137630
1066.000000	87.110590
1065.000000	87.074274
1064.000000	87.040899
1063.000000	87.012615
1062.000000	86.995079
1061.000000	86.949938
1060.000000	86.930026
1059.000000	86.917581
1058.000000	86.901177
1057.000000	86.874024
1056.000000	86.842912
1055.000000	86.826847
1054.000000	86.812705
1053.000000	86.795508
1052.000000	86.792340
1051.000000	86.773447
1050.000000	86.749688
1049.000000	86.754100
1048.000000	86.746973
1047.000000	86.741995
1046.000000	86.737243
1045.000000	86.735659
1044.000000	86.729097
1043.000000	86.739619
1042.000000	86.750819
1041.000000	86.752856
1040.000000	86.753874
1039.000000	86.761228
1038.000000	86.766998
1037.000000	86.768355
1036.000000	86.774804
1035.000000	86.793585
1034.000000	86.810894
1033.000000	86.810216
1032.000000	86.813383
1031.000000	86.816099
1030.000000	86.825376
1029.000000	86.849134
1028.000000	86.857506
1027.000000	86.865426
1026.000000	86.849926
1025.000000	86.855017
1024.000000	86.886469
1023.000000	86.903552
1022.000000	86.914753
1021.000000	86.929800
1020.000000	86.935683
1019.000000	86.942245
1018.000000	86.951974
1017.000000	86.950277
1016.000000	86.970302
1015.000000	86.985236
1014.000000	86.988970
1013.000000	86.994853
1012.000000	87.019743
1011.000000	87.042709
1010.000000	87.042822
1009.000000	87.045085
1008.000000	87.066581
1007.000000	87.078573
1006.000000	87.076197
1005.000000	87.072690
1004.000000	87.074387
1003.000000	87.075292
1002.000000	87.068843
1001.000000	87.061037
1000.000000	87.056964
999.000000	87.070654
998.000000	87.063073
997.000000	87.067033
996.000000	87.077442
995.000000	87.072916
994.000000	87.085135
993.000000	87.074274
992.000000	87.080836
991.000000	87.091470
990.000000	87.084569
989.000000	87.102105
988.000000	87.129484
987.000000	87.134009
986.000000	87.143739
985.000000	87.189333
984.000000	87.209358
983.000000	87.209697
982.000000	87.241262
981.000000	87.295680
980.000000	87.294322
979.000000	87.334599
978.000000	87.368200
977.000000	87.405761
976.000000	87.453391
975.000000	87.493667
974.000000	87.527947
973.000000	87.594245
972.000000	87.631353
971.000000	87.691202
970.000000	87.725482
969.000000	87.790308
968.000000	87.852307
967.000000	87.923808
966.000000	87.952545
965.000000	88.005492
964.000000	88.075636
963.000000	88.162072
962.000000	88.248733
961.000000	88.298626
960.000000	88.350442
959.000000	88.447739
958.000000	88.504872
957.000000	88.551710
956.000000	88.649799
955.000000	88.704782
954.000000	88.769722
953.000000	88.860117
952.000000	88.903562
951.000000	88.971443
950.000000	89.056408
949.000000	89.122705
948.000000	89.152460
947.000000	89.202013
946.000000	89.246023
945.000000	89.298291
944.000000	89.377373
943.000000	89.404639
942.000000	89.485530
941.000000	89.523544
940.000000	89.562915
939.000000	89.603418
938.000000	89.691211
937.000000	89.735786
936.000000	89.790317
935.000000	89.862724
934.000000	89.897683
933.000000	90.021566
932.000000	90.058562
931.000000	90.112754
930.000000	90.226907
929.000000	90.247385
928.000000	90.298070
927.000000	90.395479
926.000000	90.415052
925.000000	90.448540
924.000000	90.507710
923.000000	90.555792
922.000000	90.616546
921.000000	90.733415
920.000000	90.770184
919.000000	90.824263
918.000000	90.870648
917.000000	90.970999
916.000000	91.045103
915.000000	91.104047
914.000000	91.134593
913.000000	91.193197
912.000000	91.345025
911.000000	91.373762
910.000000	91.367652
909.000000	91.420374
908.000000	91.442548
907.000000	91.572088
906.000000	91.608518
905.000000	91.631937
904.000000	91.572201
903.000000	91.589511
902.000000	91.613609
901.000000	91.737040
900.000000	91.720975
899.000000	91.692238
898.000000	91.606595
897.000000	91.574012
896.000000	91.559643
895.000000	91.545615
894.000000	91.515747
893.000000	91.458953
892.000000	91.439154
891.000000	91.314479
890.000000	91.272619
889.000000	91.129842
888.000000	91.076894
887.000000	91.027115
886.000000	90.976204
885.000000	90.873703
884.000000	90.772673
883.000000	90.566087
882.000000	90.464605
881.000000	90.302482
880.000000	90.056525
879.000000	89.956400
878.000000	89.829915
877.000000	89.681594
876.000000	89.459283
875.000000	89.188663
874.000000	88.963297
873.000000	88.668240
872.000000	88.428053
871.000000	88.073147
870.000000	87.860000
869.000000	87.610536
868.000000	87.202683
867.000000	86.906041
866.000000	86.492418
865.000000	86.176883
864.000000	85.765183
863.000000	85.411408
862.000000	84.881029
861.000000	84.387532
860.000000	83.960785
859.000000	83.323154
858.000000	84.825367
857.000000	85.124300
856.000000	84.907400
855.000000	84.444400
854.000000	84.796900
853.000000	85.171500
852.000000	85.089100
851.000000	84.412300
850.000000	85.001100
849.000000	84.850400
848.000000	84.874400
847.000000	84.701600
846.000000	84.650500
845.000000	84.381300
844.000000	84.351100
843.000000	84.039800
842.000000	84.360300
841.000000	84.255000
840.000000	84.024800
839.000000	83.979700
838.000000	83.712300
837.000000	83.564000
836.000000	83.557200
835.000000	83.587900
834.000000	83.482900
833.000000	83.386500
832.000000	83.125000
831.000000	83.173900
830.000000	82.867300
829.000000	82.730700
828.000000	82.500300
827.000000	82.603500
826.000000	82.517200
825.000000	82.324600
824.000000	82.257300
823.000000	82.006800
822.000000	81.878300
821.000000	81.680300
820.000000	81.546100
819.000000	81.421900
818.000000	81.238900
817.000000	81.248000
816.000000	81.123000
815.000000	80.854600
814.000000	80.773900
813.000000	80.479700
812.000000	80.470900
811.000000	80.350000
810.000000	80.246900
809.000000	79.986400
808.000000	79.870100
807.000000	79.686500
806.000000	79.404700
805.000000	79.254200
804.000000	79.176700
803.000000	78.983900
802.000000	78.828600
801.000000	78.652400
800.000000	78.410100
799.000000	78.211700
798.000000	77.999700
797.000000	77.942300
796.000000	77.672000
795.000000	77.502700
794.000000	77.393800
793.000000	77.222000
792.000000	77.098000
791.000000	76.909400
790.000000	76.668700
789.000000	76.556500
788.000000	76.374800
787.000000	76.164900
786.000000	76.019100
785.000000	75.905700
784.000000	75.790000
783.000000	75.577100
782.000000	75.419900
781.000000	75.277100
780.000000	75.062800
779.000000	74.917500
778.000000	74.725800
777.000000	74.491900
776.000000	74.338900
775.000000	74.266200
774.000000	74.103600
773.000000	73.959900
772.000000	73.813400
771.000000	73.608500
770.000000	73.434000
769.000000	73.301500
768.000000	73.197000
767.000000	73.042500
766.000000	72.846000
765.000000	72.691600
764.000000	72.549300
763.000000	72.354800
762.000000	72.198000
761.000000	72.019200
760.000000	71.848700
759.000000	71.661400
758.000000	71.495800
757.000000	71.291900
756.000000	71.071400
755.000000	70.902200
754.000000	70.759400
753.000000	70.603900
752.000000	70.435000
751.000000	70.304600
750.000000	70.076500
749.000000	69.882500
748.000000	69.709200
747.000000	69.555900
746.000000	69.374100
745.000000	69.110500
744.000000	68.876500
743.000000	68.666700
742.000000	68.483400
741.000000	68.262900
740.000000	68.010200
739.000000	67.782900
738.000000	67.553900
737.000000	67.298900
736.000000	67.045600
735.000000	66.827200
734.000000	66.582100
733.000000	66.284400
732.000000	65.963500
731.000000	65.680200
730.000000	65.427600
729.000000	65.115200
728.000000	64.819100
727.000000	64.607200
726.000000	64.297300
725.000000	64.014600
724.000000	63.740100
723.000000	63.452500
722.000000	63.198100
721.000000	62.959500
720.000000	62.715300
719.000000	62.499800
718.000000	62.254500
717.000000	61.993900
716.000000	61.782400
715.000000	61.561400
714.000000	61.304200
713.000000	61.070300
712.000000	60.827300
711.000000	60.552600
710.000000	60.327000
709.000000	60.079600
708.000000	59.782000
707.000000	59.514600
706.000000	59.245400
705.000000	58.976200
704.000000	58.711000
703.000000	58.410500
702.000000	58.081500
701.000000	57.815700
700.000000	57.545200
699.000000	57.256700
698.000000	56.914500
697.000000	56.639300
696.000000	56.387400
695.000000	56.113100
694.000000	55.882900
693.000000	55.705000
692.000000	55.491300
691.000000	55.272600
690.000000	55.141200
689.000000	55.021400
688.000000	54.957500
687.000000	54.854700
686.000000	54.823500
685.000000	54.737300
684.000000	54.643700
683.000000	54.615200
682.000000	54.585600
681.000000	54.542100
680.000000	54.452800
679.000000	54.388800
678.000000	54.300800
677.000000	54.169000
676.000000	54.058100
675.000000	53.817800
674.000000	53.631500
673.000000	53.386800
672.000000	53.141000
671.000000	52.876200
670.000000	52.573900
669.000000	52.276900
668.000000	51.971000
667.000000	51.661000
666.000000	51.345900
665.000000	51.078700
664.000000	50.725900
663.000000	50.383900
662.000000	50.142300
661.000000	49.872900
660.000000	49.639600
659.000000	49.439800
658.000000	49.270200
657.000000	49.079400
656.000000	48.959100
655.000000	48.827900
654.000000	48.699100
653.000000	48.620900
652.000000	48.517000
651.000000	48.454700
650.000000	48.419600
649.000000	48.400600
648.000000	48.359800
647.000000	48.327500
646.000000	48.317600
645.000000	48.344700
644.000000	48.379900
643.000000	48.435800
642.000000	48.490800
641.000000	48.549200
640.000000	48.662900
639.000000	48.767100
638.000000	48.889200
637.000000	49.093300
636.000000	49.249800
635.000000	49.474800
634.000000	49.681000
633.000000	49.928100
632.000000	50.197800
631.000000	50.453000
630.000000	50.776000
629.000000	51.078200
628.000000	51.435400
627.000000	51.782600
626.000000	52.149000
625.000000	52.508900
624.000000	52.884100
623.000000	53.286600
622.000000	53.751000
621.000000	54.200200
620.000000	54.635400
619.000000	55.117400
618.000000	55.546700
617.000000	56.042600
616.000000	56.515000
615.000000	56.995900
614.000000	57.515900
613.000000	57.968800
612.000000	58.419900
611.000000	58.847300
610.000000	59.227200
609.000000	59.691400
608.000000	60.013700
607.000000	60.414900
606.000000	60.729000
605.000000	61.085600
604.000000	61.423300
603.000000	61.679800
602.000000	62.017900
601.000000	62.331900
600.000000	62.649600
599.000000	62.961500
598.000000	63.272100
597.000000	63.565100
596.000000	63.876800
595.000000	64.203300
594.000000	64.484100
593.000000	64.743700
592.000000	65.012500
591.000000	65.250500
590.000000	65.448900
589.000000	65.621400
588.000000	65.751500
587.000000	65.858900
586.000000	65.942900
585.000000	65.991800
584.000000	66.058600
583.000000	66.044500
582.000000	66.008500
581.000000	66.015000
580.000000	65.970900
579.000000	65.901800
578.000000	65.889800
577.000000	65.810800
576.000000	65.764700
575.000000	65.755900
574.000000	65.707700
573.000000	65.704100
572.000000	65.654900
571.000000	65.686900
570.000000	65.672100
569.000000	65.675400
568.000000	65.632700
567.000000	65.606300
566.000000	65.487100
565.000000	65.403800
564.000000	65.279200
563.000000	65.129100
562.000000	64.976000
561.000000	64.757400
560.000000	64.538100
559.000000	64.271000
558.000000	64.005300
557.000000	63.708100
556.000000	63.371900
555.000000	63.060600
554.000000	62.669400
553.000000	62.306500
552.000000	61.907200
551.000000	61.462400
550.000000	60.991600
549.000000	60.492800
548.000000	59.950900
547.000000	59.338500
546.000000	58.673800
545.000000	57.969900
544.000000	57.236200
543.000000	56.424800
542.000000	55.582300
541.000000	54.722100
540.000000	53.797500
539.000000	52.865900
538.000000	51.911500
537.000000	50.947000
536.000000	49.951600
535.000000	48.968900
534.000000	47.937100
533.000000	46.920400
532.000000	45.929600
531.000000	44.939400
530.000000	43.964200
529.000000	42.991100
528.000000	42.069500
527.000000	41.182200
526.000000	40.316000
525.000000	39.506300
524.000000	38.699100
523.000000	37.921300
522.000000	37.169100
521.000000	36.444800
520.000000	35.748500
519.000000	35.112600
518.000000	34.517900
517.000000	33.953100
516.000000	33.420500
515.000000	32.897300
514.000000	32.383100
513.000000	31.917900
512.000000	31.456500
511.000000	31.003600
510.000000	30.591800
509.000000	30.218400
508.000000	29.838000
507.000000	29.469400
506.000000	29.128300
505.000000	28.761100
504.000000	28.391800
503.000000	28.059100
502.000000	27.724400
501.000000	27.402600
500.000000	27.071600
499.000000	26.766700
498.000000	26.467400
497.000000	26.190100
496.000000	25.899100
495.000000	25.596400
494.000000	25.304400
493.000000	25.007100
492.000000	24.709400
491.000000	24.425400
490.000000	24.148200
489.000000	23.865500
488.000000	23.601000
487.000000	23.353400
486.000000	23.080300
485.000000	22.823200
484.000000	22.556700
483.000000	22.284000
482.000000	22.011000
481.000000	21.729900
480.000000	21.447100
479.000000	21.167600
478.000000	20.899000
477.000000	20.643100
476.000000	20.388700
475.000000	20.120900
474.000000	19.841000
473.000000	19.593200
472.000000	19.342400
471.000000	19.079500
470.000000	18.822400
469.000000	18.573300
468.000000	18.319800
467.000000	18.059600
466.000000	17.797400
465.000000	17.524900
464.000000	17.261500
463.000000	16.997900
462.000000	16.736400
461.000000	16.457800
460.000000	16.149800
459.000000	15.844300
458.000000	15.541500
457.000000	15.238600
456.000000	14.942400
455.000000	14.637500
454.000000	14.319700
453.000000	13.990900
452.000000	13.662200
451.000000	13.343300
450.000000	13.028900
449.000000	12.701700
448.000000	12.366500
447.000000	12.036200
446.000000	11.729400
445.000000	11.421500
444.000000	11.094200
443.000000	10.784100
442.000000	10.490900
441.000000	10.192200
440.000000	9.897300
439.000000	9.627100
438.000000	9.354000
437.000000	9.101300
436.000000	8.867500
435.000000	8.627500
434.000000	8.399600
433.000000	8.196000
432.000000	7.999600
431.000000	7.803300
430.000000	7.634100
429.000000	7.469200
428.000000	7.307600
427.000000	7.166600
426.000000	7.030500
425.000000	6.905200
424.000000	6.799500
423.000000	6.700700
422.000000	6.614200
421.000000	6.523200
420.000000	6.427800
419.000000	6.352500
418.000000	6.291700
417.000000	6.221400
416.000000	6.161300
415.000000	6.106300
414.000000	6.053600
413.000000	6.008900
412.000000	5.981500
411.000000	5.956400
410.000000	5.924000
409.000000	5.893900
408.000000	5.869900
407.000000	5.842400
406.000000	5.828000
405.000000	5.802200
404.000000	5.780700
403.000000	5.777300
402.000000	5.753900
401.000000	5.730900
400.000000	5.730200
399.000000	5.721200
398.000000	5.706600
397.000000	5.708200
396.000000	5.703500
395.000000	5.691600
394.000000	5.695100
393.000000	5.684000
392.000000	5.677600
391.000000	5.679000
390.000000	5.670100
389.000000	5.662600
388.000000	5.653500
387.000000	5.640100
386.000000	5.636100
385.000000	5.630400
384.000000	5.635500
383.000000	5.622500
382.000000	5.614100
381.000000	5.615000
380.000000	5.598300
379.000000	5.597300
378.000000	5.602200
377.000000	5.602100
376.000000	5.477300
375.000000	5.428500
374.000000	5.389900
373.000000	5.286600
372.000000	5.452700
371.000000	5.472300
370.000000	5.390100
369.000000	5.359800
368.000000	5.465600
367.000000	5.438200
366.000000	5.436600
365.000000	5.449900
364.000000	5.421200
363.000000	5.436700
362.000000	5.387500
361.000000	5.468400
360.000000	5.456900
359.000000	5.519000
358.000000	5.454200
357.000000	5.409900
356.000000	5.425400
355.000000	5.449400
354.000000	5.431000
353.000000	5.439400
352.000000	5.460100
351.000000	5.413400
350.000000	5.436400
349.000000	5.458200
348.000000	5.297900
347.000000	5.419800
346.000000	5.401500
345.000000	5.422800
344.000000	5.495800
343.000000	5.334000
342.000000	5.465500
341.000000	5.383800
340.000000	5.254500
339.000000	5.389800
338.000000	5.376200
337.000000	5.453000
336.000000	5.464200
335.000000	5.463000
334.000000	5.582500
333.000000	5.453200
332.000000	5.698200
331.000000	5.450100
330.000000	5.340200
329.000000	5.630100
328.000000	5.555700
327.000000	5.540300
326.000000	5.508900
325.000000	5.695300
324.000000	5.773600
323.000000	5.435800
322.000000	5.619400
321.000000	5.549800
320.000000	5.604000
319.000000	5.786400
318.000000	5.430400
317.000000	5.829400
316.000000	5.542400
315.000000	5.590200
314.000000	5.562500
313.000000	5.535200
312.000000	5.574800
311.000000	5.560900
310.000000	5.508900
309.000000	5.532900
308.000000	5.551600
307.000000	5.576300
306.000000	5.487100
305.000000	5.566500
304.000000	5.599200
303.000000	5.559700
302.000000	5.592100
301.000000	5.575200
300.000000	5.559900
299.000000	5.606800
298.000000	5.604900
297.000000	5.618300
296.000000	5.597600
295.000000	5.584200
294.000000	5.638400
293.000000	5.604400
292.000000	5.635800
291.000000	5.625300
290.000000	5.632300
289.000000	5.700300
288.000000	5.681200
287.000000	5.670700
286.000000	5.727700
285.000000	5.720600
284.000000	5.729200
283.000000	5.755500
282.000000	5.690000
281.000000	5.752200
280.000000	5.670800
279.000000	5.767500
278.000000	5.822200
277.000000	5.737900
276.000000	5.822200
275.000000	5.832300
274.000000	5.836600
273.000000	5.835100
272.000000	5.820600
271.000000	5.896800
270.000000	5.894400
269.000000	5.854900
268.000000	6.007000
267.000000	5.931900
266.000000	6.038800
265.000000	6.033200
264.000000	5.991600
263.000000	6.032900
262.000000	6.092000
261.000000	6.094400
260.000000	6.153800
259.000000	6.172000
258.000000	6.121600
257.000000	6.181000
256.000000	6.242300
255.000000	6.247100
254.000000	6.256300
253.000000	6.271500
252.000000	6.284800
251.000000	6.289700
250.000000	6.243900
