PE UV       SUBTECH     SPECTRUM    ASCII       PEDS        4.00        
   -1
CICIMAUCR0071-2.Sample.ASC
24/04/18
15:50:28.00
24/04/18
15:50:28.00
Vinicio Soto Monge
C. resplendens
250,000000
1
Lambda 1050
1050L1511233
PerkinElmer UV WinLab 6.3.2.0749 / 2.02.05 Lambda 900 UV/VIS/NIR, Aug  7 2015 09:38:08

0
0
3350/servo 860,8/2
0
0
UV/VIS
1
1
1
DoubleDePol,CommonBeamDepol,RBeamAtt,SBeamAtt,60mm sphere, WB InGaAs Detector
0
0
0
0
Program
Program
3350/servo 860,8/2
3350/0,2 860,8/0,2
3350/0,2 860,8/0,2
0
15.00
 
 
 
0
 
860,8
319,2
860,8
Front
100
on
S:100 R:100
0
0
0
0
 
0
 
 
 
0
 
 
0
0
0
0
0
 
 
 
 
0
0


0
0
#HDR
-1
-1
#GR
nm
%R
1.0
0.0
2500,000000
-1,000000
2251
8
94,034700
5,881900
#DATA
2500.000000	14.522723
2499.000000	14.453385
2498.000000	14.397353
2497.000000	14.341322
2496.000000	14.351301
2495.000000	14.415650
2494.000000	14.369701
2493.000000	14.295374
2492.000000	14.306497
2491.000000	14.325625
2490.000000	14.233105
2489.000000	14.323026
2488.000000	14.257846
2487.000000	14.279053
2486.000000	14.227595
2485.000000	14.337371
2484.000000	14.268033
2483.000000	14.264083
2482.000000	14.273023
2481.000000	14.281132
2480.000000	14.295374
2479.000000	14.316165
2478.000000	14.363672
2477.000000	14.368974
2476.000000	14.371469
2475.000000	14.462117
2474.000000	14.455672
2473.000000	14.468043
2472.000000	14.502972
2471.000000	14.542059
2470.000000	14.578859
2469.000000	14.585720
2468.000000	14.660879
2467.000000	14.666181
2466.000000	14.717847
2465.000000	14.770136
2464.000000	14.833341
2463.000000	14.901327
2462.000000	14.941974
2461.000000	14.995303
2460.000000	15.069735
2459.000000	15.154042
2458.000000	15.193857
2457.000000	15.285233
2456.000000	15.375466
2455.000000	15.428483
2454.000000	15.500420
2453.000000	15.628493
2452.000000	15.697935
2451.000000	15.802202
2450.000000	15.891395
2449.000000	15.987034
2448.000000	16.092028
2447.000000	16.210433
2446.000000	16.306591
2445.000000	16.408883
2444.000000	16.513670
2443.000000	16.608269
2442.000000	16.724075
2441.000000	16.830940
2440.000000	16.926059
2439.000000	17.030118
2438.000000	17.151434
2437.000000	17.254141
2436.000000	17.357888
2435.000000	17.456230
2434.000000	17.557066
2433.000000	17.662165
2432.000000	17.770486
2431.000000	17.867892
2430.000000	17.980059
2429.000000	18.060208
2428.000000	18.157302
2427.000000	18.258762
2426.000000	18.340991
2425.000000	18.434550
2424.000000	18.527902
2423.000000	18.600982
2422.000000	18.675102
2421.000000	18.752445
2420.000000	18.825317
2419.000000	18.890497
2418.000000	18.957340
2417.000000	19.014515
2416.000000	19.085101
2415.000000	19.153191
2414.000000	19.207040
2413.000000	19.255587
2412.000000	19.278873
2411.000000	19.338959
2410.000000	19.376903
2409.000000	19.414222
2408.000000	19.448320
2407.000000	19.482833
2406.000000	19.507366
2405.000000	19.539904
2404.000000	19.577536
2403.000000	19.601237
2402.000000	19.624523
2401.000000	19.630241
2400.000000	19.647497
2399.000000	19.667769
2398.000000	19.688248
2397.000000	19.723593
2396.000000	19.730038
2395.000000	19.738042
2394.000000	19.756858
2393.000000	19.769021
2392.000000	19.775778
2391.000000	19.775882
2390.000000	19.794386
2389.000000	19.817568
2388.000000	19.821102
2387.000000	19.822246
2386.000000	19.838671
2385.000000	19.840022
2384.000000	19.831602
2383.000000	19.830770
2382.000000	19.827444
2381.000000	19.812058
2380.000000	19.797712
2379.000000	19.795529
2378.000000	19.794906
2377.000000	19.782847
2376.000000	19.749165
2375.000000	19.730350
2374.000000	19.737107
2373.000000	19.731077
2372.000000	19.702698
2371.000000	19.690119
2370.000000	19.684298
2369.000000	19.675357
2368.000000	19.674110
2367.000000	19.669016
2366.000000	19.646874
2365.000000	19.634607
2364.000000	19.646562
2363.000000	19.654255
2362.000000	19.623380
2361.000000	19.595624
2360.000000	19.596144
2359.000000	19.596144
2358.000000	19.574729
2357.000000	19.552483
2356.000000	19.542711
2355.000000	19.519633
2354.000000	19.496971
2353.000000	19.466928
2352.000000	19.453621
2351.000000	19.414534
2350.000000	19.378774
2349.000000	19.365364
2348.000000	19.343117
2347.000000	19.315569
2346.000000	19.305797
2345.000000	19.285318
2344.000000	19.261097
2343.000000	19.243944
2342.000000	19.226999
2341.000000	19.222841
2340.000000	19.218267
2339.000000	19.211094
2338.000000	19.201842
2337.000000	19.206520
2336.000000	19.199971
2335.000000	19.206832
2334.000000	19.197580
2333.000000	19.200907
2332.000000	19.210990
2331.000000	19.233029
2330.000000	19.231573
2329.000000	19.245503
2328.000000	19.269621
2327.000000	19.276170
2326.000000	19.299144
2325.000000	19.312762
2324.000000	19.330331
2323.000000	19.340518
2322.000000	19.335736
2321.000000	19.334905
2320.000000	19.338231
2319.000000	19.323574
2318.000000	19.286981
2317.000000	19.260161
2316.000000	19.231366
2315.000000	19.195605
2314.000000	19.160260
2313.000000	19.127099
2312.000000	19.076784
2311.000000	19.036242
2310.000000	18.999026
2309.000000	18.949544
2308.000000	18.912120
2307.000000	18.887898
2306.000000	18.855984
2305.000000	18.842886
2304.000000	18.818352
2303.000000	18.814090
2302.000000	18.813570
2301.000000	18.800680
2300.000000	18.811907
2299.000000	18.806709
2298.000000	18.810971
2297.000000	18.823342
2296.000000	18.836960
2295.000000	18.863157
2294.000000	18.883324
2293.000000	18.890185
2292.000000	18.903387
2291.000000	18.952766
2290.000000	18.976676
2289.000000	18.996843
2288.000000	19.027718
2287.000000	19.059424
2286.000000	19.092897
2285.000000	19.135103
2284.000000	19.173463
2283.000000	19.204753
2282.000000	19.234172
2281.000000	19.278561
2280.000000	19.319727
2279.000000	19.351538
2278.000000	19.374408
2277.000000	19.420668
2276.000000	19.448424
2275.000000	19.473061
2274.000000	19.488966
2273.000000	19.524519
2272.000000	19.532627
2271.000000	19.567868
2270.000000	19.593857
2269.000000	19.626810
2268.000000	19.663922
2267.000000	19.731389
2266.000000	19.759769
2265.000000	19.823909
2264.000000	19.890440
2263.000000	19.994811
2262.000000	20.065397
2261.000000	20.177356
2260.000000	20.278816
2259.000000	20.421858
2258.000000	20.527269
2257.000000	20.672078
2256.000000	20.820006
2255.000000	20.963984
2254.000000	21.133638
2253.000000	21.274497
2252.000000	21.434900
2251.000000	21.570977
2250.000000	21.742607
2249.000000	21.909143
2248.000000	22.048442
2247.000000	22.184831
2246.000000	22.308538
2245.000000	22.440873
2244.000000	22.569881
2243.000000	22.662401
2242.000000	22.753257
2241.000000	22.811576
2240.000000	22.912101
2239.000000	22.986948
2238.000000	23.035703
2237.000000	23.063147
2236.000000	23.095477
2235.000000	23.125208
2234.000000	23.154940
2233.000000	23.156187
2232.000000	23.151821
2231.000000	23.155771
2230.000000	23.130822
2229.000000	23.111590
2228.000000	23.075622
2227.000000	23.035495
2226.000000	22.997656
2225.000000	22.946302
2224.000000	22.891518
2223.000000	22.809705
2222.000000	22.756376
2221.000000	22.684647
2220.000000	22.625393
2219.000000	22.531521
2218.000000	22.457090
2217.000000	22.394301
2216.000000	22.308122
2215.000000	22.227869
2214.000000	22.132022
2213.000000	22.057487
2212.000000	22.002286
2211.000000	21.914133
2210.000000	21.837414
2209.000000	21.777744
2208.000000	21.727637
2207.000000	21.659131
2206.000000	21.611312
2205.000000	21.533657
2204.000000	21.488645
2203.000000	21.466502
2202.000000	21.421282
2201.000000	21.372631
2200.000000	21.323980
2199.000000	21.273042
2198.000000	21.258696
2197.000000	21.210461
2196.000000	21.150271
2195.000000	21.118149
2194.000000	21.115134
2193.000000	21.074800
2192.000000	21.056192
2191.000000	21.031658
2190.000000	21.028852
2189.000000	20.991532
2188.000000	20.976043
2187.000000	20.935396
2186.000000	20.925105
2185.000000	20.905665
2184.000000	20.880300
2183.000000	20.868345
2182.000000	20.839654
2181.000000	20.831129
2180.000000	20.788508
2179.000000	20.762831
2178.000000	20.743807
2177.000000	20.741416
2176.000000	20.732268
2175.000000	20.728838
2174.000000	20.720729
2173.000000	20.731644
2172.000000	20.734451
2171.000000	20.736218
2170.000000	20.757529
2169.000000	20.791107
2168.000000	20.833520
2167.000000	20.849010
2166.000000	20.883419
2165.000000	20.919595
2164.000000	20.952861
2163.000000	21.013466
2162.000000	21.066068
2161.000000	21.106922
2160.000000	21.175012
2159.000000	21.254018
2158.000000	21.328138
2157.000000	21.406208
2156.000000	21.489684
2155.000000	21.577734
2154.000000	21.675556
2153.000000	21.773066
2152.000000	21.885649
2151.000000	22.002702
2150.000000	22.101563
2149.000000	22.198450
2148.000000	22.319245
2147.000000	22.427670
2146.000000	22.534224
2145.000000	22.649510
2144.000000	22.755752
2143.000000	22.860955
2142.000000	22.965118
2141.000000	23.058365
2140.000000	23.170117
2139.000000	23.286443
2138.000000	23.388007
2137.000000	23.489987
2136.000000	23.571695
2135.000000	23.652260
2134.000000	23.744468
2133.000000	23.816301
2132.000000	23.907262
2131.000000	23.993025
2130.000000	24.061323
2129.000000	24.122449
2128.000000	24.185654
2127.000000	24.258942
2126.000000	24.322146
2125.000000	24.368303
2124.000000	24.430883
2123.000000	24.462902
2122.000000	24.511656
2121.000000	24.554486
2120.000000	24.580891
2119.000000	24.624032
2118.000000	24.630893
2117.000000	24.660104
2116.000000	24.690147
2115.000000	24.708235
2114.000000	24.723309
2113.000000	24.747738
2112.000000	24.764683
2111.000000	24.762812
2110.000000	24.755743
2109.000000	24.771336
2108.000000	24.784954
2107.000000	24.781108
2106.000000	24.786825
2105.000000	24.777573
2104.000000	24.768945
2103.000000	24.766034
2102.000000	24.778509
2101.000000	24.787761
2100.000000	24.776014
2099.000000	24.785578
2098.000000	24.806889
2097.000000	24.811671
2096.000000	24.807824
2095.000000	24.803978
2094.000000	24.821027
2093.000000	24.836724
2092.000000	24.861881
2091.000000	24.882672
2090.000000	24.884855
2089.000000	24.910116
2088.000000	24.929140
2087.000000	24.938600
2086.000000	24.942862
2085.000000	24.935273
2084.000000	24.926437
2083.000000	24.918432
2082.000000	24.891716
2081.000000	24.871757
2080.000000	24.838803
2079.000000	24.783915
2078.000000	24.724868
2077.000000	24.688380
2076.000000	24.628502
2075.000000	24.559892
2074.000000	24.480678
2073.000000	24.380361
2072.000000	24.291688
2071.000000	24.197297
2070.000000	24.098539
2069.000000	23.986268
2068.000000	23.886055
2067.000000	23.770665
2066.000000	23.659329
2065.000000	23.539885
2064.000000	23.423871
2063.000000	23.302348
2062.000000	23.186022
2061.000000	23.074686
2060.000000	22.972914
2059.000000	22.887151
2058.000000	22.810849
2057.000000	22.744629
2056.000000	22.681736
2055.000000	22.631838
2054.000000	22.624041
2053.000000	22.634541
2052.000000	22.644728
2051.000000	22.681632
2050.000000	22.742030
2049.000000	22.806690
2048.000000	22.901809
2047.000000	23.027491
2046.000000	23.145480
2045.000000	23.278958
2044.000000	23.409733
2043.000000	23.539781
2042.000000	23.702159
2041.000000	23.842810
2040.000000	23.985748
2039.000000	24.130246
2038.000000	24.268922
2037.000000	24.388574
2036.000000	24.524963
2035.000000	24.643367
2034.000000	24.759589
2033.000000	24.869574
2032.000000	24.970826
2031.000000	25.068024
2030.000000	25.163454
2029.000000	25.249945
2028.000000	25.337579
2027.000000	25.406813
2026.000000	25.483740
2025.000000	25.551726
2024.000000	25.610045
2023.000000	25.672314
2022.000000	25.730529
2021.000000	25.753503
2020.000000	25.805065
2019.000000	25.851845
2018.000000	25.877625
2017.000000	25.910995
2016.000000	25.916712
2015.000000	25.933657
2014.000000	25.948627
2013.000000	25.942597
2012.000000	25.957047
2011.000000	25.950186
2010.000000	25.945924
2009.000000	25.922846
2008.000000	25.910683
2007.000000	25.883447
2006.000000	25.834692
2005.000000	25.789471
2004.000000	25.757141
2003.000000	25.689467
2002.000000	25.628653
2001.000000	25.564721
2000.000000	25.511392
1999.000000	25.424693
1998.000000	25.368142
1997.000000	25.299947
1996.000000	25.200670
1995.000000	25.110229
1994.000000	25.034030
1993.000000	24.944941
1992.000000	24.848263
1991.000000	24.763539
1990.000000	24.647318
1989.000000	24.556669
1988.000000	24.471426
1987.000000	24.353333
1986.000000	24.243556
1985.000000	24.120266
1984.000000	24.025771
1983.000000	23.931276
1982.000000	23.822435
1981.000000	23.700184
1980.000000	23.587704
1979.000000	23.495184
1978.000000	23.383745
1977.000000	23.264612
1976.000000	23.175835
1975.000000	23.092878
1974.000000	22.966573
1973.000000	22.884968
1972.000000	22.781325
1971.000000	22.674979
1970.000000	22.569985
1969.000000	22.488484
1968.000000	22.392222
1967.000000	22.310409
1966.000000	22.202920
1965.000000	22.112479
1964.000000	22.034097
1963.000000	21.939290
1962.000000	21.830553
1961.000000	21.760487
1960.000000	21.613079
1959.000000	21.525133
1958.000000	21.429286
1957.000000	21.341756
1956.000000	21.266181
1955.000000	21.171478
1954.000000	21.062845
1953.000000	20.973859
1952.000000	20.871256
1951.000000	20.821150
1950.000000	20.745366
1949.000000	20.655341
1948.000000	20.577167
1947.000000	20.506062
1946.000000	20.440570
1945.000000	20.383291
1944.000000	20.312602
1943.000000	20.275386
1942.000000	20.234739
1941.000000	20.225072
1940.000000	20.201682
1939.000000	20.172262
1938.000000	20.153966
1937.000000	20.153343
1936.000000	20.144402
1935.000000	20.140868
1934.000000	20.170911
1933.000000	20.209374
1932.000000	20.262183
1931.000000	20.318527
1930.000000	20.409592
1929.000000	20.451901
1928.000000	20.539639
1927.000000	20.630912
1926.000000	20.740792
1925.000000	20.865746
1924.000000	20.987582
1923.000000	21.137589
1922.000000	21.312961
1921.000000	21.473883
1920.000000	21.671813
1919.000000	21.853007
1918.000000	22.046259
1917.000000	22.271738
1916.000000	22.542852
1915.000000	22.769059
1914.000000	23.070736
1913.000000	23.369087
1912.000000	23.693115
1911.000000	23.997599
1910.000000	24.318404
1909.000000	24.655530
1908.000000	25.044738
1907.000000	25.465756
1906.000000	25.935944
1905.000000	26.440542
1904.000000	26.943580
1903.000000	27.409818
1902.000000	27.934791
1901.000000	28.469744
1900.000000	29.060104
1899.000000	29.675414
1898.000000	30.248310
1897.000000	30.862164
1896.000000	31.434852
1895.000000	31.997561
1894.000000	32.596758
1893.000000	33.230259
1892.000000	33.882473
1891.000000	34.545810
1890.000000	35.149269
1889.000000	35.714888
1888.000000	36.301610
1887.000000	36.828974
1886.000000	37.357689
1885.000000	37.888692
1884.000000	38.420006
1883.000000	38.894768
1882.000000	39.316202
1881.000000	39.731606
1880.000000	40.137342
1879.000000	40.508046
1878.000000	40.880309
1877.000000	41.244775
1876.000000	41.580966
1875.000000	41.907696
1874.000000	42.191286
1873.000000	42.489532
1872.000000	42.747965
1871.000000	42.995274
1870.000000	43.172621
1869.000000	43.330632
1868.000000	43.510163
1867.000000	43.625657
1866.000000	43.711836
1865.000000	43.809033
1864.000000	43.915483
1863.000000	44.017775
1862.000000	44.132853
1861.000000	44.273193
1860.000000	44.401993
1859.000000	44.469460
1858.000000	44.532248
1857.000000	44.599092
1856.000000	44.655539
1855.000000	44.715417
1854.000000	44.751698
1853.000000	44.757311
1852.000000	44.764380
1851.000000	44.804922
1850.000000	44.875612
1849.000000	44.946613
1848.000000	44.953370
1847.000000	44.920936
1846.000000	44.828000
1845.000000	44.765835
1844.000000	44.780597
1843.000000	44.797022
1842.000000	44.840891
1841.000000	44.848688
1840.000000	44.798893
1839.000000	44.753985
1838.000000	44.710635
1837.000000	44.669989
1836.000000	44.629758
1835.000000	44.557821
1834.000000	44.480895
1833.000000	44.436610
1832.000000	44.410309
1831.000000	44.406255
1830.000000	44.375692
1829.000000	44.328497
1828.000000	44.288266
1827.000000	44.241278
1826.000000	44.212691
1825.000000	44.186390
1824.000000	44.162688
1823.000000	44.172668
1822.000000	44.248451
1821.000000	44.288682
1820.000000	44.243669
1819.000000	44.184103
1818.000000	44.152085
1817.000000	44.157179
1816.000000	44.159362
1815.000000	44.140026
1814.000000	44.107592
1813.000000	44.102187
1812.000000	44.090752
1811.000000	44.044284
1810.000000	43.976193
1809.000000	43.957585
1808.000000	43.942512
1807.000000	43.926295
1806.000000	43.894796
1805.000000	43.846353
1804.000000	43.814751
1803.000000	43.808202
1802.000000	43.806954
1801.000000	43.778159
1800.000000	43.750403
1799.000000	43.696866
1798.000000	43.669734
1797.000000	43.651750
1796.000000	43.631790
1795.000000	43.604970
1794.000000	43.578981
1793.000000	43.571288
1792.000000	43.546027
1791.000000	43.524093
1790.000000	43.516608
1789.000000	43.508603
1788.000000	43.502782
1787.000000	43.521182
1786.000000	43.525964
1785.000000	43.527731
1784.000000	43.505693
1783.000000	43.501638
1782.000000	43.507460
1781.000000	43.483031
1780.000000	43.454235
1779.000000	43.427207
1778.000000	43.392590
1777.000000	43.355894
1776.000000	43.319405
1775.000000	43.269507
1774.000000	43.218465
1773.000000	43.151206
1772.000000	43.110976
1771.000000	43.046316
1770.000000	43.005461
1769.000000	42.950781
1768.000000	42.890591
1767.000000	42.835703
1766.000000	42.764701
1765.000000	42.724991
1764.000000	42.701809
1763.000000	42.677379
1762.000000	42.650663
1761.000000	42.662202
1760.000000	42.664593
1759.000000	42.663969
1758.000000	42.676132
1757.000000	42.702432
1756.000000	42.698690
1755.000000	42.722184
1754.000000	42.725510
1753.000000	42.728005
1752.000000	42.728733
1751.000000	42.713556
1750.000000	42.704823
1749.000000	42.686631
1748.000000	42.654717
1747.000000	42.604299
1746.000000	42.550138
1745.000000	42.484127
1744.000000	42.392958
1743.000000	42.321645
1742.000000	42.235051
1741.000000	42.132343
1740.000000	42.040239
1739.000000	41.922978
1738.000000	41.832433
1737.000000	41.735235
1736.000000	41.633983
1735.000000	41.548428
1734.000000	41.453309
1733.000000	41.359645
1732.000000	41.280640
1731.000000	41.202050
1730.000000	41.134375
1729.000000	41.067324
1728.000000	41.002872
1727.000000	40.947152
1726.000000	40.913782
1725.000000	40.899541
1724.000000	40.875631
1723.000000	40.917733
1722.000000	40.991437
1721.000000	41.112440
1720.000000	41.306628
1719.000000	41.495619
1718.000000	41.710390
1717.000000	41.967470
1716.000000	42.211557
1715.000000	42.443792
1714.000000	42.675196
1713.000000	42.896724
1712.000000	43.081868
1711.000000	43.247572
1710.000000	43.401530
1709.000000	43.546859
1708.000000	43.675139
1707.000000	43.792193
1706.000000	43.880866
1705.000000	43.965174
1704.000000	44.039710
1703.000000	44.100627
1702.000000	44.154892
1701.000000	44.192523
1700.000000	44.231715
1699.000000	44.267267
1698.000000	44.290449
1697.000000	44.296063
1696.000000	44.284940
1695.000000	44.233794
1694.000000	44.187534
1693.000000	44.115805
1692.000000	44.030769
1691.000000	43.940121
1690.000000	43.882842
1689.000000	43.838765
1688.000000	43.844898
1687.000000	43.893861
1686.000000	44.005924
1685.000000	44.144496
1684.000000	44.332447
1683.000000	44.559589
1682.000000	44.823426
1681.000000	45.035703
1680.000000	45.273552
1679.000000	45.505475
1678.000000	45.694050
1677.000000	45.910588
1676.000000	46.090326
1675.000000	46.263827
1674.000000	46.428596
1673.000000	46.616962
1672.000000	46.779964
1671.000000	46.946916
1670.000000	47.142871
1669.000000	47.343296
1668.000000	47.518044
1667.000000	47.690922
1666.000000	47.858497
1665.000000	48.000915
1664.000000	48.175248
1663.000000	48.346150
1662.000000	48.476094
1661.000000	48.624334
1660.000000	48.752198
1659.000000	48.870395
1658.000000	49.006888
1657.000000	49.086933
1656.000000	49.156375
1655.000000	49.235277
1654.000000	49.281433
1653.000000	49.325406
1652.000000	49.368548
1651.000000	49.404828
1650.000000	49.420629
1649.000000	49.438197
1648.000000	49.436534
1647.000000	49.449840
1646.000000	49.435599
1645.000000	49.423540
1644.000000	49.417198
1643.000000	49.415015
1642.000000	49.427698
1641.000000	49.421876
1640.000000	49.398487
1639.000000	49.386740
1638.000000	49.377384
1637.000000	49.356593
1636.000000	49.348484
1635.000000	49.312204
1634.000000	49.284864
1633.000000	49.250663
1632.000000	49.223322
1631.000000	49.187146
1630.000000	49.154712
1629.000000	49.109492
1628.000000	49.060321
1627.000000	49.011878
1626.000000	48.965722
1625.000000	48.935263
1624.000000	48.889939
1623.000000	48.853243
1622.000000	48.809477
1621.000000	48.757604
1620.000000	48.713943
1619.000000	48.676103
1618.000000	48.639927
1617.000000	48.602607
1616.000000	48.569861
1615.000000	48.523809
1614.000000	48.481084
1613.000000	48.451560
1612.000000	48.392098
1611.000000	48.338145
1610.000000	48.291885
1609.000000	48.234918
1608.000000	48.166724
1607.000000	48.105910
1606.000000	48.035740
1605.000000	47.959437
1604.000000	47.890203
1603.000000	47.812029
1602.000000	47.725123
1601.000000	47.648404
1600.000000	47.570126
1599.000000	47.486234
1598.000000	47.414401
1597.000000	47.349533
1596.000000	47.289239
1595.000000	47.226243
1594.000000	47.170523
1593.000000	47.117714
1592.000000	47.058875
1591.000000	47.002635
1590.000000	46.959078
1589.000000	46.903462
1588.000000	46.852940
1587.000000	46.814373
1586.000000	46.772583
1585.000000	46.713848
1584.000000	46.671747
1583.000000	46.626214
1582.000000	46.573197
1581.000000	46.529640
1580.000000	46.499389
1579.000000	46.459990
1578.000000	46.441486
1577.000000	46.425477
1576.000000	46.411027
1575.000000	46.405518
1574.000000	46.392523
1573.000000	46.385247
1572.000000	46.374435
1571.000000	46.376202
1570.000000	46.396786
1569.000000	46.415705
1568.000000	46.437952
1567.000000	46.451674
1566.000000	46.471425
1565.000000	46.496894
1564.000000	46.513839
1563.000000	46.527457
1562.000000	46.526210
1561.000000	46.516022
1560.000000	46.502092
1559.000000	46.490865
1558.000000	46.465604
1557.000000	46.421007
1556.000000	46.383167
1555.000000	46.342833
1554.000000	46.267985
1553.000000	46.193865
1552.000000	46.127854
1551.000000	46.043962
1550.000000	45.961838
1549.000000	45.882624
1548.000000	45.792911
1547.000000	45.693010
1546.000000	45.615252
1545.000000	45.548201
1544.000000	45.488531
1543.000000	45.425846
1542.000000	45.370542
1541.000000	45.322411
1540.000000	45.276566
1539.000000	45.234257
1538.000000	45.186645
1537.000000	45.140177
1536.000000	45.101298
1535.000000	45.057637
1534.000000	45.004724
1533.000000	44.935698
1532.000000	44.867711
1531.000000	44.815318
1530.000000	44.748787
1529.000000	44.688909
1528.000000	44.615412
1527.000000	44.561252
1526.000000	44.492746
1525.000000	44.421744
1524.000000	44.352510
1523.000000	44.283692
1522.000000	44.212067
1521.000000	44.127967
1520.000000	44.062788
1519.000000	43.983990
1518.000000	43.906127
1517.000000	43.837621
1516.000000	43.758199
1515.000000	43.675347
1514.000000	43.603099
1513.000000	43.524613
1512.000000	43.449765
1511.000000	43.353710
1510.000000	43.268052
1509.000000	43.182185
1508.000000	43.109416
1507.000000	43.030618
1506.000000	42.947038
1505.000000	42.880611
1504.000000	42.817822
1503.000000	42.744742
1502.000000	42.674364
1501.000000	42.607729
1500.000000	42.571345
1499.000000	42.527788
1498.000000	42.478825
1497.000000	42.440154
1496.000000	42.424249
1495.000000	42.407512
1494.000000	42.395973
1493.000000	42.381211
1492.000000	42.390463
1491.000000	42.411670
1490.000000	42.410007
1489.000000	42.413749
1488.000000	42.426016
1487.000000	42.433709
1486.000000	42.456475
1485.000000	42.475810
1484.000000	42.489117
1483.000000	42.504502
1482.000000	42.522382
1481.000000	42.560118
1480.000000	42.563133
1479.000000	42.616254
1478.000000	42.636421
1477.000000	42.669167
1476.000000	42.719273
1475.000000	42.741935
1474.000000	42.819070
1473.000000	42.900779
1472.000000	42.964607
1471.000000	43.064612
1470.000000	43.123970
1469.000000	43.188942
1468.000000	43.250795
1467.000000	43.358908
1466.000000	43.446646
1465.000000	43.501638
1464.000000	43.617756
1463.000000	43.720568
1462.000000	43.807890
1461.000000	43.897083
1460.000000	44.013409
1459.000000	44.110399
1458.000000	44.199281
1457.000000	44.312384
1456.000000	44.423823
1455.000000	44.539837
1454.000000	44.611462
1453.000000	44.727164
1452.000000	44.868751
1451.000000	44.984973
1450.000000	45.083418
1449.000000	45.136435
1448.000000	45.215545
1447.000000	45.358067
1446.000000	45.502876
1445.000000	45.612445
1444.000000	45.681471
1443.000000	45.778669
1442.000000	45.922335
1441.000000	46.040740
1440.000000	46.161951
1439.000000	46.296053
1438.000000	46.433794
1437.000000	46.561138
1436.000000	46.690874
1435.000000	46.837659
1434.000000	47.034030
1433.000000	47.179151
1432.000000	47.378953
1431.000000	47.532702
1430.000000	47.704020
1429.000000	47.912554
1428.000000	48.150403
1427.000000	48.344903
1426.000000	48.576098
1425.000000	48.867796
1424.000000	49.121239
1423.000000	49.383517
1422.000000	49.616272
1421.000000	49.921900
1420.000000	50.294371
1419.000000	50.648754
1418.000000	50.954797
1417.000000	51.203146
1416.000000	51.597447
1415.000000	52.015970
1414.000000	52.461105
1413.000000	52.826611
1412.000000	53.210101
1411.000000	53.649519
1410.000000	54.117420
1409.000000	54.660170
1408.000000	55.125264
1407.000000	55.584538
1406.000000	56.052855
1405.000000	56.584585
1404.000000	56.996766
1403.000000	57.463420
1402.000000	57.964795
1401.000000	58.526880
1400.000000	59.080753
1399.000000	59.424844
1398.000000	59.703235
1397.000000	60.173528
1396.000000	60.711911
1395.000000	61.134904
1394.000000	61.437101
1393.000000	61.746159
1392.000000	62.153351
1391.000000	62.517609
1390.000000	62.848394
1389.000000	63.246334
1388.000000	63.726190
1387.000000	64.049074
1386.000000	64.373206
1385.000000	64.711164
1384.000000	65.110559
1383.000000	65.383753
1382.000000	65.697177
1381.000000	65.885440
1380.000000	65.992513
1379.000000	66.194914
1378.000000	66.347000
1377.000000	66.486716
1376.000000	66.639945
1375.000000	66.795462
1374.000000	66.916466
1373.000000	67.112005
1372.000000	67.294238
1371.000000	67.482397
1370.000000	67.613068
1369.000000	67.766506
1368.000000	67.976703
1367.000000	68.091989
1366.000000	68.232120
1365.000000	68.403750
1364.000000	68.509368
1363.000000	68.594196
1362.000000	68.748257
1361.000000	68.872795
1360.000000	68.914169
1359.000000	68.950034
1358.000000	69.029663
1357.000000	69.139232
1356.000000	69.278427
1355.000000	69.469185
1354.000000	69.613578
1353.000000	69.746953
1352.000000	69.932616
1351.000000	70.138343
1350.000000	70.350204
1349.000000	70.577137
1348.000000	70.841183
1347.000000	71.080903
1346.000000	71.266255
1345.000000	71.469071
1344.000000	71.714717
1343.000000	71.908801
1342.000000	72.105900
1341.000000	72.294890
1340.000000	72.466936
1339.000000	72.636694
1338.000000	72.795330
1337.000000	72.952717
1336.000000	73.110625
1335.000000	73.256578
1334.000000	73.397333
1333.000000	73.530499
1332.000000	73.664082
1331.000000	73.778744
1330.000000	73.895070
1329.000000	74.007029
1328.000000	74.110153
1327.000000	74.200489
1326.000000	74.286980
1325.000000	74.372223
1324.000000	74.457570
1323.000000	74.539903
1322.000000	74.613919
1321.000000	74.678579
1320.000000	74.752698
1319.000000	74.836382
1318.000000	74.893142
1317.000000	74.956762
1316.000000	75.025476
1315.000000	75.064875
1314.000000	75.125793
1313.000000	75.186711
1312.000000	75.237649
1311.000000	75.290458
1310.000000	75.340148
1309.000000	75.387656
1308.000000	75.427055
1307.000000	75.465102
1306.000000	75.507516
1305.000000	75.538806
1304.000000	75.553776
1303.000000	75.577789
1302.000000	75.611159
1301.000000	75.632990
1300.000000	75.640994
1299.000000	75.644425
1298.000000	75.657419
1297.000000	75.659082
1296.000000	75.657627
1295.000000	75.663656
1294.000000	75.653573
1293.000000	75.639643
1292.000000	75.624569
1291.000000	75.611263
1290.000000	75.597021
1289.000000	75.575606
1288.000000	75.540781
1287.000000	75.515936
1286.000000	75.490467
1285.000000	75.448054
1284.000000	75.413540
1283.000000	75.382666
1282.000000	75.350960
1281.000000	75.313016
1280.000000	75.297111
1279.000000	75.279439
1278.000000	75.255217
1277.000000	75.237960
1276.000000	75.224966
1275.000000	75.214363
1274.000000	75.216338
1273.000000	75.203655
1272.000000	75.199705
1271.000000	75.218729
1270.000000	75.230476
1269.000000	75.218313
1268.000000	75.209997
1267.000000	75.216026
1266.000000	75.217481
1265.000000	75.222783
1264.000000	75.220392
1263.000000	75.202616
1262.000000	75.204175
1261.000000	75.211452
1260.000000	75.197314
1259.000000	75.174340
1258.000000	75.167583
1257.000000	75.165192
1256.000000	75.160722
1255.000000	75.122259
1254.000000	75.095854
1253.000000	75.071632
1252.000000	75.049906
1251.000000	75.010403
1250.000000	74.942728
1249.000000	74.905408
1248.000000	74.853639
1247.000000	74.789499
1246.000000	74.726710
1245.000000	74.662673
1244.000000	74.606954
1243.000000	74.510795
1242.000000	74.432725
1241.000000	74.377941
1240.000000	74.319518
1239.000000	74.245606
1238.000000	74.182505
1237.000000	74.115246
1236.000000	74.057551
1235.000000	74.013162
1234.000000	73.951413
1233.000000	73.896837
1232.000000	73.855151
1231.000000	73.783318
1230.000000	73.709614
1229.000000	73.649944
1228.000000	73.594744
1227.000000	73.518856
1226.000000	73.456172
1225.000000	73.385170
1224.000000	73.303254
1223.000000	73.218322
1222.000000	73.146282
1221.000000	73.068835
1220.000000	72.986919
1219.000000	72.905938
1218.000000	72.831090
1217.000000	72.763519
1216.000000	72.693558
1215.000000	72.621621
1214.000000	72.559871
1213.000000	72.485024
1212.000000	72.410696
1211.000000	72.379613
1210.000000	72.294578
1209.000000	72.210790
1208.000000	72.157773
1207.000000	72.105900
1206.000000	72.036458
1205.000000	71.986871
1204.000000	71.924498
1203.000000	71.848923
1202.000000	71.778649
1201.000000	71.726984
1200.000000	71.655879
1199.000000	71.592258
1198.000000	71.513564
1197.000000	71.431856
1196.000000	71.357632
1195.000000	71.257835
1194.000000	71.188913
1193.000000	71.103774
1192.000000	71.019986
1191.000000	70.929441
1190.000000	70.878919
1189.000000	70.813947
1188.000000	70.758539
1187.000000	70.746064
1186.000000	70.748351
1185.000000	70.758019
1184.000000	70.794611
1183.000000	70.828189
1182.000000	70.910937
1181.000000	70.970087
1180.000000	71.024144
1179.000000	71.110946
1178.000000	71.198477
1177.000000	71.272596
1176.000000	71.359295
1175.000000	71.422292
1174.000000	71.501713
1173.000000	71.584669
1172.000000	71.654215
1171.000000	71.762225
1170.000000	71.879694
1169.000000	72.004648
1168.000000	72.128042
1167.000000	72.271812
1166.000000	72.421299
1165.000000	72.587419
1164.000000	72.737219
1163.000000	72.928912
1162.000000	73.096383
1161.000000	73.272899
1160.000000	73.473844
1159.000000	73.624891
1158.000000	73.781447
1157.000000	73.932805
1156.000000	74.081981
1155.000000	74.204440
1154.000000	74.364842
1153.000000	74.462352
1152.000000	74.565579
1151.000000	74.653006
1150.000000	74.721304
1149.000000	74.814760
1148.000000	74.896988
1147.000000	74.993770
1146.000000	75.065499
1145.000000	75.155836
1144.000000	75.233075
1143.000000	75.292641
1142.000000	75.364890
1141.000000	75.460736
1140.000000	75.563340
1139.000000	75.664072
1138.000000	75.793184
1137.000000	75.908782
1136.000000	76.077293
1135.000000	76.197569
1134.000000	76.302148
1133.000000	76.365768
1132.000000	76.412340
1131.000000	76.533032
1130.000000	76.621498
1129.000000	76.708404
1128.000000	76.768490
1127.000000	76.806122
1126.000000	76.850095
1125.000000	76.886063
1124.000000	76.918289
1123.000000	76.937937
1122.000000	76.965173
1121.000000	76.960391
1120.000000	76.958520
1119.000000	76.933571
1118.000000	76.940432
1117.000000	76.936273
1116.000000	76.910389
1115.000000	76.875148
1114.000000	76.852174
1113.000000	76.820260
1112.000000	76.822235
1111.000000	76.802587
1110.000000	76.801236
1109.000000	76.769114
1108.000000	76.743021
1107.000000	76.731170
1106.000000	76.684910
1105.000000	76.665887
1104.000000	76.641249
1103.000000	76.624201
1102.000000	76.595093
1101.000000	76.564322
1100.000000	76.531057
1099.000000	76.504236
1098.000000	76.492074
1097.000000	76.448517
1096.000000	76.414627
1095.000000	76.381050
1094.000000	76.346953
1093.000000	76.316702
1092.000000	76.270130
1091.000000	76.234265
1090.000000	76.194243
1089.000000	76.153284
1088.000000	76.090599
1087.000000	76.041429
1086.000000	76.004733
1085.000000	75.960968
1084.000000	75.908886
1083.000000	75.863354
1082.000000	75.802748
1081.000000	75.724990
1080.000000	75.682472
1079.000000	75.623841
1078.000000	75.568849
1077.000000	75.507724
1076.000000	75.444311
1075.000000	75.387032
1074.000000	75.324867
1073.000000	75.256568
1072.000000	75.188582
1071.000000	75.145440
1070.000000	75.076206
1069.000000	75.009883
1068.000000	74.944184
1067.000000	74.880355
1066.000000	74.821621
1065.000000	74.740016
1064.000000	74.669638
1063.000000	74.620364
1062.000000	74.570361
1061.000000	74.509444
1060.000000	74.445823
1059.000000	74.382099
1058.000000	74.315048
1057.000000	74.256313
1056.000000	74.203504
1055.000000	74.145601
1054.000000	74.070858
1053.000000	74.017113
1052.000000	73.983327
1051.000000	73.931766
1050.000000	73.880308
1049.000000	73.824484
1048.000000	73.770843
1047.000000	73.738513
1046.000000	73.701297
1045.000000	73.650048
1044.000000	73.606179
1043.000000	73.566884
1042.000000	73.524470
1041.000000	73.481744
1040.000000	73.442553
1039.000000	73.409080
1038.000000	73.363652
1037.000000	73.320718
1036.000000	73.281423
1035.000000	73.237866
1034.000000	73.192957
1033.000000	73.156885
1032.000000	73.121748
1031.000000	73.083493
1030.000000	73.033906
1029.000000	72.993884
1028.000000	72.973820
1027.000000	72.943569
1026.000000	72.905834
1025.000000	72.876414
1024.000000	72.848035
1023.000000	72.823293
1022.000000	72.796993
1021.000000	72.760297
1020.000000	72.728694
1019.000000	72.702082
1018.000000	72.673078
1017.000000	72.662163
1016.000000	72.642931
1015.000000	72.609458
1014.000000	72.598751
1013.000000	72.590538
1012.000000	72.572866
1011.000000	72.557792
1010.000000	72.541679
1009.000000	72.524007
1008.000000	72.515898
1007.000000	72.502488
1006.000000	72.496771
1005.000000	72.492405
1004.000000	72.478786
1003.000000	72.485855
1002.000000	72.498434
1001.000000	72.479202
1000.000000	72.461010
999.000000	72.447600
998.000000	72.459451
997.000000	72.464337
996.000000	72.473485
995.000000	72.453733
994.000000	72.462258
993.000000	72.469638
992.000000	72.485959
991.000000	72.495315
990.000000	72.508310
989.000000	72.519121
988.000000	72.521512
987.000000	72.534818
986.000000	72.562990
985.000000	72.586692
984.000000	72.608418
983.000000	72.648025
982.000000	72.683786
981.000000	72.726511
980.000000	72.763623
979.000000	72.821214
978.000000	72.853648
977.000000	72.892735
976.000000	72.943154
975.000000	72.997314
974.000000	73.047316
973.000000	73.100645
972.000000	73.152519
971.000000	73.215724
970.000000	73.273419
969.000000	73.331426
968.000000	73.397853
967.000000	73.452429
966.000000	73.538504
965.000000	73.593288
964.000000	73.659196
963.000000	73.760552
962.000000	73.836439
961.000000	73.876358
960.000000	73.936860
959.000000	74.007965
958.000000	74.093208
957.000000	74.156932
956.000000	74.258288
955.000000	74.291242
954.000000	74.356526
953.000000	74.424409
952.000000	74.494058
951.000000	74.584811
950.000000	74.628264
949.000000	74.686167
948.000000	74.731180
947.000000	74.827130
946.000000	74.847298
945.000000	74.911750
944.000000	75.001255
943.000000	75.041174
942.000000	75.085978
941.000000	75.154692
940.000000	75.187126
939.000000	75.224238
938.000000	75.274345
937.000000	75.372686
936.000000	75.395868
935.000000	75.454603
934.000000	75.474978
933.000000	75.534856
932.000000	75.619475
931.000000	75.646504
930.000000	75.735593
929.000000	75.767923
928.000000	75.826554
927.000000	75.895996
926.000000	75.981031
925.000000	76.001302
924.000000	76.049433
923.000000	76.122929
922.000000	76.170229
921.000000	76.216593
920.000000	76.339468
919.000000	76.380218
918.000000	76.426582
917.000000	76.495608
916.000000	76.559644
915.000000	76.602682
914.000000	76.651437
913.000000	76.709548
912.000000	76.746660
911.000000	76.796870
910.000000	76.853421
909.000000	76.963406
908.000000	76.951243
907.000000	76.983469
906.000000	77.005092
905.000000	77.039709
904.000000	77.081603
903.000000	77.102602
902.000000	77.135867
901.000000	77.152916
900.000000	77.184518
899.000000	77.219343
898.000000	77.229946
897.000000	77.277662
896.000000	77.284835
895.000000	77.305314
894.000000	77.333590
893.000000	77.332238
892.000000	77.355732
891.000000	77.331822
890.000000	77.313734
889.000000	77.348663
888.000000	77.341386
887.000000	77.359266
886.000000	77.366127
885.000000	77.373196
884.000000	77.382864
883.000000	77.396378
882.000000	77.430476
881.000000	77.438896
880.000000	77.434842
879.000000	77.444094
878.000000	77.473409
877.000000	77.485364
876.000000	77.513952
875.000000	77.540356
874.000000	77.560004
873.000000	77.570191
872.000000	77.566345
871.000000	77.566865
870.000000	77.579443
869.000000	77.585577
868.000000	77.592230
867.000000	77.573622
866.000000	77.555845
865.000000	77.516031
864.000000	77.504284
863.000000	77.408021
862.000000	77.355420
861.000000	77.176617
860.000000	77.016527
859.000000	76.783148
858.000000	77.189300
857.000000	77.272300
856.000000	77.180400
855.000000	77.115200
854.000000	77.412800
853.000000	77.298800
852.000000	77.262500
851.000000	77.173700
850.000000	77.547900
849.000000	77.407200
848.000000	77.510200
847.000000	77.966800
846.000000	77.681500
845.000000	77.776100
844.000000	77.766800
843.000000	77.915000
842.000000	77.825300
841.000000	77.911400
840.000000	77.942800
839.000000	78.152100
838.000000	78.126500
837.000000	78.452400
836.000000	78.355300
835.000000	78.380000
834.000000	78.371400
833.000000	78.555700
832.000000	78.613300
831.000000	78.879800
830.000000	78.901400
829.000000	79.146200
828.000000	79.315900
827.000000	79.522900
826.000000	79.853600
825.000000	79.952100
824.000000	79.982100
823.000000	80.437900
822.000000	80.736500
821.000000	80.707600
820.000000	81.198900
819.000000	81.558100
818.000000	81.793700
817.000000	82.114300
816.000000	82.249800
815.000000	82.674900
814.000000	82.850300
813.000000	82.990700
812.000000	83.368500
811.000000	83.557900
810.000000	83.741500
809.000000	83.997400
808.000000	84.121700
807.000000	84.201200
806.000000	84.442300
805.000000	84.633300
804.000000	84.819900
803.000000	84.988400
802.000000	85.072800
801.000000	85.242300
800.000000	85.533200
799.000000	85.653400
798.000000	85.870200
797.000000	86.104200
796.000000	86.262300
795.000000	86.473300
794.000000	86.748300
793.000000	86.961100
792.000000	87.139400
791.000000	87.444600
790.000000	87.843300
789.000000	88.109600
788.000000	88.315500
787.000000	88.485300
786.000000	88.819500
785.000000	88.989500
784.000000	89.114700
783.000000	89.406400
782.000000	89.659400
781.000000	89.776000
780.000000	89.943300
779.000000	90.105800
778.000000	90.190100
777.000000	90.340700
776.000000	90.509500
775.000000	90.600900
774.000000	90.638300
773.000000	90.661000
772.000000	90.819800
771.000000	90.955800
770.000000	91.061100
769.000000	91.106300
768.000000	91.247600
767.000000	91.450000
766.000000	91.545800
765.000000	91.641400
764.000000	91.843800
763.000000	92.051700
762.000000	92.177600
761.000000	92.306900
760.000000	92.427600
759.000000	92.574900
758.000000	92.737700
757.000000	92.871900
756.000000	93.083000
755.000000	93.216900
754.000000	93.238700
753.000000	93.339200
752.000000	93.524900
751.000000	93.650700
750.000000	93.734500
749.000000	93.852000
748.000000	93.928800
747.000000	93.921500
746.000000	93.979700
745.000000	94.034700
744.000000	93.971600
743.000000	93.957200
742.000000	94.007500
741.000000	93.960200
740.000000	93.856500
739.000000	93.783300
738.000000	93.662100
737.000000	93.495900
736.000000	93.401300
735.000000	93.245600
734.000000	93.043400
733.000000	92.870700
732.000000	92.747400
731.000000	92.583400
730.000000	92.398900
729.000000	92.309700
728.000000	92.159900
727.000000	92.027700
726.000000	91.878500
725.000000	91.708800
724.000000	91.601100
723.000000	91.503500
722.000000	91.350200
721.000000	91.284200
720.000000	91.228800
719.000000	91.114800
718.000000	90.928900
717.000000	90.793900
716.000000	90.653600
715.000000	90.404400
714.000000	90.217100
713.000000	90.119400
712.000000	89.891300
711.000000	89.662800
710.000000	89.484700
709.000000	89.317000
708.000000	89.112200
707.000000	88.895500
706.000000	88.714700
705.000000	88.449800
704.000000	88.227000
703.000000	88.040900
702.000000	87.826700
701.000000	87.631400
700.000000	87.413400
699.000000	87.196500
698.000000	87.010600
697.000000	86.837600
696.000000	86.612500
695.000000	86.463300
694.000000	86.230200
693.000000	86.092500
692.000000	85.894100
691.000000	85.652400
690.000000	85.462000
689.000000	85.289200
688.000000	85.061900
687.000000	84.838100
686.000000	84.654700
685.000000	84.465300
684.000000	84.220700
683.000000	84.058900
682.000000	83.788900
681.000000	83.557700
680.000000	83.276600
679.000000	83.003800
678.000000	82.723000
677.000000	82.382500
676.000000	82.036400
675.000000	81.668500
674.000000	81.247100
673.000000	80.788000
672.000000	80.302400
671.000000	79.850000
670.000000	79.325900
669.000000	78.860900
668.000000	78.283900
667.000000	77.690200
666.000000	77.148600
665.000000	76.542600
664.000000	75.828200
663.000000	75.200800
662.000000	74.455600
661.000000	73.749800
660.000000	73.019300
659.000000	72.194200
658.000000	71.411300
657.000000	70.627500
656.000000	69.797100
655.000000	69.037900
654.000000	68.264400
653.000000	67.483200
652.000000	66.735200
651.000000	66.028700
650.000000	65.383500
649.000000	64.825300
648.000000	64.331900
647.000000	63.839200
646.000000	63.457600
645.000000	63.150500
644.000000	62.843900
643.000000	62.612100
642.000000	62.485200
641.000000	62.423800
640.000000	62.358400
639.000000	62.360800
638.000000	62.340000
637.000000	62.475700
636.000000	62.597100
635.000000	62.745200
634.000000	62.939400
633.000000	63.200300
632.000000	63.488800
631.000000	63.765900
630.000000	64.171300
629.000000	64.587500
628.000000	65.067700
627.000000	65.595400
626.000000	66.106100
625.000000	66.651400
624.000000	67.243700
623.000000	67.914200
622.000000	68.532100
621.000000	69.216500
620.000000	69.867800
619.000000	70.560100
618.000000	71.258100
617.000000	71.952300
616.000000	72.658300
615.000000	73.401400
614.000000	74.126900
613.000000	74.802600
612.000000	75.568400
611.000000	76.231900
610.000000	76.991600
609.000000	77.632900
608.000000	78.336900
607.000000	79.019400
606.000000	79.679900
605.000000	80.286600
604.000000	80.954300
603.000000	81.580000
602.000000	82.101500
601.000000	82.646900
600.000000	83.173000
599.000000	83.616700
598.000000	84.016000
597.000000	84.448800
596.000000	84.808500
595.000000	85.136100
594.000000	85.385000
593.000000	85.711400
592.000000	85.907700
591.000000	86.086000
590.000000	86.253500
589.000000	86.505600
588.000000	86.632300
587.000000	86.778700
586.000000	86.904000
585.000000	87.010600
584.000000	87.123900
583.000000	87.241200
582.000000	87.301300
581.000000	87.348600
580.000000	87.434100
579.000000	87.497200
578.000000	87.571900
577.000000	87.573200
576.000000	87.554600
575.000000	87.558300
574.000000	87.511400
573.000000	87.431700
572.000000	87.405200
571.000000	87.271500
570.000000	87.104600
569.000000	86.966200
568.000000	86.828800
567.000000	86.637900
566.000000	86.416400
565.000000	86.231000
564.000000	86.030100
563.000000	85.777400
562.000000	85.545200
561.000000	85.311000
560.000000	85.026400
559.000000	84.757400
558.000000	84.517500
557.000000	84.226100
556.000000	83.944400
555.000000	83.639900
554.000000	83.305600
553.000000	82.952000
552.000000	82.564800
551.000000	82.175900
550.000000	81.760800
549.000000	81.337200
548.000000	80.876800
547.000000	80.378400
546.000000	79.893100
545.000000	79.359700
544.000000	78.809600
543.000000	78.218400
542.000000	77.590900
541.000000	76.977500
540.000000	76.295300
539.000000	75.634700
538.000000	74.975600
537.000000	74.272900
536.000000	73.558500
535.000000	72.858700
534.000000	72.092600
533.000000	71.314400
532.000000	70.486200
531.000000	69.630700
530.000000	68.764900
529.000000	67.857100
528.000000	66.898200
527.000000	65.940100
526.000000	64.919800
525.000000	63.877600
524.000000	62.801600
523.000000	61.721200
522.000000	60.623700
521.000000	59.516600
520.000000	58.448300
519.000000	57.399900
518.000000	56.342000
517.000000	55.344100
516.000000	54.356900
515.000000	53.377600
514.000000	52.422300
513.000000	51.462900
512.000000	50.518800
511.000000	49.590600
510.000000	48.667900
509.000000	47.767000
508.000000	46.914800
507.000000	46.048400
506.000000	45.187000
505.000000	44.367300
504.000000	43.579300
503.000000	42.777400
502.000000	42.024700
501.000000	41.292500
500.000000	40.579800
499.000000	39.906900
498.000000	39.272500
497.000000	38.635700
496.000000	38.030900
495.000000	37.451100
494.000000	36.878800
493.000000	36.318200
492.000000	35.756300
491.000000	35.216800
490.000000	34.681700
489.000000	34.148700
488.000000	33.666500
487.000000	33.174900
486.000000	32.719800
485.000000	32.280500
484.000000	31.866900
483.000000	31.484500
482.000000	31.117900
481.000000	30.795200
480.000000	30.497700
479.000000	30.201000
478.000000	29.903300
477.000000	29.627600
476.000000	29.389400
475.000000	29.159300
474.000000	28.934100
473.000000	28.728000
472.000000	28.528400
471.000000	28.349900
470.000000	28.198200
469.000000	28.049500
468.000000	27.934300
467.000000	27.826100
466.000000	27.744800
465.000000	27.683800
464.000000	27.624400
463.000000	27.588800
462.000000	27.551600
461.000000	27.535600
460.000000	27.533000
459.000000	27.512700
458.000000	27.500600
457.000000	27.508900
456.000000	27.507400
455.000000	27.494200
454.000000	27.477000
453.000000	27.452100
452.000000	27.416800
451.000000	27.385900
450.000000	27.331000
449.000000	27.232400
448.000000	27.146900
447.000000	27.076700
446.000000	26.973100
445.000000	26.845800
444.000000	26.695400
443.000000	26.533400
442.000000	26.361500
441.000000	26.161000
440.000000	25.956100
439.000000	25.718500
438.000000	25.478900
437.000000	25.233000
436.000000	24.966200
435.000000	24.713900
434.000000	24.446900
433.000000	24.158500
432.000000	23.880300
431.000000	23.565200
430.000000	23.232400
429.000000	22.905100
428.000000	22.570600
427.000000	22.232300
426.000000	21.858100
425.000000	21.493500
424.000000	21.122700
423.000000	20.747000
422.000000	20.360700
421.000000	19.937000
420.000000	19.516700
419.000000	19.115100
418.000000	18.699700
417.000000	18.260700
416.000000	17.845300
415.000000	17.419100
414.000000	16.998400
413.000000	16.567000
412.000000	16.135100
411.000000	15.704100
410.000000	15.279400
409.000000	14.848600
408.000000	14.442400
407.000000	14.037200
406.000000	13.643100
405.000000	13.278800
404.000000	12.898800
403.000000	12.536700
402.000000	12.186700
401.000000	11.823900
400.000000	11.487300
399.000000	11.184300
398.000000	10.891400
397.000000	10.593600
396.000000	10.310800
395.000000	10.049600
394.000000	9.796600
393.000000	9.543600
392.000000	9.313800
391.000000	9.089500
390.000000	8.892900
389.000000	8.713500
388.000000	8.537500
387.000000	8.384600
386.000000	8.218000
385.000000	8.086200
384.000000	7.960300
383.000000	7.842500
382.000000	7.749500
381.000000	7.648100
380.000000	7.531000
379.000000	7.436600
378.000000	7.356100
377.000000	7.282400
376.000000	7.275000
375.000000	6.985600
374.000000	6.891800
373.000000	6.851000
372.000000	6.886000
371.000000	6.801600
370.000000	6.757600
369.000000	6.866300
368.000000	6.743900
367.000000	6.659200
366.000000	6.533600
365.000000	6.595600
364.000000	6.607600
363.000000	6.548100
362.000000	6.603300
361.000000	6.550800
360.000000	6.508200
359.000000	6.426200
358.000000	6.452300
357.000000	6.457700
356.000000	6.355100
355.000000	6.317600
354.000000	6.235500
353.000000	6.215600
352.000000	6.169800
351.000000	6.192700
350.000000	6.060900
349.000000	6.051900
348.000000	6.073600
347.000000	6.071700
346.000000	6.022400
345.000000	6.133000
344.000000	6.099000
343.000000	6.095100
342.000000	6.107900
341.000000	6.121200
340.000000	6.106800
339.000000	6.109000
338.000000	6.114500
337.000000	6.104700
336.000000	6.103800
335.000000	6.324300
334.000000	6.297100
333.000000	6.133300
332.000000	5.941000
331.000000	5.987700
330.000000	6.038500
329.000000	5.998900
328.000000	6.011300
327.000000	6.181700
326.000000	6.105700
325.000000	6.012400
324.000000	6.158200
323.000000	6.242000
322.000000	6.019000
321.000000	6.578200
320.000000	6.287000
319.000000	6.284600
318.000000	6.252500
317.000000	6.153300
316.000000	5.901300
315.000000	5.881900
314.000000	5.917500
313.000000	5.968300
312.000000	5.925800
311.000000	5.928900
310.000000	5.937700
309.000000	5.948100
308.000000	5.964700
307.000000	5.962500
306.000000	5.965100
305.000000	5.927700
304.000000	5.931000
303.000000	5.948000
302.000000	5.972700
301.000000	5.973300
300.000000	5.957100
299.000000	5.955000
298.000000	5.977500
297.000000	5.981200
296.000000	5.946200
295.000000	6.014100
294.000000	6.011400
293.000000	5.978000
292.000000	5.976400
291.000000	6.033800
290.000000	5.964100
289.000000	5.978800
288.000000	5.968800
287.000000	5.985000
286.000000	5.967800
285.000000	5.949000
284.000000	6.019700
283.000000	5.992500
282.000000	6.045900
281.000000	6.035100
280.000000	6.057500
279.000000	6.064800
278.000000	6.020800
277.000000	6.102700
276.000000	6.145000
275.000000	6.102200
274.000000	6.170200
273.000000	6.179300
272.000000	6.150100
271.000000	6.205800
270.000000	6.219800
269.000000	6.183700
268.000000	6.284200
267.000000	6.285800
266.000000	6.325700
265.000000	6.313200
264.000000	6.403000
263.000000	6.459600
262.000000	6.424400
261.000000	6.508800
260.000000	6.527300
259.000000	6.512600
258.000000	6.530100
257.000000	6.547800
256.000000	6.574500
255.000000	6.608100
254.000000	6.636200
253.000000	6.621700
252.000000	6.646300
251.000000	6.707000
250.000000	6.741500
