PE UV       SUBTECH     SPECTRUM    ASCII       PEDS        4.00        
   -1
CICIMAUCR0019-6.Sample.ASC
24/04/25
16:41:35.00
24/04/25
16:41:35.00
Vinicio Soto Monge
C. cupreomarginata
250,000000
1
Lambda 1050
1050L1511233
PerkinElmer UV WinLab 6.3.2.0749 / 2.02.05 Lambda 900 UV/VIS/NIR, Aug  7 2015 09:38:08

0
0
3350/servo 860,8/2
0
0
UV/VIS
1
1
1
DoubleDePol,CommonBeamDepol,RBeamAtt,SBeamAtt,60mm sphere, WB InGaAs Detector
0
0
0
0
Program
Program
3350/servo 860,8/2
3350/0,2 860,8/0,2
3350/0,2 860,8/0,2
0
15.00
 
 
 
0
 
860,8
319,2
860,8
Front
100
on
S:100 R:100
0
0
0
0
 
0
 
 
 
0
 
 
0
0
0
0
0
 
 
 
 
0
0


0
0
#HDR
-1
-1
#GR
nm
%R
1.0
0.0
2500,000000
-1,000000
2251
8
72,684700
5,566800
#DATA
2500.000000	9.795600
2499.000000	9.728300
2498.000000	9.673800
2497.000000	9.773000
2496.000000	9.621900
2495.000000	9.744100
2494.000000	9.705900
2493.000000	9.679000
2492.000000	9.562300
2491.000000	9.559100
2490.000000	9.632200
2489.000000	9.563200
2488.000000	9.548000
2487.000000	9.516600
2486.000000	9.523800
2485.000000	9.487200
2484.000000	9.491400
2483.000000	9.519600
2482.000000	9.500000
2481.000000	9.479900
2480.000000	9.525100
2479.000000	9.520400
2478.000000	9.497600
2477.000000	9.530600
2476.000000	9.511800
2475.000000	9.491300
2474.000000	9.525900
2473.000000	9.529500
2472.000000	9.544200
2471.000000	9.556300
2470.000000	9.555500
2469.000000	9.630000
2468.000000	9.618500
2467.000000	9.564800
2466.000000	9.623400
2465.000000	9.590600
2464.000000	9.648400
2463.000000	9.703400
2462.000000	9.719900
2461.000000	9.793600
2460.000000	9.837500
2459.000000	9.859600
2458.000000	9.911300
2457.000000	10.004900
2456.000000	10.056900
2455.000000	10.150300
2454.000000	10.203000
2453.000000	10.287900
2452.000000	10.392300
2451.000000	10.470300
2450.000000	10.543100
2449.000000	10.636700
2448.000000	10.742400
2447.000000	10.843100
2446.000000	10.901500
2445.000000	10.970000
2444.000000	11.054000
2443.000000	11.135000
2442.000000	11.215100
2441.000000	11.283800
2440.000000	11.390900
2439.000000	11.459700
2438.000000	11.539000
2437.000000	11.600400
2436.000000	11.688300
2435.000000	11.766400
2434.000000	11.827300
2433.000000	11.879300
2432.000000	11.946900
2431.000000	12.002200
2430.000000	12.064500
2429.000000	12.125800
2428.000000	12.170300
2427.000000	12.213100
2426.000000	12.275300
2425.000000	12.299800
2424.000000	12.329900
2423.000000	12.388400
2422.000000	12.421700
2421.000000	12.457300
2420.000000	12.477800
2419.000000	12.506800
2418.000000	12.558200
2417.000000	12.588100
2416.000000	12.628100
2415.000000	12.672800
2414.000000	12.683500
2413.000000	12.715300
2412.000000	12.752300
2411.000000	12.819300
2410.000000	12.898500
2409.000000	12.976900
2408.000000	13.068300
2407.000000	13.131100
2406.000000	13.139100
2405.000000	13.168300
2404.000000	13.205900
2403.000000	13.245100
2402.000000	13.299700
2401.000000	13.363400
2400.000000	13.379200
2399.000000	13.436800
2398.000000	13.500100
2397.000000	13.526400
2396.000000	13.575500
2395.000000	13.622200
2394.000000	13.655100
2393.000000	13.705100
2392.000000	13.717500
2391.000000	13.737400
2390.000000	13.777100
2389.000000	13.830400
2388.000000	13.858100
2387.000000	13.860800
2386.000000	13.859800
2385.000000	13.855900
2384.000000	13.868400
2383.000000	13.881000
2382.000000	13.883400
2381.000000	13.890700
2380.000000	13.886200
2379.000000	13.844300
2378.000000	13.852800
2377.000000	13.865800
2376.000000	13.826700
2375.000000	13.801400
2374.000000	13.799300
2373.000000	13.785700
2372.000000	13.739600
2371.000000	13.705600
2370.000000	13.681000
2369.000000	13.634300
2368.000000	13.575400
2367.000000	13.533100
2366.000000	13.489500
2365.000000	13.426100
2364.000000	13.374700
2363.000000	13.306900
2362.000000	13.226100
2361.000000	13.158500
2360.000000	13.105600
2359.000000	13.058400
2358.000000	12.995500
2357.000000	12.957500
2356.000000	12.930300
2355.000000	12.892700
2354.000000	12.868600
2353.000000	12.862100
2352.000000	12.879500
2351.000000	12.896800
2350.000000	12.922900
2349.000000	12.979100
2348.000000	13.038000
2347.000000	13.105500
2346.000000	13.171000
2345.000000	13.222400
2344.000000	13.257700
2343.000000	13.321800
2342.000000	13.406200
2341.000000	13.444100
2340.000000	13.455900
2339.000000	13.480100
2338.000000	13.514500
2337.000000	13.521000
2336.000000	13.540300
2335.000000	13.532300
2334.000000	13.498400
2333.000000	13.469500
2332.000000	13.468600
2331.000000	13.444000
2330.000000	13.364600
2329.000000	13.295400
2328.000000	13.248100
2327.000000	13.192400
2326.000000	13.113900
2325.000000	13.034100
2324.000000	12.937000
2323.000000	12.842100
2322.000000	12.755600
2321.000000	12.658400
2320.000000	12.515700
2319.000000	12.368100
2318.000000	12.238400
2317.000000	12.125000
2316.000000	12.013400
2315.000000	11.891600
2314.000000	11.763800
2313.000000	11.655000
2312.000000	11.559100
2311.000000	11.484300
2310.000000	11.385800
2309.000000	11.324200
2308.000000	11.293700
2307.000000	11.277900
2306.000000	11.294300
2305.000000	11.335100
2304.000000	11.372000
2303.000000	11.432200
2302.000000	11.521500
2301.000000	11.620800
2300.000000	11.734600
2299.000000	11.844300
2298.000000	11.950300
2297.000000	12.046400
2296.000000	12.157400
2295.000000	12.268900
2294.000000	12.352600
2293.000000	12.414000
2292.000000	12.502600
2291.000000	12.540100
2290.000000	12.584300
2289.000000	12.581800
2288.000000	12.599900
2287.000000	12.610000
2286.000000	12.587000
2285.000000	12.562800
2284.000000	12.520600
2283.000000	12.461200
2282.000000	12.406300
2281.000000	12.364600
2280.000000	12.329500
2279.000000	12.278100
2278.000000	12.214800
2277.000000	12.198100
2276.000000	12.146900
2275.000000	12.108500
2274.000000	12.077900
2273.000000	12.085000
2272.000000	12.098200
2271.000000	12.131300
2270.000000	12.185700
2269.000000	12.248500
2268.000000	12.336300
2267.000000	12.450300
2266.000000	12.589200
2265.000000	12.748700
2264.000000	12.959300
2263.000000	13.168700
2262.000000	13.387800
2261.000000	13.656500
2260.000000	13.947600
2259.000000	14.242400
2258.000000	14.527900
2257.000000	14.851800
2256.000000	15.157000
2255.000000	15.491800
2254.000000	15.795900
2253.000000	16.108500
2252.000000	16.398600
2251.000000	16.718800
2250.000000	16.978700
2249.000000	17.211300
2248.000000	17.443800
2247.000000	17.658800
2246.000000	17.896900
2245.000000	18.081700
2244.000000	18.260700
2243.000000	18.433700
2242.000000	18.599800
2241.000000	18.723800
2240.000000	18.858100
2239.000000	18.971600
2238.000000	19.098000
2237.000000	19.241500
2236.000000	19.322600
2235.000000	19.400500
2234.000000	19.447400
2233.000000	19.534900
2232.000000	19.575900
2231.000000	19.658200
2230.000000	19.679400
2229.000000	19.711300
2228.000000	19.729800
2227.000000	19.704800
2226.000000	19.729200
2225.000000	19.712700
2224.000000	19.731500
2223.000000	19.738600
2222.000000	19.690900
2221.000000	19.641700
2220.000000	19.595100
2219.000000	19.604900
2218.000000	19.555900
2217.000000	19.488700
2216.000000	19.450200
2215.000000	19.415700
2214.000000	19.372300
2213.000000	19.335200
2212.000000	19.289800
2211.000000	19.254900
2210.000000	19.225200
2209.000000	19.192000
2208.000000	19.181200
2207.000000	19.119700
2206.000000	19.110700
2205.000000	19.099300
2204.000000	19.088800
2203.000000	19.029000
2202.000000	19.010300
2201.000000	18.979600
2200.000000	18.973800
2199.000000	18.959100
2198.000000	18.945700
2197.000000	18.940200
2196.000000	18.913900
2195.000000	18.906900
2194.000000	18.876200
2193.000000	18.860100
2192.000000	18.849600
2191.000000	18.817200
2190.000000	18.812800
2189.000000	18.783400
2188.000000	18.765000
2187.000000	18.751600
2186.000000	18.722500
2185.000000	18.704600
2184.000000	18.682400
2183.000000	18.661400
2182.000000	18.626000
2181.000000	18.606100
2180.000000	18.585600
2179.000000	18.578500
2178.000000	18.548100
2177.000000	18.528400
2176.000000	18.520600
2175.000000	18.515100
2174.000000	18.520200
2173.000000	18.528400
2172.000000	18.521000
2171.000000	18.508900
2170.000000	18.523200
2169.000000	18.550600
2168.000000	18.571400
2167.000000	18.585500
2166.000000	18.616000
2165.000000	18.650400
2164.000000	18.651700
2163.000000	18.668000
2162.000000	18.693300
2161.000000	18.739200
2160.000000	18.780700
2159.000000	18.821000
2158.000000	18.846400
2157.000000	18.913900
2156.000000	18.970200
2155.000000	19.024000
2154.000000	19.073000
2153.000000	19.155800
2152.000000	19.211700
2151.000000	19.255100
2150.000000	19.321400
2149.000000	19.366600
2148.000000	19.416200
2147.000000	19.488000
2146.000000	19.549400
2145.000000	19.596600
2144.000000	19.644600
2143.000000	19.684800
2142.000000	19.745000
2141.000000	19.787200
2140.000000	19.831100
2139.000000	19.887700
2138.000000	19.943500
2137.000000	19.978500
2136.000000	20.011000
2135.000000	20.045700
2134.000000	20.093000
2133.000000	20.124500
2132.000000	20.147200
2131.000000	20.182700
2130.000000	20.187600
2129.000000	20.202600
2128.000000	20.237000
2127.000000	20.237200
2126.000000	20.244600
2125.000000	20.257100
2124.000000	20.250600
2123.000000	20.251500
2122.000000	20.251600
2121.000000	20.245300
2120.000000	20.237600
2119.000000	20.219800
2118.000000	20.213500
2117.000000	20.198500
2116.000000	20.177700
2115.000000	20.163900
2114.000000	20.127900
2113.000000	20.108700
2112.000000	20.082300
2111.000000	20.045900
2110.000000	20.030800
2109.000000	20.005100
2108.000000	19.980200
2107.000000	19.951800
2106.000000	19.916400
2105.000000	19.888100
2104.000000	19.864700
2103.000000	19.843600
2102.000000	19.823700
2101.000000	19.791600
2100.000000	19.767400
2099.000000	19.759000
2098.000000	19.728000
2097.000000	19.701200
2096.000000	19.681100
2095.000000	19.666600
2094.000000	19.649700
2093.000000	19.636500
2092.000000	19.642800
2091.000000	19.637900
2090.000000	19.611100
2089.000000	19.588000
2088.000000	19.583300
2087.000000	19.585200
2086.000000	19.558300
2085.000000	19.538700
2084.000000	19.523700
2083.000000	19.493900
2082.000000	19.477700
2081.000000	19.469400
2080.000000	19.422900
2079.000000	19.386000
2078.000000	19.370600
2077.000000	19.330100
2076.000000	19.300600
2075.000000	19.267900
2074.000000	19.235200
2073.000000	19.195400
2072.000000	19.135200
2071.000000	19.092800
2070.000000	19.070500
2069.000000	19.028200
2068.000000	18.961200
2067.000000	18.911400
2066.000000	18.877600
2065.000000	18.842800
2064.000000	18.827100
2063.000000	18.791100
2062.000000	18.742000
2061.000000	18.725400
2060.000000	18.720200
2059.000000	18.699800
2058.000000	18.704000
2057.000000	18.728000
2056.000000	18.758900
2055.000000	18.778900
2054.000000	18.845600
2053.000000	18.922200
2052.000000	18.997100
2051.000000	19.102700
2050.000000	19.224300
2049.000000	19.372000
2048.000000	19.498600
2047.000000	19.639600
2046.000000	19.811300
2045.000000	19.970800
2044.000000	20.136700
2043.000000	20.316800
2042.000000	20.480400
2041.000000	20.673900
2040.000000	20.841900
2039.000000	20.997200
2038.000000	21.188700
2037.000000	21.332300
2036.000000	21.496700
2035.000000	21.641400
2034.000000	21.778200
2033.000000	21.918300
2032.000000	22.048400
2031.000000	22.173400
2030.000000	22.308200
2029.000000	22.404700
2028.000000	22.492300
2027.000000	22.619100
2026.000000	22.726400
2025.000000	22.805400
2024.000000	22.910700
2023.000000	22.967900
2022.000000	23.066800
2021.000000	23.148500
2020.000000	23.209400
2019.000000	23.269800
2018.000000	23.323500
2017.000000	23.411000
2016.000000	23.472700
2015.000000	23.519500
2014.000000	23.561100
2013.000000	23.591800
2012.000000	23.627200
2011.000000	23.664600
2010.000000	23.661500
2009.000000	23.663500
2008.000000	23.662100
2007.000000	23.676800
2006.000000	23.669200
2005.000000	23.665800
2004.000000	23.649900
2003.000000	23.614600
2002.000000	23.580700
2001.000000	23.527400
2000.000000	23.504800
1999.000000	23.481800
1998.000000	23.422100
1997.000000	23.358000
1996.000000	23.297900
1995.000000	23.227400
1994.000000	23.171200
1993.000000	23.104400
1992.000000	23.014300
1991.000000	22.932000
1990.000000	22.854100
1989.000000	22.757400
1988.000000	22.674100
1987.000000	22.579100
1986.000000	22.477300
1985.000000	22.371700
1984.000000	22.277700
1983.000000	22.185100
1982.000000	22.097300
1981.000000	21.968800
1980.000000	21.872700
1979.000000	21.780300
1978.000000	21.679700
1977.000000	21.577400
1976.000000	21.475600
1975.000000	21.363200
1974.000000	21.267500
1973.000000	21.166200
1972.000000	21.077200
1971.000000	20.976800
1970.000000	20.909800
1969.000000	20.787400
1968.000000	20.701900
1967.000000	20.588700
1966.000000	20.512800
1965.000000	20.424000
1964.000000	20.336400
1963.000000	20.242100
1962.000000	20.139400
1961.000000	20.038700
1960.000000	19.947200
1959.000000	19.855000
1958.000000	19.763300
1957.000000	19.663300
1956.000000	19.575000
1955.000000	19.484900
1954.000000	19.401800
1953.000000	19.329500
1952.000000	19.231900
1951.000000	19.151300
1950.000000	19.065500
1949.000000	19.008400
1948.000000	18.932500
1947.000000	18.877700
1946.000000	18.798900
1945.000000	18.732800
1944.000000	18.708100
1943.000000	18.673400
1942.000000	18.623200
1941.000000	18.616700
1940.000000	18.596400
1939.000000	18.588700
1938.000000	18.614900
1937.000000	18.601300
1936.000000	18.616800
1935.000000	18.653400
1934.000000	18.692400
1933.000000	18.735600
1932.000000	18.818000
1931.000000	18.900500
1930.000000	18.989000
1929.000000	19.078600
1928.000000	19.194400
1927.000000	19.312300
1926.000000	19.454500
1925.000000	19.608100
1924.000000	19.737300
1923.000000	19.904700
1922.000000	20.085700
1921.000000	20.321600
1920.000000	20.547200
1919.000000	20.736200
1918.000000	20.966000
1917.000000	21.182400
1916.000000	21.416000
1915.000000	21.659200
1914.000000	21.962700
1913.000000	22.253600
1912.000000	22.552400
1911.000000	22.836000
1910.000000	23.122900
1909.000000	23.377500
1908.000000	23.676500
1907.000000	24.019700
1906.000000	24.402000
1905.000000	24.797900
1904.000000	25.140100
1903.000000	25.488300
1902.000000	25.867800
1901.000000	26.237000
1900.000000	26.642000
1899.000000	27.064300
1898.000000	27.480400
1897.000000	27.870000
1896.000000	28.210700
1895.000000	28.544400
1894.000000	28.933600
1893.000000	29.334900
1892.000000	29.760100
1891.000000	30.190300
1890.000000	30.600000
1889.000000	31.013500
1888.000000	31.435300
1887.000000	31.860700
1886.000000	32.348100
1885.000000	32.878000
1884.000000	33.459200
1883.000000	34.031800
1882.000000	34.592600
1881.000000	35.161800
1880.000000	35.671900
1879.000000	36.176900
1878.000000	36.684400
1877.000000	37.158100
1876.000000	37.568700
1875.000000	37.966500
1874.000000	38.370400
1873.000000	38.721500
1872.000000	39.044200
1871.000000	39.337100
1870.000000	39.587700
1869.000000	39.835200
1868.000000	39.993200
1867.000000	40.121000
1866.000000	40.204900
1865.000000	40.285600
1864.000000	40.355500
1863.000000	40.410000
1862.000000	40.470900
1861.000000	40.532400
1860.000000	40.603300
1859.000000	40.636100
1858.000000	40.646100
1857.000000	40.638200
1856.000000	40.599300
1855.000000	40.573200
1854.000000	40.561000
1853.000000	40.488600
1852.000000	40.426300
1851.000000	40.380200
1850.000000	40.310300
1849.000000	40.266100
1848.000000	40.241900
1847.000000	40.180500
1846.000000	40.074300
1845.000000	39.973800
1844.000000	39.906600
1843.000000	39.883100
1842.000000	39.885000
1841.000000	39.850100
1840.000000	39.786800
1839.000000	39.717600
1838.000000	39.667100
1837.000000	39.620400
1836.000000	39.547400
1835.000000	39.452100
1834.000000	39.333300
1833.000000	39.220500
1832.000000	39.148800
1831.000000	39.071200
1830.000000	38.983200
1829.000000	38.893700
1828.000000	38.784600
1827.000000	38.704200
1826.000000	38.633600
1825.000000	38.548400
1824.000000	38.482400
1823.000000	38.460800
1822.000000	38.462200
1821.000000	38.457000
1820.000000	38.427300
1819.000000	38.368800
1818.000000	38.332800
1817.000000	38.326400
1816.000000	38.338600
1815.000000	38.321500
1814.000000	38.295800
1813.000000	38.277600
1812.000000	38.257400
1811.000000	38.220600
1810.000000	38.162500
1809.000000	38.114600
1808.000000	38.077200
1807.000000	38.039200
1806.000000	37.980200
1805.000000	37.915300
1804.000000	37.858300
1803.000000	37.812400
1802.000000	37.752400
1801.000000	37.691600
1800.000000	37.627800
1799.000000	37.558100
1798.000000	37.510800
1797.000000	37.474800
1796.000000	37.418900
1795.000000	37.352600
1794.000000	37.305100
1793.000000	37.241800
1792.000000	37.179000
1791.000000	37.130400
1790.000000	37.048500
1789.000000	36.986700
1788.000000	36.921400
1787.000000	36.838000
1786.000000	36.766500
1785.000000	36.683600
1784.000000	36.581200
1783.000000	36.484300
1782.000000	36.403200
1781.000000	36.323600
1780.000000	36.218600
1779.000000	36.114600
1778.000000	36.000000
1777.000000	35.887300
1776.000000	35.754300
1775.000000	35.602800
1774.000000	35.447500
1773.000000	35.295800
1772.000000	35.126700
1771.000000	34.949500
1770.000000	34.809800
1769.000000	34.651900
1768.000000	34.524600
1767.000000	34.410000
1766.000000	34.314700
1765.000000	34.221400
1764.000000	34.164500
1763.000000	34.147200
1762.000000	34.176000
1761.000000	34.201200
1760.000000	34.264200
1759.000000	34.343100
1758.000000	34.409900
1757.000000	34.461400
1756.000000	34.511900
1755.000000	34.544800
1754.000000	34.549600
1753.000000	34.541300
1752.000000	34.538700
1751.000000	34.475200
1750.000000	34.398600
1749.000000	34.313100
1748.000000	34.205500
1747.000000	34.073700
1746.000000	33.917500
1745.000000	33.742600
1744.000000	33.536000
1743.000000	33.299700
1742.000000	33.012400
1741.000000	32.739600
1740.000000	32.457000
1739.000000	32.196100
1738.000000	31.945800
1737.000000	31.726600
1736.000000	31.561700
1735.000000	31.431100
1734.000000	31.378100
1733.000000	31.395800
1732.000000	31.440400
1731.000000	31.537300
1730.000000	31.672400
1729.000000	31.781100
1728.000000	31.920200
1727.000000	32.033600
1726.000000	32.138300
1725.000000	32.203300
1724.000000	32.265500
1723.000000	32.328100
1722.000000	32.357700
1721.000000	32.384500
1720.000000	32.434400
1719.000000	32.493800
1718.000000	32.548300
1717.000000	32.639500
1716.000000	32.737700
1715.000000	32.841500
1714.000000	32.932700
1713.000000	33.030400
1712.000000	33.078100
1711.000000	33.147500
1710.000000	33.148700
1709.000000	33.166800
1708.000000	33.154200
1707.000000	33.109700
1706.000000	33.089900
1705.000000	33.035100
1704.000000	32.922500
1703.000000	32.835800
1702.000000	32.676400
1701.000000	32.508200
1700.000000	32.314200
1699.000000	32.130900
1698.000000	31.959900
1697.000000	31.838600
1696.000000	31.756800
1695.000000	31.755300
1694.000000	31.824700
1693.000000	31.967700
1692.000000	32.133500
1691.000000	32.318300
1690.000000	32.491700
1689.000000	32.609000
1688.000000	32.688700
1687.000000	32.743300
1686.000000	32.759200
1685.000000	32.863600
1684.000000	33.024400
1683.000000	33.316100
1682.000000	33.766700
1681.000000	34.349800
1680.000000	34.998300
1679.000000	35.654800
1678.000000	36.291600
1677.000000	36.917600
1676.000000	37.411200
1675.000000	37.865900
1674.000000	38.300900
1673.000000	38.633300
1672.000000	38.932100
1671.000000	39.178800
1670.000000	39.440100
1669.000000	39.656700
1668.000000	39.842800
1667.000000	40.009800
1666.000000	40.134200
1665.000000	40.256200
1664.000000	40.366900
1663.000000	40.449500
1662.000000	40.551700
1661.000000	40.621900
1660.000000	40.665100
1659.000000	40.707300
1658.000000	40.753000
1657.000000	40.771500
1656.000000	40.792900
1655.000000	40.795000
1654.000000	40.778600
1653.000000	40.768400
1652.000000	40.749600
1651.000000	40.735200
1650.000000	40.681700
1649.000000	40.644200
1648.000000	40.588800
1647.000000	40.551300
1646.000000	40.467900
1645.000000	40.410900
1644.000000	40.351100
1643.000000	40.285700
1642.000000	40.216400
1641.000000	40.158100
1640.000000	40.090400
1639.000000	40.026500
1638.000000	39.952500
1637.000000	39.856700
1636.000000	39.777300
1635.000000	39.697500
1634.000000	39.615700
1633.000000	39.525500
1632.000000	39.440800
1631.000000	39.332100
1630.000000	39.243100
1629.000000	39.138200
1628.000000	39.048000
1627.000000	38.942600
1626.000000	38.855600
1625.000000	38.760400
1624.000000	38.653000
1623.000000	38.553800
1622.000000	38.467500
1621.000000	38.384900
1620.000000	38.292200
1619.000000	38.194600
1618.000000	38.108900
1617.000000	38.020600
1616.000000	37.932400
1615.000000	37.829400
1614.000000	37.758200
1613.000000	37.665700
1612.000000	37.578100
1611.000000	37.491300
1610.000000	37.423000
1609.000000	37.342800
1608.000000	37.255000
1607.000000	37.169100
1606.000000	37.081500
1605.000000	36.986100
1604.000000	36.916200
1603.000000	36.837100
1602.000000	36.751000
1601.000000	36.666000
1600.000000	36.580100
1599.000000	36.510000
1598.000000	36.433300
1597.000000	36.331500
1596.000000	36.270400
1595.000000	36.207500
1594.000000	36.137800
1593.000000	36.090700
1592.000000	36.035300
1591.000000	35.974500
1590.000000	35.927800
1589.000000	35.880800
1588.000000	35.828900
1587.000000	35.789100
1586.000000	35.747900
1585.000000	35.714200
1584.000000	35.670400
1583.000000	35.629600
1582.000000	35.600300
1581.000000	35.581800
1580.000000	35.569500
1579.000000	35.552500
1578.000000	35.552500
1577.000000	35.559700
1576.000000	35.556700
1575.000000	35.555900
1574.000000	35.555600
1573.000000	35.583400
1572.000000	35.615300
1571.000000	35.628300
1570.000000	35.658000
1569.000000	35.687700
1568.000000	35.719600
1567.000000	35.755000
1566.000000	35.799400
1565.000000	35.840200
1564.000000	35.869800
1563.000000	35.897800
1562.000000	35.930200
1561.000000	35.958300
1560.000000	35.979500
1559.000000	35.995300
1558.000000	36.001800
1557.000000	36.014300
1556.000000	36.019300
1555.000000	36.017200
1554.000000	36.017000
1553.000000	35.998100
1552.000000	35.992200
1551.000000	35.982900
1550.000000	35.951700
1549.000000	35.928400
1548.000000	35.918300
1547.000000	35.888600
1546.000000	35.868600
1545.000000	35.865200
1544.000000	35.854200
1543.000000	35.841300
1542.000000	35.837000
1541.000000	35.827600
1540.000000	35.806100
1539.000000	35.808000
1538.000000	35.813800
1537.000000	35.805200
1536.000000	35.799500
1535.000000	35.787700
1534.000000	35.769400
1533.000000	35.748600
1532.000000	35.723300
1531.000000	35.681200
1530.000000	35.667400
1529.000000	35.656000
1528.000000	35.623000
1527.000000	35.588100
1526.000000	35.552900
1525.000000	35.511500
1524.000000	35.485100
1523.000000	35.448100
1522.000000	35.384500
1521.000000	35.360100
1520.000000	35.326000
1519.000000	35.282500
1518.000000	35.235900
1517.000000	35.202600
1516.000000	35.156300
1515.000000	35.105400
1514.000000	35.053500
1513.000000	35.003000
1512.000000	34.952400
1511.000000	34.911900
1510.000000	34.859100
1509.000000	34.793600
1508.000000	34.743600
1507.000000	34.698600
1506.000000	34.644400
1505.000000	34.608400
1504.000000	34.554800
1503.000000	34.498000
1502.000000	34.452300
1501.000000	34.430700
1500.000000	34.399700
1499.000000	34.371800
1498.000000	34.341400
1497.000000	34.311700
1496.000000	34.306900
1495.000000	34.278700
1494.000000	34.258000
1493.000000	34.263000
1492.000000	34.257500
1491.000000	34.246800
1490.000000	34.264300
1489.000000	34.254000
1488.000000	34.268000
1487.000000	34.282700
1486.000000	34.274800
1485.000000	34.276600
1484.000000	34.283900
1483.000000	34.311100
1482.000000	34.327600
1481.000000	34.351900
1480.000000	34.369900
1479.000000	34.397300
1478.000000	34.438400
1477.000000	34.472900
1476.000000	34.520500
1475.000000	34.553000
1474.000000	34.609800
1473.000000	34.655000
1472.000000	34.712400
1471.000000	34.755400
1470.000000	34.776800
1469.000000	34.822500
1468.000000	34.875000
1467.000000	34.934600
1466.000000	34.998800
1465.000000	35.063100
1464.000000	35.133700
1463.000000	35.203600
1462.000000	35.272800
1461.000000	35.349600
1460.000000	35.448800
1459.000000	35.539000
1458.000000	35.633100
1457.000000	35.762200
1456.000000	35.853900
1455.000000	35.991100
1454.000000	36.113000
1453.000000	36.238500
1452.000000	36.394200
1451.000000	36.542400
1450.000000	36.655900
1449.000000	36.754200
1448.000000	36.910600
1447.000000	37.072800
1446.000000	37.253000
1445.000000	37.396200
1444.000000	37.509700
1443.000000	37.677000
1442.000000	37.852800
1441.000000	38.003800
1440.000000	38.166700
1439.000000	38.330100
1438.000000	38.509400
1437.000000	38.644600
1436.000000	38.811600
1435.000000	38.974600
1434.000000	39.148300
1433.000000	39.337300
1432.000000	39.512000
1431.000000	39.683700
1430.000000	39.874400
1429.000000	40.105600
1428.000000	40.336600
1427.000000	40.559400
1426.000000	40.846000
1425.000000	41.142000
1424.000000	41.419900
1423.000000	41.667100
1422.000000	41.934900
1421.000000	42.228200
1420.000000	42.564800
1419.000000	42.876500
1418.000000	43.123800
1417.000000	43.369100
1416.000000	43.662100
1415.000000	44.011600
1414.000000	44.327200
1413.000000	44.580400
1412.000000	44.842000
1411.000000	45.202200
1410.000000	45.644700
1409.000000	46.007600
1408.000000	46.437900
1407.000000	46.835700
1406.000000	47.289600
1405.000000	47.753000
1404.000000	48.136900
1403.000000	48.558800
1402.000000	48.982200
1401.000000	49.468000
1400.000000	49.864000
1399.000000	50.102400
1398.000000	50.306200
1397.000000	50.610900
1396.000000	50.946600
1395.000000	51.152000
1394.000000	51.296300
1393.000000	51.472100
1392.000000	51.706100
1391.000000	51.908300
1390.000000	52.123600
1389.000000	52.419700
1388.000000	52.766800
1387.000000	53.096700
1386.000000	53.463700
1385.000000	53.900800
1384.000000	54.349200
1383.000000	54.732600
1382.000000	55.087400
1381.000000	55.315500
1380.000000	55.430100
1379.000000	55.528800
1378.000000	55.596800
1377.000000	55.714400
1376.000000	55.866000
1375.000000	56.065500
1374.000000	56.324800
1373.000000	56.637000
1372.000000	56.991200
1371.000000	57.337100
1370.000000	57.618300
1369.000000	57.906800
1368.000000	58.190000
1367.000000	58.390600
1366.000000	58.582300
1365.000000	58.785000
1364.000000	58.954500
1363.000000	59.123100
1362.000000	59.298800
1361.000000	59.373300
1360.000000	59.360500
1359.000000	59.449900
1358.000000	59.560600
1357.000000	59.735900
1356.000000	60.018200
1355.000000	60.425000
1354.000000	60.845200
1353.000000	61.242500
1352.000000	61.764700
1351.000000	62.232900
1350.000000	62.663400
1349.000000	63.048800
1348.000000	63.428300
1347.000000	63.737100
1346.000000	64.031000
1345.000000	64.345300
1344.000000	64.650000
1343.000000	64.925800
1342.000000	65.173300
1341.000000	65.430800
1340.000000	65.656200
1339.000000	65.875600
1338.000000	66.098100
1337.000000	66.315000
1336.000000	66.503000
1335.000000	66.679000
1334.000000	66.876700
1333.000000	67.037000
1332.000000	67.193100
1331.000000	67.340900
1330.000000	67.469600
1329.000000	67.604400
1328.000000	67.723800
1327.000000	67.832500
1326.000000	67.947200
1325.000000	68.054000
1324.000000	68.149400
1323.000000	68.247400
1322.000000	68.340300
1321.000000	68.433900
1320.000000	68.505000
1319.000000	68.579300
1318.000000	68.647700
1317.000000	68.722600
1316.000000	68.796400
1315.000000	68.857800
1314.000000	68.910300
1313.000000	68.964200
1312.000000	69.022900
1311.000000	69.073900
1310.000000	69.126800
1309.000000	69.164900
1308.000000	69.197600
1307.000000	69.229700
1306.000000	69.249600
1305.000000	69.266000
1304.000000	69.288800
1303.000000	69.301100
1302.000000	69.314800
1301.000000	69.317800
1300.000000	69.306000
1299.000000	69.307100
1298.000000	69.315700
1297.000000	69.313200
1296.000000	69.294000
1295.000000	69.284800
1294.000000	69.266600
1293.000000	69.239100
1292.000000	69.224400
1291.000000	69.204000
1290.000000	69.179000
1289.000000	69.144200
1288.000000	69.099500
1287.000000	69.052900
1286.000000	68.997300
1285.000000	68.949100
1284.000000	68.900300
1283.000000	68.856700
1282.000000	68.798100
1281.000000	68.729100
1280.000000	68.683900
1279.000000	68.639000
1278.000000	68.592100
1277.000000	68.552800
1276.000000	68.514800
1275.000000	68.477100
1274.000000	68.444500
1273.000000	68.410900
1272.000000	68.382500
1271.000000	68.368100
1270.000000	68.342800
1269.000000	68.318200
1268.000000	68.285800
1267.000000	68.267000
1266.000000	68.225900
1265.000000	68.186400
1264.000000	68.153700
1263.000000	68.118800
1262.000000	68.086600
1261.000000	68.055700
1260.000000	68.012000
1259.000000	67.954300
1258.000000	67.933400
1257.000000	67.876900
1256.000000	67.836300
1255.000000	67.797800
1254.000000	67.749400
1253.000000	67.671300
1252.000000	67.605900
1251.000000	67.540800
1250.000000	67.472800
1249.000000	67.381800
1248.000000	67.289400
1247.000000	67.172700
1246.000000	67.067200
1245.000000	66.944600
1244.000000	66.841300
1243.000000	66.722600
1242.000000	66.590800
1241.000000	66.452600
1240.000000	66.318800
1239.000000	66.196300
1238.000000	66.048700
1237.000000	65.910200
1236.000000	65.764400
1235.000000	65.621500
1234.000000	65.479600
1233.000000	65.311200
1232.000000	65.163000
1231.000000	64.994900
1230.000000	64.842400
1229.000000	64.665500
1228.000000	64.497500
1227.000000	64.341700
1226.000000	64.186700
1225.000000	64.023000
1224.000000	63.857900
1223.000000	63.680300
1222.000000	63.523900
1221.000000	63.376900
1220.000000	63.221200
1219.000000	63.083800
1218.000000	62.942800
1217.000000	62.809800
1216.000000	62.677500
1215.000000	62.551100
1214.000000	62.419200
1213.000000	62.314400
1212.000000	62.183900
1211.000000	62.066500
1210.000000	61.957300
1209.000000	61.873800
1208.000000	61.776800
1207.000000	61.703100
1206.000000	61.637100
1205.000000	61.581700
1204.000000	61.528500
1203.000000	61.495200
1202.000000	61.452400
1201.000000	61.396800
1200.000000	61.333700
1199.000000	61.236300
1198.000000	61.123400
1197.000000	60.974300
1196.000000	60.780000
1195.000000	60.538900
1194.000000	60.243100
1193.000000	59.887600
1192.000000	59.492400
1191.000000	59.068600
1190.000000	58.689300
1189.000000	58.371000
1188.000000	58.134100
1187.000000	58.023300
1186.000000	58.025000
1185.000000	58.150100
1184.000000	58.360900
1183.000000	58.734200
1182.000000	59.136700
1181.000000	59.605600
1180.000000	60.027400
1179.000000	60.457500
1178.000000	60.837300
1177.000000	61.151200
1176.000000	61.445700
1175.000000	61.704200
1174.000000	62.001300
1173.000000	62.275000
1172.000000	62.558200
1171.000000	62.861700
1170.000000	63.188600
1169.000000	63.505400
1168.000000	63.801300
1167.000000	64.126700
1166.000000	64.448200
1165.000000	64.779700
1164.000000	65.104000
1163.000000	65.414300
1162.000000	65.718000
1161.000000	66.037900
1160.000000	66.323600
1159.000000	66.624400
1158.000000	66.869100
1157.000000	67.110400
1156.000000	67.299500
1155.000000	67.451900
1154.000000	67.577000
1153.000000	67.637100
1152.000000	67.671000
1151.000000	67.681300
1150.000000	67.693800
1149.000000	67.700100
1148.000000	67.740700
1147.000000	67.787600
1146.000000	67.884000
1145.000000	68.035700
1144.000000	68.209600
1143.000000	68.437600
1142.000000	68.676800
1141.000000	68.920500
1140.000000	69.174600
1139.000000	69.414500
1138.000000	69.690000
1137.000000	69.975900
1136.000000	70.236400
1135.000000	70.513800
1134.000000	70.742900
1133.000000	70.908400
1132.000000	71.119600
1131.000000	71.298300
1130.000000	71.448000
1129.000000	71.576700
1128.000000	71.684100
1127.000000	71.754700
1126.000000	71.834300
1125.000000	71.879400
1124.000000	71.907700
1123.000000	71.939700
1122.000000	71.959300
1121.000000	71.950400
1120.000000	71.963200
1119.000000	71.959400
1118.000000	71.946400
1117.000000	71.939600
1116.000000	71.911900
1115.000000	71.873600
1114.000000	71.839300
1113.000000	71.792900
1112.000000	71.773700
1111.000000	71.764500
1110.000000	71.725800
1109.000000	71.695400
1108.000000	71.683600
1107.000000	71.651100
1106.000000	71.622400
1105.000000	71.595400
1104.000000	71.563100
1103.000000	71.531700
1102.000000	71.487500
1101.000000	71.482500
1100.000000	71.440900
1099.000000	71.404100
1098.000000	71.356400
1097.000000	71.340200
1096.000000	71.294100
1095.000000	71.243300
1094.000000	71.211600
1093.000000	71.173900
1092.000000	71.143700
1091.000000	71.095900
1090.000000	71.040400
1089.000000	70.986400
1088.000000	70.947000
1087.000000	70.908500
1086.000000	70.853100
1085.000000	70.791000
1084.000000	70.743600
1083.000000	70.704300
1082.000000	70.662200
1081.000000	70.603000
1080.000000	70.551100
1079.000000	70.516900
1078.000000	70.486000
1077.000000	70.430400
1076.000000	70.366300
1075.000000	70.325600
1074.000000	70.273600
1073.000000	70.227900
1072.000000	70.170100
1071.000000	70.117500
1070.000000	70.068700
1069.000000	70.022300
1068.000000	69.969300
1067.000000	69.914800
1066.000000	69.850100
1065.000000	69.786900
1064.000000	69.737000
1063.000000	69.685800
1062.000000	69.619400
1061.000000	69.551100
1060.000000	69.486600
1059.000000	69.429400
1058.000000	69.360300
1057.000000	69.292000
1056.000000	69.223900
1055.000000	69.152000
1054.000000	69.083300
1053.000000	69.010500
1052.000000	68.946400
1051.000000	68.866000
1050.000000	68.812300
1049.000000	68.765600
1048.000000	68.689500
1047.000000	68.618300
1046.000000	68.566600
1045.000000	68.495200
1044.000000	68.439900
1043.000000	68.379400
1042.000000	68.306800
1041.000000	68.243500
1040.000000	68.177100
1039.000000	68.110900
1038.000000	68.040500
1037.000000	67.964900
1036.000000	67.895400
1035.000000	67.821400
1034.000000	67.740800
1033.000000	67.683000
1032.000000	67.609800
1031.000000	67.519800
1030.000000	67.439900
1029.000000	67.373400
1028.000000	67.299700
1027.000000	67.219300
1026.000000	67.148800
1025.000000	67.049000
1024.000000	66.957100
1023.000000	66.891700
1022.000000	66.826100
1021.000000	66.754900
1020.000000	66.680000
1019.000000	66.619300
1018.000000	66.555400
1017.000000	66.486700
1016.000000	66.439700
1015.000000	66.382400
1014.000000	66.323500
1013.000000	66.285700
1012.000000	66.263700
1011.000000	66.236700
1010.000000	66.206200
1009.000000	66.192200
1008.000000	66.169700
1007.000000	66.145900
1006.000000	66.145200
1005.000000	66.131900
1004.000000	66.105600
1003.000000	66.099300
1002.000000	66.080900
1001.000000	66.049900
1000.000000	66.034400
999.000000	66.019900
998.000000	66.030100
997.000000	66.008900
996.000000	65.975600
995.000000	65.964600
994.000000	65.976500
993.000000	65.972100
992.000000	65.947700
991.000000	65.931900
990.000000	65.919400
989.000000	65.926300
988.000000	65.914100
987.000000	65.904700
986.000000	65.915400
985.000000	65.895200
984.000000	65.878500
983.000000	65.885300
982.000000	65.889100
981.000000	65.857100
980.000000	65.857100
979.000000	65.855800
978.000000	65.821200
977.000000	65.815300
976.000000	65.822800
975.000000	65.796900
974.000000	65.760100
973.000000	65.773000
972.000000	65.746900
971.000000	65.741900
970.000000	65.724300
969.000000	65.705100
968.000000	65.691500
967.000000	65.687500
966.000000	65.649800
965.000000	65.630700
964.000000	65.617100
963.000000	65.636100
962.000000	65.601700
961.000000	65.599800
960.000000	65.592800
959.000000	65.562400
958.000000	65.572800
957.000000	65.551600
956.000000	65.553900
955.000000	65.501600
954.000000	65.493700
953.000000	65.471400
952.000000	65.465200
951.000000	65.457700
950.000000	65.428500
949.000000	65.383500
948.000000	65.381900
947.000000	65.381000
946.000000	65.349000
945.000000	65.337400
944.000000	65.322800
943.000000	65.314800
942.000000	65.327500
941.000000	65.286600
940.000000	65.266900
939.000000	65.256500
938.000000	65.264700
937.000000	65.250400
936.000000	65.299000
935.000000	65.289800
934.000000	65.291100
933.000000	65.301200
932.000000	65.310100
931.000000	65.345200
930.000000	65.323400
929.000000	65.365300
928.000000	65.359800
927.000000	65.364700
926.000000	65.373300
925.000000	65.373000
924.000000	65.382700
923.000000	65.434900
922.000000	65.432500
921.000000	65.432600
920.000000	65.448500
919.000000	65.475600
918.000000	65.466700
917.000000	65.472500
916.000000	65.463800
915.000000	65.450900
914.000000	65.443800
913.000000	65.534300
912.000000	65.496400
911.000000	65.483700
910.000000	65.499500
909.000000	65.515500
908.000000	65.516500
907.000000	65.525600
906.000000	65.559000
905.000000	65.573200
904.000000	65.581900
903.000000	65.624900
902.000000	65.660300
901.000000	65.643300
900.000000	65.679800
899.000000	65.669000
898.000000	65.682700
897.000000	65.624200
896.000000	65.609800
895.000000	65.608600
894.000000	65.614800
893.000000	65.567100
892.000000	65.581800
891.000000	65.502100
890.000000	65.384000
889.000000	65.335400
888.000000	65.294700
887.000000	65.128000
886.000000	65.077800
885.000000	64.998100
884.000000	64.870600
883.000000	64.705000
882.000000	64.563700
881.000000	64.360700
880.000000	64.229000
879.000000	64.046900
878.000000	63.775500
877.000000	63.589400
876.000000	63.301400
875.000000	63.066100
874.000000	62.748700
873.000000	62.491200
872.000000	62.131000
871.000000	61.789500
870.000000	61.280100
869.000000	60.742800
868.000000	60.151800
867.000000	59.625500
866.000000	59.050600
865.000000	58.758200
864.000000	58.728000
863.000000	58.776300
862.000000	58.850600
861.000000	58.919400
860.000000	58.952400
859.000000	58.987100
858.000000	60.730700
857.000000	59.315000
856.000000	59.354811
855.000000	59.162069
854.000000	59.385279
853.000000	59.730701
852.000000	59.392939
851.000000	59.326531
850.000000	59.484176
849.000000	59.576675
848.000000	59.536612
847.000000	59.225278
846.000000	59.475170
845.000000	59.616654
844.000000	59.595108
843.000000	59.628606
842.000000	59.649395
841.000000	59.704188
840.000000	59.619095
839.000000	59.642157
838.000000	59.462040
837.000000	59.499662
836.000000	59.539137
835.000000	59.605629
834.000000	59.682473
833.000000	59.594434
832.000000	59.310287
831.000000	59.338146
830.000000	59.219302
829.000000	59.169223
828.000000	59.092631
827.000000	59.137492
826.000000	58.986580
825.000000	58.942309
824.000000	58.777678
823.000000	58.792155
822.000000	58.735931
821.000000	58.688040
820.000000	58.631143
819.000000	58.499759
818.000000	58.412982
817.000000	58.384281
816.000000	58.248941
815.000000	58.369721
814.000000	58.177399
813.000000	58.023963
812.000000	58.115200
811.000000	57.970601
810.000000	57.896534
809.000000	57.800583
808.000000	57.676185
807.000000	57.621560
806.000000	57.605905
805.000000	57.603464
804.000000	57.520728
803.000000	57.459202
802.000000	57.490091
801.000000	57.345493
800.000000	57.285566
799.000000	57.176485
798.000000	57.240705
797.000000	57.153423
796.000000	56.990055
795.000000	56.982733
794.000000	56.908161
793.000000	56.898145
792.000000	56.823489
791.000000	56.696565
790.000000	56.710032
789.000000	56.724256
788.000000	56.615176
787.000000	56.551714
786.000000	56.446926
785.000000	56.401644
784.000000	56.305189
783.000000	56.222789
782.000000	56.183736
781.000000	56.089469
780.000000	56.067754
779.000000	56.062114
778.000000	55.976685
777.000000	55.911455
776.000000	55.872402
775.000000	55.908678
774.000000	55.885953
773.000000	55.777125
772.000000	55.665519
771.000000	55.541457
770.000000	55.562667
769.000000	55.488853
768.000000	55.418405
767.000000	55.374470
766.000000	55.286011
765.000000	55.250660
764.000000	55.269345
763.000000	55.211102
762.000000	55.061537
761.000000	54.968785
760.000000	54.929479
759.000000	54.870478
758.000000	54.795485
757.000000	54.698693
756.000000	54.664353
755.000000	54.649456
754.000000	54.546688
753.000000	54.443752
752.000000	54.363035
751.000000	54.297217
750.000000	54.200004
749.000000	54.114406
748.000000	54.048167
747.000000	53.982096
746.000000	53.938245
745.000000	53.859801
744.000000	53.788175
743.000000	53.699126
742.000000	53.629436
741.000000	53.608142
740.000000	53.565806
739.000000	53.560503
738.000000	53.503017
737.000000	53.457988
736.000000	53.384089
735.000000	53.289906
734.000000	53.300091
733.000000	53.313810
732.000000	53.231158
731.000000	53.179143
730.000000	53.133777
729.000000	53.125865
728.000000	53.123424
727.000000	53.091946
726.000000	53.071240
725.000000	53.043297
724.000000	53.017121
723.000000	52.974028
722.000000	52.992376
721.000000	53.006179
720.000000	52.960982
719.000000	52.909303
718.000000	52.831701
717.000000	52.833721
716.000000	52.833890
715.000000	52.761338
714.000000	52.712857
713.000000	52.684746
712.000000	52.628606
711.000000	52.552435
710.000000	52.520536
709.000000	52.466501
708.000000	52.374675
707.000000	52.340587
706.000000	52.288235
705.000000	52.220901
704.000000	52.158702
703.000000	52.114514
702.000000	52.002320
701.000000	51.923455
700.000000	51.861929
699.000000	51.710176
698.000000	51.538981
697.000000	51.424934
696.000000	51.294980
695.000000	51.209803
694.000000	51.081617
693.000000	50.944677
692.000000	50.811525
691.000000	50.635111
690.000000	50.453142
689.000000	50.308038
688.000000	50.172698
687.000000	50.008656
686.000000	49.844447
685.000000	49.687728
684.000000	49.520067
683.000000	49.383716
682.000000	49.253426
681.000000	49.053109
680.000000	48.874590
679.000000	48.711306
678.000000	48.602310
677.000000	48.448116
676.000000	48.323717
675.000000	48.170702
674.000000	48.053373
673.000000	47.957002
672.000000	47.844134
671.000000	47.727142
670.000000	47.679840
669.000000	47.586920
668.000000	47.450064
667.000000	47.390053
666.000000	47.331557
665.000000	47.274576
664.000000	47.202613
663.000000	47.156574
662.000000	47.108767
661.000000	47.067778
660.000000	46.996404
659.000000	46.934626
658.000000	46.898602
657.000000	46.822347
656.000000	46.793057
655.000000	46.740621
654.000000	46.661335
653.000000	46.632298
652.000000	46.536095
651.000000	46.451591
650.000000	46.367508
649.000000	46.289654
648.000000	46.177543
647.000000	46.079910
646.000000	45.992460
645.000000	45.830944
644.000000	45.741222
643.000000	45.554203
642.000000	45.364238
641.000000	45.193547
640.000000	45.015197
639.000000	44.773554
638.000000	44.542852
637.000000	44.295906
636.000000	44.069076
635.000000	43.818511
634.000000	43.609356
633.000000	43.368807
632.000000	43.197443
631.000000	43.015558
630.000000	42.839228
629.000000	42.683772
628.000000	42.517290
627.000000	42.453239
626.000000	42.380434
625.000000	42.327241
624.000000	42.347020
623.000000	42.366042
622.000000	42.472176
621.000000	42.613324
620.000000	42.712305
619.000000	42.881985
618.000000	43.112519
617.000000	43.373857
616.000000	43.656153
615.000000	43.937860
614.000000	44.288163
613.000000	44.705884
612.000000	45.104330
611.000000	45.562535
610.000000	46.021919
609.000000	46.471286
608.000000	46.991102
607.000000	47.478260
606.000000	48.050764
605.000000	48.575629
604.000000	49.155961
603.000000	49.691347
602.000000	50.283967
601.000000	50.780804
600.000000	51.328058
599.000000	51.802171
598.000000	52.285289
597.000000	52.707555
596.000000	53.169295
595.000000	53.549393
594.000000	53.967198
593.000000	54.305128
592.000000	54.632538
591.000000	54.967186
590.000000	55.246957
589.000000	55.562331
588.000000	55.869709
587.000000	56.153520
586.000000	56.483202
585.000000	56.756829
584.000000	57.071192
583.000000	57.394057
582.000000	57.690241
581.000000	58.024636
580.000000	58.349184
579.000000	58.716825
578.000000	59.021257
577.000000	59.312643
576.000000	59.630626
575.000000	59.901981
574.000000	60.137901
573.000000	60.373568
572.000000	60.647111
571.000000	60.779421
570.000000	60.926882
569.000000	61.031670
568.000000	61.109103
567.000000	61.140666
566.000000	61.152449
565.000000	61.176521
564.000000	61.163728
563.000000	61.098414
562.000000	61.095721
561.000000	61.071144
560.000000	61.013153
559.000000	61.031838
558.000000	61.015931
557.000000	60.986641
556.000000	60.990512
555.000000	60.948765
554.000000	60.904914
553.000000	60.830006
552.000000	60.764271
551.000000	60.615212
550.000000	60.497125
549.000000	60.310106
548.000000	60.108106
547.000000	59.869745
546.000000	59.557990
545.000000	59.231001
544.000000	58.935154
543.000000	58.582074
542.000000	58.182617
541.000000	57.789978
540.000000	57.340106
539.000000	56.894610
538.000000	56.438088
537.000000	55.933591
536.000000	55.383476
535.000000	54.805838
534.000000	54.212461
533.000000	53.534243
532.000000	52.850134
531.000000	52.128402
530.000000	51.357264
529.000000	50.573838
528.000000	49.756660
527.000000	48.938221
526.000000	48.110943
525.000000	47.248905
524.000000	46.399660
523.000000	45.531899
522.000000	44.650670
521.000000	43.792167
520.000000	42.935347
519.000000	42.110763
518.000000	41.280372
517.000000	40.472874
516.000000	39.642145
515.000000	38.841297
514.000000	38.046676
513.000000	37.269226
512.000000	36.490849
511.000000	35.716597
510.000000	34.988384
509.000000	34.261350
508.000000	33.541133
507.000000	32.857108
506.000000	32.198417
505.000000	31.539895
504.000000	30.912766
503.000000	30.283871
502.000000	29.684181
501.000000	29.107805
500.000000	28.558868
499.000000	28.022977
498.000000	27.510064
497.000000	27.022821
496.000000	26.565794
495.000000	26.107757
494.000000	25.655949
493.000000	25.219964
492.000000	24.812932
491.000000	24.408510
490.000000	23.995755
489.000000	23.606399
488.000000	23.220156
487.000000	22.864888
486.000000	22.495479
485.000000	22.140041
484.000000	21.805814
483.000000	21.465191
482.000000	21.141989
481.000000	20.828131
480.000000	20.521679
479.000000	20.222633
478.000000	19.936550
477.000000	19.675716
476.000000	19.407729
475.000000	19.147989
474.000000	18.905588
473.000000	18.655276
472.000000	18.408835
471.000000	18.162815
470.000000	17.925969
469.000000	17.678855
468.000000	17.402787
467.000000	17.137324
466.000000	16.894082
465.000000	16.639392
464.000000	16.364166
463.000000	16.095926
462.000000	15.840900
461.000000	15.597152
460.000000	15.332279
459.000000	15.063113
458.000000	14.831485
457.000000	14.607770
456.000000	14.379340
455.000000	14.157224
454.000000	13.939063
453.000000	13.732096
452.000000	13.550969
451.000000	13.379521
450.000000	13.208578
449.000000	13.041843
448.000000	12.889080
447.000000	12.751046
446.000000	12.632202
445.000000	12.512685
444.000000	12.386098
443.000000	12.296460
442.000000	12.224497
441.000000	12.152534
440.000000	12.082760
439.000000	12.020224
438.000000	11.971491
437.000000	11.924947
436.000000	11.883453
435.000000	11.855846
434.000000	11.820075
433.000000	11.783378
432.000000	11.741210
431.000000	11.710658
430.000000	11.683472
429.000000	11.644587
428.000000	11.612182
427.000000	11.572624
426.000000	11.528268
425.000000	11.489888
424.000000	11.434927
423.000000	11.390234
422.000000	11.334768
421.000000	11.279554
420.000000	11.244120
419.000000	11.198922
418.000000	11.142783
417.000000	11.081089
416.000000	11.006012
415.000000	10.921171
414.000000	10.846347
413.000000	10.768829
412.000000	10.665809
411.000000	10.562199
410.000000	10.479631
409.000000	10.404639
408.000000	10.311466
407.000000	10.177809
406.000000	10.058376
405.000000	9.940205
404.000000	9.805117
403.000000	9.686358
402.000000	9.558087
401.000000	9.413067
400.000000	9.283534
399.000000	9.146006
398.000000	8.997451
397.000000	8.835682
396.000000	8.699079
395.000000	8.543117
394.000000	8.376383
393.000000	8.218065
392.000000	8.072540
391.000000	7.903027
390.000000	7.731663
389.000000	7.581678
388.000000	7.435901
387.000000	7.288777
386.000000	7.148723
385.000000	7.005555
384.000000	6.855569
383.000000	6.709708
382.000000	6.591622
381.000000	6.473704
380.000000	6.343077
379.000000	6.225411
378.000000	6.126852
377.000000	6.017098
376.000000	5.871826
375.000000	5.573706
374.000000	5.481712
373.000000	5.423636
372.000000	5.352010
371.000000	5.350664
370.000000	5.301763
369.000000	5.363794
368.000000	5.280889
367.000000	5.189821
366.000000	5.083433
365.000000	5.170378
364.000000	5.201856
363.000000	5.004401
362.000000	5.016689
361.000000	5.034280
360.000000	4.969135
359.000000	4.893300
358.000000	4.986978
357.000000	4.904158
356.000000	4.910975
355.000000	4.945652
354.000000	4.956173
353.000000	4.825798
352.000000	4.851890
351.000000	4.871922
350.000000	4.839602
349.000000	4.812332
348.000000	4.807113
347.000000	4.839181
346.000000	4.852648
345.000000	4.909629
344.000000	4.727491
343.000000	4.840443
342.000000	4.730605
341.000000	4.833542
340.000000	4.751900
339.000000	4.715455
338.000000	4.774204
337.000000	4.911396
336.000000	4.944390
335.000000	4.891617
334.000000	4.975531
333.000000	4.961223
332.000000	4.995311
331.000000	4.995142
330.000000	4.853658
329.000000	4.846335
328.000000	4.952722
327.000000	4.954153
326.000000	4.831437
325.000000	4.909797
324.000000	4.923348
323.000000	5.089998
322.000000	5.163645
321.000000	5.017531
320.000000	5.232493
319.000000	4.963411
318.000000	5.058352
317.000000	5.745659
316.000000	4.791374
315.000000	4.728585
314.000000	4.754172
313.000000	4.721768
312.000000	4.685408
311.000000	4.720169
310.000000	4.739695
309.000000	4.691804
308.000000	4.733215
307.000000	4.751226
306.000000	4.769575
305.000000	4.761579
304.000000	4.779422
303.000000	4.791963
302.000000	4.816961
301.000000	4.822768
300.000000	4.769238
299.000000	4.798612
298.000000	4.753078
297.000000	4.827987
296.000000	4.858371
295.000000	4.816035
294.000000	4.830091
293.000000	4.867040
292.000000	4.819822
291.000000	4.877729
290.000000	4.887998
289.000000	4.864010
288.000000	4.851385
287.000000	4.878234
286.000000	4.827566
285.000000	4.842127
284.000000	4.837918
283.000000	4.816792
282.000000	4.862495
281.000000	4.914763
280.000000	4.916699
279.000000	4.951712
278.000000	4.904326
277.000000	4.924190
276.000000	4.940013
275.000000	4.939255
274.000000	5.016437
273.000000	4.948682
272.000000	4.958193
271.000000	5.021992
270.000000	5.013659
269.000000	5.007094
268.000000	5.043707
267.000000	5.104054
266.000000	5.062560
265.000000	5.104896
264.000000	5.145885
263.000000	5.187464
262.000000	5.141845
261.000000	5.209768
260.000000	5.256228
259.000000	5.276260
258.000000	5.255387
257.000000	5.277859
256.000000	5.286697
255.000000	5.302268
254.000000	5.322131
253.000000	5.337618
252.000000	5.374820
251.000000	5.387445
250.000000	5.411853
