PE UV       SUBTECH     SPECTRUM    ASCII       PEDS        4.00        
   -1
CICIMAUCR0012-1.Sample.ASC
24/04/11
15:46:55.00
24/04/11
15:46:55.00
Vinicio Soto Monge
C. cupreomarginata
250,000000
1
Lambda 1050
1050L1511233
PerkinElmer UV WinLab 6.3.2.0749 / 2.02.05 Lambda 900 UV/VIS/NIR, Aug  7 2015 09:38:08

0
0
3350/2 860,8/2
0
0
UV/VIS
1
1
1
DoubleDePol,CommonBeamDepol,RBeamAtt,SBeamAtt,60mm sphere, WB InGaAs Detector
0
0
0
0
Program
Program
3350/2 860,8/2
3350/0,2 860,8/0,2
3350/0,2 860,8/0,2
0
15.00
 
 
 
0
 
860,8
319,2
860,8
Front
100
on
S:100 R:100
0
0
0
0
 
0
 
 
 
0
 
 
0
0
0
0
0
 
 
 
 
0
0


0
0
#HDR
-1
-1
#GR
nm
%R
1.0
0.0
2400,000000
-1,000000
2151
8
43,719100
3,105100
#DATA
2400.000000	10.071600
2399.000000	10.777500
2398.000000	9.450600
2397.000000	8.923500
2396.000000	10.091100
2395.000000	10.790900
2394.000000	9.850500
2393.000000	9.578000
2392.000000	9.658500
2391.000000	10.800100
2390.000000	9.655800
2389.000000	9.780300
2388.000000	9.281900
2387.000000	10.466700
2386.000000	9.659900
2385.000000	10.078000
2384.000000	9.883900
2383.000000	10.234200
2382.000000	9.649500
2381.000000	9.495300
2380.000000	9.958000
2379.000000	9.660700
2378.000000	9.524900
2377.000000	8.935300
2376.000000	9.964600
2375.000000	9.473700
2374.000000	9.229800
2373.000000	9.316700
2372.000000	9.746900
2371.000000	10.077600
2370.000000	9.798200
2369.000000	9.704500
2368.000000	9.740100
2367.000000	9.760200
2366.000000	9.198600
2365.000000	10.048200
2364.000000	10.279400
2363.000000	8.502300
2362.000000	9.121500
2361.000000	8.851900
2360.000000	8.604800
2359.000000	9.323100
2358.000000	9.549000
2357.000000	8.788400
2356.000000	8.849800
2355.000000	9.533300
2354.000000	8.381500
2353.000000	8.386000
2352.000000	8.181300
2351.000000	8.248700
2350.000000	8.611000
2349.000000	9.037900
2348.000000	9.046400
2347.000000	8.735000
2346.000000	7.717400
2345.000000	8.686100
2344.000000	8.952100
2343.000000	8.887000
2342.000000	8.723700
2341.000000	8.720200
2340.000000	9.052100
2339.000000	8.770300
2338.000000	8.942300
2337.000000	8.483600
2336.000000	8.349000
2335.000000	8.696100
2334.000000	8.553200
2333.000000	8.769200
2332.000000	9.148600
2331.000000	8.907000
2330.000000	9.093700
2329.000000	8.392500
2328.000000	8.467000
2327.000000	8.455300
2326.000000	8.516800
2325.000000	8.615800
2324.000000	8.485900
2323.000000	8.712500
2322.000000	8.764500
2321.000000	8.175700
2320.000000	7.903700
2319.000000	7.783600
2318.000000	7.958100
2317.000000	8.051400
2316.000000	7.584200
2315.000000	7.448100
2314.000000	7.770900
2313.000000	7.680400
2312.000000	7.600200
2311.000000	8.063100
2310.000000	8.384700
2309.000000	7.907000
2308.000000	7.550400
2307.000000	7.766400
2306.000000	7.906700
2305.000000	7.863300
2304.000000	7.699700
2303.000000	7.948600
2302.000000	8.033500
2301.000000	7.730100
2300.000000	7.837400
2299.000000	7.557600
2298.000000	7.519500
2297.000000	8.064100
2296.000000	7.884500
2295.000000	7.738900
2294.000000	7.734400
2293.000000	7.540900
2292.000000	8.044800
2291.000000	8.273700
2290.000000	8.467900
2289.000000	7.998900
2288.000000	7.742800
2287.000000	7.865300
2286.000000	7.692200
2285.000000	7.486500
2284.000000	7.798700
2283.000000	7.898200
2282.000000	7.619400
2281.000000	8.041000
2280.000000	8.285100
2279.000000	7.919200
2278.000000	7.719700
2277.000000	7.811600
2276.000000	8.084100
2275.000000	7.866500
2274.000000	7.559500
2273.000000	7.555800
2272.000000	7.381600
2271.000000	7.543800
2270.000000	7.405300
2269.000000	7.570100
2268.000000	7.988700
2267.000000	7.644600
2266.000000	7.454700
2265.000000	7.682900
2264.000000	7.748600
2263.000000	7.796200
2262.000000	7.851200
2261.000000	7.928800
2260.000000	8.116000
2259.000000	8.287500
2258.000000	8.230800
2257.000000	8.294700
2256.000000	8.644100
2255.000000	8.604800
2254.000000	8.637700
2253.000000	8.755200
2252.000000	8.809200
2251.000000	8.976400
2250.000000	9.051800
2249.000000	9.328100
2248.000000	9.453100
2247.000000	9.252600
2246.000000	9.274300
2245.000000	9.324600
2244.000000	9.633100
2243.000000	9.809800
2242.000000	9.790100
2241.000000	9.665200
2240.000000	9.587200
2239.000000	9.686300
2238.000000	10.137100
2237.000000	10.233700
2236.000000	10.104800
2235.000000	10.106700
2234.000000	10.106500
2233.000000	10.482000
2232.000000	10.506700
2231.000000	10.305300
2230.000000	10.191300
2229.000000	9.867500
2228.000000	9.857800
2227.000000	10.011100
2226.000000	10.023400
2225.000000	9.972300
2224.000000	10.341400
2223.000000	10.246800
2222.000000	10.246400
2221.000000	10.309700
2220.000000	10.079300
2219.000000	10.055400
2218.000000	9.949200
2217.000000	9.868300
2216.000000	9.895500
2215.000000	10.087600
2214.000000	9.809400
2213.000000	9.834900
2212.000000	10.191600
2211.000000	10.323100
2210.000000	9.845700
2209.000000	9.871600
2208.000000	10.192300
2207.000000	10.605300
2206.000000	9.974800
2205.000000	9.855600
2204.000000	10.077900
2203.000000	9.820300
2202.000000	9.952100
2201.000000	10.098100
2200.000000	9.849300
2199.000000	10.061200
2198.000000	10.094500
2197.000000	9.838600
2196.000000	9.793000
2195.000000	10.223300
2194.000000	9.967400
2193.000000	9.876300
2192.000000	9.851500
2191.000000	10.064300
2190.000000	9.576900
2189.000000	9.765700
2188.000000	9.878200
2187.000000	10.016600
2186.000000	9.775400
2185.000000	9.618700
2184.000000	9.883700
2183.000000	10.044600
2182.000000	10.017500
2181.000000	10.089900
2180.000000	9.941300
2179.000000	9.455800
2178.000000	9.479900
2177.000000	9.737100
2176.000000	9.706500
2175.000000	9.898500
2174.000000	9.825200
2173.000000	9.683000
2172.000000	10.121000
2171.000000	9.699500
2170.000000	10.047300
2169.000000	10.260700
2168.000000	10.173100
2167.000000	9.836100
2166.000000	9.962300
2165.000000	9.628800
2164.000000	9.499700
2163.000000	10.039300
2162.000000	9.730700
2161.000000	10.045800
2160.000000	9.967000
2159.000000	9.128600
2158.000000	9.450800
2157.000000	9.595800
2156.000000	10.115200
2155.000000	9.932200
2154.000000	10.092100
2153.000000	9.893900
2152.000000	9.606900
2151.000000	9.712600
2150.000000	9.830500
2149.000000	9.860200
2148.000000	9.992700
2147.000000	10.283400
2146.000000	10.193900
2145.000000	10.072300
2144.000000	10.078900
2143.000000	10.212800
2142.000000	10.028400
2141.000000	9.822300
2140.000000	10.083000
2139.000000	10.519800
2138.000000	10.363800
2137.000000	9.877700
2136.000000	9.737700
2135.000000	9.845000
2134.000000	9.818300
2133.000000	10.075200
2132.000000	10.204500
2131.000000	10.052400
2130.000000	9.851000
2129.000000	10.351600
2128.000000	9.945800
2127.000000	9.720100
2126.000000	9.762200
2125.000000	9.689800
2124.000000	10.123800
2123.000000	9.833600
2122.000000	9.876200
2121.000000	9.615500
2120.000000	9.508200
2119.000000	9.623800
2118.000000	9.348300
2117.000000	9.577700
2116.000000	9.707000
2115.000000	9.817700
2114.000000	9.699400
2113.000000	9.604800
2112.000000	9.774900
2111.000000	9.561100
2110.000000	9.749000
2109.000000	9.362000
2108.000000	9.580100
2107.000000	9.494300
2106.000000	9.580300
2105.000000	9.523100
2104.000000	9.573300
2103.000000	9.733400
2102.000000	9.452200
2101.000000	9.322200
2100.000000	9.049700
2099.000000	9.202200
2098.000000	9.142800
2097.000000	9.018100
2096.000000	9.194000
2095.000000	9.234600
2094.000000	8.754600
2093.000000	9.290000
2092.000000	9.107200
2091.000000	9.043600
2090.000000	9.371400
2089.000000	9.249700
2088.000000	9.309200
2087.000000	9.141200
2086.000000	9.043100
2085.000000	9.228100
2084.000000	9.203900
2083.000000	9.214500
2082.000000	9.177600
2081.000000	9.100100
2080.000000	9.253900
2079.000000	9.047400
2078.000000	9.080300
2077.000000	8.979600
2076.000000	8.918000
2075.000000	9.187500
2074.000000	9.211000
2073.000000	9.044100
2072.000000	8.990700
2071.000000	9.154300
2070.000000	8.901000
2069.000000	9.088000
2068.000000	9.187500
2067.000000	9.082100
2066.000000	9.051800
2065.000000	9.048600
2064.000000	8.962900
2063.000000	9.052400
2062.000000	8.987400
2061.000000	8.957800
2060.000000	9.004400
2059.000000	9.141100
2058.000000	8.883600
2057.000000	8.838500
2056.000000	8.918800
2055.000000	8.929900
2054.000000	9.087000
2053.000000	9.012600
2052.000000	8.756300
2051.000000	9.079400
2050.000000	9.277300
2049.000000	9.221800
2048.000000	9.073500
2047.000000	9.078400
2046.000000	9.048200
2045.000000	9.354300
2044.000000	9.446900
2043.000000	9.296600
2042.000000	9.352000
2041.000000	9.601300
2040.000000	9.680100
2039.000000	9.743100
2038.000000	9.781900
2037.000000	9.850200
2036.000000	9.961300
2035.000000	9.939900
2034.000000	9.991800
2033.000000	10.021900
2032.000000	10.054300
2031.000000	10.058200
2030.000000	10.110900
2029.000000	10.191200
2028.000000	10.354300
2027.000000	10.364100
2026.000000	10.319200
2025.000000	10.310600
2024.000000	10.245100
2023.000000	10.325600
2022.000000	10.429600
2021.000000	10.384500
2020.000000	10.408300
2019.000000	10.508600
2018.000000	10.523700
2017.000000	10.579300
2016.000000	10.541900
2015.000000	10.500500
2014.000000	10.424200
2013.000000	10.553800
2012.000000	10.602100
2011.000000	10.546900
2010.000000	10.564200
2009.000000	10.531300
2008.000000	10.519900
2007.000000	10.556200
2006.000000	10.518300
2005.000000	10.486900
2004.000000	10.592300
2003.000000	10.537100
2002.000000	10.499400
2001.000000	10.454100
2000.000000	10.401600
1999.000000	10.395900
1998.000000	10.406600
1997.000000	10.433700
1996.000000	10.417400
1995.000000	10.329000
1994.000000	10.290200
1993.000000	10.242300
1992.000000	10.150200
1991.000000	10.188300
1990.000000	10.255400
1989.000000	10.267100
1988.000000	10.171400
1987.000000	10.108600
1986.000000	10.078200
1985.000000	10.122700
1984.000000	10.062500
1983.000000	9.922700
1982.000000	9.893200
1981.000000	9.874200
1980.000000	9.907700
1979.000000	9.801700
1978.000000	9.708600
1977.000000	9.749500
1976.000000	9.754000
1975.000000	9.650300
1974.000000	9.606200
1973.000000	9.568800
1972.000000	9.525300
1971.000000	9.473000
1970.000000	9.496100
1969.000000	9.495600
1968.000000	9.427000
1967.000000	9.339400
1966.000000	9.317500
1965.000000	9.281400
1964.000000	9.260500
1963.000000	9.230300
1962.000000	9.277900
1961.000000	9.205400
1960.000000	9.162800
1959.000000	9.104000
1958.000000	9.045100
1957.000000	9.070700
1956.000000	9.036200
1955.000000	9.044900
1954.000000	9.024000
1953.000000	8.927800
1952.000000	8.917200
1951.000000	8.916800
1950.000000	8.887500
1949.000000	8.793100
1948.000000	8.808800
1947.000000	8.824200
1946.000000	8.807900
1945.000000	8.670500
1944.000000	8.729800
1943.000000	8.706900
1942.000000	8.668500
1941.000000	8.729200
1940.000000	8.790800
1939.000000	8.796200
1938.000000	8.734100
1937.000000	8.718900
1936.000000	8.644500
1935.000000	8.708600
1934.000000	8.735600
1933.000000	8.682800
1932.000000	8.779100
1931.000000	8.925100
1930.000000	8.870300
1929.000000	8.889200
1928.000000	8.834200
1927.000000	9.000800
1926.000000	8.962400
1925.000000	8.961900
1924.000000	8.993700
1923.000000	9.039500
1922.000000	9.126400
1921.000000	9.386100
1920.000000	9.540800
1919.000000	9.372100
1918.000000	9.510200
1917.000000	9.536800
1916.000000	9.642500
1915.000000	9.645300
1914.000000	9.912500
1913.000000	10.099700
1912.000000	10.143400
1911.000000	10.167800
1910.000000	10.279400
1909.000000	10.357400
1908.000000	10.492300
1907.000000	10.561100
1906.000000	10.862400
1905.000000	11.126400
1904.000000	11.091800
1903.000000	11.214200
1902.000000	11.326100
1901.000000	11.603400
1900.000000	11.746400
1899.000000	12.054700
1898.000000	12.056400
1897.000000	12.119300
1896.000000	12.258400
1895.000000	12.420700
1894.000000	12.756000
1893.000000	12.932200
1892.000000	13.186100
1891.000000	13.137100
1890.000000	13.472300
1889.000000	13.716700
1888.000000	13.897100
1887.000000	14.031600
1886.000000	14.447100
1885.000000	14.531100
1884.000000	14.891700
1883.000000	15.380900
1882.000000	15.507800
1881.000000	15.983400
1880.000000	16.311600
1879.000000	16.617200
1878.000000	16.874500
1877.000000	17.279000
1876.000000	17.626900
1875.000000	17.805300
1874.000000	18.049500
1873.000000	18.469700
1872.000000	18.623800
1871.000000	18.988200
1870.000000	19.065000
1869.000000	19.216100
1868.000000	19.178200
1867.000000	19.449900
1866.000000	19.397000
1865.000000	19.456200
1864.000000	19.682300
1863.000000	19.656400
1862.000000	19.668800
1861.000000	19.793300
1860.000000	19.987100
1859.000000	19.948800
1858.000000	19.813100
1857.000000	19.869300
1856.000000	19.953700
1855.000000	19.844700
1854.000000	19.908600
1853.000000	19.949000
1852.000000	19.770100
1851.000000	19.728900
1850.000000	19.721600
1849.000000	19.660100
1848.000000	19.868700
1847.000000	19.822900
1846.000000	19.631100
1845.000000	19.372800
1844.000000	19.414800
1843.000000	19.433200
1842.000000	19.468500
1841.000000	19.420100
1840.000000	19.326900
1839.000000	19.313900
1838.000000	19.280400
1837.000000	19.345100
1836.000000	19.317000
1835.000000	19.160500
1834.000000	19.043900
1833.000000	18.989200
1832.000000	18.951400
1831.000000	18.910600
1830.000000	18.916700
1829.000000	18.767800
1828.000000	18.733400
1827.000000	18.663600
1826.000000	18.708400
1825.000000	18.533200
1824.000000	18.447200
1823.000000	18.438500
1822.000000	18.441800
1821.000000	18.447100
1820.000000	18.456300
1819.000000	18.294100
1818.000000	18.221600
1817.000000	18.282800
1816.000000	18.237000
1815.000000	18.326700
1814.000000	18.226200
1813.000000	18.199200
1812.000000	18.270300
1811.000000	18.200000
1810.000000	18.174300
1809.000000	18.141900
1808.000000	18.094300
1807.000000	18.068700
1806.000000	18.070900
1805.000000	18.009200
1804.000000	17.928900
1803.000000	17.876600
1802.000000	17.863900
1801.000000	17.835700
1800.000000	17.797400
1799.000000	17.712500
1798.000000	17.656000
1797.000000	17.608100
1796.000000	17.600800
1795.000000	17.542600
1794.000000	17.496700
1793.000000	17.491200
1792.000000	17.434600
1791.000000	17.375600
1790.000000	17.335800
1789.000000	17.260400
1788.000000	17.250400
1787.000000	17.204000
1786.000000	17.137700
1785.000000	17.067200
1784.000000	17.034800
1783.000000	17.011100
1782.000000	16.870400
1781.000000	16.839400
1780.000000	16.809300
1779.000000	16.710400
1778.000000	16.669600
1777.000000	16.546800
1776.000000	16.466300
1775.000000	16.408300
1774.000000	16.346300
1773.000000	16.268000
1772.000000	16.146300
1771.000000	15.978900
1770.000000	15.906200
1769.000000	15.846900
1768.000000	15.760200
1767.000000	15.674100
1766.000000	15.625700
1765.000000	15.549000
1764.000000	15.518900
1763.000000	15.512700
1762.000000	15.511900
1761.000000	15.550200
1760.000000	15.626700
1759.000000	15.671700
1758.000000	15.713200
1757.000000	15.769400
1756.000000	15.822200
1755.000000	15.851500
1754.000000	15.849300
1753.000000	15.876500
1752.000000	15.884500
1751.000000	15.865100
1750.000000	15.828500
1749.000000	15.792400
1748.000000	15.753000
1747.000000	15.703100
1746.000000	15.621600
1745.000000	15.513100
1744.000000	15.398900
1743.000000	15.274200
1742.000000	15.133000
1741.000000	14.950100
1740.000000	14.782900
1739.000000	14.614100
1738.000000	14.432000
1737.000000	14.288700
1736.000000	14.184400
1735.000000	14.142400
1734.000000	14.078500
1733.000000	14.034100
1732.000000	14.073300
1731.000000	14.127800
1730.000000	14.213800
1729.000000	14.289700
1728.000000	14.381900
1727.000000	14.466500
1726.000000	14.515100
1725.000000	14.605700
1724.000000	14.667200
1723.000000	14.685900
1722.000000	14.671400
1721.000000	14.657200
1720.000000	14.685500
1719.000000	14.709000
1718.000000	14.729900
1717.000000	14.731800
1716.000000	14.738700
1715.000000	14.815700
1714.000000	14.908100
1713.000000	14.935400
1712.000000	14.949400
1711.000000	14.950600
1710.000000	14.969300
1709.000000	14.952600
1708.000000	14.968600
1707.000000	14.949700
1706.000000	14.922600
1705.000000	14.894600
1704.000000	14.863400
1703.000000	14.816800
1702.000000	14.708900
1701.000000	14.663200
1700.000000	14.541900
1699.000000	14.412500
1698.000000	14.309700
1697.000000	14.186900
1696.000000	14.149400
1695.000000	14.150500
1694.000000	14.181700
1693.000000	14.278400
1692.000000	14.377500
1691.000000	14.506200
1690.000000	14.618700
1689.000000	14.717700
1688.000000	14.757500
1687.000000	14.794700
1686.000000	14.788600
1685.000000	14.769500
1684.000000	14.809600
1683.000000	14.930000
1682.000000	15.158000
1681.000000	15.493200
1680.000000	15.861600
1679.000000	16.271500
1678.000000	16.703400
1677.000000	17.080600
1676.000000	17.457400
1675.000000	17.803900
1674.000000	18.070500
1673.000000	18.325800
1672.000000	18.468000
1671.000000	18.673000
1670.000000	18.831300
1669.000000	18.969800
1668.000000	19.072400
1667.000000	19.207200
1666.000000	19.302200
1665.000000	19.375400
1664.000000	19.426900
1663.000000	19.494600
1662.000000	19.508100
1661.000000	19.559300
1660.000000	19.625600
1659.000000	19.656100
1658.000000	19.694900
1657.000000	19.660200
1656.000000	19.662700
1655.000000	19.663800
1654.000000	19.681000
1653.000000	19.661400
1652.000000	19.633000
1651.000000	19.625700
1650.000000	19.588800
1649.000000	19.567900
1648.000000	19.531700
1647.000000	19.476000
1646.000000	19.433500
1645.000000	19.382800
1644.000000	19.328000
1643.000000	19.310200
1642.000000	19.258000
1641.000000	19.236100
1640.000000	19.159300
1639.000000	19.104200
1638.000000	19.087500
1637.000000	18.981600
1636.000000	18.905700
1635.000000	18.866100
1634.000000	18.822500
1633.000000	18.741500
1632.000000	18.711500
1631.000000	18.686700
1630.000000	18.581400
1629.000000	18.475400
1628.000000	18.415000
1627.000000	18.353900
1626.000000	18.266100
1625.000000	18.223500
1624.000000	18.148300
1623.000000	18.082400
1622.000000	18.018500
1621.000000	17.941300
1620.000000	17.906600
1619.000000	17.788300
1618.000000	17.790600
1617.000000	17.667100
1616.000000	17.608200
1615.000000	17.565800
1614.000000	17.479600
1613.000000	17.441800
1612.000000	17.342000
1611.000000	17.275800
1610.000000	17.255100
1609.000000	17.171800
1608.000000	17.152500
1607.000000	17.054500
1606.000000	17.039700
1605.000000	16.987200
1604.000000	16.893600
1603.000000	16.850500
1602.000000	16.786600
1601.000000	16.753500
1600.000000	16.638800
1599.000000	16.639800
1598.000000	16.542600
1597.000000	16.474500
1596.000000	16.449000
1595.000000	16.410600
1594.000000	16.413900
1593.000000	16.341600
1592.000000	16.331300
1591.000000	16.291000
1590.000000	16.224000
1589.000000	16.202500
1588.000000	16.163800
1587.000000	16.114400
1586.000000	16.091400
1585.000000	16.065100
1584.000000	16.071000
1583.000000	16.036200
1582.000000	16.029500
1581.000000	16.004400
1580.000000	15.967700
1579.000000	15.964300
1578.000000	15.969500
1577.000000	15.975600
1576.000000	15.981200
1575.000000	15.972500
1574.000000	15.937400
1573.000000	15.964800
1572.000000	15.972500
1571.000000	15.981800
1570.000000	15.983200
1569.000000	16.010700
1568.000000	16.003300
1567.000000	16.036900
1566.000000	16.059900
1565.000000	16.059100
1564.000000	16.077200
1563.000000	16.096300
1562.000000	16.110700
1561.000000	16.121600
1560.000000	16.106700
1559.000000	16.124100
1558.000000	16.133500
1557.000000	16.163700
1556.000000	16.158400
1555.000000	16.127300
1554.000000	16.126100
1553.000000	16.135800
1552.000000	16.147600
1551.000000	16.127900
1550.000000	16.115600
1549.000000	16.131300
1548.000000	16.079300
1547.000000	16.094600
1546.000000	16.066000
1545.000000	16.049500
1544.000000	16.055200
1543.000000	16.051200
1542.000000	16.069400
1541.000000	16.053600
1540.000000	16.066500
1539.000000	16.035700
1538.000000	16.049900
1537.000000	16.050900
1536.000000	16.050300
1535.000000	15.999700
1534.000000	15.990600
1533.000000	16.015000
1532.000000	15.977500
1531.000000	15.965400
1530.000000	15.939700
1529.000000	15.939300
1528.000000	15.901800
1527.000000	15.865000
1526.000000	15.843300
1525.000000	15.817600
1524.000000	15.807600
1523.000000	15.783300
1522.000000	15.767500
1521.000000	15.747200
1520.000000	15.709900
1519.000000	15.676300
1518.000000	15.646300
1517.000000	15.616100
1516.000000	15.592200
1515.000000	15.571900
1514.000000	15.554900
1513.000000	15.520300
1512.000000	15.497900
1511.000000	15.451100
1510.000000	15.428900
1509.000000	15.409800
1508.000000	15.365700
1507.000000	15.357200
1506.000000	15.330300
1505.000000	15.286500
1504.000000	15.268700
1503.000000	15.250500
1502.000000	15.219500
1501.000000	15.198400
1500.000000	15.155900
1499.000000	15.133400
1498.000000	15.127200
1497.000000	15.115800
1496.000000	15.097700
1495.000000	15.088100
1494.000000	15.085700
1493.000000	15.066100
1492.000000	15.069500
1491.000000	15.070600
1490.000000	15.059700
1489.000000	15.086800
1488.000000	15.072600
1487.000000	15.042300
1486.000000	15.059300
1485.000000	15.067400
1484.000000	15.056000
1483.000000	15.059100
1482.000000	15.055200
1481.000000	15.063600
1480.000000	15.089400
1479.000000	15.117700
1478.000000	15.114900
1477.000000	15.119400
1476.000000	15.157300
1475.000000	15.171400
1474.000000	15.182100
1473.000000	15.207700
1472.000000	15.240900
1471.000000	15.289400
1470.000000	15.326200
1469.000000	15.362100
1468.000000	15.445700
1467.000000	15.550500
1466.000000	15.604700
1465.000000	15.625700
1464.000000	15.662700
1463.000000	15.708400
1462.000000	15.754800
1461.000000	15.795600
1460.000000	15.861200
1459.000000	15.922300
1458.000000	15.962100
1457.000000	16.008200
1456.000000	16.082500
1455.000000	16.164500
1454.000000	16.221800
1453.000000	16.280500
1452.000000	16.346800
1451.000000	16.451000
1450.000000	16.551400
1449.000000	16.613500
1448.000000	16.666600
1447.000000	16.735800
1446.000000	16.861500
1445.000000	16.955400
1444.000000	17.015300
1443.000000	17.113800
1442.000000	17.211500
1441.000000	17.300200
1440.000000	17.399700
1439.000000	17.513400
1438.000000	17.632600
1437.000000	17.732700
1436.000000	17.803400
1435.000000	17.917400
1434.000000	18.018600
1433.000000	18.144000
1432.000000	18.277300
1431.000000	18.364400
1430.000000	18.481300
1429.000000	18.623600
1428.000000	18.756700
1427.000000	18.904800
1426.000000	19.085300
1425.000000	19.258800
1424.000000	19.414500
1423.000000	19.616200
1422.000000	19.761900
1421.000000	19.947000
1420.000000	20.154900
1419.000000	20.370600
1418.000000	20.551700
1417.000000	20.712600
1416.000000	20.876800
1415.000000	21.085600
1414.000000	21.345300
1413.000000	21.499500
1412.000000	21.648600
1411.000000	21.863600
1410.000000	22.138800
1409.000000	22.401700
1408.000000	22.638100
1407.000000	22.963500
1406.000000	23.253800
1405.000000	23.572200
1404.000000	23.895100
1403.000000	24.125000
1402.000000	24.382800
1401.000000	24.753500
1400.000000	25.090800
1399.000000	25.288900
1398.000000	25.458500
1397.000000	25.652700
1396.000000	25.906500
1395.000000	26.154800
1394.000000	26.240700
1393.000000	26.371400
1392.000000	26.605700
1391.000000	26.761700
1390.000000	26.899000
1389.000000	27.124200
1388.000000	27.474200
1387.000000	27.751600
1386.000000	27.941400
1385.000000	28.351000
1384.000000	28.664000
1383.000000	29.025400
1382.000000	29.358000
1381.000000	29.544100
1380.000000	29.715400
1379.000000	29.798300
1378.000000	29.863300
1377.000000	29.991800
1376.000000	30.089800
1375.000000	30.256500
1374.000000	30.436700
1373.000000	30.679200
1372.000000	30.974700
1371.000000	31.258200
1370.000000	31.508700
1369.000000	31.699200
1368.000000	32.014000
1367.000000	32.255900
1366.000000	32.341500
1365.000000	32.527200
1364.000000	32.753300
1363.000000	32.775400
1362.000000	33.019500
1361.000000	33.200600
1360.000000	33.115800
1359.000000	33.169200
1358.000000	33.242300
1357.000000	33.361500
1356.000000	33.565800
1355.000000	33.854800
1354.000000	34.225700
1353.000000	34.586400
1352.000000	34.946700
1351.000000	35.365900
1350.000000	35.769100
1349.000000	36.047900
1348.000000	36.395500
1347.000000	36.719900
1346.000000	36.933400
1345.000000	37.206600
1344.000000	37.450900
1343.000000	37.690700
1342.000000	37.883100
1341.000000	38.119300
1340.000000	38.319100
1339.000000	38.518200
1338.000000	38.727900
1337.000000	38.923300
1336.000000	39.073700
1335.000000	39.194800
1334.000000	39.380100
1333.000000	39.497900
1332.000000	39.648800
1331.000000	39.777000
1330.000000	39.920000
1329.000000	40.032500
1328.000000	40.177800
1327.000000	40.240400
1326.000000	40.365900
1325.000000	40.460200
1324.000000	40.535300
1323.000000	40.641900
1322.000000	40.692800
1321.000000	40.772000
1320.000000	40.854300
1319.000000	40.938700
1318.000000	40.990200
1317.000000	41.063900
1316.000000	41.131700
1315.000000	41.192600
1314.000000	41.254000
1313.000000	41.278600
1312.000000	41.337400
1311.000000	41.385000
1310.000000	41.427700
1309.000000	41.491400
1308.000000	41.517200
1307.000000	41.533500
1306.000000	41.569500
1305.000000	41.547400
1304.000000	41.561600
1303.000000	41.591700
1302.000000	41.595500
1301.000000	41.602000
1300.000000	41.596900
1299.000000	41.584200
1298.000000	41.609400
1297.000000	41.625300
1296.000000	41.621700
1295.000000	41.621800
1294.000000	41.593700
1293.000000	41.577500
1292.000000	41.573900
1291.000000	41.558300
1290.000000	41.526600
1289.000000	41.525400
1288.000000	41.518200
1287.000000	41.472000
1286.000000	41.406800
1285.000000	41.345700
1284.000000	41.305300
1283.000000	41.263900
1282.000000	41.218500
1281.000000	41.184500
1280.000000	41.131100
1279.000000	41.071500
1278.000000	41.037100
1277.000000	40.999500
1276.000000	40.938900
1275.000000	40.885400
1274.000000	40.857100
1273.000000	40.844200
1272.000000	40.811800
1271.000000	40.785500
1270.000000	40.751500
1269.000000	40.707000
1268.000000	40.655600
1267.000000	40.617500
1266.000000	40.592800
1265.000000	40.547300
1264.000000	40.521400
1263.000000	40.476000
1262.000000	40.459700
1261.000000	40.418600
1260.000000	40.363000
1259.000000	40.332200
1258.000000	40.311700
1257.000000	40.285600
1256.000000	40.230000
1255.000000	40.185000
1254.000000	40.135100
1253.000000	40.088100
1252.000000	40.042400
1251.000000	39.989900
1250.000000	39.913100
1249.000000	39.851600
1248.000000	39.784200
1247.000000	39.719800
1246.000000	39.654400
1245.000000	39.573300
1244.000000	39.478400
1243.000000	39.376500
1242.000000	39.262300
1241.000000	39.173900
1240.000000	39.082400
1239.000000	38.983600
1238.000000	38.856200
1237.000000	38.712300
1236.000000	38.601300
1235.000000	38.487800
1234.000000	38.361800
1233.000000	38.236100
1232.000000	38.110500
1231.000000	37.986000
1230.000000	37.856000
1229.000000	37.713500
1228.000000	37.563600
1227.000000	37.430700
1226.000000	37.286900
1225.000000	37.143900
1224.000000	36.999400
1223.000000	36.852400
1222.000000	36.695000
1221.000000	36.553200
1220.000000	36.420400
1219.000000	36.283800
1218.000000	36.169000
1217.000000	36.056200
1216.000000	35.937300
1215.000000	35.825600
1214.000000	35.731600
1213.000000	35.664400
1212.000000	35.577400
1211.000000	35.487000
1210.000000	35.387600
1209.000000	35.304100
1208.000000	35.242400
1207.000000	35.175000
1206.000000	35.140500
1205.000000	35.104500
1204.000000	35.069800
1203.000000	35.055000
1202.000000	35.035600
1201.000000	35.004100
1200.000000	34.968200
1199.000000	34.932200
1198.000000	34.873500
1197.000000	34.793300
1196.000000	34.688700
1195.000000	34.520500
1194.000000	34.289600
1193.000000	34.025000
1192.000000	33.713100
1191.000000	33.363300
1190.000000	33.024300
1189.000000	32.732500
1188.000000	32.495800
1187.000000	32.323900
1186.000000	32.264900
1185.000000	32.319000
1184.000000	32.459700
1183.000000	32.688500
1182.000000	33.026900
1181.000000	33.407000
1180.000000	33.781500
1179.000000	34.127000
1178.000000	34.465400
1177.000000	34.746400
1176.000000	34.989800
1175.000000	35.202400
1174.000000	35.406000
1173.000000	35.633900
1172.000000	35.858300
1171.000000	36.097300
1170.000000	36.327800
1169.000000	36.534800
1168.000000	36.781500
1167.000000	37.044800
1166.000000	37.309800
1165.000000	37.556500
1164.000000	37.774700
1163.000000	38.037800
1162.000000	38.298900
1161.000000	38.529100
1160.000000	38.781200
1159.000000	38.990500
1158.000000	39.219200
1157.000000	39.444400
1156.000000	39.626500
1155.000000	39.769800
1154.000000	39.886100
1153.000000	39.950500
1152.000000	39.966500
1151.000000	39.991600
1150.000000	39.993600
1149.000000	40.026800
1148.000000	40.009400
1147.000000	40.012700
1146.000000	40.104700
1145.000000	40.231100
1144.000000	40.394200
1143.000000	40.565300
1142.000000	40.743400
1141.000000	40.972200
1140.000000	41.196200
1139.000000	41.386900
1138.000000	41.582600
1137.000000	41.810200
1136.000000	42.042300
1135.000000	42.339900
1134.000000	42.572700
1133.000000	42.747900
1132.000000	42.931300
1131.000000	43.076000
1130.000000	43.203200
1129.000000	43.345900
1128.000000	43.459800
1127.000000	43.494800
1126.000000	43.537300
1125.000000	43.626000
1124.000000	43.669100
1123.000000	43.703700
1122.000000	43.719100
1121.000000	43.693800
1120.000000	43.712200
1119.000000	43.704500
1118.000000	43.699600
1117.000000	43.716900
1116.000000	43.695100
1115.000000	43.663600
1114.000000	43.642100
1113.000000	43.642800
1112.000000	43.595800
1111.000000	43.582700
1110.000000	43.551200
1109.000000	43.565200
1108.000000	43.541800
1107.000000	43.502500
1106.000000	43.449100
1105.000000	43.416200
1104.000000	43.379000
1103.000000	43.375200
1102.000000	43.361700
1101.000000	43.319300
1100.000000	43.279400
1099.000000	43.244400
1098.000000	43.230700
1097.000000	43.204600
1096.000000	43.128900
1095.000000	43.084200
1094.000000	43.044500
1093.000000	42.990300
1092.000000	43.000000
1091.000000	42.958200
1090.000000	42.888100
1089.000000	42.900000
1088.000000	42.840700
1087.000000	42.774900
1086.000000	42.707500
1085.000000	42.702600
1084.000000	42.575900
1083.000000	42.579400
1082.000000	42.525400
1081.000000	42.543900
1080.000000	42.468000
1079.000000	42.431100
1078.000000	42.348600
1077.000000	42.288500
1076.000000	42.167400
1075.000000	42.211300
1074.000000	42.126400
1073.000000	42.032000
1072.000000	41.994000
1071.000000	41.925400
1070.000000	41.931200
1069.000000	41.868000
1068.000000	41.870000
1067.000000	41.781400
1066.000000	41.717900
1065.000000	41.641500
1064.000000	41.576900
1063.000000	41.592800
1062.000000	41.545000
1061.000000	41.459400
1060.000000	41.461100
1059.000000	41.385200
1058.000000	41.326600
1057.000000	41.283300
1056.000000	41.195700
1055.000000	41.194400
1054.000000	41.133000
1053.000000	41.053700
1052.000000	41.008700
1051.000000	41.025900
1050.000000	40.932300
1049.000000	40.890600
1048.000000	40.839100
1047.000000	40.810600
1046.000000	40.809000
1045.000000	40.746900
1044.000000	40.698700
1043.000000	40.614800
1042.000000	40.554300
1041.000000	40.563800
1040.000000	40.562400
1039.000000	40.483800
1038.000000	40.442700
1037.000000	40.398000
1036.000000	40.349300
1035.000000	40.299400
1034.000000	40.251500
1033.000000	40.194900
1032.000000	40.145400
1031.000000	40.082200
1030.000000	39.972700
1029.000000	39.937700
1028.000000	39.889400
1027.000000	39.845400
1026.000000	39.799700
1025.000000	39.736700
1024.000000	39.711000
1023.000000	39.598900
1022.000000	39.497600
1021.000000	39.444100
1020.000000	39.410200
1019.000000	39.354700
1018.000000	39.311400
1017.000000	39.303300
1016.000000	39.292500
1015.000000	39.199900
1014.000000	39.101700
1013.000000	39.052900
1012.000000	39.030000
1011.000000	38.974100
1010.000000	38.900100
1009.000000	38.817200
1008.000000	38.769300
1007.000000	38.771800
1006.000000	38.796400
1005.000000	38.694100
1004.000000	38.694100
1003.000000	38.555300
1002.000000	38.552800
1001.000000	38.561300
1000.000000	38.513100
999.000000	38.490800
998.000000	38.422000
997.000000	38.372500
996.000000	38.350900
995.000000	38.302100
994.000000	38.323600
993.000000	38.226900
992.000000	38.183000
991.000000	38.129200
990.000000	38.114600
989.000000	38.036600
988.000000	38.007400
987.000000	37.909600
986.000000	37.919100
985.000000	37.897900
984.000000	37.860700
983.000000	37.826200
982.000000	37.830300
981.000000	37.816300
980.000000	37.762300
979.000000	37.660500
978.000000	37.710500
977.000000	37.682300
976.000000	37.594800
975.000000	37.550400
974.000000	37.511200
973.000000	37.469500
972.000000	37.342800
971.000000	37.316400
970.000000	37.275600
969.000000	37.206000
968.000000	37.212800
967.000000	37.204900
966.000000	37.104800
965.000000	37.052300
964.000000	37.028700
963.000000	37.034000
962.000000	37.002700
961.000000	36.994200
960.000000	36.989300
959.000000	36.844800
958.000000	36.839500
957.000000	36.833700
956.000000	36.823000
955.000000	36.782500
954.000000	36.681700
953.000000	36.683300
952.000000	36.674100
951.000000	36.542500
950.000000	36.455800
949.000000	36.369600
948.000000	36.333400
947.000000	36.345600
946.000000	36.305900
945.000000	36.236600
944.000000	36.126600
943.000000	36.083000
942.000000	36.100300
941.000000	35.999100
940.000000	35.867200
939.000000	35.786300
938.000000	35.804700
937.000000	35.847900
936.000000	35.821700
935.000000	35.803300
934.000000	35.680400
933.000000	35.604300
932.000000	35.627800
931.000000	35.496100
930.000000	35.359400
929.000000	35.327500
928.000000	35.284900
927.000000	35.206300
926.000000	35.208200
925.000000	35.075700
924.000000	35.093500
923.000000	35.166300
922.000000	34.931600
921.000000	34.870500
920.000000	34.993200
919.000000	34.937500
918.000000	34.780900
917.000000	34.712800
916.000000	34.556800
915.000000	34.572200
914.000000	34.650000
913.000000	34.418900
912.000000	34.390600
911.000000	34.436300
910.000000	34.387500
909.000000	34.205900
908.000000	33.936200
907.000000	34.041800
906.000000	34.043900
905.000000	34.114200
904.000000	34.031900
903.000000	34.018600
902.000000	34.079500
901.000000	34.016300
900.000000	34.234500
899.000000	34.411200
898.000000	34.070800
897.000000	34.060300
896.000000	33.918500
895.000000	34.197600
894.000000	34.242000
893.000000	34.144900
892.000000	34.089600
891.000000	34.003300
890.000000	34.019000
889.000000	34.253100
888.000000	34.313700
887.000000	34.186300
886.000000	33.878400
885.000000	33.862000
884.000000	33.722600
883.000000	33.731300
882.000000	34.020700
881.000000	33.803400
880.000000	34.136800
879.000000	33.788200
878.000000	33.591200
877.000000	34.506400
876.000000	35.156100
875.000000	34.619400
874.000000	33.936500
873.000000	34.821100
872.000000	33.918100
871.000000	34.288800
870.000000	34.144400
869.000000	34.346900
868.000000	34.621500
867.000000	34.039500
866.000000	34.274100
865.000000	34.117200
864.000000	33.769300
863.000000	34.571100
862.000000	35.440100
861.000000	34.608200
860.000000	33.936700
859.000000	35.030500
858.000000	35.357400
857.000000	34.439600
856.000000	34.430533
855.000000	34.302244
854.000000	34.128909
853.000000	34.408926
852.000000	34.451464
851.000000	34.413942
850.000000	34.471817
849.000000	34.562777
848.000000	34.486961
847.000000	34.585830
846.000000	34.521396
845.000000	34.599720
844.000000	34.605122
843.000000	34.704859
842.000000	34.735340
841.000000	34.720196
840.000000	34.831894
839.000000	34.897485
838.000000	34.805561
837.000000	34.853308
836.000000	34.823695
835.000000	34.876361
834.000000	34.882534
833.000000	34.855430
832.000000	34.946197
831.000000	35.007351
830.000000	35.087025
829.000000	35.041979
828.000000	35.161491
827.000000	35.055387
826.000000	35.143260
825.000000	35.164867
824.000000	35.266630
823.000000	35.256116
822.000000	35.348426
821.000000	35.274250
820.000000	35.260746
819.000000	35.362026
818.000000	35.339069
817.000000	35.353442
816.000000	35.505363
815.000000	35.355274
814.000000	35.342349
813.000000	35.388745
812.000000	35.454240
811.000000	35.586194
810.000000	35.582915
809.000000	35.486457
808.000000	35.429450
807.000000	35.512694
806.000000	35.557932
805.000000	35.518481
804.000000	35.559476
803.000000	35.669438
802.000000	35.566421
801.000000	35.559572
800.000000	35.581757
799.000000	35.683906
798.000000	35.678215
797.000000	35.614071
796.000000	35.663361
795.000000	35.582047
794.000000	35.462921
793.000000	35.511247
792.000000	35.496585
791.000000	35.423567
790.000000	35.420866
789.000000	35.426364
788.000000	35.468709
787.000000	35.421155
786.000000	35.375338
785.000000	35.333571
784.000000	35.326144
783.000000	35.407555
782.000000	35.262000
781.000000	35.293734
780.000000	35.367525
779.000000	35.203643
778.000000	35.220040
777.000000	35.119724
776.000000	35.099854
775.000000	35.035517
774.000000	34.938962
773.000000	34.971276
772.000000	34.823792
771.000000	34.808551
770.000000	34.821766
769.000000	34.702737
768.000000	34.639268
767.000000	34.543582
766.000000	34.523422
765.000000	34.486671
764.000000	34.330313
763.000000	34.311986
762.000000	34.288547
761.000000	34.205786
760.000000	34.143089
759.000000	34.125823
758.000000	34.011231
757.000000	33.928277
756.000000	33.854101
755.000000	33.727838
754.000000	33.690219
753.000000	33.569647
752.000000	33.494795
751.000000	33.413481
750.000000	33.284421
749.000000	33.235999
748.000000	33.155939
747.000000	33.073660
746.000000	33.010481
745.000000	32.914119
744.000000	32.816600
743.000000	32.703262
742.000000	32.663715
741.000000	32.585101
740.000000	32.469738
739.000000	32.387459
738.000000	32.327945
737.000000	32.238625
736.000000	32.181618
735.000000	32.090562
734.000000	31.975584
733.000000	31.916841
732.000000	31.894849
731.000000	31.849417
730.000000	31.761544
729.000000	31.671067
728.000000	31.630651
727.000000	31.545961
726.000000	31.461850
725.000000	31.430308
724.000000	31.402046
723.000000	31.369443
722.000000	31.267294
721.000000	31.177588
720.000000	31.138137
719.000000	31.075343
718.000000	31.019012
717.000000	31.008112
716.000000	30.964899
715.000000	30.861110
714.000000	30.787609
713.000000	30.745264
712.000000	30.681506
711.000000	30.603568
710.000000	30.549262
709.000000	30.488879
708.000000	30.434670
707.000000	30.381522
706.000000	30.296253
705.000000	30.267702
704.000000	30.226803
703.000000	30.173076
702.000000	30.100347
701.000000	30.066394
700.000000	30.017297
699.000000	29.958168
698.000000	29.942832
697.000000	29.891034
696.000000	29.840683
695.000000	29.792164
694.000000	29.727055
693.000000	29.645259
692.000000	29.573205
691.000000	29.508482
690.000000	29.466137
689.000000	29.421477
688.000000	29.377203
687.000000	29.342671
686.000000	29.310068
685.000000	29.230973
684.000000	29.197888
683.000000	29.119274
682.000000	29.043073
681.000000	28.965328
680.000000	28.897711
679.000000	28.850061
678.000000	28.818615
677.000000	28.780225
676.000000	28.725630
675.000000	28.684635
674.000000	28.639493
673.000000	28.572069
672.000000	28.491334
671.000000	28.418605
670.000000	28.380986
669.000000	28.302662
668.000000	28.236492
667.000000	28.180643
666.000000	28.101451
665.000000	28.028915
664.000000	27.980879
663.000000	27.926862
662.000000	27.859728
661.000000	27.780247
660.000000	27.722275
659.000000	27.699029
658.000000	27.660349
657.000000	27.606526
656.000000	27.535147
655.000000	27.461839
654.000000	27.410524
653.000000	27.373387
652.000000	27.311847
651.000000	27.247510
650.000000	27.186741
649.000000	27.125587
648.000000	27.046395
647.000000	26.971930
646.000000	26.929295
645.000000	26.855216
644.000000	26.748630
643.000000	26.652847
642.000000	26.572787
641.000000	26.493402
640.000000	26.428390
639.000000	26.365885
638.000000	26.280327
637.000000	26.199881
636.000000	26.132650
635.000000	26.065708
634.000000	26.005711
633.000000	25.956132
632.000000	25.897100
631.000000	25.841058
630.000000	25.806333
629.000000	25.759165
628.000000	25.685761
627.000000	25.624028
626.000000	25.563163
625.000000	25.492459
624.000000	25.419248
623.000000	25.349123
622.000000	25.265783
621.000000	25.171062
620.000000	25.071035
619.000000	24.962520
618.000000	24.849857
617.000000	24.767771
616.000000	24.686747
615.000000	24.606590
614.000000	24.531643
613.000000	24.452065
612.000000	24.398241
611.000000	24.328695
610.000000	24.270435
609.000000	24.217383
608.000000	24.151309
607.000000	24.099126
606.000000	24.032184
605.000000	23.947590
604.000000	23.870810
603.000000	23.829237
602.000000	23.765960
601.000000	23.690820
600.000000	23.621177
599.000000	23.550377
598.000000	23.492020
597.000000	23.459899
596.000000	23.408294
595.000000	23.367589
594.000000	23.344439
593.000000	23.334408
592.000000	23.343957
591.000000	23.384180
590.000000	23.439643
589.000000	23.502823
588.000000	23.552210
587.000000	23.600535
586.000000	23.675483
585.000000	23.776088
584.000000	23.880649
583.000000	23.977782
582.000000	24.067487
581.000000	24.153817
580.000000	24.260789
579.000000	24.364674
578.000000	24.464026
577.000000	24.545918
576.000000	24.674593
575.000000	24.774620
574.000000	24.877348
573.000000	25.016247
572.000000	25.152059
571.000000	25.279866
570.000000	25.406129
569.000000	25.568661
568.000000	25.721643
567.000000	25.905492
566.000000	26.100722
565.000000	26.243480
564.000000	26.393472
563.000000	26.558415
562.000000	26.703584
561.000000	26.833609
560.000000	26.946465
559.000000	27.189635
558.000000	27.368082
557.000000	27.512094
556.000000	27.684560
555.000000	27.776774
554.000000	27.864165
553.000000	27.970076
552.000000	28.054187
551.000000	28.160773
550.000000	28.241604
549.000000	28.321472
548.000000	28.403171
547.000000	28.508117
546.000000	28.582294
545.000000	28.647788
544.000000	28.714827
543.000000	28.772701
542.000000	28.809741
541.000000	28.824113
540.000000	28.843791
539.000000	28.832505
538.000000	28.778875
537.000000	28.710582
536.000000	28.666984
535.000000	28.597534
534.000000	28.500208
533.000000	28.387835
532.000000	28.223277
531.000000	28.051197
530.000000	27.885386
529.000000	27.687165
528.000000	27.501387
527.000000	27.279244
526.000000	27.049192
525.000000	26.816150
524.000000	26.533915
523.000000	26.229687
522.000000	25.911472
521.000000	25.583419
520.000000	25.227104
519.000000	24.905224
518.000000	24.574277
517.000000	24.279984
516.000000	23.946336
515.000000	23.624264
514.000000	23.279909
513.000000	22.928224
512.000000	22.578371
511.000000	22.241347
510.000000	21.929692
509.000000	21.600096
508.000000	21.282556
507.000000	20.983151
506.000000	20.657895
505.000000	20.386559
504.000000	20.075386
503.000000	19.764985
502.000000	19.464519
501.000000	19.169068
500.000000	18.877283
499.000000	18.580579
498.000000	18.281174
497.000000	17.991125
496.000000	17.722972
495.000000	17.442087
494.000000	17.126284
493.000000	16.842023
492.000000	16.575896
491.000000	16.278034
490.000000	15.966186
489.000000	15.690316
488.000000	15.407502
487.000000	15.136069
486.000000	14.839076
485.000000	14.572370
484.000000	14.274894
483.000000	14.000857
482.000000	13.698462
481.000000	13.343497
480.000000	13.012839
479.000000	12.726359
478.000000	12.499008
477.000000	12.267606
476.000000	12.034757
475.000000	11.817919
474.000000	11.624425
473.000000	11.427169
472.000000	11.232034
471.000000	11.048282
470.000000	10.879384
469.000000	10.696114
468.000000	10.526831
467.000000	10.362081
466.000000	10.211896
465.000000	10.051776
464.000000	9.921847
463.000000	9.782273
462.000000	9.648872
461.000000	9.531965
460.000000	9.422196
459.000000	9.313391
458.000000	9.200053
457.000000	9.107454
456.000000	9.009549
455.000000	8.918107
454.000000	8.815862
453.000000	8.733197
452.000000	8.631917
451.000000	8.527453
450.000000	8.451926
449.000000	8.379776
448.000000	8.298462
447.000000	8.205669
446.000000	8.124548
445.000000	8.067638
444.000000	8.005905
443.000000	7.912148
442.000000	7.826783
441.000000	7.768040
440.000000	7.685954
439.000000	7.623353
438.000000	7.564610
437.000000	7.523423
436.000000	7.487637
435.000000	7.454166
434.000000	7.411050
433.000000	7.370537
432.000000	7.342082
431.000000	7.306007
430.000000	7.259804
429.000000	7.230480
428.000000	7.215819
427.000000	7.194695
426.000000	7.167686
425.000000	7.132093
424.000000	7.094571
423.000000	7.070746
422.000000	7.038722
421.000000	7.001007
420.000000	6.962906
419.000000	6.927217
418.000000	6.900305
417.000000	6.848797
416.000000	6.808960
415.000000	6.759380
414.000000	6.717614
413.000000	6.680381
412.000000	6.629162
411.000000	6.561931
410.000000	6.491999
409.000000	6.431327
408.000000	6.354933
407.000000	6.289534
406.000000	6.228959
405.000000	6.156229
404.000000	6.078291
403.000000	5.995241
402.000000	5.921354
401.000000	5.831745
400.000000	5.745608
399.000000	5.659182
398.000000	5.573720
397.000000	5.494528
396.000000	5.403472
395.000000	5.303831
394.000000	5.212968
393.000000	5.132040
392.000000	5.025454
391.000000	4.915299
390.000000	4.839290
389.000000	4.746594
388.000000	4.648304
387.000000	4.556669
386.000000	4.479117
385.000000	4.397320
384.000000	4.316006
383.000000	4.222732
382.000000	4.153861
381.000000	4.084315
380.000000	4.007148
379.000000	3.935094
378.000000	3.871529
377.000000	3.821564
376.000000	3.814811
375.000000	3.818188
374.000000	3.730314
373.000000	3.679674
372.000000	3.654016
371.000000	3.567494
370.000000	3.529007
369.000000	3.537495
368.000000	3.488398
367.000000	3.415669
366.000000	3.368019
365.000000	3.375639
364.000000	3.349209
363.000000	3.315160
362.000000	3.323841
361.000000	3.314967
360.000000	3.294518
359.000000	3.291431
358.000000	3.271657
357.000000	3.218220
356.000000	3.202015
355.000000	3.198832
354.000000	3.210696
353.000000	3.223428
352.000000	3.198156
351.000000	3.158223
350.000000	3.192562
349.000000	3.164300
348.000000	3.114528
347.000000	3.137774
346.000000	3.139607
345.000000	3.128803
344.000000	3.110187
343.000000	3.121569
342.000000	3.135845
341.000000	3.126681
340.000000	3.076041
339.000000	3.088677
338.000000	3.125331
337.000000	3.094078
336.000000	3.133916
335.000000	3.140185
334.000000	3.068228
333.000000	3.046332
332.000000	3.095815
331.000000	3.093596
330.000000	3.108451
329.000000	3.123112
328.000000	3.113949
327.000000	3.155136
326.000000	3.126681
325.000000	3.032345
324.000000	3.049708
323.000000	3.064659
322.000000	3.052505
321.000000	2.995113
320.000000	3.027523
319.000000	3.086458
318.000000	3.035143
317.000000	3.047489
316.000000	3.069096
315.000000	3.068421
314.000000	3.073726
313.000000	3.076234
312.000000	3.070350
311.000000	3.068614
310.000000	3.076716
309.000000	3.084433
308.000000	3.077777
307.000000	3.079224
306.000000	3.094754
305.000000	3.088677
304.000000	3.093500
303.000000	3.095332
302.000000	3.080574
301.000000	3.063501
300.000000	3.074305
299.000000	3.079706
298.000000	3.082793
297.000000	3.083757
296.000000	3.082407
295.000000	3.079803
294.000000	3.087037
293.000000	3.066684
292.000000	3.077488
291.000000	3.084336
290.000000	3.073147
289.000000	3.061669
288.000000	3.065816
287.000000	3.093403
286.000000	3.104496
285.000000	3.064948
284.000000	3.060608
283.000000	3.086941
282.000000	3.082407
281.000000	3.082118
280.000000	3.085108
279.000000	3.096201
278.000000	3.106039
277.000000	3.094078
276.000000	3.111537
275.000000	3.110573
274.000000	3.118289
273.000000	3.121569
272.000000	3.120508
271.000000	3.123787
270.000000	3.142114
269.000000	3.135748
268.000000	3.149059
267.000000	3.165457
266.000000	3.166518
265.000000	3.177032
264.000000	3.173463
263.000000	3.181373
262.000000	3.220728
261.000000	3.229795
260.000000	3.256417
259.000000	3.247446
258.000000	3.250630
257.000000	3.249183
256.000000	3.287766
255.000000	3.281303
254.000000	3.289213
253.000000	3.288248
252.000000	3.280531
251.000000	3.291528
250.000000	3.297605
