PE UV       SUBTECH     SPECTRUM    ASCII       PEDS        4.00        
   -1
CICIMAUCR0112-2.Sample.ASC
24/04/19
17:16:39.00
24/04/19
17:16:39.00
Vinicio Soto Monge
C. resplendens
250,000000
1
Lambda 1050
1050L1511233
PerkinElmer UV WinLab 6.3.2.0749 / 2.02.05 Lambda 900 UV/VIS/NIR, Aug  7 2015 09:38:08

0
0
3350/servo 860,8/2
0
0
UV/VIS
1
1
1
DoubleDePol,CommonBeamDepol,RBeamAtt,SBeamAtt,60mm sphere, WB InGaAs Detector
0
0
0
0
Program
Program
3350/servo 860,8/2
3350/0,2 860,8/0,2
3350/0,2 860,8/0,2
0
15.00
 
 
 
0
 
860,8
319,2
860,8
Front
100
on
S:100 R:100
0
0
0
0
 
0
 
 
 
0
 
 
0
0
0
0
0
 
 
 
 
0
0


0
0
#HDR
-1
-1
#GR
nm
%R
1.0
0.0
2500,000000
-1,000000
2251
8
89,711800
5,376500
#DATA
2500.000000	9.334063
2499.000000	9.403985
2498.000000	9.337269
2497.000000	9.317823
2496.000000	9.293205
2495.000000	9.247073
2494.000000	9.263933
2493.000000	9.272415
2492.000000	9.214284
2491.000000	9.197113
2490.000000	9.057785
2489.000000	9.166496
2488.000000	9.129259
2487.000000	9.087885
2486.000000	9.085299
2485.000000	9.023755
2484.000000	9.098849
2483.000000	9.117364
2482.000000	9.051786
2481.000000	9.074025
2480.000000	9.048269
2479.000000	9.010101
2478.000000	9.045786
2477.000000	9.023341
2476.000000	8.994379
2475.000000	9.061509
2474.000000	9.026444
2473.000000	9.054372
2472.000000	9.040615
2471.000000	9.015790
2470.000000	9.059647
2469.000000	9.075679
2468.000000	9.067508
2467.000000	9.084368
2466.000000	9.119950
2465.000000	9.120984
2464.000000	9.164634
2463.000000	9.185839
2462.000000	9.234557
2461.000000	9.270346
2460.000000	9.299825
2459.000000	9.370162
2458.000000	9.450428
2457.000000	9.501836
2456.000000	9.593790
2455.000000	9.646129
2454.000000	9.714190
2453.000000	9.790008
2452.000000	9.860862
2451.000000	9.962022
2450.000000	10.068355
2449.000000	10.161550
2448.000000	10.227439
2447.000000	10.322186
2446.000000	10.419106
2445.000000	10.518611
2444.000000	10.597947
2443.000000	10.690936
2442.000000	10.781546
2441.000000	10.893670
2440.000000	10.965248
2439.000000	11.047997
2438.000000	11.147502
2437.000000	11.221666
2436.000000	11.289933
2435.000000	11.371855
2434.000000	11.457810
2433.000000	11.518320
2432.000000	11.583692
2431.000000	11.652787
2430.000000	11.716607
2429.000000	11.783220
2428.000000	11.832145
2427.000000	11.885207
2426.000000	11.931237
2425.000000	11.983989
2424.000000	12.029501
2423.000000	12.064152
2422.000000	12.081115
2421.000000	12.104285
2420.000000	12.132419
2419.000000	12.187241
2418.000000	12.224477
2417.000000	12.236786
2416.000000	12.273196
2415.000000	12.297296
2414.000000	12.319328
2413.000000	12.332982
2412.000000	12.369598
2411.000000	12.382010
2410.000000	12.407456
2409.000000	12.449864
2408.000000	12.470655
2407.000000	12.479964
2406.000000	12.518339
2405.000000	12.529510
2404.000000	12.556300
2403.000000	12.593330
2402.000000	12.621879
2401.000000	12.645048
2400.000000	12.654564
2399.000000	12.680940
2398.000000	12.712178
2397.000000	12.739796
2396.000000	12.756138
2395.000000	12.794513
2394.000000	12.834026
2393.000000	12.832578
2392.000000	12.854092
2391.000000	12.880675
2390.000000	12.885744
2389.000000	12.896604
2388.000000	12.906534
2387.000000	12.903638
2386.000000	12.898984
2385.000000	12.896811
2384.000000	12.882330
2383.000000	12.860298
2382.000000	12.851093
2381.000000	12.841473
2380.000000	12.813752
2379.000000	12.784480
2378.000000	12.757587
2377.000000	12.724694
2376.000000	12.691801
2375.000000	12.656840
2374.000000	12.627774
2373.000000	12.591365
2372.000000	12.540992
2371.000000	12.496721
2370.000000	12.452347
2369.000000	12.400215
2368.000000	12.336395
2367.000000	12.262439
2366.000000	12.196136
2365.000000	12.124248
2364.000000	12.039948
2363.000000	11.959888
2362.000000	11.885311
2361.000000	11.807527
2360.000000	11.727778
2359.000000	11.645133
2358.000000	11.551213
2357.000000	11.486772
2356.000000	11.454293
2355.000000	11.397610
2354.000000	11.349306
2353.000000	11.331411
2352.000000	11.319102
2351.000000	11.324584
2350.000000	11.340824
2349.000000	11.344961
2348.000000	11.365959
2347.000000	11.412712
2346.000000	11.448604
2345.000000	11.500012
2344.000000	11.553695
2343.000000	11.593311
2342.000000	11.626411
2341.000000	11.656821
2340.000000	11.682163
2339.000000	11.698712
2338.000000	11.703264
2337.000000	11.705643
2336.000000	11.683300
2335.000000	11.653925
2334.000000	11.633651
2333.000000	11.582347
2332.000000	11.549351
2331.000000	11.497426
2330.000000	11.435261
2329.000000	11.356546
2328.000000	11.260454
2327.000000	11.188670
2326.000000	11.134469
2325.000000	11.038274
2324.000000	10.929769
2323.000000	10.835850
2322.000000	10.716588
2321.000000	10.606532
2320.000000	10.465342
2319.000000	10.357044
2318.000000	10.236024
2317.000000	10.091214
2316.000000	9.962022
2315.000000	9.819591
2314.000000	9.699502
2313.000000	9.577758
2312.000000	9.479494
2311.000000	9.378747
2310.000000	9.296826
2309.000000	9.215318
2308.000000	9.159773
2307.000000	9.134224
2306.000000	9.102056
2305.000000	9.119536
2304.000000	9.149843
2303.000000	9.194734
2302.000000	9.263312
2301.000000	9.352888
2300.000000	9.448980
2299.000000	9.527902
2298.000000	9.651611
2297.000000	9.758150
2296.000000	9.846484
2295.000000	9.933681
2294.000000	10.033290
2293.000000	10.104661
2292.000000	10.138794
2291.000000	10.187202
2290.000000	10.215854
2289.000000	10.242127
2288.000000	10.228784
2287.000000	10.241817
2286.000000	10.216682
2285.000000	10.182341
2284.000000	10.150793
2283.000000	10.106833
2282.000000	10.047771
2281.000000	10.011982
2280.000000	9.955299
2279.000000	9.891893
2278.000000	9.855690
2277.000000	9.799111
2276.000000	9.778010
2275.000000	9.735394
2274.000000	9.715224
2273.000000	9.718638
2272.000000	9.696813
2271.000000	9.727740
2270.000000	9.756185
2269.000000	9.842244
2268.000000	9.895616
2267.000000	9.987364
2266.000000	10.091938
2265.000000	10.242748
2264.000000	10.410107
2263.000000	10.615531
2262.000000	10.833677
2261.000000	11.065064
2260.000000	11.336687
2259.000000	11.613274
2258.000000	11.897206
2257.000000	12.198619
2256.000000	12.508823
2255.000000	12.807236
2254.000000	13.122198
2253.000000	13.441816
2252.000000	13.718300
2251.000000	13.977717
2250.000000	14.231860
2249.000000	14.494070
2248.000000	14.723801
2247.000000	14.951050
2246.000000	15.139717
2245.000000	15.323626
2244.000000	15.530084
2243.000000	15.669930
2242.000000	15.833462
2241.000000	15.961412
2240.000000	16.115015
2239.000000	16.227967
2238.000000	16.343298
2237.000000	16.433805
2236.000000	16.542619
2235.000000	16.625678
2234.000000	16.719908
2233.000000	16.766662
2232.000000	16.842273
2231.000000	16.890888
2230.000000	16.910748
2229.000000	16.944778
2228.000000	16.976119
2227.000000	16.994841
2226.000000	16.989670
2225.000000	16.980567
2224.000000	16.978395
2223.000000	16.960914
2222.000000	16.933607
2221.000000	16.901128
2220.000000	16.886234
2219.000000	16.853548
2218.000000	16.822620
2217.000000	16.787659
2216.000000	16.752181
2215.000000	16.707393
2214.000000	16.675845
2213.000000	16.634367
2212.000000	16.609646
2211.000000	16.570340
2210.000000	16.532483
2209.000000	16.524725
2208.000000	16.473214
2207.000000	16.471145
2206.000000	16.433391
2205.000000	16.415083
2204.000000	16.389948
2203.000000	16.368640
2202.000000	16.378259
2201.000000	16.334506
2200.000000	16.334299
2199.000000	16.326438
2198.000000	16.312578
2197.000000	16.311750
2196.000000	16.299338
2195.000000	16.296648
2194.000000	16.306785
2193.000000	16.273686
2192.000000	16.296545
2191.000000	16.289098
2190.000000	16.273996
2189.000000	16.259618
2188.000000	16.243896
2187.000000	16.250619
2186.000000	16.227243
2185.000000	16.198177
2184.000000	16.215658
2183.000000	16.184938
2182.000000	16.164768
2181.000000	16.148425
2180.000000	16.143046
2179.000000	16.117187
2178.000000	16.112946
2177.000000	16.120290
2176.000000	16.123497
2175.000000	16.109119
2174.000000	16.107981
2173.000000	16.126083
2172.000000	16.138598
2171.000000	16.137978
2170.000000	16.159699
2169.000000	16.185972
2168.000000	16.196936
2167.000000	16.228381
2166.000000	16.260549
2165.000000	16.281133
2164.000000	16.312474
2163.000000	16.350539
2162.000000	16.387982
2161.000000	16.419427
2160.000000	16.460284
2159.000000	16.493073
2158.000000	16.533000
2157.000000	16.598888
2156.000000	16.641297
2155.000000	16.681430
2154.000000	16.755801
2153.000000	16.810829
2152.000000	16.855616
2151.000000	16.933711
2150.000000	17.002702
2149.000000	17.054110
2148.000000	17.099622
2147.000000	17.141514
2146.000000	17.194783
2145.000000	17.249604
2144.000000	17.291909
2143.000000	17.334835
2142.000000	17.389553
2141.000000	17.414481
2140.000000	17.449029
2139.000000	17.495575
2138.000000	17.527123
2137.000000	17.560119
2136.000000	17.597356
2135.000000	17.614319
2134.000000	17.631179
2133.000000	17.659728
2132.000000	17.686518
2131.000000	17.692620
2130.000000	17.696137
2129.000000	17.698516
2128.000000	17.719307
2127.000000	17.712584
2126.000000	17.708963
2125.000000	17.704826
2124.000000	17.682380
2123.000000	17.670589
2122.000000	17.660245
2121.000000	17.650936
2120.000000	17.626215
2119.000000	17.601390
2118.000000	17.560533
2117.000000	17.540052
2116.000000	17.519262
2115.000000	17.472095
2114.000000	17.441064
2113.000000	17.417998
2112.000000	17.392346
2111.000000	17.353247
2110.000000	17.301012
2109.000000	17.274429
2108.000000	17.255603
2107.000000	17.235123
2106.000000	17.199955
2105.000000	17.160959
2104.000000	17.126929
2103.000000	17.087313
2102.000000	17.056489
2101.000000	17.023493
2100.000000	16.988739
2099.000000	16.961225
2098.000000	16.924919
2097.000000	16.902576
2096.000000	16.891819
2095.000000	16.863995
2094.000000	16.849617
2093.000000	16.827689
2092.000000	16.796865
2091.000000	16.780315
2090.000000	16.770696
2089.000000	16.762421
2088.000000	16.752594
2087.000000	16.755697
2086.000000	16.742871
2085.000000	16.704290
2084.000000	16.691050
2083.000000	16.679879
2082.000000	16.662191
2081.000000	16.637780
2080.000000	16.611921
2079.000000	16.571478
2078.000000	16.541895
2077.000000	16.518726
2076.000000	16.486557
2075.000000	16.453251
2074.000000	16.411462
2073.000000	16.380638
2072.000000	16.336575
2071.000000	16.295407
2070.000000	16.269962
2069.000000	16.240793
2068.000000	16.190627
2067.000000	16.149976
2066.000000	16.111808
2065.000000	16.086053
2064.000000	16.055850
2063.000000	16.009924
2062.000000	15.990995
2061.000000	15.975583
2060.000000	15.969067
2059.000000	15.965343
2058.000000	15.963585
2057.000000	15.983444
2056.000000	16.036610
2055.000000	16.080881
2054.000000	16.131358
2053.000000	16.216486
2052.000000	16.293235
2051.000000	16.404222
2050.000000	16.544998
2049.000000	16.654640
2048.000000	16.789624
2047.000000	16.964431
2046.000000	17.137480
2045.000000	17.336283
2044.000000	17.505815
2043.000000	17.678450
2042.000000	17.877874
2041.000000	18.070989
2040.000000	18.265552
2039.000000	18.449151
2038.000000	18.618786
2037.000000	18.784697
2036.000000	18.966952
2035.000000	19.116210
2034.000000	19.270123
2033.000000	19.448343
2032.000000	19.569466
2031.000000	19.722862
2030.000000	19.854639
2029.000000	19.994071
2028.000000	20.113229
2027.000000	20.224733
2026.000000	20.355993
2025.000000	20.458809
2024.000000	20.562348
2023.000000	20.680679
2022.000000	20.772116
2021.000000	20.875139
2020.000000	20.966886
2019.000000	21.032154
2018.000000	21.138900
2017.000000	21.234889
2016.000000	21.299433
2015.000000	21.379492
2014.000000	21.450243
2013.000000	21.490789
2012.000000	21.555334
2011.000000	21.589467
2010.000000	21.632393
2009.000000	21.683180
2008.000000	21.724451
2007.000000	21.744208
2006.000000	21.748242
2005.000000	21.750414
2004.000000	21.776480
2003.000000	21.775859
2002.000000	21.759206
2001.000000	21.742760
2000.000000	21.733140
1999.000000	21.721452
1998.000000	21.676354
1997.000000	21.666113
1996.000000	21.615740
1995.000000	21.571470
1994.000000	21.528130
1993.000000	21.472274
1992.000000	21.432865
1991.000000	21.341325
1990.000000	21.271609
1989.000000	21.202410
1988.000000	21.141176
1987.000000	21.068771
1986.000000	20.981884
1985.000000	20.911445
1984.000000	20.825903
1983.000000	20.759083
1982.000000	20.660199
1981.000000	20.562762
1980.000000	20.500493
1979.000000	20.376991
1978.000000	20.293311
1977.000000	20.219975
1976.000000	20.142605
1975.000000	20.045168
1974.000000	19.967178
1973.000000	19.872327
1972.000000	19.808610
1971.000000	19.703002
1970.000000	19.619840
1969.000000	19.556640
1968.000000	19.443585
1967.000000	19.383695
1966.000000	19.295051
1965.000000	19.215508
1964.000000	19.149309
1963.000000	19.058389
1962.000000	18.982570
1961.000000	18.901477
1960.000000	18.794834
1959.000000	18.730290
1958.000000	18.666780
1957.000000	18.563448
1956.000000	18.496939
1955.000000	18.410570
1954.000000	18.329269
1953.000000	18.249313
1952.000000	18.180321
1951.000000	18.103468
1950.000000	18.049268
1949.000000	17.981724
1948.000000	17.937660
1947.000000	17.884494
1946.000000	17.830294
1945.000000	17.769680
1944.000000	17.745993
1943.000000	17.728513
1942.000000	17.728926
1941.000000	17.717652
1940.000000	17.703998
1939.000000	17.704516
1938.000000	17.705653
1937.000000	17.725203
1936.000000	17.744235
1935.000000	17.789023
1934.000000	17.855118
1933.000000	17.913042
1932.000000	18.033442
1931.000000	18.120432
1930.000000	18.223350
1929.000000	18.320787
1928.000000	18.448220
1927.000000	18.549898
1926.000000	18.696673
1925.000000	18.859378
1924.000000	19.042874
1923.000000	19.220163
1922.000000	19.397245
1921.000000	19.603497
1920.000000	19.815230
1919.000000	19.991485
1918.000000	20.234973
1917.000000	20.485806
1916.000000	20.753291
1915.000000	21.013846
1914.000000	21.312362
1913.000000	21.562160
1912.000000	21.839782
1911.000000	22.105303
1910.000000	22.401130
1909.000000	22.708334
1908.000000	23.030951
1907.000000	23.368670
1906.000000	23.716318
1905.000000	24.051140
1904.000000	24.382446
1903.000000	24.721716
1902.000000	25.056538
1901.000000	25.420943
1900.000000	25.785865
1899.000000	26.124721
1898.000000	26.467405
1897.000000	26.843601
1896.000000	27.178424
1895.000000	27.535381
1894.000000	27.908061
1893.000000	28.263777
1892.000000	28.611012
1891.000000	28.940145
1890.000000	29.287587
1889.000000	29.640820
1888.000000	29.998399
1887.000000	30.379353
1886.000000	30.798476
1885.000000	31.261042
1884.000000	31.770877
1883.000000	32.271301
1882.000000	32.784447
1881.000000	33.333588
1880.000000	33.827392
1879.000000	34.319333
1878.000000	34.790381
1877.000000	35.217778
1876.000000	35.619834
1875.000000	35.982790
1874.000000	36.312337
1873.000000	36.606509
1872.000000	36.865720
1871.000000	37.072178
1870.000000	37.203645
1869.000000	37.339457
1868.000000	37.485508
1867.000000	37.569602
1866.000000	37.623906
1865.000000	37.685450
1864.000000	37.756821
1863.000000	37.830881
1862.000000	37.876186
1861.000000	37.910837
1860.000000	37.914457
1859.000000	37.866980
1858.000000	37.823847
1857.000000	37.807091
1856.000000	37.762820
1855.000000	37.697759
1854.000000	37.610045
1853.000000	37.494197
1852.000000	37.423654
1851.000000	37.396243
1850.000000	37.392002
1849.000000	37.345663
1848.000000	37.184406
1847.000000	37.002255
1846.000000	36.858790
1845.000000	36.797142
1844.000000	36.796625
1843.000000	36.824346
1842.000000	36.789074
1841.000000	36.687810
1840.000000	36.598131
1839.000000	36.539069
1838.000000	36.478559
1837.000000	36.383708
1836.000000	36.263826
1835.000000	36.132566
1834.000000	36.024061
1833.000000	35.957966
1832.000000	35.900559
1831.000000	35.809225
1830.000000	35.696480
1829.000000	35.588389
1828.000000	35.457025
1827.000000	35.351417
1826.000000	35.272289
1825.000000	35.186333
1824.000000	35.138856
1823.000000	35.180644
1822.000000	35.187264
1821.000000	35.126444
1820.000000	35.043488
1819.000000	34.976669
1818.000000	34.956499
1817.000000	34.967049
1816.000000	34.974393
1815.000000	34.945328
1814.000000	34.932812
1813.000000	34.922158
1812.000000	34.882542
1811.000000	34.825549
1810.000000	34.762556
1809.000000	34.706908
1808.000000	34.670498
1807.000000	34.628607
1806.000000	34.556408
1805.000000	34.469729
1804.000000	34.401772
1803.000000	34.350985
1802.000000	34.299163
1801.000000	34.217862
1800.000000	34.130356
1799.000000	34.081534
1798.000000	34.019369
1797.000000	33.952653
1796.000000	33.886764
1795.000000	33.829357
1794.000000	33.766468
1793.000000	33.680926
1792.000000	33.614210
1791.000000	33.529806
1790.000000	33.439920
1789.000000	33.368032
1788.000000	33.301213
1787.000000	33.213189
1786.000000	33.113994
1785.000000	33.016764
1784.000000	32.895123
1783.000000	32.797790
1782.000000	32.704801
1781.000000	32.586987
1780.000000	32.484172
1779.000000	32.362324
1778.000000	32.234684
1777.000000	32.086564
1776.000000	31.944443
1775.000000	31.781945
1774.000000	31.622447
1773.000000	31.435021
1772.000000	31.258456
1771.000000	31.076615
1770.000000	30.910911
1769.000000	30.753274
1768.000000	30.595638
1767.000000	30.447931
1766.000000	30.339427
1765.000000	30.237336
1764.000000	30.199064
1763.000000	30.192755
1762.000000	30.219234
1761.000000	30.263402
1760.000000	30.310465
1759.000000	30.397455
1758.000000	30.490444
1757.000000	30.558298
1756.000000	30.608774
1755.000000	30.628117
1754.000000	30.631841
1753.000000	30.621083
1752.000000	30.582398
1751.000000	30.524474
1750.000000	30.441415
1749.000000	30.349460
1748.000000	30.234646
1747.000000	30.082492
1746.000000	29.905927
1745.000000	29.730706
1744.000000	29.489390
1743.000000	29.214768
1742.000000	28.933732
1741.000000	28.633871
1740.000000	28.340734
1739.000000	28.049148
1738.000000	27.791178
1737.000000	27.569205
1736.000000	27.394708
1735.000000	27.282066
1734.000000	27.253001
1733.000000	27.275240
1732.000000	27.332233
1731.000000	27.436496
1730.000000	27.559068
1729.000000	27.697052
1728.000000	27.817658
1727.000000	27.941781
1726.000000	28.022151
1725.000000	28.109658
1724.000000	28.170168
1723.000000	28.191889
1722.000000	28.214231
1721.000000	28.254261
1720.000000	28.293567
1719.000000	28.352732
1718.000000	28.394417
1717.000000	28.499094
1716.000000	28.600772
1715.000000	28.681038
1714.000000	28.772475
1713.000000	28.874567
1712.000000	28.925043
1711.000000	28.959384
1710.000000	29.027031
1709.000000	29.005724
1708.000000	29.007068
1707.000000	28.989691
1706.000000	28.973865
1705.000000	28.905391
1704.000000	28.833296
1703.000000	28.735962
1702.000000	28.598806
1701.000000	28.424000
1700.000000	28.233884
1699.000000	28.051527
1698.000000	27.878271
1697.000000	27.742253
1696.000000	27.682053
1695.000000	27.692914
1694.000000	27.756631
1693.000000	27.907854
1692.000000	28.130655
1691.000000	28.316840
1690.000000	28.461030
1689.000000	28.618563
1688.000000	28.675039
1687.000000	28.709690
1686.000000	28.717034
1685.000000	28.781681
1684.000000	28.953902
1683.000000	29.282001
1682.000000	29.737533
1681.000000	30.362390
1680.000000	31.030690
1679.000000	31.748949
1678.000000	32.432557
1677.000000	33.054518
1676.000000	33.607280
1675.000000	34.116185
1674.000000	34.538721
1673.000000	34.893817
1672.000000	35.218399
1671.000000	35.493435
1670.000000	35.740543
1669.000000	35.955173
1668.000000	36.134945
1667.000000	36.290926
1666.000000	36.402016
1665.000000	36.526347
1664.000000	36.622956
1663.000000	36.722875
1662.000000	36.781523
1661.000000	36.862927
1660.000000	36.903267
1659.000000	36.927575
1658.000000	36.934298
1657.000000	36.942159
1656.000000	36.955296
1655.000000	36.972259
1654.000000	36.928299
1653.000000	36.896854
1652.000000	36.868926
1651.000000	36.839654
1650.000000	36.795797
1649.000000	36.736115
1648.000000	36.680570
1647.000000	36.608268
1646.000000	36.556550
1645.000000	36.489523
1644.000000	36.394879
1643.000000	36.323095
1642.000000	36.257516
1641.000000	36.164217
1640.000000	36.079296
1639.000000	35.995617
1638.000000	35.911523
1637.000000	35.810259
1636.000000	35.715305
1635.000000	35.629143
1634.000000	35.543291
1633.000000	35.460335
1632.000000	35.345211
1631.000000	35.237948
1630.000000	35.136581
1629.000000	35.035317
1628.000000	34.935294
1627.000000	34.833824
1626.000000	34.705666
1625.000000	34.597472
1624.000000	34.509966
1623.000000	34.398462
1622.000000	34.275476
1621.000000	34.182694
1620.000000	34.084844
1619.000000	33.995475
1618.000000	33.909416
1617.000000	33.801326
1616.000000	33.707199
1615.000000	33.610176
1614.000000	33.510567
1613.000000	33.426163
1612.000000	33.344242
1611.000000	33.268837
1610.000000	33.169849
1609.000000	33.080998
1608.000000	32.999904
1607.000000	32.913224
1606.000000	32.831717
1605.000000	32.743072
1604.000000	32.644808
1603.000000	32.561852
1602.000000	32.480138
1601.000000	32.390769
1600.000000	32.325398
1599.000000	32.236029
1598.000000	32.162279
1597.000000	32.087185
1596.000000	32.024089
1595.000000	31.955718
1594.000000	31.890967
1593.000000	31.842869
1592.000000	31.797564
1591.000000	31.748122
1590.000000	31.701989
1589.000000	31.655960
1588.000000	31.611379
1587.000000	31.558523
1586.000000	31.528734
1585.000000	31.503702
1584.000000	31.471948
1583.000000	31.428608
1582.000000	31.407403
1581.000000	31.396129
1580.000000	31.393750
1579.000000	31.389302
1578.000000	31.384648
1577.000000	31.385682
1576.000000	31.398198
1575.000000	31.415989
1574.000000	31.443192
1573.000000	31.466776
1572.000000	31.489221
1571.000000	31.517356
1570.000000	31.550455
1569.000000	31.586555
1568.000000	31.624619
1567.000000	31.666717
1566.000000	31.718435
1565.000000	31.763534
1564.000000	31.802632
1563.000000	31.842972
1562.000000	31.879899
1561.000000	31.907516
1560.000000	31.926549
1559.000000	31.944753
1558.000000	31.967406
1557.000000	31.980646
1556.000000	31.993575
1555.000000	32.003091
1554.000000	31.992541
1553.000000	31.981577
1552.000000	31.969888
1551.000000	31.959545
1550.000000	31.949408
1549.000000	31.932134
1548.000000	31.903276
1547.000000	31.894070
1546.000000	31.885898
1545.000000	31.861281
1544.000000	31.853316
1543.000000	31.852488
1542.000000	31.849489
1541.000000	31.845869
1540.000000	31.861177
1539.000000	31.872658
1538.000000	31.860143
1537.000000	31.850834
1536.000000	31.858488
1535.000000	31.857350
1534.000000	31.837697
1533.000000	31.817734
1532.000000	31.803046
1531.000000	31.791565
1530.000000	31.767774
1529.000000	31.745743
1528.000000	31.743260
1527.000000	31.716677
1526.000000	31.695266
1525.000000	31.673855
1524.000000	31.643858
1523.000000	31.601760
1522.000000	31.581486
1521.000000	31.559247
1520.000000	31.530803
1519.000000	31.493255
1518.000000	31.468120
1517.000000	31.435745
1516.000000	31.404094
1515.000000	31.373683
1514.000000	31.351755
1513.000000	31.334585
1512.000000	31.287107
1511.000000	31.236113
1510.000000	31.202600
1509.000000	31.168673
1508.000000	31.122644
1507.000000	31.097716
1506.000000	31.076305
1505.000000	31.047136
1504.000000	31.019622
1503.000000	30.988695
1502.000000	30.972765
1501.000000	30.967697
1500.000000	30.943493
1499.000000	30.942666
1498.000000	30.924254
1497.000000	30.924461
1496.000000	30.938528
1495.000000	30.938942
1494.000000	30.953526
1493.000000	30.977937
1492.000000	31.004107
1491.000000	31.019725
1490.000000	31.037413
1489.000000	31.073616
1488.000000	31.094406
1487.000000	31.129988
1486.000000	31.140952
1485.000000	31.166915
1484.000000	31.206117
1483.000000	31.244181
1482.000000	31.300761
1481.000000	31.363133
1480.000000	31.393129
1479.000000	31.438745
1478.000000	31.524803
1477.000000	31.584279
1476.000000	31.627619
1475.000000	31.692680
1474.000000	31.786703
1473.000000	31.875555
1472.000000	31.949511
1471.000000	32.010952
1470.000000	32.063601
1469.000000	32.118526
1468.000000	32.202102
1467.000000	32.304917
1466.000000	32.367807
1465.000000	32.451693
1464.000000	32.527098
1463.000000	32.631982
1462.000000	32.731591
1461.000000	32.859231
1460.000000	32.952530
1459.000000	33.058759
1458.000000	33.180710
1457.000000	33.331520
1456.000000	33.461952
1455.000000	33.598902
1454.000000	33.734610
1453.000000	33.887798
1452.000000	34.036953
1451.000000	34.186314
1450.000000	34.313748
1449.000000	34.422769
1448.000000	34.601713
1447.000000	34.787691
1446.000000	34.980186
1445.000000	35.126030
1444.000000	35.233811
1443.000000	35.426719
1442.000000	35.596767
1441.000000	35.739406
1440.000000	35.907386
1439.000000	36.071642
1438.000000	36.242518
1437.000000	36.374399
1436.000000	36.540104
1435.000000	36.710256
1434.000000	36.874409
1433.000000	37.070420
1432.000000	37.232194
1431.000000	37.394174
1430.000000	37.596081
1429.000000	37.826020
1428.000000	38.072714
1427.000000	38.294171
1426.000000	38.552657
1425.000000	38.842485
1424.000000	39.136864
1423.000000	39.392040
1422.000000	39.632115
1421.000000	39.971902
1420.000000	40.274970
1419.000000	40.549179
1418.000000	40.788840
1417.000000	40.994781
1416.000000	41.319156
1415.000000	41.634532
1414.000000	41.891674
1413.000000	42.079824
1412.000000	42.317106
1411.000000	42.668375
1410.000000	43.038572
1409.000000	43.420354
1408.000000	43.832030
1407.000000	44.266254
1406.000000	44.709891
1405.000000	45.161803
1404.000000	45.575650
1403.000000	46.040077
1402.000000	46.521572
1401.000000	47.081160
1400.000000	47.415879
1399.000000	47.647990
1398.000000	47.874928
1397.000000	48.179651
1396.000000	48.488717
1395.000000	48.614599
1394.000000	48.726517
1393.000000	48.866879
1392.000000	49.044996
1391.000000	49.192185
1390.000000	49.379611
1389.000000	49.679369
1388.000000	50.008399
1387.000000	50.267402
1386.000000	50.629635
1385.000000	51.063652
1384.000000	51.508220
1383.000000	51.886589
1382.000000	52.197828
1381.000000	52.368601
1380.000000	52.434489
1379.000000	52.487966
1378.000000	52.534305
1377.000000	52.624398
1376.000000	52.771380
1375.000000	52.996767
1374.000000	53.336244
1373.000000	53.758987
1372.000000	54.179351
1371.000000	54.587096
1370.000000	54.987289
1369.000000	55.363176
1368.000000	55.706169
1367.000000	55.957105
1366.000000	56.215178
1365.000000	56.462493
1364.000000	56.653022
1363.000000	56.860929
1362.000000	57.041218
1361.000000	57.146309
1360.000000	57.155101
1359.000000	57.215611
1358.000000	57.349146
1357.000000	57.600910
1356.000000	57.994484
1355.000000	58.549418
1354.000000	59.241404
1353.000000	59.917462
1352.000000	60.629825
1351.000000	61.359359
1350.000000	62.005214
1349.000000	62.579076
1348.000000	63.120047
1347.000000	63.597921
1346.000000	64.035765
1345.000000	64.506295
1344.000000	64.927383
1343.000000	65.308028
1342.000000	65.675846
1341.000000	66.049250
1340.000000	66.398346
1339.000000	66.712068
1338.000000	67.017100
1337.000000	67.304239
1336.000000	67.566345
1335.000000	67.828452
1334.000000	68.088801
1333.000000	68.328979
1332.000000	68.540712
1331.000000	68.752239
1330.000000	68.936769
1329.000000	69.102887
1328.000000	69.279762
1327.000000	69.433054
1326.000000	69.595552
1325.000000	69.746362
1324.000000	69.870485
1323.000000	69.993367
1322.000000	70.112939
1321.000000	70.229201
1320.000000	70.336361
1319.000000	70.438556
1318.000000	70.531545
1317.000000	70.613983
1316.000000	70.702007
1315.000000	70.790548
1314.000000	70.878572
1313.000000	70.947667
1312.000000	71.003937
1311.000000	71.061861
1310.000000	71.113268
1309.000000	71.147299
1308.000000	71.180398
1307.000000	71.214222
1306.000000	71.240288
1305.000000	71.262733
1304.000000	71.266974
1303.000000	71.264906
1302.000000	71.257975
1301.000000	71.249390
1300.000000	71.225497
1299.000000	71.197259
1298.000000	71.182881
1297.000000	71.166021
1296.000000	71.141093
1295.000000	71.104166
1294.000000	71.062792
1293.000000	71.018418
1292.000000	70.963804
1291.000000	70.911775
1290.000000	70.859126
1289.000000	70.782480
1288.000000	70.691974
1287.000000	70.603329
1286.000000	70.510650
1285.000000	70.417248
1284.000000	70.317639
1283.000000	70.204997
1282.000000	70.106423
1281.000000	70.002573
1280.000000	69.890862
1279.000000	69.780392
1278.000000	69.682128
1277.000000	69.596587
1276.000000	69.506804
1275.000000	69.418780
1274.000000	69.345134
1273.000000	69.294864
1272.000000	69.219873
1271.000000	69.148502
1270.000000	69.087578
1269.000000	69.018380
1268.000000	68.938527
1267.000000	68.877190
1266.000000	68.820093
1265.000000	68.750377
1264.000000	68.674662
1263.000000	68.591913
1262.000000	68.529748
1261.000000	68.460343
1260.000000	68.407073
1259.000000	68.352976
1258.000000	68.270538
1257.000000	68.199477
1256.000000	68.115797
1255.000000	68.039875
1254.000000	67.960540
1253.000000	67.851622
1252.000000	67.760184
1251.000000	67.662437
1250.000000	67.538935
1249.000000	67.407364
1248.000000	67.301963
1247.000000	67.155808
1246.000000	66.988242
1245.000000	66.827399
1244.000000	66.644627
1243.000000	66.457408
1242.000000	66.268741
1241.000000	66.047698
1240.000000	65.843516
1239.000000	65.655779
1238.000000	65.423359
1237.000000	65.196834
1236.000000	64.975688
1235.000000	64.749991
1234.000000	64.517673
1233.000000	64.282874
1232.000000	64.045385
1231.000000	63.808930
1230.000000	63.564614
1229.000000	63.333228
1228.000000	63.109082
1227.000000	62.880489
1226.000000	62.649827
1225.000000	62.423922
1224.000000	62.183641
1223.000000	61.971597
1222.000000	61.768035
1221.000000	61.571610
1220.000000	61.356670
1219.000000	61.170071
1218.000000	61.008918
1217.000000	60.856247
1216.000000	60.711540
1215.000000	60.555351
1214.000000	60.401439
1213.000000	60.288280
1212.000000	60.165812
1211.000000	60.031448
1210.000000	59.910945
1209.000000	59.813509
1208.000000	59.740379
1207.000000	59.654321
1206.000000	59.629289
1205.000000	59.582226
1204.000000	59.560608
1203.000000	59.545299
1202.000000	59.523681
1201.000000	59.478169
1200.000000	59.413729
1199.000000	59.305328
1198.000000	59.168999
1197.000000	58.977229
1196.000000	58.724845
1195.000000	58.380300
1194.000000	57.975658
1193.000000	57.488682
1192.000000	56.934265
1191.000000	56.364850
1190.000000	55.815915
1189.000000	55.380243
1188.000000	55.065280
1187.000000	54.913229
1186.000000	54.928848
1185.000000	55.069831
1184.000000	55.387173
1183.000000	55.862254
1182.000000	56.432704
1181.000000	57.065939
1180.000000	57.703932
1179.000000	58.251108
1178.000000	58.767357
1177.000000	59.187721
1176.000000	59.579123
1175.000000	59.926254
1174.000000	60.334929
1173.000000	60.701920
1172.000000	61.106769
1171.000000	61.554026
1170.000000	61.999835
1169.000000	62.438714
1168.000000	62.880075
1167.000000	63.343261
1166.000000	63.825997
1165.000000	64.301389
1164.000000	64.758886
1163.000000	65.260240
1162.000000	65.735735
1161.000000	66.210610
1160.000000	66.631388
1159.000000	67.066336
1158.000000	67.483183
1157.000000	67.837761
1156.000000	68.131520
1155.000000	68.357941
1154.000000	68.504820
1153.000000	68.610842
1152.000000	68.609083
1151.000000	68.601326
1150.000000	68.554883
1149.000000	68.533265
1148.000000	68.550022
1147.000000	68.605980
1146.000000	68.766410
1145.000000	69.040929
1144.000000	69.381233
1143.000000	69.742121
1142.000000	70.169519
1141.000000	70.616879
1140.000000	71.058861
1139.000000	71.511704
1138.000000	71.998577
1137.000000	72.478417
1136.000000	72.981736
1135.000000	73.471298
1134.000000	73.869010
1133.000000	74.183559
1132.000000	74.533379
1131.000000	74.888578
1130.000000	75.166200
1129.000000	75.401000
1128.000000	75.593701
1127.000000	75.738098
1126.000000	75.869772
1125.000000	75.959658
1124.000000	76.052233
1123.000000	76.126190
1122.000000	76.199733
1121.000000	76.254037
1120.000000	76.289515
1119.000000	76.315891
1118.000000	76.320649
1117.000000	76.333579
1116.000000	76.322925
1115.000000	76.313823
1114.000000	76.283723
1113.000000	76.298100
1112.000000	76.273689
1111.000000	76.255898
1110.000000	76.247003
1109.000000	76.229005
1108.000000	76.214007
1107.000000	76.223420
1106.000000	76.208421
1105.000000	76.188148
1104.000000	76.181631
1103.000000	76.161565
1102.000000	76.138499
1101.000000	76.108812
1100.000000	76.079023
1099.000000	76.045716
1098.000000	76.012617
1097.000000	76.011272
1096.000000	75.961106
1095.000000	75.921904
1094.000000	75.885494
1093.000000	75.821364
1092.000000	75.766026
1091.000000	75.730444
1090.000000	75.695482
1089.000000	75.628456
1088.000000	75.584702
1087.000000	75.539708
1086.000000	75.487059
1085.000000	75.426756
1084.000000	75.366866
1083.000000	75.326009
1082.000000	75.278325
1081.000000	75.216470
1080.000000	75.160305
1079.000000	75.100932
1078.000000	75.062351
1077.000000	75.011667
1076.000000	74.969672
1075.000000	74.923126
1074.000000	74.874718
1073.000000	74.832826
1072.000000	74.794038
1071.000000	74.762076
1070.000000	74.714495
1069.000000	74.662364
1068.000000	74.608577
1067.000000	74.560790
1066.000000	74.523242
1065.000000	74.482902
1064.000000	74.434805
1063.000000	74.394982
1062.000000	74.345746
1061.000000	74.291546
1060.000000	74.243345
1059.000000	74.219554
1058.000000	74.171043
1057.000000	74.112602
1056.000000	74.065435
1055.000000	74.042679
1054.000000	74.003063
1053.000000	73.957654
1052.000000	73.918969
1051.000000	73.896731
1050.000000	73.889076
1049.000000	73.865907
1048.000000	73.849254
1047.000000	73.852357
1046.000000	73.862390
1045.000000	73.859287
1044.000000	73.850288
1043.000000	73.865803
1042.000000	73.878940
1041.000000	73.880595
1040.000000	73.885560
1039.000000	73.900247
1038.000000	73.930658
1037.000000	73.933450
1036.000000	73.932002
1035.000000	73.938726
1034.000000	73.928589
1033.000000	73.931071
1032.000000	73.940174
1031.000000	73.930451
1030.000000	73.929727
1029.000000	73.928692
1028.000000	73.925900
1027.000000	73.910798
1026.000000	73.891249
1025.000000	73.893214
1024.000000	73.907488
1023.000000	73.905006
1022.000000	73.897455
1021.000000	73.894041
1020.000000	73.895903
1019.000000	73.916073
1018.000000	73.936760
1017.000000	73.954448
1016.000000	73.972032
1015.000000	73.997788
1014.000000	74.032852
1013.000000	74.082088
1012.000000	74.137426
1011.000000	74.190179
1010.000000	74.269928
1009.000000	74.346884
1008.000000	74.431495
1007.000000	74.517346
1006.000000	74.601543
1005.000000	74.695567
1004.000000	74.778109
1003.000000	74.862719
1002.000000	74.953536
1001.000000	75.027079
1000.000000	75.111896
999.000000	75.199714
998.000000	75.297357
997.000000	75.375141
996.000000	75.472267
995.000000	75.567946
994.000000	75.661762
993.000000	75.745545
992.000000	75.837293
991.000000	75.949935
990.000000	76.057508
989.000000	76.152462
988.000000	76.257243
987.000000	76.352611
986.000000	76.463081
985.000000	76.585963
984.000000	76.685985
983.000000	76.794386
982.000000	76.914268
981.000000	77.037254
980.000000	77.142758
979.000000	77.253435
978.000000	77.377972
977.000000	77.474581
976.000000	77.596429
975.000000	77.697796
974.000000	77.817782
973.000000	77.916770
972.000000	78.027033
971.000000	78.118677
970.000000	78.216114
969.000000	78.287588
968.000000	78.382025
967.000000	78.486702
966.000000	78.577622
965.000000	78.636995
964.000000	78.723777
963.000000	78.807043
962.000000	78.948647
961.000000	79.067805
960.000000	79.146417
959.000000	79.244578
958.000000	79.348427
957.000000	79.461276
956.000000	79.578055
955.000000	79.656460
954.000000	79.712832
953.000000	79.761344
952.000000	79.839645
951.000000	79.892087
950.000000	79.957355
949.000000	80.011969
948.000000	80.039483
947.000000	80.106199
946.000000	80.136609
945.000000	80.161848
944.000000	80.183259
943.000000	80.250596
942.000000	80.251113
941.000000	80.272731
940.000000	80.360755
939.000000	80.398923
938.000000	80.395510
937.000000	80.452503
936.000000	80.539389
935.000000	80.560283
934.000000	80.597727
933.000000	80.627413
932.000000	80.700853
931.000000	80.704576
930.000000	80.737883
929.000000	80.812770
928.000000	80.818046
927.000000	80.829734
926.000000	80.844215
925.000000	80.939376
924.000000	80.938652
923.000000	80.961615
922.000000	80.990887
921.000000	81.017987
920.000000	81.055121
919.000000	81.161970
918.000000	81.173969
917.000000	81.187415
916.000000	81.183278
915.000000	81.192691
914.000000	81.305643
913.000000	81.284438
912.000000	81.328606
911.000000	81.373600
910.000000	81.399045
909.000000	81.454797
908.000000	81.509308
907.000000	81.580472
906.000000	81.641913
905.000000	81.749383
904.000000	81.821685
903.000000	81.914467
902.000000	82.021937
901.000000	82.124235
900.000000	82.244428
899.000000	82.349829
898.000000	82.456058
897.000000	82.548529
896.000000	82.661585
895.000000	82.760884
894.000000	82.851183
893.000000	82.887075
892.000000	82.950068
891.000000	83.000958
890.000000	83.057124
889.000000	83.093223
888.000000	83.111532
887.000000	83.142149
886.000000	83.122289
885.000000	83.102326
884.000000	83.096947
883.000000	83.074398
882.000000	83.074191
881.000000	83.020922
880.000000	82.956688
879.000000	82.926381
878.000000	82.896695
877.000000	82.836288
876.000000	82.819015
875.000000	82.802568
874.000000	82.781881
873.000000	82.739162
872.000000	82.734094
871.000000	82.718164
870.000000	82.770503
869.000000	82.785605
868.000000	82.840116
867.000000	82.912624
866.000000	82.983581
865.000000	83.062710
864.000000	83.124254
863.000000	83.210416
862.000000	83.280442
861.000000	83.367329
860.000000	83.423805
859.000000	83.437872
858.000000	83.879233
857.000000	83.569500
856.000000	83.943600
855.000000	84.124600
854.000000	84.687200
853.000000	84.588300
852.000000	85.212700
851.000000	85.315500
850.000000	85.840400
849.000000	86.083800
848.000000	86.374000
847.000000	86.662900
846.000000	86.709100
845.000000	87.060000
844.000000	87.474400
843.000000	87.631200
842.000000	87.721900
841.000000	87.960700
840.000000	88.161900
839.000000	88.374600
838.000000	88.634700
837.000000	88.814300
836.000000	88.809500
835.000000	89.077700
834.000000	89.014200
833.000000	88.953700
832.000000	89.152100
831.000000	89.199400
830.000000	89.066600
829.000000	89.149200
828.000000	89.237400
827.000000	89.238400
826.000000	89.044200
825.000000	89.066500
824.000000	88.959500
823.000000	88.938000
822.000000	88.788700
821.000000	88.764200
820.000000	88.866000
819.000000	88.694300
818.000000	88.635600
817.000000	88.540200
816.000000	88.629000
815.000000	88.621700
814.000000	88.619800
813.000000	88.634000
812.000000	88.521500
811.000000	88.594700
810.000000	88.733600
809.000000	88.620400
808.000000	88.630100
807.000000	88.766900
806.000000	88.683700
805.000000	88.790500
804.000000	88.845700
803.000000	88.779900
802.000000	88.843900
801.000000	88.990200
800.000000	89.027200
799.000000	89.110400
798.000000	89.059700
797.000000	89.032300
796.000000	89.033000
795.000000	88.946700
794.000000	88.845800
793.000000	88.824700
792.000000	88.929200
791.000000	88.907800
790.000000	88.677500
789.000000	88.555300
788.000000	88.467400
787.000000	88.351400
786.000000	88.289700
785.000000	88.263900
784.000000	88.162000
783.000000	88.093700
782.000000	88.024700
781.000000	87.948200
780.000000	87.891200
779.000000	87.809200
778.000000	87.727900
777.000000	87.730400
776.000000	87.693300
775.000000	87.699300
774.000000	87.709700
773.000000	87.678300
772.000000	87.570900
771.000000	87.451800
770.000000	87.484600
769.000000	87.421100
768.000000	87.247500
767.000000	87.114400
766.000000	87.045200
765.000000	86.994900
764.000000	86.930300
763.000000	86.855500
762.000000	86.677800
761.000000	86.488700
760.000000	86.364800
759.000000	86.212400
758.000000	86.034400
757.000000	85.838300
756.000000	85.672000
755.000000	85.406500
754.000000	85.139300
753.000000	84.870000
752.000000	84.439000
751.000000	84.055900
750.000000	83.683100
749.000000	83.291800
748.000000	82.801300
747.000000	82.293000
746.000000	81.862700
745.000000	81.369700
744.000000	80.856800
743.000000	80.341900
742.000000	79.870900
741.000000	79.410500
740.000000	78.907900
739.000000	78.470100
738.000000	78.039100
737.000000	77.634000
736.000000	77.174500
735.000000	76.657500
734.000000	76.204000
733.000000	75.725500
732.000000	75.252800
731.000000	74.856000
730.000000	74.352300
729.000000	73.855200
728.000000	73.390700
727.000000	72.982600
726.000000	72.555600
725.000000	72.131900
724.000000	71.779800
723.000000	71.451200
722.000000	71.191000
721.000000	70.936800
720.000000	70.695600
719.000000	70.496200
718.000000	70.362500
717.000000	70.314000
716.000000	70.312300
715.000000	70.246400
714.000000	70.221500
713.000000	70.226900
712.000000	70.249800
711.000000	70.313400
710.000000	70.317700
709.000000	70.278100
708.000000	70.191000
707.000000	70.146000
706.000000	70.158800
705.000000	70.105100
704.000000	70.030500
703.000000	69.970900
702.000000	69.925900
701.000000	69.846900
700.000000	69.887100
699.000000	69.892800
698.000000	69.917700
697.000000	70.023000
696.000000	70.072400
695.000000	70.164000
694.000000	70.253300
693.000000	70.259400
692.000000	70.271900
691.000000	70.311000
690.000000	70.290700
689.000000	70.173000
688.000000	70.015600
687.000000	69.846100
686.000000	69.654300
685.000000	69.394100
684.000000	69.111300
683.000000	68.782300
682.000000	68.553200
681.000000	68.244400
680.000000	67.965000
679.000000	67.765100
678.000000	67.543900
677.000000	67.351800
676.000000	67.181400
675.000000	67.031300
674.000000	66.843800
673.000000	66.617100
672.000000	66.298400
671.000000	66.032300
670.000000	65.613400
669.000000	65.201500
668.000000	64.708600
667.000000	64.122400
666.000000	63.485800
665.000000	62.822900
664.000000	62.127800
663.000000	61.379800
662.000000	60.614500
661.000000	59.820100
660.000000	59.157900
659.000000	58.458400
658.000000	57.751900
657.000000	57.125000
656.000000	56.523000
655.000000	56.029800
654.000000	55.425100
653.000000	54.860700
652.000000	54.339300
651.000000	53.836900
650.000000	53.228800
649.000000	52.714700
648.000000	52.208000
647.000000	51.763100
646.000000	51.342300
645.000000	51.036200
644.000000	50.827600
643.000000	50.699200
642.000000	50.734000
641.000000	50.962000
640.000000	51.266000
639.000000	51.709600
638.000000	52.277800
637.000000	52.959300
636.000000	53.680000
635.000000	54.520600
634.000000	55.411100
633.000000	56.322400
632.000000	57.213200
631.000000	58.121400
630.000000	59.073800
629.000000	60.037800
628.000000	60.954900
627.000000	61.841600
626.000000	62.797600
625.000000	63.783600
624.000000	64.776200
623.000000	65.843700
622.000000	66.911800
621.000000	67.975000
620.000000	69.078900
619.000000	70.242100
618.000000	71.317900
617.000000	72.391100
616.000000	73.471800
615.000000	74.454500
614.000000	75.508600
613.000000	76.437100
612.000000	77.362600
611.000000	78.201900
610.000000	78.995900
609.000000	79.810700
608.000000	80.482200
607.000000	81.200500
606.000000	81.876100
605.000000	82.515600
604.000000	83.105600
603.000000	83.693700
602.000000	84.281500
601.000000	84.810100
600.000000	85.349800
599.000000	85.754100
598.000000	86.198400
597.000000	86.575700
596.000000	87.025900
595.000000	87.365000
594.000000	87.695600
593.000000	88.073400
592.000000	88.337300
591.000000	88.626300
590.000000	88.868400
589.000000	89.104000
588.000000	89.220600
587.000000	89.380900
586.000000	89.512900
585.000000	89.570600
584.000000	89.601700
583.000000	89.634000
582.000000	89.711800
581.000000	89.664400
580.000000	89.599500
579.000000	89.598900
578.000000	89.506000
577.000000	89.453700
576.000000	89.350500
575.000000	89.307300
574.000000	89.144200
573.000000	89.025900
572.000000	88.877800
571.000000	88.779100
570.000000	88.666600
569.000000	88.516400
568.000000	88.344900
567.000000	88.195700
566.000000	87.973600
565.000000	87.773800
564.000000	87.540000
563.000000	87.309200
562.000000	87.058500
561.000000	86.703500
560.000000	86.420100
559.000000	86.009700
558.000000	85.649900
557.000000	85.246600
556.000000	84.864300
555.000000	84.387700
554.000000	83.907100
553.000000	83.397800
552.000000	82.901400
551.000000	82.294600
550.000000	81.690000
549.000000	81.077000
548.000000	80.441600
547.000000	79.802300
546.000000	79.118000
545.000000	78.378700
544.000000	77.617400
543.000000	76.852600
542.000000	76.046700
541.000000	75.211100
540.000000	74.334000
539.000000	73.433000
538.000000	72.502400
537.000000	71.565100
536.000000	70.583600
535.000000	69.512300
534.000000	68.460900
533.000000	67.362600
532.000000	66.243600
531.000000	65.103200
530.000000	63.922200
529.000000	62.743200
528.000000	61.572700
527.000000	60.356100
526.000000	59.151300
525.000000	57.927700
524.000000	56.688600
523.000000	55.407700
522.000000	54.112900
521.000000	52.810000
520.000000	51.470200
519.000000	50.159200
518.000000	48.841600
517.000000	47.495300
516.000000	46.124100
515.000000	44.784800
514.000000	43.452900
513.000000	42.112100
512.000000	40.827800
511.000000	39.586500
510.000000	38.390300
509.000000	37.280000
508.000000	36.239000
507.000000	35.271900
506.000000	34.380900
505.000000	33.559700
504.000000	32.819600
503.000000	32.164200
502.000000	31.561500
501.000000	31.063600
500.000000	30.656000
499.000000	30.334300
498.000000	30.066500
497.000000	29.894800
496.000000	29.769900
495.000000	29.707400
494.000000	29.692600
493.000000	29.711900
492.000000	29.737100
491.000000	29.799000
490.000000	29.870100
489.000000	29.943700
488.000000	30.016700
487.000000	30.085400
486.000000	30.133000
485.000000	30.170000
484.000000	30.193800
483.000000	30.203300
482.000000	30.189400
481.000000	30.152900
480.000000	30.087800
479.000000	30.003900
478.000000	29.917200
477.000000	29.819200
476.000000	29.687000
475.000000	29.550200
474.000000	29.431400
473.000000	29.289500
472.000000	29.130200
471.000000	28.984200
470.000000	28.823300
469.000000	28.650200
468.000000	28.475000
467.000000	28.305100
466.000000	28.147100
465.000000	27.965800
464.000000	27.743000
463.000000	27.525400
462.000000	27.340000
461.000000	27.120000
460.000000	26.877300
459.000000	26.655200
458.000000	26.425800
457.000000	26.164600
456.000000	25.929200
455.000000	25.681900
454.000000	25.396100
453.000000	25.096700
452.000000	24.795500
451.000000	24.478600
450.000000	24.143300
449.000000	23.793000
448.000000	23.439200
447.000000	23.072300
446.000000	22.674200
445.000000	22.258200
444.000000	21.819200
443.000000	21.383900
442.000000	20.933500
441.000000	20.471100
440.000000	19.984500
439.000000	19.475700
438.000000	18.968800
437.000000	18.466100
436.000000	17.953200
435.000000	17.429300
434.000000	16.898700
433.000000	16.354900
432.000000	15.833600
431.000000	15.316800
430.000000	14.786000
429.000000	14.257000
428.000000	13.749900
427.000000	13.261400
426.000000	12.780200
425.000000	12.305200
424.000000	11.844300
423.000000	11.416200
422.000000	11.003500
421.000000	10.602600
420.000000	10.237900
419.000000	9.889500
418.000000	9.556500
417.000000	9.257300
416.000000	8.968000
415.000000	8.704800
414.000000	8.469600
413.000000	8.248500
412.000000	8.044100
411.000000	7.859900
410.000000	7.694800
409.000000	7.541100
408.000000	7.410800
407.000000	7.289800
406.000000	7.179700
405.000000	7.096500
404.000000	7.002400
403.000000	6.911900
402.000000	6.845600
401.000000	6.784800
400.000000	6.724100
399.000000	6.654100
398.000000	6.611900
397.000000	6.570800
396.000000	6.527500
395.000000	6.488700
394.000000	6.457500
393.000000	6.424500
392.000000	6.380300
391.000000	6.338500
390.000000	6.305200
389.000000	6.283900
388.000000	6.257500
387.000000	6.222600
386.000000	6.202700
385.000000	6.188000
384.000000	6.153800
383.000000	6.119100
382.000000	6.100200
381.000000	6.071700
380.000000	6.057300
379.000000	6.041000
378.000000	6.000200
377.000000	5.963900
376.000000	5.950400
375.000000	5.984200
374.000000	5.934300
373.000000	5.851100
372.000000	5.845600
371.000000	5.844300
370.000000	5.856400
369.000000	5.832100
368.000000	5.788400
367.000000	5.776700
366.000000	5.765300
365.000000	5.760400
364.000000	5.720700
363.000000	5.650600
362.000000	5.709100
361.000000	5.696300
360.000000	5.687400
359.000000	5.659500
358.000000	5.637000
357.000000	5.626800
356.000000	5.592400
355.000000	5.562200
354.000000	5.528100
353.000000	5.530800
352.000000	5.555900
351.000000	5.469600
350.000000	5.451300
349.000000	5.511800
348.000000	5.466700
347.000000	5.487400
346.000000	5.455300
345.000000	5.470800
344.000000	5.427300
343.000000	5.421100
342.000000	5.465300
341.000000	5.470600
340.000000	5.436800
339.000000	5.404600
338.000000	5.405200
337.000000	5.426000
336.000000	5.376500
335.000000	5.421800
334.000000	5.438800
333.000000	5.442100
332.000000	5.421100
331.000000	5.400000
330.000000	5.437800
329.000000	5.438500
328.000000	5.456400
327.000000	5.434500
326.000000	5.445600
325.000000	5.452800
324.000000	5.400800
323.000000	5.453600
322.000000	5.418900
321.000000	5.419400
320.000000	5.510000
319.000000	5.542600
318.000000	5.432600
317.000000	5.418900
316.000000	5.474400
315.000000	5.443000
314.000000	5.476200
313.000000	5.475100
312.000000	5.513100
311.000000	5.491100
310.000000	5.468600
309.000000	5.493500
308.000000	5.506500
307.000000	5.518400
306.000000	5.511500
305.000000	5.495200
304.000000	5.518800
303.000000	5.501800
302.000000	5.501900
301.000000	5.516600
300.000000	5.503900
299.000000	5.517500
298.000000	5.532200
297.000000	5.548400
296.000000	5.544300
295.000000	5.575500
294.000000	5.543000
293.000000	5.550800
292.000000	5.568000
291.000000	5.545600
290.000000	5.585700
289.000000	5.604100
288.000000	5.589000
287.000000	5.540600
286.000000	5.634700
285.000000	5.609900
284.000000	5.619900
283.000000	5.629400
282.000000	5.660900
281.000000	5.650500
280.000000	5.674500
279.000000	5.688900
278.000000	5.653400
277.000000	5.716800
276.000000	5.722700
275.000000	5.737000
274.000000	5.752300
273.000000	5.728800
272.000000	5.769800
271.000000	5.786700
270.000000	5.811700
269.000000	5.826000
268.000000	5.869600
267.000000	5.909700
266.000000	5.896200
265.000000	5.958500
264.000000	5.988100
263.000000	5.975300
262.000000	5.984800
261.000000	5.979100
260.000000	6.037900
259.000000	6.075300
258.000000	6.105600
257.000000	6.109800
256.000000	6.122300
255.000000	6.076800
254.000000	6.132800
253.000000	6.148000
252.000000	6.183900
251.000000	6.189600
250.000000	6.193700
