PE UV       SUBTECH     SPECTRUM    ASCII       PEDS        4.00        
   -1
CICIMAUCR0141-1.Sample.ASC
24/04/19
14:36:41.00
24/04/19
14:36:41.00
Vinicio Soto Monge
C. kalinini
250,000000
1
Lambda 1050
1050L1511233
PerkinElmer UV WinLab 6.3.2.0749 / 2.02.05 Lambda 900 UV/VIS/NIR, Aug  7 2015 09:38:08

0
0
3350/servo 860,8/2
0
0
UV/VIS
1
1
1
DoubleDePol,CommonBeamDepol,RBeamAtt,SBeamAtt,60mm sphere, WB InGaAs Detector
0
0
0
0
Program
Program
3350/servo 860,8/2
3350/0,2 860,8/0,2
3350/0,2 860,8/0,2
0
15.00
 
 
 
0
 
860,8
319,2
860,8
Front
100
on
S:100 R:100
0
0
0
0
 
0
 
 
 
0
 
 
0
0
0
0
0
 
 
 
 
0
0


0
0
#HDR
-1
-1
#GR
nm
%R
1.0
0.0
2500,000000
-1,000000
2251
8
97,649500
5,759200
#DATA
2500.000000	11.416200
2499.000000	11.320400
2498.000000	11.363100
2497.000000	11.386200
2496.000000	11.321500
2495.000000	11.194400
2494.000000	11.367600
2493.000000	11.283100
2492.000000	11.341800
2491.000000	11.337300
2490.000000	11.320600
2489.000000	11.262600
2488.000000	11.226400
2487.000000	11.274700
2486.000000	11.245500
2485.000000	11.219400
2484.000000	11.209100
2483.000000	11.269900
2482.000000	11.270500
2481.000000	11.306900
2480.000000	11.321400
2479.000000	11.350900
2478.000000	11.321800
2477.000000	11.364700
2476.000000	11.415500
2475.000000	11.418400
2474.000000	11.454500
2473.000000	11.514800
2472.000000	11.522200
2471.000000	11.589600
2470.000000	11.624600
2469.000000	11.634100
2468.000000	11.673500
2467.000000	11.755200
2466.000000	11.745300
2465.000000	11.789800
2464.000000	11.877900
2463.000000	11.920800
2462.000000	11.988800
2461.000000	12.057800
2460.000000	12.126800
2459.000000	12.183600
2458.000000	12.241400
2457.000000	12.336200
2456.000000	12.395100
2455.000000	12.495900
2454.000000	12.580500
2453.000000	12.654200
2452.000000	12.762300
2451.000000	12.869300
2450.000000	12.963300
2449.000000	13.052200
2448.000000	13.168700
2447.000000	13.263500
2446.000000	13.382000
2445.000000	13.485700
2444.000000	13.597200
2443.000000	13.713900
2442.000000	13.824800
2441.000000	13.946500
2440.000000	14.029200
2439.000000	14.160900
2438.000000	14.262500
2437.000000	14.404600
2436.000000	14.495200
2435.000000	14.605500
2434.000000	14.707600
2433.000000	14.826900
2432.000000	14.927300
2431.000000	15.028900
2430.000000	15.131000
2429.000000	15.235600
2428.000000	15.334200
2427.000000	15.426400
2426.000000	15.520700
2425.000000	15.579400
2424.000000	15.608700
2423.000000	15.653000
2422.000000	15.690900
2421.000000	15.751600
2420.000000	15.825200
2419.000000	15.907000
2418.000000	15.968100
2417.000000	16.015400
2416.000000	16.063900
2415.000000	16.100300
2414.000000	16.141600
2413.000000	16.205200
2412.000000	16.236300
2411.000000	16.262400
2410.000000	16.292500
2409.000000	16.335100
2408.000000	16.355800
2407.000000	16.361800
2406.000000	16.378600
2405.000000	16.428100
2404.000000	16.459900
2403.000000	16.453900
2402.000000	16.449600
2401.000000	16.483100
2400.000000	16.517200
2399.000000	16.528800
2398.000000	16.524600
2397.000000	16.538000
2396.000000	16.551300
2395.000000	16.565000
2394.000000	16.582200
2393.000000	16.580100
2392.000000	16.567800
2391.000000	16.584900
2390.000000	16.597000
2389.000000	16.590100
2388.000000	16.595000
2387.000000	16.586200
2386.000000	16.568600
2385.000000	16.565400
2384.000000	16.567500
2383.000000	16.559500
2382.000000	16.545900
2381.000000	16.515600
2380.000000	16.496100
2379.000000	16.480100
2378.000000	16.467400
2377.000000	16.449900
2376.000000	16.420900
2375.000000	16.394800
2374.000000	16.386400
2373.000000	16.360000
2372.000000	16.330900
2371.000000	16.315500
2370.000000	16.296900
2369.000000	16.277500
2368.000000	16.260800
2367.000000	16.260300
2366.000000	16.241400
2365.000000	16.226200
2364.000000	16.215700
2363.000000	16.211300
2362.000000	16.203500
2361.000000	16.182300
2360.000000	16.170600
2359.000000	16.163200
2358.000000	16.146700
2357.000000	16.116300
2356.000000	16.091700
2355.000000	16.071500
2354.000000	16.034100
2353.000000	16.001900
2352.000000	15.984900
2351.000000	15.939800
2350.000000	15.910500
2349.000000	15.891500
2348.000000	15.855600
2347.000000	15.815400
2346.000000	15.789900
2345.000000	15.783000
2344.000000	15.742400
2343.000000	15.703800
2342.000000	15.689600
2341.000000	15.665800
2340.000000	15.648200
2339.000000	15.640300
2338.000000	15.613100
2337.000000	15.598100
2336.000000	15.583300
2335.000000	15.566400
2334.000000	15.568800
2333.000000	15.570700
2332.000000	15.572200
2331.000000	15.581500
2330.000000	15.592600
2329.000000	15.595200
2328.000000	15.594800
2327.000000	15.619300
2326.000000	15.639500
2325.000000	15.655000
2324.000000	15.668900
2323.000000	15.673600
2322.000000	15.686900
2321.000000	15.695300
2320.000000	15.688200
2319.000000	15.684700
2318.000000	15.665300
2317.000000	15.655900
2316.000000	15.632500
2315.000000	15.591500
2314.000000	15.562700
2313.000000	15.546100
2312.000000	15.503800
2311.000000	15.451600
2310.000000	15.412500
2309.000000	15.381300
2308.000000	15.334900
2307.000000	15.303200
2306.000000	15.268700
2305.000000	15.251400
2304.000000	15.230700
2303.000000	15.194300
2302.000000	15.179700
2301.000000	15.161300
2300.000000	15.159500
2299.000000	15.155200
2298.000000	15.153200
2297.000000	15.157800
2296.000000	15.154000
2295.000000	15.170600
2294.000000	15.186300
2293.000000	15.216900
2292.000000	15.221600
2291.000000	15.244700
2290.000000	15.268500
2289.000000	15.292900
2288.000000	15.321100
2287.000000	15.343800
2286.000000	15.383000
2285.000000	15.426400
2284.000000	15.450800
2283.000000	15.469800
2282.000000	15.504900
2281.000000	15.559300
2280.000000	15.578300
2279.000000	15.585600
2278.000000	15.616500
2277.000000	15.643900
2276.000000	15.696400
2275.000000	15.709200
2274.000000	15.729500
2273.000000	15.741800
2272.000000	15.733300
2271.000000	15.759900
2270.000000	15.776900
2269.000000	15.820400
2268.000000	15.878600
2267.000000	15.910400
2266.000000	15.955900
2265.000000	16.009800
2264.000000	16.084700
2263.000000	16.164500
2262.000000	16.271500
2261.000000	16.353000
2260.000000	16.496900
2259.000000	16.601800
2258.000000	16.744400
2257.000000	16.903100
2256.000000	17.013300
2255.000000	17.168400
2254.000000	17.341700
2253.000000	17.519300
2252.000000	17.648000
2251.000000	17.803900
2250.000000	17.963200
2249.000000	18.128200
2248.000000	18.249600
2247.000000	18.402600
2246.000000	18.521400
2245.000000	18.648300
2244.000000	18.766400
2243.000000	18.861500
2242.000000	18.941500
2241.000000	19.003800
2240.000000	19.074300
2239.000000	19.156900
2238.000000	19.183300
2237.000000	19.216800
2236.000000	19.242700
2235.000000	19.276300
2234.000000	19.274800
2233.000000	19.261500
2232.000000	19.246000
2231.000000	19.235100
2230.000000	19.180500
2229.000000	19.176400
2228.000000	19.135200
2227.000000	19.071000
2226.000000	19.006200
2225.000000	18.965400
2224.000000	18.888200
2223.000000	18.818300
2222.000000	18.741600
2221.000000	18.667000
2220.000000	18.590800
2219.000000	18.513300
2218.000000	18.405500
2217.000000	18.333600
2216.000000	18.264400
2215.000000	18.196700
2214.000000	18.106200
2213.000000	18.022000
2212.000000	17.928400
2211.000000	17.849200
2210.000000	17.773000
2209.000000	17.717500
2208.000000	17.654300
2207.000000	17.572200
2206.000000	17.509500
2205.000000	17.477800
2204.000000	17.403700
2203.000000	17.337500
2202.000000	17.294500
2201.000000	17.227500
2200.000000	17.175000
2199.000000	17.141100
2198.000000	17.084800
2197.000000	17.041900
2196.000000	16.999200
2195.000000	16.953800
2194.000000	16.923900
2193.000000	16.872800
2192.000000	16.835600
2191.000000	16.804800
2190.000000	16.773600
2189.000000	16.762100
2188.000000	16.727900
2187.000000	16.693700
2186.000000	16.657700
2185.000000	16.620100
2184.000000	16.583000
2183.000000	16.551200
2182.000000	16.528200
2181.000000	16.498100
2180.000000	16.470600
2179.000000	16.443500
2178.000000	16.429600
2177.000000	16.408000
2176.000000	16.383200
2175.000000	16.370500
2174.000000	16.380200
2173.000000	16.352200
2172.000000	16.345800
2171.000000	16.364100
2170.000000	16.368900
2169.000000	16.385200
2168.000000	16.409100
2167.000000	16.410100
2166.000000	16.432300
2165.000000	16.469700
2164.000000	16.505200
2163.000000	16.534600
2162.000000	16.576200
2161.000000	16.632600
2160.000000	16.684600
2159.000000	16.730200
2158.000000	16.795300
2157.000000	16.875300
2156.000000	16.982700
2155.000000	17.055600
2154.000000	17.132900
2153.000000	17.220400
2152.000000	17.307400
2151.000000	17.428400
2150.000000	17.530300
2149.000000	17.617100
2148.000000	17.719400
2147.000000	17.814000
2146.000000	17.920200
2145.000000	18.019500
2144.000000	18.112800
2143.000000	18.207600
2142.000000	18.295700
2141.000000	18.388200
2140.000000	18.495800
2139.000000	18.575100
2138.000000	18.655700
2137.000000	18.746200
2136.000000	18.837100
2135.000000	18.915300
2134.000000	18.970500
2133.000000	19.038500
2132.000000	19.131800
2131.000000	19.189700
2130.000000	19.248700
2129.000000	19.315300
2128.000000	19.368100
2127.000000	19.429500
2126.000000	19.481100
2125.000000	19.528500
2124.000000	19.575400
2123.000000	19.609500
2122.000000	19.651000
2121.000000	19.693100
2120.000000	19.725500
2119.000000	19.758500
2118.000000	19.781700
2117.000000	19.803500
2116.000000	19.826800
2115.000000	19.844800
2114.000000	19.858400
2113.000000	19.856800
2112.000000	19.872500
2111.000000	19.875700
2110.000000	19.869000
2109.000000	19.881500
2108.000000	19.884800
2107.000000	19.879600
2106.000000	19.884400
2105.000000	19.892700
2104.000000	19.890700
2103.000000	19.894600
2102.000000	19.900500
2101.000000	19.895200
2100.000000	19.893500
2099.000000	19.902800
2098.000000	19.923300
2097.000000	19.922900
2096.000000	19.934000
2095.000000	19.962700
2094.000000	19.987400
2093.000000	20.011700
2092.000000	20.032300
2091.000000	20.050900
2090.000000	20.061800
2089.000000	20.078700
2088.000000	20.089800
2087.000000	20.106100
2086.000000	20.126400
2085.000000	20.123400
2084.000000	20.126400
2083.000000	20.116200
2082.000000	20.101600
2081.000000	20.072000
2080.000000	20.036900
2079.000000	20.006200
2078.000000	19.970400
2077.000000	19.909700
2076.000000	19.851900
2075.000000	19.785200
2074.000000	19.700000
2073.000000	19.614400
2072.000000	19.524300
2071.000000	19.427200
2070.000000	19.326700
2069.000000	19.219400
2068.000000	19.106600
2067.000000	18.993900
2066.000000	18.883200
2065.000000	18.773500
2064.000000	18.665200
2063.000000	18.542200
2062.000000	18.414300
2061.000000	18.308500
2060.000000	18.213300
2059.000000	18.134600
2058.000000	18.049000
2057.000000	17.973500
2056.000000	17.917700
2055.000000	17.889100
2054.000000	17.861900
2053.000000	17.869900
2052.000000	17.885700
2051.000000	17.903700
2050.000000	17.965400
2049.000000	18.031400
2048.000000	18.114300
2047.000000	18.224100
2046.000000	18.340300
2045.000000	18.446000
2044.000000	18.566000
2043.000000	18.687000
2042.000000	18.819900
2041.000000	18.961200
2040.000000	19.085800
2039.000000	19.205400
2038.000000	19.352600
2037.000000	19.458700
2036.000000	19.557200
2035.000000	19.685100
2034.000000	19.796900
2033.000000	19.885800
2032.000000	19.965400
2031.000000	20.055800
2030.000000	20.143500
2029.000000	20.239100
2028.000000	20.329400
2027.000000	20.384600
2026.000000	20.441600
2025.000000	20.518200
2024.000000	20.575800
2023.000000	20.631700
2022.000000	20.679200
2021.000000	20.735600
2020.000000	20.786800
2019.000000	20.824600
2018.000000	20.861300
2017.000000	20.901500
2016.000000	20.927300
2015.000000	20.946600
2014.000000	20.952900
2013.000000	20.953800
2012.000000	20.953500
2011.000000	20.964800
2010.000000	20.969500
2009.000000	20.940900
2008.000000	20.909200
2007.000000	20.881600
2006.000000	20.867800
2005.000000	20.828300
2004.000000	20.788500
2003.000000	20.734700
2002.000000	20.673200
2001.000000	20.607500
2000.000000	20.555600
1999.000000	20.496700
1998.000000	20.430300
1997.000000	20.352900
1996.000000	20.276900
1995.000000	20.180700
1994.000000	20.084400
1993.000000	20.019300
1992.000000	19.912000
1991.000000	19.834300
1990.000000	19.724600
1989.000000	19.637800
1988.000000	19.538300
1987.000000	19.430800
1986.000000	19.309700
1985.000000	19.203300
1984.000000	19.105500
1983.000000	19.004500
1982.000000	18.879700
1981.000000	18.780000
1980.000000	18.680300
1979.000000	18.565700
1978.000000	18.478100
1977.000000	18.379200
1976.000000	18.244800
1975.000000	18.191800
1974.000000	18.085700
1973.000000	17.979200
1972.000000	17.867400
1971.000000	17.784500
1970.000000	17.668700
1969.000000	17.568900
1968.000000	17.488000
1967.000000	17.381100
1966.000000	17.297400
1965.000000	17.221500
1964.000000	17.101300
1963.000000	17.013500
1962.000000	16.939400
1961.000000	16.839800
1960.000000	16.741900
1959.000000	16.634100
1958.000000	16.547400
1957.000000	16.461400
1956.000000	16.360100
1955.000000	16.289200
1954.000000	16.187100
1953.000000	16.089100
1952.000000	15.997100
1951.000000	15.909000
1950.000000	15.852900
1949.000000	15.764400
1948.000000	15.706500
1947.000000	15.615100
1946.000000	15.570700
1945.000000	15.517600
1944.000000	15.458300
1943.000000	15.406800
1942.000000	15.358700
1941.000000	15.319300
1940.000000	15.300000
1939.000000	15.291200
1938.000000	15.275000
1937.000000	15.248600
1936.000000	15.238900
1935.000000	15.239700
1934.000000	15.257000
1933.000000	15.268200
1932.000000	15.321200
1931.000000	15.373700
1930.000000	15.406400
1929.000000	15.509300
1928.000000	15.601200
1927.000000	15.661800
1926.000000	15.753700
1925.000000	15.849700
1924.000000	15.956300
1923.000000	16.063700
1922.000000	16.231900
1921.000000	16.401300
1920.000000	16.584200
1919.000000	16.744200
1918.000000	16.917200
1917.000000	17.088400
1916.000000	17.279800
1915.000000	17.521600
1914.000000	17.821800
1913.000000	18.127700
1912.000000	18.434400
1911.000000	18.732700
1910.000000	19.010900
1909.000000	19.288000
1908.000000	19.641900
1907.000000	20.067600
1906.000000	20.567800
1905.000000	21.105400
1904.000000	21.609700
1903.000000	22.078800
1902.000000	22.584800
1901.000000	23.126400
1900.000000	23.726200
1899.000000	24.380000
1898.000000	25.032200
1897.000000	25.648100
1896.000000	26.204600
1895.000000	26.783400
1894.000000	27.409200
1893.000000	28.075000
1892.000000	28.847900
1891.000000	29.580100
1890.000000	30.236200
1889.000000	30.850400
1888.000000	31.470000
1887.000000	32.049400
1886.000000	32.630500
1885.000000	33.220500
1884.000000	33.808500
1883.000000	34.341000
1882.000000	34.812800
1881.000000	35.279500
1880.000000	35.703100
1879.000000	36.117500
1878.000000	36.526100
1877.000000	36.911700
1876.000000	37.287400
1875.000000	37.669000
1874.000000	38.022700
1873.000000	38.354200
1872.000000	38.676200
1871.000000	38.922600
1870.000000	39.124400
1869.000000	39.326900
1868.000000	39.523400
1867.000000	39.637400
1866.000000	39.730100
1865.000000	39.835000
1864.000000	39.953900
1863.000000	40.072100
1862.000000	40.194800
1861.000000	40.347500
1860.000000	40.478000
1859.000000	40.578700
1858.000000	40.667400
1857.000000	40.735500
1856.000000	40.788000
1855.000000	40.845200
1854.000000	40.887200
1853.000000	40.892300
1852.000000	40.913700
1851.000000	40.946200
1850.000000	41.005700
1849.000000	41.063900
1848.000000	41.072400
1847.000000	41.067500
1846.000000	41.010600
1845.000000	40.952900
1844.000000	40.928300
1843.000000	40.942700
1842.000000	40.955900
1841.000000	40.939300
1840.000000	40.905400
1839.000000	40.858500
1838.000000	40.824400
1837.000000	40.787000
1836.000000	40.740600
1835.000000	40.663600
1834.000000	40.578700
1833.000000	40.529000
1832.000000	40.503500
1831.000000	40.478500
1830.000000	40.452100
1829.000000	40.421700
1828.000000	40.373500
1827.000000	40.350300
1826.000000	40.327400
1825.000000	40.302600
1824.000000	40.289900
1823.000000	40.332100
1822.000000	40.381300
1821.000000	40.402500
1820.000000	40.396900
1819.000000	40.349900
1818.000000	40.321200
1817.000000	40.319500
1816.000000	40.323600
1815.000000	40.304700
1814.000000	40.288400
1813.000000	40.278700
1812.000000	40.267600
1811.000000	40.220700
1810.000000	40.167700
1809.000000	40.132000
1808.000000	40.114000
1807.000000	40.093100
1806.000000	40.064300
1805.000000	40.014600
1804.000000	39.984800
1803.000000	39.973200
1802.000000	39.967500
1801.000000	39.940800
1800.000000	39.895100
1799.000000	39.863200
1798.000000	39.834700
1797.000000	39.810800
1796.000000	39.786200
1795.000000	39.753700
1794.000000	39.714800
1793.000000	39.695900
1792.000000	39.678800
1791.000000	39.658900
1790.000000	39.661200
1789.000000	39.662500
1788.000000	39.660900
1787.000000	39.672500
1786.000000	39.672900
1785.000000	39.665000
1784.000000	39.666200
1783.000000	39.663100
1782.000000	39.647300
1781.000000	39.638600
1780.000000	39.610600
1779.000000	39.577400
1778.000000	39.543200
1777.000000	39.500100
1776.000000	39.446000
1775.000000	39.404000
1774.000000	39.338600
1773.000000	39.278700
1772.000000	39.258300
1771.000000	39.206300
1770.000000	39.142000
1769.000000	39.102200
1768.000000	39.059800
1767.000000	39.013000
1766.000000	38.968100
1765.000000	38.938700
1764.000000	38.923700
1763.000000	38.916500
1762.000000	38.910600
1761.000000	38.892600
1760.000000	38.904300
1759.000000	38.929600
1758.000000	38.945700
1757.000000	38.935500
1756.000000	38.944200
1755.000000	38.959600
1754.000000	38.984100
1753.000000	38.983900
1752.000000	38.977800
1751.000000	38.968200
1750.000000	38.948700
1749.000000	38.912300
1748.000000	38.861700
1747.000000	38.817300
1746.000000	38.742600
1745.000000	38.651600
1744.000000	38.560400
1743.000000	38.460900
1742.000000	38.350100
1741.000000	38.232400
1740.000000	38.100400
1739.000000	38.005000
1738.000000	37.900200
1737.000000	37.813800
1736.000000	37.711800
1735.000000	37.610300
1734.000000	37.538300
1733.000000	37.439400
1732.000000	37.361100
1731.000000	37.262500
1730.000000	37.189300
1729.000000	37.116200
1728.000000	37.028900
1727.000000	36.943300
1726.000000	36.902600
1725.000000	36.868000
1724.000000	36.872100
1723.000000	36.892300
1722.000000	37.015500
1721.000000	37.201900
1720.000000	37.444100
1719.000000	37.697900
1718.000000	37.966400
1717.000000	38.269500
1716.000000	38.570900
1715.000000	38.850200
1714.000000	39.122200
1713.000000	39.379600
1712.000000	39.570500
1711.000000	39.778700
1710.000000	39.948500
1709.000000	40.121600
1708.000000	40.266300
1707.000000	40.353200
1706.000000	40.462600
1705.000000	40.570200
1704.000000	40.603900
1703.000000	40.664300
1702.000000	40.705200
1701.000000	40.716400
1700.000000	40.721700
1699.000000	40.732200
1698.000000	40.731000
1697.000000	40.705100
1696.000000	40.679200
1695.000000	40.590800
1694.000000	40.483400
1693.000000	40.354300
1692.000000	40.219700
1691.000000	40.101200
1690.000000	39.974300
1689.000000	39.922700
1688.000000	39.908500
1687.000000	39.933100
1686.000000	40.038700
1685.000000	40.243500
1684.000000	40.467300
1683.000000	40.712800
1682.000000	40.970600
1681.000000	41.250600
1680.000000	41.522800
1679.000000	41.748000
1678.000000	41.968500
1677.000000	42.190000
1676.000000	42.361100
1675.000000	42.542200
1674.000000	42.725400
1673.000000	42.919500
1672.000000	43.099200
1671.000000	43.303800
1670.000000	43.516200
1669.000000	43.724400
1668.000000	43.921800
1667.000000	44.116800
1666.000000	44.300600
1665.000000	44.497300
1664.000000	44.655500
1663.000000	44.841100
1662.000000	45.005000
1661.000000	45.134900
1660.000000	45.294400
1659.000000	45.416100
1658.000000	45.522800
1657.000000	45.617000
1656.000000	45.708200
1655.000000	45.768600
1654.000000	45.824800
1653.000000	45.862100
1652.000000	45.887900
1651.000000	45.920400
1650.000000	45.935700
1649.000000	45.950200
1648.000000	45.943300
1647.000000	45.953400
1646.000000	45.955700
1645.000000	45.939100
1644.000000	45.936500
1643.000000	45.931300
1642.000000	45.919700
1641.000000	45.910400
1640.000000	45.901700
1639.000000	45.890100
1638.000000	45.874500
1637.000000	45.868000
1636.000000	45.815400
1635.000000	45.798500
1634.000000	45.772200
1633.000000	45.736300
1632.000000	45.689300
1631.000000	45.642700
1630.000000	45.601100
1629.000000	45.549300
1628.000000	45.497200
1627.000000	45.451500
1626.000000	45.392700
1625.000000	45.332900
1624.000000	45.287900
1623.000000	45.248900
1622.000000	45.204600
1621.000000	45.151500
1620.000000	45.107000
1619.000000	45.064800
1618.000000	45.037100
1617.000000	44.990600
1616.000000	44.940200
1615.000000	44.885000
1614.000000	44.834300
1613.000000	44.768000
1612.000000	44.712600
1611.000000	44.646700
1610.000000	44.587700
1609.000000	44.512800
1608.000000	44.420100
1607.000000	44.341800
1606.000000	44.263700
1605.000000	44.168500
1604.000000	44.075100
1603.000000	43.981100
1602.000000	43.891600
1601.000000	43.805600
1600.000000	43.713100
1599.000000	43.620900
1598.000000	43.537100
1597.000000	43.450500
1596.000000	43.361600
1595.000000	43.288800
1594.000000	43.232000
1593.000000	43.174800
1592.000000	43.110300
1591.000000	43.039400
1590.000000	42.992100
1589.000000	42.927100
1588.000000	42.856500
1587.000000	42.808200
1586.000000	42.747000
1585.000000	42.694100
1584.000000	42.644500
1583.000000	42.589900
1582.000000	42.545300
1581.000000	42.497300
1580.000000	42.470000
1579.000000	42.444700
1578.000000	42.420300
1577.000000	42.400000
1576.000000	42.378200
1575.000000	42.365800
1574.000000	42.357200
1573.000000	42.362900
1572.000000	42.375300
1571.000000	42.376600
1570.000000	42.383500
1569.000000	42.405400
1568.000000	42.427700
1567.000000	42.448400
1566.000000	42.470600
1565.000000	42.485100
1564.000000	42.503500
1563.000000	42.502700
1562.000000	42.502000
1561.000000	42.498400
1560.000000	42.487100
1559.000000	42.463900
1558.000000	42.427700
1557.000000	42.388400
1556.000000	42.337800
1555.000000	42.281400
1554.000000	42.209200
1553.000000	42.147800
1552.000000	42.071000
1551.000000	41.972200
1550.000000	41.884300
1549.000000	41.787400
1548.000000	41.690300
1547.000000	41.611800
1546.000000	41.533100
1545.000000	41.452300
1544.000000	41.396700
1543.000000	41.347500
1542.000000	41.288000
1541.000000	41.242700
1540.000000	41.182600
1539.000000	41.135100
1538.000000	41.076000
1537.000000	41.029200
1536.000000	40.977500
1535.000000	40.917000
1534.000000	40.854600
1533.000000	40.785700
1532.000000	40.723200
1531.000000	40.643900
1530.000000	40.568900
1529.000000	40.505400
1528.000000	40.416500
1527.000000	40.330200
1526.000000	40.250700
1525.000000	40.179900
1524.000000	40.106400
1523.000000	40.009800
1522.000000	39.920900
1521.000000	39.841400
1520.000000	39.752400
1519.000000	39.659000
1518.000000	39.568300
1517.000000	39.480600
1516.000000	39.383300
1515.000000	39.277500
1514.000000	39.175200
1513.000000	39.078900
1512.000000	38.974000
1511.000000	38.874100
1510.000000	38.763500
1509.000000	38.674900
1508.000000	38.585500
1507.000000	38.482400
1506.000000	38.381200
1505.000000	38.296400
1504.000000	38.199700
1503.000000	38.109400
1502.000000	38.022200
1501.000000	37.945600
1500.000000	37.876600
1499.000000	37.822400
1498.000000	37.776100
1497.000000	37.725900
1496.000000	37.697700
1495.000000	37.673100
1494.000000	37.664700
1493.000000	37.650000
1492.000000	37.634700
1491.000000	37.636100
1490.000000	37.643900
1489.000000	37.651300
1488.000000	37.671500
1487.000000	37.687200
1486.000000	37.690900
1485.000000	37.698400
1484.000000	37.705100
1483.000000	37.735300
1482.000000	37.769700
1481.000000	37.768500
1480.000000	37.809200
1479.000000	37.844000
1478.000000	37.883100
1477.000000	37.923900
1476.000000	37.969700
1475.000000	38.036400
1474.000000	38.119300
1473.000000	38.211900
1472.000000	38.288300
1471.000000	38.381800
1470.000000	38.448000
1469.000000	38.501400
1468.000000	38.593600
1467.000000	38.714400
1466.000000	38.811500
1465.000000	38.915800
1464.000000	39.012200
1463.000000	39.107900
1462.000000	39.215500
1461.000000	39.346700
1460.000000	39.447700
1459.000000	39.566900
1458.000000	39.677400
1457.000000	39.798600
1456.000000	39.901600
1455.000000	40.010000
1454.000000	40.118200
1453.000000	40.235700
1452.000000	40.364800
1451.000000	40.485600
1450.000000	40.546800
1449.000000	40.625200
1448.000000	40.753800
1447.000000	40.888900
1446.000000	41.030300
1445.000000	41.102900
1444.000000	41.186900
1443.000000	41.315600
1442.000000	41.437000
1441.000000	41.543700
1440.000000	41.647500
1439.000000	41.813600
1438.000000	41.940400
1437.000000	42.056000
1436.000000	42.182300
1435.000000	42.331500
1434.000000	42.509800
1433.000000	42.668100
1432.000000	42.854800
1431.000000	43.004800
1430.000000	43.189900
1429.000000	43.418500
1428.000000	43.618700
1427.000000	43.836000
1426.000000	44.082400
1425.000000	44.335100
1424.000000	44.618100
1423.000000	44.870100
1422.000000	45.134800
1421.000000	45.457700
1420.000000	45.833400
1419.000000	46.167500
1418.000000	46.484600
1417.000000	46.780200
1416.000000	47.190300
1415.000000	47.638000
1414.000000	48.094300
1413.000000	48.469700
1412.000000	48.855300
1411.000000	49.375500
1410.000000	49.905200
1409.000000	50.453600
1408.000000	50.944800
1407.000000	51.459100
1406.000000	51.977500
1405.000000	52.488700
1404.000000	52.991200
1403.000000	53.518200
1402.000000	54.045800
1401.000000	54.702300
1400.000000	55.195000
1399.000000	55.568500
1398.000000	55.938200
1397.000000	56.447000
1396.000000	57.038900
1395.000000	57.476800
1394.000000	57.800300
1393.000000	58.173900
1392.000000	58.650600
1391.000000	59.045200
1390.000000	59.408400
1389.000000	59.855700
1388.000000	60.317000
1387.000000	60.675800
1386.000000	61.026300
1385.000000	61.382400
1384.000000	61.737000
1383.000000	62.088800
1382.000000	62.357600
1381.000000	62.550700
1380.000000	62.690100
1379.000000	62.851100
1378.000000	62.975400
1377.000000	63.141400
1376.000000	63.274800
1375.000000	63.401900
1374.000000	63.567300
1373.000000	63.775800
1372.000000	63.927700
1371.000000	64.067500
1370.000000	64.188000
1369.000000	64.340800
1368.000000	64.501400
1367.000000	64.589100
1366.000000	64.732700
1365.000000	64.869400
1364.000000	64.942900
1363.000000	65.045700
1362.000000	65.192400
1361.000000	65.265400
1360.000000	65.267400
1359.000000	65.319100
1358.000000	65.382800
1357.000000	65.479800
1356.000000	65.596600
1355.000000	65.756900
1354.000000	65.908900
1353.000000	66.009600
1352.000000	66.238200
1351.000000	66.468100
1350.000000	66.693900
1349.000000	66.925300
1348.000000	67.172100
1347.000000	67.376500
1346.000000	67.587000
1345.000000	67.823900
1344.000000	68.052100
1343.000000	68.241100
1342.000000	68.421400
1341.000000	68.612500
1340.000000	68.782900
1339.000000	68.939600
1338.000000	69.084900
1337.000000	69.235100
1336.000000	69.365600
1335.000000	69.490800
1334.000000	69.629800
1333.000000	69.748000
1332.000000	69.869900
1331.000000	69.978900
1330.000000	70.071800
1329.000000	70.168200
1328.000000	70.243600
1327.000000	70.318500
1326.000000	70.396400
1325.000000	70.467600
1324.000000	70.529700
1323.000000	70.596200
1322.000000	70.655400
1321.000000	70.702300
1320.000000	70.760100
1319.000000	70.802900
1318.000000	70.859000
1317.000000	70.911200
1316.000000	70.957700
1315.000000	71.005000
1314.000000	71.040800
1313.000000	71.074800
1312.000000	71.109100
1311.000000	71.142700
1310.000000	71.177000
1309.000000	71.214300
1308.000000	71.238400
1307.000000	71.245300
1306.000000	71.263700
1305.000000	71.281500
1304.000000	71.287800
1303.000000	71.289400
1302.000000	71.293200
1301.000000	71.297400
1300.000000	71.292700
1299.000000	71.284300
1298.000000	71.274400
1297.000000	71.266400
1296.000000	71.244700
1295.000000	71.213500
1294.000000	71.196400
1293.000000	71.175400
1292.000000	71.143400
1291.000000	71.104000
1290.000000	71.068000
1289.000000	71.027100
1288.000000	70.984500
1287.000000	70.936800
1286.000000	70.886200
1285.000000	70.830600
1284.000000	70.778000
1283.000000	70.731300
1282.000000	70.675800
1281.000000	70.630900
1280.000000	70.586100
1279.000000	70.530300
1278.000000	70.489400
1277.000000	70.462300
1276.000000	70.436800
1275.000000	70.401400
1274.000000	70.366000
1273.000000	70.354400
1272.000000	70.329300
1271.000000	70.305800
1270.000000	70.297800
1269.000000	70.281900
1268.000000	70.268600
1267.000000	70.259000
1266.000000	70.242900
1265.000000	70.220000
1264.000000	70.205200
1263.000000	70.184400
1262.000000	70.177600
1261.000000	70.155800
1260.000000	70.135700
1259.000000	70.120000
1258.000000	70.113100
1257.000000	70.103500
1256.000000	70.090900
1255.000000	70.048000
1254.000000	70.033300
1253.000000	70.013900
1252.000000	69.965500
1251.000000	69.930100
1250.000000	69.879800
1249.000000	69.815500
1248.000000	69.752800
1247.000000	69.689500
1246.000000	69.622800
1245.000000	69.535500
1244.000000	69.463000
1243.000000	69.387700
1242.000000	69.317200
1241.000000	69.240700
1240.000000	69.179600
1239.000000	69.090100
1238.000000	69.012100
1237.000000	68.955400
1236.000000	68.894500
1235.000000	68.839800
1234.000000	68.775500
1233.000000	68.708100
1232.000000	68.634600
1231.000000	68.574000
1230.000000	68.509200
1229.000000	68.434400
1228.000000	68.391600
1227.000000	68.320700
1226.000000	68.246600
1225.000000	68.193400
1224.000000	68.134700
1223.000000	68.061200
1222.000000	68.004800
1221.000000	67.946600
1220.000000	67.880000
1219.000000	67.825500
1218.000000	67.757200
1217.000000	67.700000
1216.000000	67.638700
1215.000000	67.579400
1214.000000	67.517100
1213.000000	67.450300
1212.000000	67.392100
1211.000000	67.309000
1210.000000	67.209500
1209.000000	67.136500
1208.000000	67.068800
1207.000000	66.996400
1206.000000	66.896800
1205.000000	66.822300
1204.000000	66.731500
1203.000000	66.645900
1202.000000	66.569400
1201.000000	66.466700
1200.000000	66.389100
1199.000000	66.301800
1198.000000	66.197400
1197.000000	66.095700
1196.000000	65.983800
1195.000000	65.883000
1194.000000	65.772300
1193.000000	65.655500
1192.000000	65.550600
1191.000000	65.444400
1190.000000	65.368500
1189.000000	65.293800
1188.000000	65.223300
1187.000000	65.187900
1186.000000	65.151400
1185.000000	65.140300
1184.000000	65.110500
1183.000000	65.132100
1182.000000	65.154600
1181.000000	65.189600
1180.000000	65.203200
1179.000000	65.254500
1178.000000	65.293300
1177.000000	65.331700
1176.000000	65.348800
1175.000000	65.373200
1174.000000	65.424100
1173.000000	65.457400
1172.000000	65.513000
1171.000000	65.566300
1170.000000	65.629900
1169.000000	65.699800
1168.000000	65.765100
1167.000000	65.873000
1166.000000	65.985300
1165.000000	66.071800
1164.000000	66.196300
1163.000000	66.278600
1162.000000	66.398500
1161.000000	66.514200
1160.000000	66.582700
1159.000000	66.712100
1158.000000	66.782000
1157.000000	66.875500
1156.000000	66.956400
1155.000000	67.000700
1154.000000	67.072800
1153.000000	67.117400
1152.000000	67.142700
1151.000000	67.164000
1150.000000	67.169900
1149.000000	67.200900
1148.000000	67.221300
1147.000000	67.230000
1146.000000	67.237700
1145.000000	67.260500
1144.000000	67.259900
1143.000000	67.257600
1142.000000	67.282200
1141.000000	67.313000
1140.000000	67.346700
1139.000000	67.397600
1138.000000	67.448000
1137.000000	67.525400
1136.000000	67.592100
1135.000000	67.657200
1134.000000	67.690500
1133.000000	67.687300
1132.000000	67.732800
1131.000000	67.770600
1130.000000	67.814900
1129.000000	67.834700
1128.000000	67.831000
1127.000000	67.841000
1126.000000	67.842000
1125.000000	67.820500
1124.000000	67.820900
1123.000000	67.791600
1122.000000	67.730200
1121.000000	67.682500
1120.000000	67.623300
1119.000000	67.583800
1118.000000	67.516700
1117.000000	67.468000
1116.000000	67.407600
1115.000000	67.340500
1114.000000	67.277500
1113.000000	67.199000
1112.000000	67.133600
1111.000000	67.063200
1110.000000	67.003600
1109.000000	66.921000
1108.000000	66.849700
1107.000000	66.761900
1106.000000	66.698100
1105.000000	66.611100
1104.000000	66.523700
1103.000000	66.463800
1102.000000	66.364700
1101.000000	66.298000
1100.000000	66.217900
1099.000000	66.119600
1098.000000	66.036600
1097.000000	65.945400
1096.000000	65.862000
1095.000000	65.775400
1094.000000	65.685600
1093.000000	65.596800
1092.000000	65.504000
1091.000000	65.411000
1090.000000	65.317700
1089.000000	65.229400
1088.000000	65.138500
1087.000000	65.056400
1086.000000	64.970600
1085.000000	64.882200
1084.000000	64.782200
1083.000000	64.699800
1082.000000	64.608700
1081.000000	64.517400
1080.000000	64.436200
1079.000000	64.336600
1078.000000	64.253200
1077.000000	64.156400
1076.000000	64.071800
1075.000000	63.976500
1074.000000	63.875500
1073.000000	63.792300
1072.000000	63.717200
1071.000000	63.632900
1070.000000	63.533800
1069.000000	63.435400
1068.000000	63.362000
1067.000000	63.276400
1066.000000	63.168400
1065.000000	63.076700
1064.000000	62.997500
1063.000000	62.909900
1062.000000	62.823400
1061.000000	62.732100
1060.000000	62.634200
1059.000000	62.553700
1058.000000	62.462700
1057.000000	62.375600
1056.000000	62.296200
1055.000000	62.219700
1054.000000	62.132500
1053.000000	62.045800
1052.000000	61.951900
1051.000000	61.882500
1050.000000	61.806800
1049.000000	61.725700
1048.000000	61.645600
1047.000000	61.573500
1046.000000	61.493900
1045.000000	61.424600
1044.000000	61.349900
1043.000000	61.281500
1042.000000	61.220200
1041.000000	61.151600
1040.000000	61.089100
1039.000000	61.019000
1038.000000	60.947500
1037.000000	60.888100
1036.000000	60.823900
1035.000000	60.768800
1034.000000	60.716000
1033.000000	60.643400
1032.000000	60.580000
1031.000000	60.532300
1030.000000	60.461300
1029.000000	60.405300
1028.000000	60.358400
1027.000000	60.299000
1026.000000	60.232000
1025.000000	60.171000
1024.000000	60.129300
1023.000000	60.077000
1022.000000	60.022500
1021.000000	59.981400
1020.000000	59.924900
1019.000000	59.880200
1018.000000	59.863200
1017.000000	59.832500
1016.000000	59.793900
1015.000000	59.774400
1014.000000	59.741500
1013.000000	59.711800
1012.000000	59.702300
1011.000000	59.694400
1010.000000	59.675800
1009.000000	59.653400
1008.000000	59.642600
1007.000000	59.644200
1006.000000	59.649800
1005.000000	59.644200
1004.000000	59.640100
1003.000000	59.638700
1002.000000	59.651500
1001.000000	59.669000
1000.000000	59.679400
999.000000	59.703000
998.000000	59.718100
997.000000	59.733000
996.000000	59.768900
995.000000	59.794200
994.000000	59.816800
993.000000	59.864400
992.000000	59.895200
991.000000	59.924300
990.000000	59.947000
989.000000	59.994000
988.000000	60.048200
987.000000	60.093600
986.000000	60.144100
985.000000	60.190900
984.000000	60.250400
983.000000	60.311500
982.000000	60.347000
981.000000	60.414100
980.000000	60.467000
979.000000	60.543500
978.000000	60.610600
977.000000	60.680700
976.000000	60.734700
975.000000	60.799500
974.000000	60.879000
973.000000	60.944800
972.000000	61.029400
971.000000	61.102400
970.000000	61.173400
969.000000	61.245900
968.000000	61.336400
967.000000	61.436200
966.000000	61.534000
965.000000	61.616800
964.000000	61.718500
963.000000	61.828200
962.000000	61.919100
961.000000	62.020000
960.000000	62.148700
959.000000	62.251300
958.000000	62.339100
957.000000	62.460500
956.000000	62.586400
955.000000	62.703500
954.000000	62.818500
953.000000	62.930900
952.000000	63.059500
951.000000	63.175200
950.000000	63.291700
949.000000	63.422900
948.000000	63.541900
947.000000	63.683100
946.000000	63.807700
945.000000	63.941600
944.000000	64.045800
943.000000	64.172300
942.000000	64.294300
941.000000	64.401000
940.000000	64.534400
939.000000	64.642300
938.000000	64.762100
937.000000	64.895900
936.000000	65.025900
935.000000	65.145000
934.000000	65.252500
933.000000	65.363600
932.000000	65.487200
931.000000	65.583100
930.000000	65.698900
929.000000	65.822800
928.000000	65.917200
927.000000	66.035300
926.000000	66.144700
925.000000	66.278600
924.000000	66.386000
923.000000	66.514100
922.000000	66.623800
921.000000	66.750600
920.000000	66.861900
919.000000	67.026900
918.000000	67.132600
917.000000	67.250800
916.000000	67.389200
915.000000	67.535800
914.000000	67.665500
913.000000	67.797400
912.000000	67.960300
911.000000	68.100900
910.000000	68.248600
909.000000	68.425600
908.000000	68.537300
907.000000	68.708700
906.000000	68.842300
905.000000	69.012700
904.000000	69.147100
903.000000	69.295800
902.000000	69.424800
901.000000	69.570000
900.000000	69.735700
899.000000	69.865200
898.000000	70.015600
897.000000	70.145900
896.000000	70.269000
895.000000	70.425500
894.000000	70.553600
893.000000	70.686900
892.000000	70.832800
891.000000	70.985000
890.000000	71.127800
889.000000	71.270100
888.000000	71.420700
887.000000	71.556200
886.000000	71.695300
885.000000	71.874500
884.000000	72.009800
883.000000	72.164400
882.000000	72.323600
881.000000	72.474600
880.000000	72.647700
879.000000	72.804100
878.000000	72.967300
877.000000	73.138800
876.000000	73.321500
875.000000	73.491000
874.000000	73.687800
873.000000	73.892800
872.000000	74.081100
871.000000	74.284300
870.000000	74.491100
869.000000	74.705000
868.000000	74.929800
867.000000	75.124800
866.000000	75.371000
865.000000	75.604200
864.000000	75.872100
863.000000	76.125600
862.000000	76.384600
861.000000	76.610000
860.000000	76.879600
859.000000	77.103900
858.000000	77.362900
857.000000	77.021120
856.000000	77.762614
855.000000	78.019243
854.000000	78.694651
853.000000	78.732146
852.000000	79.179022
851.000000	79.716419
850.000000	80.128570
849.000000	80.551404
848.000000	81.097310
847.000000	81.310113
846.000000	81.731661
845.000000	82.459206
844.000000	82.825947
843.000000	83.252541
842.000000	83.576048
841.000000	84.052405
840.000000	84.850092
839.000000	85.154308
838.000000	85.540736
837.000000	85.960602
836.000000	86.239887
835.000000	86.785002
834.000000	87.321905
833.000000	87.945472
832.000000	88.213874
831.000000	88.588035
830.000000	88.940727
829.000000	89.476245
828.000000	89.790848
827.000000	90.271162
826.000000	90.642849
825.000000	90.872272
824.000000	91.230405
823.000000	91.426983
822.000000	91.718931
821.000000	92.126926
820.000000	92.454588
819.000000	92.486148
818.000000	92.826374
817.000000	93.134646
816.000000	93.332905
815.000000	93.429760
814.000000	93.567374
813.000000	93.860212
812.000000	93.945788
811.000000	94.138903
810.000000	94.282156
809.000000	94.365853
808.000000	94.624362
807.000000	94.670167
806.000000	94.771770
805.000000	94.957960
804.000000	94.997236
803.000000	95.088550
802.000000	95.277213
801.000000	95.332120
800.000000	95.333208
799.000000	95.575097
798.000000	95.611009
797.000000	95.528500
796.000000	95.553629
795.000000	95.726265
794.000000	95.821437
793.000000	95.829253
792.000000	95.921655
791.000000	95.996942
790.000000	96.053729
789.000000	96.084398
788.000000	96.280877
787.000000	96.294232
786.000000	96.281668
785.000000	96.387031
784.000000	96.308874
783.000000	96.306797
782.000000	96.457470
781.000000	96.475772
780.000000	96.487743
779.000000	96.549279
778.000000	96.556501
777.000000	96.583212
776.000000	96.531372
775.000000	96.495064
774.000000	96.571934
773.000000	96.606461
772.000000	96.578662
771.000000	96.561151
770.000000	96.509211
769.000000	96.468649
768.000000	96.456580
767.000000	96.425911
766.000000	96.270489
765.000000	96.150188
764.000000	96.109131
763.000000	95.969241
762.000000	95.849039
761.000000	95.758912
760.000000	95.678580
759.000000	95.571832
758.000000	95.408199
757.000000	95.279884
756.000000	95.102203
755.000000	94.951331
754.000000	94.788589
753.000000	94.584591
752.000000	94.379802
751.000000	94.120205
750.000000	93.900675
749.000000	93.650081
748.000000	93.339732
747.000000	93.053818
746.000000	92.785911
745.000000	92.435099
744.000000	92.097939
743.000000	91.760285
742.000000	91.305495
741.000000	90.899676
740.000000	90.505928
739.000000	90.048269
738.000000	89.634635
737.000000	89.260277
736.000000	88.806476
735.000000	88.331306
734.000000	87.869196
733.000000	87.382847
732.000000	86.901246
731.000000	86.419844
730.000000	85.914797
729.000000	85.396889
728.000000	84.840892
727.000000	84.312101
726.000000	83.792511
725.000000	83.255410
724.000000	82.726718
723.000000	82.161916
722.000000	81.651230
721.000000	81.136982
720.000000	80.628769
719.000000	80.178332
718.000000	79.749957
717.000000	79.273205
716.000000	78.857097
715.000000	78.449498
714.000000	78.050803
713.000000	77.711961
712.000000	77.405075
711.000000	77.041896
710.000000	76.757664
709.000000	76.540113
708.000000	76.259048
707.000000	75.947512
706.000000	75.696324
705.000000	75.424558
704.000000	75.145174
703.000000	74.853523
702.000000	74.563653
701.000000	74.252512
700.000000	73.920002
699.000000	73.639926
698.000000	73.288322
697.000000	72.976984
696.000000	72.624193
695.000000	72.298113
694.000000	71.999339
693.000000	71.642294
692.000000	71.315126
691.000000	70.971932
690.000000	70.589362
689.000000	70.215697
688.000000	69.841240
687.000000	69.432354
686.000000	69.025942
685.000000	68.573923
684.000000	68.081539
683.000000	67.641292
682.000000	67.162066
681.000000	66.665527
680.000000	66.182047
679.000000	65.653949
678.000000	65.178482
677.000000	64.705489
676.000000	64.253469
675.000000	63.832020
674.000000	63.380693
673.000000	63.051151
672.000000	62.701328
671.000000	62.389297
670.000000	62.109220
669.000000	61.924713
668.000000	61.719726
667.000000	61.595171
666.000000	61.433120
665.000000	61.304509
664.000000	61.246040
663.000000	61.184208
662.000000	61.107931
661.000000	60.983673
660.000000	60.948057
659.000000	60.901955
658.000000	60.786996
657.000000	60.714875
656.000000	60.617823
655.000000	60.533632
654.000000	60.469722
653.000000	60.440141
652.000000	60.416793
651.000000	60.375143
650.000000	60.416892
649.000000	60.402844
648.000000	60.409670
647.000000	60.461115
646.000000	60.440537
645.000000	60.492575
644.000000	60.443703
643.000000	60.471503
642.000000	60.400173
641.000000	60.315289
640.000000	60.270473
639.000000	60.158680
638.000000	60.070037
637.000000	59.963685
636.000000	59.886914
635.000000	59.792236
634.000000	59.739407
633.000000	59.733273
632.000000	59.710420
631.000000	59.679751
630.000000	59.763348
629.000000	59.842593
628.000000	59.925003
627.000000	60.029277
626.000000	60.223480
625.000000	60.392852
624.000000	60.576074
623.000000	60.860503
622.000000	61.118220
621.000000	61.453203
620.000000	61.815195
619.000000	62.145528
618.000000	62.568264
617.000000	63.028891
616.000000	63.499411
615.000000	63.972998
614.000000	64.483783
613.000000	65.012574
612.000000	65.591226
611.000000	66.118038
610.000000	66.704803
609.000000	67.272672
608.000000	67.829856
607.000000	68.461833
606.000000	69.058886
605.000000	69.638825
604.000000	70.210354
603.000000	70.796328
602.000000	71.358656
601.000000	71.969363
600.000000	72.450468
599.000000	72.921285
598.000000	73.373404
597.000000	73.785653
596.000000	74.208487
595.000000	74.513099
594.000000	74.933559
593.000000	75.249250
592.000000	75.594721
591.000000	75.894880
590.000000	76.220761
589.000000	76.430596
588.000000	76.622128
587.000000	76.795160
586.000000	76.873810
585.000000	76.963443
584.000000	77.004499
583.000000	76.995793
582.000000	77.014788
581.000000	77.042489
580.000000	77.012711
579.000000	77.010534
578.000000	76.958100
577.000000	76.870447
576.000000	76.775373
575.000000	76.622128
574.000000	76.457307
573.000000	76.236689
572.000000	76.012905
571.000000	75.803368
570.000000	75.628357
569.000000	75.395274
568.000000	75.191079
567.000000	74.957896
566.000000	74.662585
565.000000	74.380233
564.000000	74.062761
563.000000	73.663274
562.000000	73.293665
561.000000	72.934047
560.000000	72.565526
559.000000	72.221540
558.000000	71.812358
557.000000	71.388732
556.000000	70.897139
555.000000	70.399908
554.000000	69.907623
553.000000	69.324519
552.000000	68.779800
551.000000	68.214800
550.000000	67.622495
549.000000	66.993387
548.000000	66.326685
547.000000	65.678484
546.000000	64.973594
545.000000	64.222801
544.000000	63.444504
543.000000	62.614663
542.000000	61.795705
541.000000	60.945485
540.000000	60.059649
539.000000	59.181431
538.000000	58.298168
537.000000	57.380970
536.000000	56.456848
535.000000	55.519666
534.000000	54.611373
533.000000	53.686558
532.000000	52.744133
531.000000	51.834752
530.000000	50.949905
529.000000	50.069807
528.000000	49.224731
527.000000	48.402509
526.000000	47.599677
525.000000	46.777949
524.000000	46.008655
523.000000	45.231149
522.000000	44.478575
521.000000	43.717987
520.000000	43.021012
519.000000	42.304448
518.000000	41.627655
517.000000	40.960657
516.000000	40.260813
515.000000	39.571753
514.000000	38.914944
513.000000	38.260411
512.000000	37.597864
511.000000	36.931558
510.000000	36.261097
509.000000	35.618238
508.000000	34.959846
507.000000	34.303137
506.000000	33.660673
505.000000	33.010196
504.000000	32.364963
503.000000	31.743572
502.000000	31.129601
501.000000	30.566283
500.000000	30.032051
499.000000	29.524134
498.000000	29.045601
497.000000	28.643641
496.000000	28.289960
495.000000	27.976247
494.000000	27.717936
493.000000	27.497713
492.000000	27.334080
491.000000	27.257507
490.000000	27.230795
489.000000	27.231191
488.000000	27.276007
487.000000	27.359011
486.000000	27.471892
485.000000	27.634734
484.000000	27.819638
483.000000	28.006223
482.000000	28.182619
481.000000	28.352682
480.000000	28.504147
479.000000	28.683115
478.000000	28.867524
477.000000	29.041941
476.000000	29.208740
475.000000	29.343188
474.000000	29.460126
473.000000	29.565191
472.000000	29.637214
471.000000	29.707455
470.000000	29.759394
469.000000	29.777895
468.000000	29.779181
467.000000	29.777202
466.000000	29.732485
465.000000	29.673126
464.000000	29.598927
463.000000	29.490695
462.000000	29.378902
461.000000	29.283928
460.000000	29.133551
459.000000	28.960718
458.000000	28.802130
457.000000	28.638793
456.000000	28.443700
455.000000	28.219520
454.000000	27.988712
453.000000	27.766511
452.000000	27.506815
451.000000	27.232675
450.000000	26.980498
449.000000	26.694387
448.000000	26.389281
447.000000	26.087638
446.000000	25.766010
445.000000	25.436963
444.000000	25.101188
443.000000	24.728215
442.000000	24.324672
441.000000	23.911137
440.000000	23.502548
439.000000	23.079318
438.000000	22.651635
437.000000	22.196944
436.000000	21.728403
435.000000	21.249078
434.000000	20.744823
433.000000	20.239776
432.000000	19.715833
431.000000	19.187833
430.000000	18.654788
429.000000	18.125701
428.000000	17.612146
427.000000	17.087609
426.000000	16.550904
425.000000	16.017265
424.000000	15.487683
423.000000	14.971358
422.000000	14.464925
421.000000	13.971453
420.000000	13.488567
419.000000	13.009935
418.000000	12.566621
417.000000	12.143193
416.000000	11.732329
415.000000	11.334820
414.000000	10.952152
413.000000	10.604901
412.000000	10.285351
411.000000	9.970154
410.000000	9.675041
409.000000	9.411684
408.000000	9.169202
407.000000	8.939482
406.000000	8.717974
405.000000	8.516153
404.000000	8.341538
403.000000	8.177509
402.000000	8.026539
401.000000	7.872799
400.000000	7.730931
399.000000	7.617852
398.000000	7.513973
397.000000	7.427507
396.000000	7.340645
395.000000	7.234293
394.000000	7.158214
393.000000	7.096877
392.000000	7.033461
391.000000	6.971728
390.000000	6.898518
389.000000	6.856175
388.000000	6.797905
387.000000	6.750120
386.000000	6.720045
385.000000	6.682946
384.000000	6.655443
383.000000	6.601624
382.000000	6.566404
381.000000	6.525842
380.000000	6.499031
379.000000	6.462229
378.000000	6.436506
377.000000	6.429383
376.000000	6.533559
375.000000	6.391888
374.000000	6.315711
373.000000	6.258825
372.000000	6.220241
371.000000	6.144064
370.000000	6.136446
369.000000	6.256450
368.000000	6.247250
367.000000	6.210348
366.000000	6.184428
365.000000	6.234389
364.000000	6.231124
363.000000	6.155540
362.000000	6.173645
361.000000	6.177206
360.000000	6.171567
359.000000	6.154946
358.000000	6.058488
357.000000	5.957083
356.000000	5.907122
355.000000	5.947190
354.000000	6.049386
353.000000	5.967075
352.000000	5.988048
351.000000	5.900790
350.000000	5.889314
349.000000	5.993687
348.000000	5.995270
347.000000	5.847169
346.000000	5.883280
345.000000	5.892480
344.000000	6.000316
343.000000	5.904748
342.000000	5.896339
341.000000	5.919291
340.000000	5.866659
339.000000	5.844696
338.000000	5.816501
337.000000	5.876849
336.000000	5.861613
335.000000	5.836979
334.000000	5.941748
333.000000	5.929876
332.000000	6.012485
331.000000	5.953719
330.000000	5.851028
329.000000	5.914245
328.000000	5.823030
327.000000	5.836485
326.000000	5.773267
325.000000	5.812543
324.000000	6.002295
323.000000	6.125564
322.000000	6.179482
321.000000	6.014760
320.000000	5.903758
319.000000	6.142778
318.000000	6.018124
317.000000	6.140107
316.000000	5.817193
315.000000	5.772872
314.000000	5.736465
313.000000	5.777225
312.000000	5.788404
311.000000	5.766540
310.000000	5.697683
309.000000	5.789690
308.000000	5.755163
307.000000	5.761791
306.000000	5.772773
305.000000	5.744280
304.000000	5.756251
303.000000	5.823525
302.000000	5.778906
301.000000	5.740818
300.000000	5.763770
299.000000	5.792460
298.000000	5.779104
297.000000	5.807102
296.000000	5.792064
295.000000	5.811752
294.000000	5.800078
293.000000	5.836188
292.000000	5.798792
291.000000	5.772179
290.000000	5.775741
289.000000	5.796615
288.000000	5.767925
287.000000	5.789987
286.000000	5.785337
285.000000	5.800968
284.000000	5.840838
283.000000	5.825305
282.000000	5.839750
281.000000	5.780885
280.000000	5.797110
279.000000	5.858744
278.000000	5.879421
277.000000	5.866461
276.000000	5.877146
275.000000	5.901681
274.000000	5.882389
273.000000	5.859734
272.000000	5.869528
271.000000	5.925227
270.000000	5.896339
269.000000	5.928590
268.000000	5.974989
267.000000	6.013573
266.000000	5.995073
265.000000	5.991709
264.000000	6.006054
263.000000	6.093114
262.000000	6.132489
261.000000	6.126454
260.000000	6.137534
259.000000	6.182351
258.000000	6.167412
257.000000	6.145548
256.000000	6.163356
255.000000	6.233795
254.000000	6.218560
253.000000	6.210150
252.000000	6.239335
251.000000	6.247052
250.000000	6.282074
