PE UV       SUBTECH     SPECTRUM    ASCII       PEDS        4.00        
   -1
CICIMAUCR0098-1.Sample.ASC
24/04/17
15:24:50.00
24/04/17
15:24:50.00
Vinicio Soto Monge
C. cupreomarginata
250,000000
1
Lambda 1050
1050L1511233
PerkinElmer UV WinLab 6.3.2.0749 / 2.02.05 Lambda 900 UV/VIS/NIR, Aug  7 2015 09:38:08

0
0
3350/servo 860,8/2
0
0
UV/VIS
1
1
1
DoubleDePol,CommonBeamDepol,RBeamAtt,SBeamAtt,60mm sphere, WB InGaAs Detector
0
0
0
0
Program
Program
3350/servo 860,8/2
3350/0,2 860,8/0,2
3350/0,2 860,8/0,2
0
15.00
 
 
 
0
 
860,8
319,2
860,8
Front
100
on
S:100 R:100
0
0
0
0
 
0
 
 
 
0
 
 
0
0
0
0
0
 
 
 
 
0
0


0
0
#HDR
-1
-1
#GR
nm
%R
1.0
0.0
2500,000000
-1,000000
2251
8
65,024400
5,292200
#DATA
2500.000000	7.069600
2499.000000	7.011800
2498.000000	7.049700
2497.000000	7.066100
2496.000000	7.130600
2495.000000	6.979500
2494.000000	6.931800
2493.000000	6.928200
2492.000000	6.957700
2491.000000	6.884300
2490.000000	6.923900
2489.000000	6.886700
2488.000000	6.884700
2487.000000	6.978700
2486.000000	6.862800
2485.000000	6.932800
2484.000000	6.921100
2483.000000	6.954500
2482.000000	6.945000
2481.000000	6.894700
2480.000000	6.917000
2479.000000	6.885700
2478.000000	6.873100
2477.000000	6.917700
2476.000000	6.871300
2475.000000	6.895000
2474.000000	6.888000
2473.000000	6.933100
2472.000000	6.881100
2471.000000	6.929900
2470.000000	6.904900
2469.000000	6.914500
2468.000000	6.929900
2467.000000	6.904600
2466.000000	6.968800
2465.000000	6.948000
2464.000000	6.965100
2463.000000	6.979800
2462.000000	6.991600
2461.000000	7.048800
2460.000000	7.004300
2459.000000	7.055600
2458.000000	7.086500
2457.000000	7.112100
2456.000000	7.134700
2455.000000	7.171500
2454.000000	7.208600
2453.000000	7.255800
2452.000000	7.285100
2451.000000	7.321600
2450.000000	7.342900
2449.000000	7.399900
2448.000000	7.464800
2447.000000	7.471400
2446.000000	7.512300
2445.000000	7.553600
2444.000000	7.592500
2443.000000	7.641700
2442.000000	7.691200
2441.000000	7.709000
2440.000000	7.767100
2439.000000	7.807000
2438.000000	7.835800
2437.000000	7.886800
2436.000000	7.914800
2435.000000	7.922100
2434.000000	7.963100
2433.000000	8.011700
2432.000000	8.045900
2431.000000	8.069400
2430.000000	8.091200
2429.000000	8.109800
2428.000000	8.149100
2427.000000	8.160300
2426.000000	8.179900
2425.000000	8.204800
2424.000000	8.240900
2423.000000	8.246400
2422.000000	8.276000
2421.000000	8.301600
2420.000000	8.294600
2419.000000	8.269100
2418.000000	8.264600
2417.000000	8.277700
2416.000000	8.279800
2415.000000	8.288400
2414.000000	8.293500
2413.000000	8.316600
2412.000000	8.318000
2411.000000	8.333600
2410.000000	8.337300
2409.000000	8.342500
2408.000000	8.340700
2407.000000	8.359900
2406.000000	8.369900
2405.000000	8.380700
2404.000000	8.378500
2403.000000	8.388300
2402.000000	8.398800
2401.000000	8.412100
2400.000000	8.411800
2399.000000	8.428700
2398.000000	8.448100
2397.000000	8.454600
2396.000000	8.461900
2395.000000	8.458800
2394.000000	8.462600
2393.000000	8.478500
2392.000000	8.484900
2391.000000	8.494900
2390.000000	8.501000
2389.000000	8.508400
2388.000000	8.518300
2387.000000	8.522000
2386.000000	8.526400
2385.000000	8.533000
2384.000000	8.535900
2383.000000	8.526300
2382.000000	8.504200
2381.000000	8.510000
2380.000000	8.508100
2379.000000	8.478600
2378.000000	8.471400
2377.000000	8.486400
2376.000000	8.464400
2375.000000	8.446800
2374.000000	8.450200
2373.000000	8.424900
2372.000000	8.415100
2371.000000	8.401600
2370.000000	8.371300
2369.000000	8.357700
2368.000000	8.331700
2367.000000	8.314400
2366.000000	8.299300
2365.000000	8.268500
2364.000000	8.239200
2363.000000	8.209700
2362.000000	8.182000
2361.000000	8.144100
2360.000000	8.096600
2359.000000	8.062800
2358.000000	8.030400
2357.000000	7.997900
2356.000000	7.982000
2355.000000	7.962800
2354.000000	7.945300
2353.000000	7.936200
2352.000000	7.929100
2351.000000	7.925800
2350.000000	7.924500
2349.000000	7.934800
2348.000000	7.945700
2347.000000	7.965500
2346.000000	7.993700
2345.000000	8.018000
2344.000000	8.041300
2343.000000	8.056700
2342.000000	8.077000
2341.000000	8.094000
2340.000000	8.109400
2339.000000	8.134600
2338.000000	8.136600
2337.000000	8.130100
2336.000000	8.126300
2335.000000	8.106100
2334.000000	8.103100
2333.000000	8.110700
2332.000000	8.093400
2331.000000	8.078400
2330.000000	8.056600
2329.000000	8.022800
2328.000000	7.989200
2327.000000	7.950800
2326.000000	7.916800
2325.000000	7.883900
2324.000000	7.853200
2323.000000	7.821300
2322.000000	7.774800
2321.000000	7.728500
2320.000000	7.673000
2319.000000	7.613500
2318.000000	7.565400
2317.000000	7.519500
2316.000000	7.473000
2315.000000	7.419800
2314.000000	7.361500
2313.000000	7.298600
2312.000000	7.264100
2311.000000	7.227500
2310.000000	7.194700
2309.000000	7.148300
2308.000000	7.132600
2307.000000	7.120700
2306.000000	7.114300
2305.000000	7.095200
2304.000000	7.111400
2303.000000	7.122500
2302.000000	7.150900
2301.000000	7.167700
2300.000000	7.204500
2299.000000	7.256400
2298.000000	7.300000
2297.000000	7.339100
2296.000000	7.391300
2295.000000	7.437000
2294.000000	7.482200
2293.000000	7.512900
2292.000000	7.537500
2291.000000	7.548800
2290.000000	7.566200
2289.000000	7.580500
2288.000000	7.595800
2287.000000	7.595800
2286.000000	7.584700
2285.000000	7.583300
2284.000000	7.559200
2283.000000	7.543900
2282.000000	7.550700
2281.000000	7.507600
2280.000000	7.490500
2279.000000	7.467300
2278.000000	7.454600
2277.000000	7.450200
2276.000000	7.411700
2275.000000	7.396200
2274.000000	7.385300
2273.000000	7.373800
2272.000000	7.359700
2271.000000	7.364800
2270.000000	7.369300
2269.000000	7.382500
2268.000000	7.424600
2267.000000	7.434900
2266.000000	7.473900
2265.000000	7.539700
2264.000000	7.587800
2263.000000	7.666300
2262.000000	7.752800
2261.000000	7.844700
2260.000000	7.947500
2259.000000	8.056100
2258.000000	8.162600
2257.000000	8.292700
2256.000000	8.425800
2255.000000	8.539600
2254.000000	8.656800
2253.000000	8.789500
2252.000000	8.911800
2251.000000	9.035600
2250.000000	9.138100
2249.000000	9.232800
2248.000000	9.353600
2247.000000	9.427400
2246.000000	9.547800
2245.000000	9.622300
2244.000000	9.706800
2243.000000	9.792100
2242.000000	9.852200
2241.000000	9.908900
2240.000000	9.999700
2239.000000	10.034900
2238.000000	10.091900
2237.000000	10.133200
2236.000000	10.193200
2235.000000	10.230600
2234.000000	10.273000
2233.000000	10.298400
2232.000000	10.350800
2231.000000	10.361400
2230.000000	10.390300
2229.000000	10.417200
2228.000000	10.433700
2227.000000	10.461100
2226.000000	10.457900
2225.000000	10.449500
2224.000000	10.475900
2223.000000	10.475100
2222.000000	10.480900
2221.000000	10.496200
2220.000000	10.477000
2219.000000	10.476000
2218.000000	10.468700
2217.000000	10.463900
2216.000000	10.456000
2215.000000	10.457000
2214.000000	10.443200
2213.000000	10.415000
2212.000000	10.431200
2211.000000	10.412500
2210.000000	10.403600
2209.000000	10.392400
2208.000000	10.391200
2207.000000	10.366500
2206.000000	10.381600
2205.000000	10.379900
2204.000000	10.376900
2203.000000	10.381500
2202.000000	10.357400
2201.000000	10.347500
2200.000000	10.354700
2199.000000	10.330400
2198.000000	10.349100
2197.000000	10.341700
2196.000000	10.329000
2195.000000	10.316200
2194.000000	10.316500
2193.000000	10.321100
2192.000000	10.326100
2191.000000	10.318800
2190.000000	10.308200
2189.000000	10.295700
2188.000000	10.295400
2187.000000	10.274600
2186.000000	10.274100
2185.000000	10.282600
2184.000000	10.268200
2183.000000	10.263900
2182.000000	10.267100
2181.000000	10.257000
2180.000000	10.260500
2179.000000	10.259200
2178.000000	10.235500
2177.000000	10.252100
2176.000000	10.253100
2175.000000	10.257100
2174.000000	10.257400
2173.000000	10.244900
2172.000000	10.244900
2171.000000	10.258200
2170.000000	10.262500
2169.000000	10.268300
2168.000000	10.266300
2167.000000	10.287400
2166.000000	10.311700
2165.000000	10.320100
2164.000000	10.347300
2163.000000	10.363900
2162.000000	10.360900
2161.000000	10.364600
2160.000000	10.380700
2159.000000	10.401900
2158.000000	10.424600
2157.000000	10.427700
2156.000000	10.441900
2155.000000	10.472200
2154.000000	10.500000
2153.000000	10.527200
2152.000000	10.536600
2151.000000	10.550700
2150.000000	10.567700
2149.000000	10.578900
2148.000000	10.609800
2147.000000	10.621900
2146.000000	10.624600
2145.000000	10.663500
2144.000000	10.680200
2143.000000	10.670900
2142.000000	10.691000
2141.000000	10.704700
2140.000000	10.717500
2139.000000	10.729100
2138.000000	10.726900
2137.000000	10.731600
2136.000000	10.755400
2135.000000	10.764600
2134.000000	10.761200
2133.000000	10.772100
2132.000000	10.770700
2131.000000	10.756300
2130.000000	10.753300
2129.000000	10.759200
2128.000000	10.748000
2127.000000	10.741500
2126.000000	10.747900
2125.000000	10.737600
2124.000000	10.730200
2123.000000	10.713700
2122.000000	10.689300
2121.000000	10.676800
2120.000000	10.662400
2119.000000	10.625500
2118.000000	10.622800
2117.000000	10.626400
2116.000000	10.601600
2115.000000	10.575600
2114.000000	10.564600
2113.000000	10.544500
2112.000000	10.507400
2111.000000	10.494000
2110.000000	10.488600
2109.000000	10.464300
2108.000000	10.427700
2107.000000	10.414400
2106.000000	10.403300
2105.000000	10.372300
2104.000000	10.344500
2103.000000	10.345300
2102.000000	10.333400
2101.000000	10.300000
2100.000000	10.276700
2099.000000	10.266900
2098.000000	10.262900
2097.000000	10.246200
2096.000000	10.227300
2095.000000	10.209400
2094.000000	10.188400
2093.000000	10.167700
2092.000000	10.162200
2091.000000	10.160500
2090.000000	10.149700
2089.000000	10.128700
2088.000000	10.109300
2087.000000	10.098100
2086.000000	10.087200
2085.000000	10.070600
2084.000000	10.060100
2083.000000	10.056800
2082.000000	10.043800
2081.000000	10.035600
2080.000000	10.017100
2079.000000	9.988600
2078.000000	9.971500
2077.000000	9.955600
2076.000000	9.942400
2075.000000	9.928000
2074.000000	9.908800
2073.000000	9.908200
2072.000000	9.887000
2071.000000	9.869600
2070.000000	9.841800
2069.000000	9.826600
2068.000000	9.810300
2067.000000	9.807100
2066.000000	9.806800
2065.000000	9.793700
2064.000000	9.772000
2063.000000	9.749300
2062.000000	9.746700
2061.000000	9.754200
2060.000000	9.747700
2059.000000	9.746000
2058.000000	9.741300
2057.000000	9.744600
2056.000000	9.762800
2055.000000	9.768700
2054.000000	9.788100
2053.000000	9.806000
2052.000000	9.835300
2051.000000	9.884800
2050.000000	9.920900
2049.000000	9.948700
2048.000000	9.997200
2047.000000	10.044400
2046.000000	10.107000
2045.000000	10.183400
2044.000000	10.229000
2043.000000	10.285700
2042.000000	10.393400
2041.000000	10.432100
2040.000000	10.485000
2039.000000	10.562300
2038.000000	10.611700
2037.000000	10.662000
2036.000000	10.721000
2035.000000	10.781000
2034.000000	10.843500
2033.000000	10.890000
2032.000000	10.937000
2031.000000	10.984300
2030.000000	11.038400
2029.000000	11.070600
2028.000000	11.106700
2027.000000	11.158200
2026.000000	11.184300
2025.000000	11.217900
2024.000000	11.242800
2023.000000	11.279000
2022.000000	11.333800
2021.000000	11.347500
2020.000000	11.377000
2019.000000	11.424200
2018.000000	11.427800
2017.000000	11.465300
2016.000000	11.484800
2015.000000	11.502700
2014.000000	11.533300
2013.000000	11.537800
2012.000000	11.560600
2011.000000	11.574900
2010.000000	11.590400
2009.000000	11.596700
2008.000000	11.602500
2007.000000	11.595800
2006.000000	11.600100
2005.000000	11.598600
2004.000000	11.580300
2003.000000	11.589600
2002.000000	11.567300
2001.000000	11.556200
2000.000000	11.535000
1999.000000	11.527700
1998.000000	11.536000
1997.000000	11.491300
1996.000000	11.455900
1995.000000	11.441400
1994.000000	11.392600
1993.000000	11.379300
1992.000000	11.350900
1991.000000	11.331200
1990.000000	11.290600
1989.000000	11.252300
1988.000000	11.232800
1987.000000	11.180600
1986.000000	11.138900
1985.000000	11.109400
1984.000000	11.071700
1983.000000	11.032900
1982.000000	10.972500
1981.000000	10.957700
1980.000000	10.929000
1979.000000	10.872300
1978.000000	10.846900
1977.000000	10.822600
1976.000000	10.744700
1975.000000	10.726300
1974.000000	10.648400
1973.000000	10.632100
1972.000000	10.618800
1971.000000	10.574800
1970.000000	10.531100
1969.000000	10.502600
1968.000000	10.472500
1967.000000	10.443900
1966.000000	10.400600
1965.000000	10.366200
1964.000000	10.342900
1963.000000	10.317800
1962.000000	10.250600
1961.000000	10.252300
1960.000000	10.196000
1959.000000	10.177000
1958.000000	10.146400
1957.000000	10.103100
1956.000000	10.103700
1955.000000	10.063800
1954.000000	10.011100
1953.000000	9.986100
1952.000000	9.987000
1951.000000	9.963300
1950.000000	9.923200
1949.000000	9.916200
1948.000000	9.887600
1947.000000	9.876000
1946.000000	9.848700
1945.000000	9.831900
1944.000000	9.820500
1943.000000	9.798500
1942.000000	9.798300
1941.000000	9.818000
1940.000000	9.819100
1939.000000	9.819800
1938.000000	9.829100
1937.000000	9.833500
1936.000000	9.835200
1935.000000	9.867200
1934.000000	9.879500
1933.000000	9.905400
1932.000000	9.943500
1931.000000	9.991100
1930.000000	10.015300
1929.000000	10.069800
1928.000000	10.122100
1927.000000	10.186900
1926.000000	10.236000
1925.000000	10.294800
1924.000000	10.363300
1923.000000	10.421900
1922.000000	10.522900
1921.000000	10.613600
1920.000000	10.712600
1919.000000	10.799700
1918.000000	10.895900
1917.000000	10.984500
1916.000000	11.079400
1915.000000	11.177800
1914.000000	11.301400
1913.000000	11.449800
1912.000000	11.586100
1911.000000	11.709100
1910.000000	11.832900
1909.000000	11.926000
1908.000000	12.041800
1907.000000	12.190700
1906.000000	12.340600
1905.000000	12.547300
1904.000000	12.724700
1903.000000	12.861100
1902.000000	12.997300
1901.000000	13.167100
1900.000000	13.361900
1899.000000	13.550400
1898.000000	13.732400
1897.000000	13.918300
1896.000000	14.067900
1895.000000	14.217000
1894.000000	14.386900
1893.000000	14.560000
1892.000000	14.768900
1891.000000	15.007200
1890.000000	15.238000
1889.000000	15.429300
1888.000000	15.651100
1887.000000	15.868600
1886.000000	16.104700
1885.000000	16.394600
1884.000000	16.746600
1883.000000	17.129700
1882.000000	17.496100
1881.000000	17.857800
1880.000000	18.209700
1879.000000	18.545400
1878.000000	18.910600
1877.000000	19.261900
1876.000000	19.580600
1875.000000	19.892100
1874.000000	20.189100
1873.000000	20.465300
1872.000000	20.719400
1871.000000	20.947100
1870.000000	21.147800
1869.000000	21.337900
1868.000000	21.496100
1867.000000	21.593200
1866.000000	21.684100
1865.000000	21.739100
1864.000000	21.772600
1863.000000	21.800900
1862.000000	21.845000
1861.000000	21.884000
1860.000000	21.924300
1859.000000	21.950700
1858.000000	21.955100
1857.000000	21.941800
1856.000000	21.893600
1855.000000	21.854100
1854.000000	21.835100
1853.000000	21.776700
1852.000000	21.709800
1851.000000	21.635500
1850.000000	21.557000
1849.000000	21.508900
1848.000000	21.492600
1847.000000	21.435900
1846.000000	21.357900
1845.000000	21.255200
1844.000000	21.168000
1843.000000	21.124800
1842.000000	21.126000
1841.000000	21.131100
1840.000000	21.096900
1839.000000	21.033500
1838.000000	20.989900
1837.000000	20.948400
1836.000000	20.892300
1835.000000	20.837900
1834.000000	20.753200
1833.000000	20.663600
1832.000000	20.572900
1831.000000	20.500400
1830.000000	20.430300
1829.000000	20.360900
1828.000000	20.281600
1827.000000	20.198300
1826.000000	20.140400
1825.000000	20.075900
1824.000000	20.003100
1823.000000	19.944800
1822.000000	19.940800
1821.000000	19.938800
1820.000000	19.925800
1819.000000	19.890100
1818.000000	19.851100
1817.000000	19.821800
1816.000000	19.815300
1815.000000	19.811900
1814.000000	19.805200
1813.000000	19.800100
1812.000000	19.772400
1811.000000	19.751000
1810.000000	19.720900
1809.000000	19.685300
1808.000000	19.649500
1807.000000	19.613700
1806.000000	19.581600
1805.000000	19.536400
1804.000000	19.475400
1803.000000	19.420700
1802.000000	19.386800
1801.000000	19.361300
1800.000000	19.324100
1799.000000	19.266900
1798.000000	19.210000
1797.000000	19.172400
1796.000000	19.133000
1795.000000	19.093500
1794.000000	19.030600
1793.000000	18.967700
1792.000000	18.945700
1791.000000	18.907000
1790.000000	18.853000
1789.000000	18.790200
1788.000000	18.739900
1787.000000	18.678100
1786.000000	18.608200
1785.000000	18.544900
1784.000000	18.452200
1783.000000	18.391500
1782.000000	18.332400
1781.000000	18.251200
1780.000000	18.171300
1779.000000	18.108500
1778.000000	18.033300
1777.000000	17.947000
1776.000000	17.863800
1775.000000	17.768900
1774.000000	17.678100
1773.000000	17.563700
1772.000000	17.450600
1771.000000	17.329700
1770.000000	17.221300
1769.000000	17.124000
1768.000000	17.023900
1767.000000	16.950100
1766.000000	16.873900
1765.000000	16.795600
1764.000000	16.760900
1763.000000	16.745000
1762.000000	16.755600
1761.000000	16.799900
1760.000000	16.854600
1759.000000	16.918100
1758.000000	16.962400
1757.000000	17.034900
1756.000000	17.079700
1755.000000	17.131800
1754.000000	17.163000
1753.000000	17.158300
1752.000000	17.147700
1751.000000	17.152200
1750.000000	17.115100
1749.000000	17.064300
1748.000000	17.011000
1747.000000	16.975200
1746.000000	16.873600
1745.000000	16.772600
1744.000000	16.647000
1743.000000	16.502700
1742.000000	16.345800
1741.000000	16.174900
1740.000000	15.988500
1739.000000	15.812600
1738.000000	15.653900
1737.000000	15.502800
1736.000000	15.391100
1735.000000	15.316800
1734.000000	15.292300
1733.000000	15.301900
1732.000000	15.339100
1731.000000	15.386700
1730.000000	15.447000
1729.000000	15.543900
1728.000000	15.667400
1727.000000	15.763900
1726.000000	15.846700
1725.000000	15.921100
1724.000000	15.960100
1723.000000	15.988500
1722.000000	16.016300
1721.000000	16.010400
1720.000000	16.019000
1719.000000	16.047300
1718.000000	16.044100
1717.000000	16.069900
1716.000000	16.107100
1715.000000	16.151600
1714.000000	16.181800
1713.000000	16.234300
1712.000000	16.283800
1711.000000	16.306400
1710.000000	16.322800
1709.000000	16.316800
1708.000000	16.305000
1707.000000	16.290600
1706.000000	16.263200
1705.000000	16.220600
1704.000000	16.186100
1703.000000	16.115500
1702.000000	16.051000
1701.000000	15.952600
1700.000000	15.844200
1699.000000	15.714300
1698.000000	15.610400
1697.000000	15.519400
1696.000000	15.434400
1695.000000	15.429100
1694.000000	15.466000
1693.000000	15.514800
1692.000000	15.640400
1691.000000	15.773000
1690.000000	15.879000
1689.000000	15.983400
1688.000000	16.048200
1687.000000	16.054500
1686.000000	16.069300
1685.000000	16.072700
1684.000000	16.110100
1683.000000	16.247200
1682.000000	16.455000
1681.000000	16.776100
1680.000000	17.161400
1679.000000	17.606600
1678.000000	18.079000
1677.000000	18.527300
1676.000000	18.923000
1675.000000	19.294300
1674.000000	19.614600
1673.000000	19.857000
1672.000000	20.088900
1671.000000	20.293300
1670.000000	20.462000
1669.000000	20.611200
1668.000000	20.745000
1667.000000	20.937300
1666.000000	21.009700
1665.000000	21.109600
1664.000000	21.173600
1663.000000	21.234500
1662.000000	21.264300
1661.000000	21.296000
1660.000000	21.345200
1659.000000	21.364300
1658.000000	21.375700
1657.000000	21.385200
1656.000000	21.383200
1655.000000	21.388300
1654.000000	21.371200
1653.000000	21.357100
1652.000000	21.342800
1651.000000	21.306000
1650.000000	21.276600
1649.000000	21.240000
1648.000000	21.220000
1647.000000	21.164700
1646.000000	21.108300
1645.000000	21.043700
1644.000000	20.989900
1643.000000	20.951000
1642.000000	20.898700
1641.000000	20.833300
1640.000000	20.757300
1639.000000	20.730000
1638.000000	20.651400
1637.000000	20.602900
1636.000000	20.535600
1635.000000	20.488000
1634.000000	20.410100
1633.000000	20.343800
1632.000000	20.262500
1631.000000	20.202200
1630.000000	20.117800
1629.000000	20.028800
1628.000000	19.959600
1627.000000	19.893100
1626.000000	19.820200
1625.000000	19.747900
1624.000000	19.675400
1623.000000	19.603200
1622.000000	19.533200
1621.000000	19.478600
1620.000000	19.388900
1619.000000	19.307200
1618.000000	19.248700
1617.000000	19.189400
1616.000000	19.140000
1615.000000	19.061200
1614.000000	18.996700
1613.000000	18.928500
1612.000000	18.866600
1611.000000	18.811400
1610.000000	18.751600
1609.000000	18.692000
1608.000000	18.645500
1607.000000	18.581900
1606.000000	18.524200
1605.000000	18.462600
1604.000000	18.415300
1603.000000	18.371600
1602.000000	18.305300
1601.000000	18.252600
1600.000000	18.218200
1599.000000	18.166100
1598.000000	18.111700
1597.000000	18.061200
1596.000000	18.022500
1595.000000	17.975800
1594.000000	17.937300
1593.000000	17.902100
1592.000000	17.863200
1591.000000	17.825800
1590.000000	17.808500
1589.000000	17.790200
1588.000000	17.755700
1587.000000	17.733100
1586.000000	17.706100
1585.000000	17.673900
1584.000000	17.650000
1583.000000	17.646600
1582.000000	17.634700
1581.000000	17.610600
1580.000000	17.617000
1579.000000	17.625400
1578.000000	17.617200
1577.000000	17.617900
1576.000000	17.631100
1575.000000	17.635400
1574.000000	17.652100
1573.000000	17.654700
1572.000000	17.667100
1571.000000	17.704500
1570.000000	17.722100
1569.000000	17.746800
1568.000000	17.784200
1567.000000	17.810400
1566.000000	17.835600
1565.000000	17.869000
1564.000000	17.901900
1563.000000	17.917700
1562.000000	17.925100
1561.000000	17.950700
1560.000000	17.977500
1559.000000	17.990900
1558.000000	18.011100
1557.000000	18.030300
1556.000000	18.040500
1555.000000	18.044600
1554.000000	18.053800
1553.000000	18.064300
1552.000000	18.080600
1551.000000	18.085300
1550.000000	18.078900
1549.000000	18.067200
1548.000000	18.073700
1547.000000	18.080500
1546.000000	18.081900
1545.000000	18.081800
1544.000000	18.086700
1543.000000	18.104600
1542.000000	18.107600
1541.000000	18.104500
1540.000000	18.106700
1539.000000	18.109500
1538.000000	18.111100
1537.000000	18.100200
1536.000000	18.105600
1535.000000	18.108200
1534.000000	18.101300
1533.000000	18.107700
1532.000000	18.115700
1531.000000	18.113500
1530.000000	18.104500
1529.000000	18.087700
1528.000000	18.071800
1527.000000	18.068000
1526.000000	18.043200
1525.000000	18.032600
1524.000000	18.029100
1523.000000	18.019200
1522.000000	17.990100
1521.000000	17.949800
1520.000000	17.946900
1519.000000	17.940200
1518.000000	17.927000
1517.000000	17.915200
1516.000000	17.899400
1515.000000	17.889600
1514.000000	17.858200
1513.000000	17.835300
1512.000000	17.814300
1511.000000	17.792800
1510.000000	17.794900
1509.000000	17.780500
1508.000000	17.762200
1507.000000	17.748800
1506.000000	17.730300
1505.000000	17.701000
1504.000000	17.684300
1503.000000	17.653900
1502.000000	17.630700
1501.000000	17.622300
1500.000000	17.615900
1499.000000	17.606300
1498.000000	17.604900
1497.000000	17.576200
1496.000000	17.563200
1495.000000	17.559400
1494.000000	17.558900
1493.000000	17.568500
1492.000000	17.565300
1491.000000	17.564100
1490.000000	17.582000
1489.000000	17.576300
1488.000000	17.584200
1487.000000	17.594800
1486.000000	17.610400
1485.000000	17.603200
1484.000000	17.611700
1483.000000	17.612800
1482.000000	17.638200
1481.000000	17.650800
1480.000000	17.667400
1479.000000	17.682100
1478.000000	17.709300
1477.000000	17.742700
1476.000000	17.740400
1475.000000	17.783100
1474.000000	17.791900
1473.000000	17.811500
1472.000000	17.863200
1471.000000	17.901800
1470.000000	17.906900
1469.000000	17.940300
1468.000000	17.946400
1467.000000	17.994600
1466.000000	18.000400
1465.000000	18.049700
1464.000000	18.090200
1463.000000	18.136300
1462.000000	18.166800
1461.000000	18.232200
1460.000000	18.275700
1459.000000	18.347300
1458.000000	18.435200
1457.000000	18.502600
1456.000000	18.571500
1455.000000	18.665700
1454.000000	18.744200
1453.000000	18.811500
1452.000000	18.920100
1451.000000	19.013300
1450.000000	19.120100
1449.000000	19.197100
1448.000000	19.284700
1447.000000	19.389900
1446.000000	19.535200
1445.000000	19.621200
1444.000000	19.741900
1443.000000	19.855700
1442.000000	19.962400
1441.000000	20.092600
1440.000000	20.220000
1439.000000	20.337100
1438.000000	20.459600
1437.000000	20.559200
1436.000000	20.674400
1435.000000	20.799900
1434.000000	20.928600
1433.000000	21.044800
1432.000000	21.167600
1431.000000	21.310300
1430.000000	21.419000
1429.000000	21.566000
1428.000000	21.758500
1427.000000	21.921600
1426.000000	22.067100
1425.000000	22.299900
1424.000000	22.516800
1423.000000	22.701200
1422.000000	22.876300
1421.000000	23.088900
1420.000000	23.324600
1419.000000	23.517600
1418.000000	23.769000
1417.000000	23.945000
1416.000000	24.117700
1415.000000	24.318100
1414.000000	24.564400
1413.000000	24.766000
1412.000000	24.940100
1411.000000	25.138900
1410.000000	25.382700
1409.000000	25.704700
1408.000000	26.012400
1407.000000	26.351000
1406.000000	26.637400
1405.000000	27.013500
1404.000000	27.379300
1403.000000	27.729800
1402.000000	28.059400
1401.000000	28.433800
1400.000000	28.868200
1399.000000	29.151300
1398.000000	29.283000
1397.000000	29.486700
1396.000000	29.760800
1395.000000	30.001800
1394.000000	30.104900
1393.000000	30.215600
1392.000000	30.389500
1391.000000	30.567300
1390.000000	30.716000
1389.000000	30.911200
1388.000000	31.203100
1387.000000	31.503000
1386.000000	31.815500
1385.000000	32.145700
1384.000000	32.584100
1383.000000	32.973700
1382.000000	33.348800
1381.000000	33.630500
1380.000000	33.754300
1379.000000	33.872400
1378.000000	33.924800
1377.000000	33.985300
1376.000000	34.082300
1375.000000	34.253300
1374.000000	34.524600
1373.000000	34.875100
1372.000000	35.270700
1371.000000	35.703000
1370.000000	36.094600
1369.000000	36.423000
1368.000000	36.767200
1367.000000	37.075500
1366.000000	37.302800
1365.000000	37.548000
1364.000000	37.767100
1363.000000	37.921100
1362.000000	38.091800
1361.000000	38.269400
1360.000000	38.332800
1359.000000	38.363200
1358.000000	38.453400
1357.000000	38.620100
1356.000000	38.895300
1355.000000	39.365400
1354.000000	39.974500
1353.000000	40.586200
1352.000000	41.251300
1351.000000	41.896300
1350.000000	42.514300
1349.000000	43.049300
1348.000000	43.563800
1347.000000	44.031300
1346.000000	44.405700
1345.000000	44.804700
1344.000000	45.206200
1343.000000	45.554000
1342.000000	45.877300
1341.000000	46.220200
1340.000000	46.536200
1339.000000	46.825500
1338.000000	47.106300
1337.000000	47.391200
1336.000000	47.654700
1335.000000	47.894400
1334.000000	48.117700
1333.000000	48.351700
1332.000000	48.573900
1331.000000	48.786200
1330.000000	48.976000
1329.000000	49.155200
1328.000000	49.314000
1327.000000	49.480300
1326.000000	49.646800
1325.000000	49.804500
1324.000000	49.939600
1323.000000	50.069600
1322.000000	50.197800
1321.000000	50.318800
1320.000000	50.438500
1319.000000	50.552800
1318.000000	50.653600
1317.000000	50.756800
1316.000000	50.850000
1315.000000	50.952100
1314.000000	51.037900
1313.000000	51.112700
1312.000000	51.188400
1311.000000	51.254000
1310.000000	51.315100
1309.000000	51.374900
1308.000000	51.430600
1307.000000	51.480900
1306.000000	51.521300
1305.000000	51.540700
1304.000000	51.569900
1303.000000	51.602500
1302.000000	51.605900
1301.000000	51.604100
1300.000000	51.618200
1299.000000	51.621700
1298.000000	51.615400
1297.000000	51.610200
1296.000000	51.614800
1295.000000	51.613600
1294.000000	51.601500
1293.000000	51.595700
1292.000000	51.569800
1291.000000	51.533000
1290.000000	51.495400
1289.000000	51.453300
1288.000000	51.415800
1287.000000	51.364700
1286.000000	51.303500
1285.000000	51.236600
1284.000000	51.159200
1283.000000	51.087800
1282.000000	51.012600
1281.000000	50.928200
1280.000000	50.846700
1279.000000	50.769700
1278.000000	50.702300
1277.000000	50.628200
1276.000000	50.555900
1275.000000	50.490700
1274.000000	50.432800
1273.000000	50.385700
1272.000000	50.321900
1271.000000	50.273700
1270.000000	50.220200
1269.000000	50.161900
1268.000000	50.127700
1267.000000	50.106000
1266.000000	50.064000
1265.000000	50.008400
1264.000000	49.950100
1263.000000	49.889300
1262.000000	49.839800
1261.000000	49.774800
1260.000000	49.698700
1259.000000	49.654400
1258.000000	49.587100
1257.000000	49.507800
1256.000000	49.435400
1255.000000	49.361600
1254.000000	49.280500
1253.000000	49.190900
1252.000000	49.114400
1251.000000	49.027900
1250.000000	48.928000
1249.000000	48.803000
1248.000000	48.691300
1247.000000	48.586400
1246.000000	48.454100
1245.000000	48.297000
1244.000000	48.135000
1243.000000	47.959800
1242.000000	47.798200
1241.000000	47.613400
1240.000000	47.419200
1239.000000	47.230100
1238.000000	47.026400
1237.000000	46.814200
1236.000000	46.603500
1235.000000	46.385400
1234.000000	46.165200
1233.000000	45.946200
1232.000000	45.721400
1231.000000	45.478100
1230.000000	45.254500
1229.000000	45.018800
1228.000000	44.781900
1227.000000	44.548800
1226.000000	44.327600
1225.000000	44.077400
1224.000000	43.870500
1223.000000	43.637000
1222.000000	43.423100
1221.000000	43.203700
1220.000000	42.979800
1219.000000	42.787800
1218.000000	42.617400
1217.000000	42.445100
1216.000000	42.288800
1215.000000	42.122900
1214.000000	41.992600
1213.000000	41.853200
1212.000000	41.726200
1211.000000	41.606000
1210.000000	41.488400
1209.000000	41.369500
1208.000000	41.288700
1207.000000	41.207500
1206.000000	41.160200
1205.000000	41.130800
1204.000000	41.123800
1203.000000	41.107600
1202.000000	41.106600
1201.000000	41.086200
1200.000000	41.060100
1199.000000	40.981300
1198.000000	40.896300
1197.000000	40.739300
1196.000000	40.530100
1195.000000	40.244600
1194.000000	39.902500
1193.000000	39.435600
1192.000000	38.922700
1191.000000	38.345700
1190.000000	37.789700
1189.000000	37.308600
1188.000000	36.948200
1187.000000	36.703000
1186.000000	36.640500
1185.000000	36.710400
1184.000000	36.951200
1183.000000	37.341500
1182.000000	37.874900
1181.000000	38.492900
1180.000000	39.141200
1179.000000	39.748500
1178.000000	40.308100
1177.000000	40.767100
1176.000000	41.219000
1175.000000	41.586500
1174.000000	41.965900
1173.000000	42.369900
1172.000000	42.766800
1171.000000	43.190400
1170.000000	43.628500
1169.000000	44.057300
1168.000000	44.521500
1167.000000	44.965200
1166.000000	45.414700
1165.000000	45.871900
1164.000000	46.339000
1163.000000	46.812900
1162.000000	47.267700
1161.000000	47.737200
1160.000000	48.130200
1159.000000	48.572200
1158.000000	48.975200
1157.000000	49.343700
1156.000000	49.646400
1155.000000	49.888500
1154.000000	50.086900
1153.000000	50.186600
1152.000000	50.212400
1151.000000	50.200800
1150.000000	50.173500
1149.000000	50.141600
1148.000000	50.105100
1147.000000	50.132000
1146.000000	50.238000
1145.000000	50.463000
1144.000000	50.771400
1143.000000	51.140300
1142.000000	51.543300
1141.000000	51.973000
1140.000000	52.414100
1139.000000	52.849200
1138.000000	53.319000
1137.000000	53.791500
1136.000000	54.284900
1135.000000	54.758400
1134.000000	55.221900
1133.000000	55.586100
1132.000000	55.918300
1131.000000	56.259300
1130.000000	56.555500
1129.000000	56.820300
1128.000000	57.011600
1127.000000	57.169700
1126.000000	57.313800
1125.000000	57.411700
1124.000000	57.516700
1123.000000	57.606300
1122.000000	57.689500
1121.000000	57.742400
1120.000000	57.808500
1119.000000	57.838700
1118.000000	57.874700
1117.000000	57.905100
1116.000000	57.910000
1115.000000	57.901900
1114.000000	57.918400
1113.000000	57.910600
1112.000000	57.909900
1111.000000	57.912100
1110.000000	57.902100
1109.000000	57.908900
1108.000000	57.908600
1107.000000	57.895700
1106.000000	57.905000
1105.000000	57.903900
1104.000000	57.902200
1103.000000	57.884100
1102.000000	57.892900
1101.000000	57.867700
1100.000000	57.855200
1099.000000	57.849200
1098.000000	57.822900
1097.000000	57.800900
1096.000000	57.776300
1095.000000	57.751200
1094.000000	57.703700
1093.000000	57.688200
1092.000000	57.650800
1091.000000	57.621000
1090.000000	57.574800
1089.000000	57.531300
1088.000000	57.495800
1087.000000	57.442700
1086.000000	57.396700
1085.000000	57.346700
1084.000000	57.298600
1083.000000	57.242000
1082.000000	57.184900
1081.000000	57.131600
1080.000000	57.093600
1079.000000	57.051600
1078.000000	56.997200
1077.000000	56.960700
1076.000000	56.905500
1075.000000	56.861700
1074.000000	56.821100
1073.000000	56.777400
1072.000000	56.729100
1071.000000	56.689800
1070.000000	56.645500
1069.000000	56.589100
1068.000000	56.539300
1067.000000	56.484500
1066.000000	56.441900
1065.000000	56.389100
1064.000000	56.336600
1063.000000	56.286200
1062.000000	56.222700
1061.000000	56.164800
1060.000000	56.106300
1059.000000	56.055900
1058.000000	55.994600
1057.000000	55.928700
1056.000000	55.868700
1055.000000	55.807200
1054.000000	55.738900
1053.000000	55.671800
1052.000000	55.620700
1051.000000	55.581600
1050.000000	55.532500
1049.000000	55.483200
1048.000000	55.447500
1047.000000	55.416500
1046.000000	55.385000
1045.000000	55.353900
1044.000000	55.303300
1043.000000	55.269700
1042.000000	55.261500
1041.000000	55.230700
1040.000000	55.205800
1039.000000	55.173100
1038.000000	55.124400
1037.000000	55.088600
1036.000000	55.054800
1035.000000	55.011200
1034.000000	54.960600
1033.000000	54.909800
1032.000000	54.868500
1031.000000	54.821700
1030.000000	54.769000
1029.000000	54.719100
1028.000000	54.664400
1027.000000	54.599700
1026.000000	54.521000
1025.000000	54.454100
1024.000000	54.389800
1023.000000	54.319300
1022.000000	54.250500
1021.000000	54.192000
1020.000000	54.123700
1019.000000	54.049700
1018.000000	54.019700
1017.000000	53.977700
1016.000000	53.923100
1015.000000	53.872100
1014.000000	53.830200
1013.000000	53.814200
1012.000000	53.798500
1011.000000	53.787600
1010.000000	53.805200
1009.000000	53.811300
1008.000000	53.819600
1007.000000	53.842700
1006.000000	53.863700
1005.000000	53.880000
1004.000000	53.889200
1003.000000	53.884700
1002.000000	53.905600
1001.000000	53.918500
1000.000000	53.907400
999.000000	53.905100
998.000000	53.920900
997.000000	53.951500
996.000000	53.973700
995.000000	53.969300
994.000000	53.969000
993.000000	53.974200
992.000000	53.988900
991.000000	53.997400
990.000000	53.995600
989.000000	54.013700
988.000000	54.040000
987.000000	54.068600
986.000000	54.085300
985.000000	54.105700
984.000000	54.131900
983.000000	54.170900
982.000000	54.200700
981.000000	54.225900
980.000000	54.240700
979.000000	54.304400
978.000000	54.338200
977.000000	54.357100
976.000000	54.390000
975.000000	54.413700
974.000000	54.440900
973.000000	54.474600
972.000000	54.526000
971.000000	54.546700
970.000000	54.571900
969.000000	54.608800
968.000000	54.660800
967.000000	54.704900
966.000000	54.766600
965.000000	54.805800
964.000000	54.851700
963.000000	54.903900
962.000000	54.974800
961.000000	55.059700
960.000000	55.145000
959.000000	55.220200
958.000000	55.280900
957.000000	55.348600
956.000000	55.429100
955.000000	55.501000
954.000000	55.547700
953.000000	55.604300
952.000000	55.677600
951.000000	55.709000
950.000000	55.736800
949.000000	55.770100
948.000000	55.828700
947.000000	55.871600
946.000000	55.913100
945.000000	55.944300
944.000000	56.003400
943.000000	56.041600
942.000000	56.079400
941.000000	56.121600
940.000000	56.157700
939.000000	56.208200
938.000000	56.258400
937.000000	56.331400
936.000000	56.351300
935.000000	56.369400
934.000000	56.418300
933.000000	56.444600
932.000000	56.496900
931.000000	56.530500
930.000000	56.596500
929.000000	56.636700
928.000000	56.666300
927.000000	56.727200
926.000000	56.773600
925.000000	56.839600
924.000000	56.915400
923.000000	56.964900
922.000000	57.033000
921.000000	57.087800
920.000000	57.167500
919.000000	57.209100
918.000000	57.239100
917.000000	57.291900
916.000000	57.324100
915.000000	57.370000
914.000000	57.432000
913.000000	57.479300
912.000000	57.533700
911.000000	57.609300
910.000000	57.716000
909.000000	57.841000
908.000000	57.942400
907.000000	58.107100
906.000000	58.260400
905.000000	58.434800
904.000000	58.640400
903.000000	58.836000
902.000000	59.060300
901.000000	59.282800
900.000000	59.499000
899.000000	59.725500
898.000000	59.935900
897.000000	60.163300
896.000000	60.378300
895.000000	60.572400
894.000000	60.815800
893.000000	61.017500
892.000000	61.239600
891.000000	61.426800
890.000000	61.608600
889.000000	61.779900
888.000000	61.962300
887.000000	62.105200
886.000000	62.262700
885.000000	62.414600
884.000000	62.551700
883.000000	62.688600
882.000000	62.791500
881.000000	62.906000
880.000000	63.012800
879.000000	63.109100
878.000000	63.213200
877.000000	63.293300
876.000000	63.374800
875.000000	63.466400
874.000000	63.536300
873.000000	63.622700
872.000000	63.721100
871.000000	63.803900
870.000000	63.867100
869.000000	63.936500
868.000000	64.028800
867.000000	64.114700
866.000000	64.194100
865.000000	64.264600
864.000000	64.344400
863.000000	64.375400
862.000000	64.433100
861.000000	64.457100
860.000000	64.479300
859.000000	64.487600
858.000000	64.491400
857.000000	64.483380
856.000000	64.071175
855.000000	64.061403
854.000000	64.019425
853.000000	64.370308
852.000000	63.872052
851.000000	64.327631
850.000000	64.242179
849.000000	64.491556
848.000000	64.404409
847.000000	64.438111
846.000000	64.572522
845.000000	64.710222
844.000000	64.396233
843.000000	64.447185
842.000000	64.506413
841.000000	64.541511
840.000000	64.736347
839.000000	64.641123
838.000000	64.600840
837.000000	64.621081
836.000000	64.836457
835.000000	64.582692
834.000000	64.490061
833.000000	64.551981
832.000000	64.456259
831.000000	64.423952
830.000000	64.285553
829.000000	64.290539
828.000000	64.258432
827.000000	64.032686
826.000000	64.072072
825.000000	63.944043
824.000000	63.917121
823.000000	63.927192
822.000000	63.867565
821.000000	63.670038
820.000000	63.585283
819.000000	63.353655
818.000000	63.386759
817.000000	63.250554
816.000000	63.031788
815.000000	63.072470
814.000000	62.865570
813.000000	62.849915
812.000000	62.643114
811.000000	62.455758
810.000000	62.359935
809.000000	62.337700
808.000000	62.178461
807.000000	62.087126
806.000000	61.990107
805.000000	61.783008
804.000000	61.685590
803.000000	61.530839
802.000000	61.476197
801.000000	61.372198
800.000000	61.260223
799.000000	61.161808
798.000000	61.085629
797.000000	61.046044
796.000000	60.856793
795.000000	60.823888
794.000000	60.797265
793.000000	60.738336
792.000000	60.693865
791.000000	60.648596
790.000000	60.471808
789.000000	60.427038
788.000000	60.355545
787.000000	60.268099
786.000000	60.187931
785.000000	60.140569
784.000000	59.981231
783.000000	59.914723
782.000000	59.878429
781.000000	59.800554
780.000000	59.701741
779.000000	59.683793
778.000000	59.666044
777.000000	59.636929
776.000000	59.588369
775.000000	59.562644
774.000000	59.471209
773.000000	59.370301
772.000000	59.278567
771.000000	59.180851
770.000000	59.089316
769.000000	59.094401
768.000000	58.968666
767.000000	58.785596
766.000000	58.690871
765.000000	58.691070
764.000000	58.650488
763.000000	58.556760
762.000000	58.506605
761.000000	58.462234
760.000000	58.327724
759.000000	58.228910
758.000000	58.186234
757.000000	58.038562
756.000000	57.946728
755.000000	57.880620
754.000000	57.779014
753.000000	57.620374
752.000000	57.498029
751.000000	57.384956
750.000000	57.271884
749.000000	57.199394
748.000000	57.111050
747.000000	57.065881
746.000000	56.982423
745.000000	56.923195
744.000000	56.875533
743.000000	56.810222
742.000000	56.755182
741.000000	56.662750
740.000000	56.606114
739.000000	56.567327
738.000000	56.513283
737.000000	56.463228
736.000000	56.360426
735.000000	56.247952
734.000000	56.169380
733.000000	56.116633
732.000000	56.077447
731.000000	56.004159
730.000000	55.922595
729.000000	55.853496
728.000000	55.793569
727.000000	55.790080
726.000000	55.738529
725.000000	55.611697
724.000000	55.557753
723.000000	55.573707
722.000000	55.518467
721.000000	55.445478
720.000000	55.360525
719.000000	55.284346
718.000000	55.246156
717.000000	55.174963
716.000000	55.052418
715.000000	54.955200
714.000000	54.873736
713.000000	54.813809
712.000000	54.748997
711.000000	54.724468
710.000000	54.592750
709.000000	54.532724
708.000000	54.497626
707.000000	54.379668
706.000000	54.294515
705.000000	54.220330
704.000000	54.121716
703.000000	54.011635
702.000000	53.865857
701.000000	53.688372
700.000000	53.537310
699.000000	53.369297
698.000000	53.211853
697.000000	53.044937
696.000000	52.865557
695.000000	52.692658
694.000000	52.492937
693.000000	52.294712
692.000000	52.128892
691.000000	51.886196
690.000000	51.704722
689.000000	51.516069
688.000000	51.310166
687.000000	51.095588
686.000000	50.881708
685.000000	50.679693
684.000000	50.424832
683.000000	50.258016
682.000000	50.047526
681.000000	49.762651
680.000000	49.574198
679.000000	49.382354
678.000000	49.170468
677.000000	48.963667
676.000000	48.722367
675.000000	48.522646
674.000000	48.349348
673.000000	48.167775
672.000000	47.988395
671.000000	47.813502
670.000000	47.712395
669.000000	47.628837
668.000000	47.525536
667.000000	47.445967
666.000000	47.428717
665.000000	47.425327
664.000000	47.446465
663.000000	47.455539
662.000000	47.509682
661.000000	47.521448
660.000000	47.539296
659.000000	47.567315
658.000000	47.558042
657.000000	47.538698
656.000000	47.514269
655.000000	47.521348
654.000000	47.503400
653.000000	47.474185
652.000000	47.417350
651.000000	47.346754
650.000000	47.293908
649.000000	47.292711
648.000000	47.232486
647.000000	47.140752
646.000000	47.093588
645.000000	47.052009
644.000000	46.935945
643.000000	46.832645
642.000000	46.686768
641.000000	46.503399
640.000000	46.319432
639.000000	46.077234
638.000000	45.803328
637.000000	45.555347
636.000000	45.230688
635.000000	44.914605
634.000000	44.628235
633.000000	44.361508
632.000000	44.081320
631.000000	43.882397
630.000000	43.713287
629.000000	43.544775
628.000000	43.453041
627.000000	43.389027
626.000000	43.408271
625.000000	43.522640
624.000000	43.658845
623.000000	43.890174
622.000000	44.141246
621.000000	44.486845
620.000000	44.862655
619.000000	45.317836
618.000000	45.803727
617.000000	46.363006
616.000000	46.965161
615.000000	47.607798
614.000000	48.243355
613.000000	48.935350
612.000000	49.669920
611.000000	50.435002
610.000000	51.185427
609.000000	51.888190
608.000000	52.637219
607.000000	53.261609
606.000000	53.989200
605.000000	54.655668
604.000000	55.317848
603.000000	55.877626
602.000000	56.444283
601.000000	57.013832
600.000000	57.482673
599.000000	57.935162
598.000000	58.321242
597.000000	58.686085
596.000000	59.016328
595.000000	59.335801
594.000000	59.599936
593.000000	59.865466
592.000000	60.143859
591.000000	60.383664
590.000000	60.661060
589.000000	60.936262
588.000000	61.145555
587.000000	61.438706
586.000000	61.680904
585.000000	61.907646
584.000000	62.141070
583.000000	62.366716
582.000000	62.544999
581.000000	62.709522
580.000000	62.940552
579.000000	63.070476
578.000000	63.231010
577.000000	63.274484
576.000000	63.362728
575.000000	63.389551
574.000000	63.415675
573.000000	63.410390
572.000000	63.397328
571.000000	63.361333
570.000000	63.365919
569.000000	63.314169
568.000000	63.243175
567.000000	63.213661
566.000000	63.194217
565.000000	63.182351
564.000000	63.157124
563.000000	63.126613
562.000000	63.079250
561.000000	63.010848
560.000000	62.888703
559.000000	62.664851
558.000000	62.490956
557.000000	62.298414
556.000000	62.068181
555.000000	61.800856
554.000000	61.511495
553.000000	61.187933
552.000000	60.786097
551.000000	60.345076
550.000000	59.890095
549.000000	59.412479
548.000000	58.916617
547.000000	58.369502
546.000000	57.811021
545.000000	57.239279
544.000000	56.610800
543.000000	55.980926
542.000000	55.297906
541.000000	54.575101
540.000000	53.800547
539.000000	53.015522
538.000000	52.196596
537.000000	51.334395
536.000000	50.409875
535.000000	49.494529
534.000000	48.555650
533.000000	47.602613
532.000000	46.677096
531.000000	45.760353
530.000000	44.834537
529.000000	43.908920
528.000000	43.044226
527.000000	42.155403
526.000000	41.266579
525.000000	40.378952
524.000000	39.475272
523.000000	38.599012
522.000000	37.705701
521.000000	36.872018
520.000000	36.036639
519.000000	35.224494
518.000000	34.444754
517.000000	33.718858
516.000000	33.017990
515.000000	32.351422
514.000000	31.711577
513.000000	31.100847
512.000000	30.527010
511.000000	29.977703
510.000000	29.475259
509.000000	28.978001
508.000000	28.496995
507.000000	28.035732
506.000000	27.584640
505.000000	27.119887
504.000000	26.662812
503.000000	26.224781
502.000000	25.801110
501.000000	25.382224
500.000000	24.951672
499.000000	24.552230
498.000000	24.168642
497.000000	23.810081
496.000000	23.474454
495.000000	23.175022
494.000000	22.912682
493.000000	22.671781
492.000000	22.458698
491.000000	22.282310
490.000000	22.106818
489.000000	21.965029
488.000000	21.847570
487.000000	21.726521
486.000000	21.645755
485.000000	21.551628
484.000000	21.460891
483.000000	21.364969
482.000000	21.291482
481.000000	21.222781
480.000000	21.151787
479.000000	21.057660
478.000000	20.952265
477.000000	20.837996
476.000000	20.715551
475.000000	20.595499
474.000000	20.453311
473.000000	20.340040
472.000000	20.230956
471.000000	20.089865
470.000000	19.947478
469.000000	19.807284
468.000000	19.659313
467.000000	19.510544
466.000000	19.363470
465.000000	19.200742
464.000000	19.032929
463.000000	18.851854
462.000000	18.663599
461.000000	18.469861
460.000000	18.270339
459.000000	18.059052
458.000000	17.853647
457.000000	17.641163
456.000000	17.430374
455.000000	17.231451
454.000000	16.997728
453.000000	16.756926
452.000000	16.527691
451.000000	16.291575
450.000000	16.041799
449.000000	15.794915
448.000000	15.541749
447.000000	15.286189
446.000000	15.016770
445.000000	14.724916
444.000000	14.432664
443.000000	14.144000
442.000000	13.850052
441.000000	13.546532
440.000000	13.239722
439.000000	12.941885
438.000000	12.659703
437.000000	12.377820
436.000000	12.080382
435.000000	11.790323
434.000000	11.504153
433.000000	11.209208
432.000000	10.933108
431.000000	10.653219
430.000000	10.373829
429.000000	10.109495
428.000000	9.863010
427.000000	9.610641
426.000000	9.357475
425.000000	9.115178
424.000000	8.873777
423.000000	8.638858
422.000000	8.423183
421.000000	8.215286
420.000000	8.006990
419.000000	7.815844
418.000000	7.650623
417.000000	7.489789
416.000000	7.340821
415.000000	7.198833
414.000000	7.066018
413.000000	6.937690
412.000000	6.820130
411.000000	6.705562
410.000000	6.596379
409.000000	6.497864
408.000000	6.410617
407.000000	6.337330
406.000000	6.270424
405.000000	6.208104
404.000000	6.146882
403.000000	6.102311
402.000000	6.065219
401.000000	6.021346
400.000000	5.979866
399.000000	5.949354
398.000000	5.911065
397.000000	5.886736
396.000000	5.856723
395.000000	5.845854
394.000000	5.822323
393.000000	5.800187
392.000000	5.761998
391.000000	5.770174
390.000000	5.766385
389.000000	5.732383
388.000000	5.720518
387.000000	5.710248
386.000000	5.715034
385.000000	5.690804
384.000000	5.682927
383.000000	5.661788
382.000000	5.647828
381.000000	5.643242
380.000000	5.644538
379.000000	5.620109
378.000000	5.599668
377.000000	5.589398
376.000000	5.552006
375.000000	5.351587
374.000000	5.276904
373.000000	5.418493
372.000000	5.493775
371.000000	5.485000
370.000000	5.484602
369.000000	5.542534
368.000000	5.548217
367.000000	5.582717
366.000000	5.571350
365.000000	5.541836
364.000000	5.534956
363.000000	5.520099
362.000000	5.556892
361.000000	5.555696
360.000000	5.534158
359.000000	5.447609
358.000000	5.483106
357.000000	5.527776
356.000000	5.476425
355.000000	5.594284
354.000000	5.563174
353.000000	5.570154
352.000000	5.622502
351.000000	5.578629
350.000000	5.533959
349.000000	5.563972
348.000000	5.548915
347.000000	5.561578
346.000000	5.590495
345.000000	5.521993
344.000000	5.514615
343.000000	5.598970
342.000000	5.604853
341.000000	5.723908
340.000000	5.631675
339.000000	5.483904
338.000000	5.608343
337.000000	5.637459
336.000000	5.661589
335.000000	5.540240
334.000000	5.574940
333.000000	5.424775
332.000000	5.540938
331.000000	5.594882
330.000000	5.665677
329.000000	5.805870
328.000000	5.612032
327.000000	5.624297
326.000000	5.765188
325.000000	5.734178
324.000000	5.764690
323.000000	5.704963
322.000000	5.872776
321.000000	5.751727
320.000000	6.276307
319.000000	5.838675
318.000000	5.788919
317.000000	5.793606
316.000000	5.623000
315.000000	5.568957
314.000000	5.608642
313.000000	5.594683
312.000000	5.604255
311.000000	5.608044
310.000000	5.654908
309.000000	5.651119
308.000000	5.660193
307.000000	5.639054
306.000000	5.609141
305.000000	5.631974
304.000000	5.632772
303.000000	5.633769
302.000000	5.629482
301.000000	5.624097
300.000000	5.630977
299.000000	5.598372
298.000000	5.660193
297.000000	5.701274
296.000000	5.699279
295.000000	5.699678
294.000000	5.663084
293.000000	5.686018
292.000000	5.648726
291.000000	5.733380
290.000000	5.700974
289.000000	5.748636
288.000000	5.697086
287.000000	5.688710
286.000000	5.722313
285.000000	5.754021
284.000000	5.751528
283.000000	5.786925
282.000000	5.766584
281.000000	5.705561
280.000000	5.806768
279.000000	5.780943
278.000000	5.853432
277.000000	5.835784
276.000000	5.801982
275.000000	5.842365
274.000000	5.868190
273.000000	5.902889
272.000000	5.867193
271.000000	5.876865
270.000000	5.895112
269.000000	5.921734
268.000000	5.895311
267.000000	5.965208
266.000000	6.074492
265.000000	6.031417
264.000000	6.050062
263.000000	6.077184
262.000000	6.093836
261.000000	6.139204
260.000000	6.146483
259.000000	6.174302
258.000000	6.252875
257.000000	6.210398
256.000000	6.262746
255.000000	6.265737
254.000000	6.299838
253.000000	6.317587
252.000000	6.272418
251.000000	6.302730
250.000000	6.335435
