PE UV       SUBTECH     SPECTRUM    ASCII       PEDS        4.00        
   -1
CICIMAUCR0019-7.Sample.ASC
24/04/25
16:57:29.00
24/04/25
16:57:29.00
Vinicio Soto Monge
C. cupreomarginata
250,000000
1
Lambda 1050
1050L1511233
PerkinElmer UV WinLab 6.3.2.0749 / 2.02.05 Lambda 900 UV/VIS/NIR, Aug  7 2015 09:38:08

0
0
3350/servo 860,8/2
0
0
UV/VIS
1
1
1
DoubleDePol,CommonBeamDepol,RBeamAtt,SBeamAtt,60mm sphere, WB InGaAs Detector
0
0
0
0
Program
Program
3350/servo 860,8/2
3350/0,2 860,8/0,2
3350/0,2 860,8/0,2
0
15.00
 
 
 
0
 
860,8
319,2
860,8
Front
100
on
S:100 R:100
0
0
0
0
 
0
 
 
 
0
 
 
0
0
0
0
0
 
 
 
 
0
0


0
0
#HDR
-1
-1
#GR
nm
%R
1.0
0.0
2500,000000
-1,000000
2251
8
70,963300
5,343700
#DATA
2500.000000	10.325222
2499.000000	10.386315
2498.000000	10.382661
2497.000000	10.308778
2496.000000	10.183052
2495.000000	10.133834
2494.000000	10.127440
2493.000000	10.201094
2492.000000	10.028206
2491.000000	10.114193
2490.000000	10.111224
2489.000000	10.110082
2488.000000	10.028434
2487.000000	10.093981
2486.000000	10.039283
2485.000000	10.133606
2484.000000	10.031746
2483.000000	9.992121
2482.000000	10.029576
2481.000000	10.069430
2480.000000	10.043051
2479.000000	10.054699
2478.000000	10.128125
2477.000000	10.072741
2476.000000	10.027292
2475.000000	10.041681
2474.000000	10.038141
2473.000000	10.033916
2472.000000	10.098891
2471.000000	10.084617
2470.000000	10.112024
2469.000000	10.083704
2468.000000	10.089528
2467.000000	10.138516
2466.000000	10.177228
2465.000000	10.181110
2464.000000	10.185792
2463.000000	10.232383
2462.000000	10.283884
2461.000000	10.361307
2460.000000	10.391911
2459.000000	10.444097
2458.000000	10.482466
2457.000000	10.537850
2456.000000	10.693837
2455.000000	10.735404
2454.000000	10.809515
2453.000000	10.900184
2452.000000	10.996563
2451.000000	11.068733
2450.000000	11.197657
2449.000000	11.253726
2448.000000	11.345309
2447.000000	11.444885
2446.000000	11.558735
2445.000000	11.620400
2444.000000	11.702048
2443.000000	11.777187
2442.000000	11.890695
2441.000000	11.967889
2440.000000	12.072718
2439.000000	12.151397
2438.000000	12.214660
2437.000000	12.303617
2436.000000	12.383666
2435.000000	12.464058
2434.000000	12.527549
2433.000000	12.594466
2432.000000	12.669263
2431.000000	12.738807
2430.000000	12.812575
2429.000000	12.846719
2428.000000	12.899248
2427.000000	12.954517
2426.000000	13.006247
2425.000000	13.063229
2424.000000	13.101255
2423.000000	13.137569
2422.000000	13.179363
2421.000000	13.230179
2420.000000	13.271860
2419.000000	13.306346
2418.000000	13.336721
2417.000000	13.368010
2416.000000	13.415400
2415.000000	13.437211
2414.000000	13.464389
2413.000000	13.500817
2412.000000	13.559626
2411.000000	13.626543
2410.000000	13.722466
2409.000000	13.831862
2408.000000	13.907116
2407.000000	13.940803
2406.000000	13.966610
2405.000000	13.992989
2404.000000	14.036268
2403.000000	14.107639
2402.000000	14.185518
2401.000000	14.212810
2400.000000	14.225828
2399.000000	14.279271
2398.000000	14.353154
2397.000000	14.408081
2396.000000	14.435944
2395.000000	14.460495
2394.000000	14.500120
2393.000000	14.554476
2392.000000	14.591589
2391.000000	14.639207
2390.000000	14.674379
2389.000000	14.679061
2388.000000	14.708294
2387.000000	14.745407
2386.000000	14.753172
2385.000000	14.769273
2384.000000	14.770187
2383.000000	14.763792
2382.000000	14.768816
2381.000000	14.777838
2380.000000	14.771329
2379.000000	14.742095
2378.000000	14.739126
2377.000000	14.735700
2376.000000	14.700072
2375.000000	14.698017
2374.000000	14.683286
2373.000000	14.644003
2372.000000	14.600039
2371.000000	14.575031
2370.000000	14.555846
2369.000000	14.501947
2368.000000	14.458326
2367.000000	14.413219
2366.000000	14.355894
2365.000000	14.287721
2364.000000	14.216807
2363.000000	14.146693
2362.000000	14.076807
2361.000000	14.027932
2360.000000	13.951879
2359.000000	13.880280
2358.000000	13.831520
2357.000000	13.804570
2356.000000	13.779790
2355.000000	13.731715
2354.000000	13.717784
2353.000000	13.725320
2352.000000	13.729317
2351.000000	13.753754
2350.000000	13.781618
2349.000000	13.828094
2348.000000	13.876055
2347.000000	13.953364
2346.000000	14.014686
2345.000000	14.047116
2344.000000	14.121913
2343.000000	14.186432
2342.000000	14.234507
2341.000000	14.288292
2340.000000	14.334312
2339.000000	14.357265
2338.000000	14.381930
2337.000000	14.377248
2336.000000	14.379076
2335.000000	14.371881
2334.000000	14.371310
2333.000000	14.347558
2332.000000	14.305535
2331.000000	14.274932
2330.000000	14.230739
2329.000000	14.183920
2328.000000	14.119058
2327.000000	14.030102
2326.000000	13.964783
2325.000000	13.892271
2324.000000	13.808681
2323.000000	13.691291
2322.000000	13.559055
2321.000000	13.451485
2320.000000	13.333981
2319.000000	13.208140
2318.000000	13.087095
2317.000000	12.940814
2316.000000	12.798872
2315.000000	12.695413
2314.000000	12.540796
2313.000000	12.431056
2312.000000	12.361056
2311.000000	12.250060
2310.000000	12.159277
2309.000000	12.122735
2308.000000	12.088820
2307.000000	12.060614
2306.000000	12.067123
2305.000000	12.105378
2304.000000	12.148885
2303.000000	12.222882
2302.000000	12.319832
2301.000000	12.406961
2300.000000	12.553014
2299.000000	12.662183
2298.000000	12.769182
2297.000000	12.869672
2296.000000	12.984207
2295.000000	13.094632
2294.000000	13.178107
2293.000000	13.266036
2292.000000	13.327243
2291.000000	13.377146
2290.000000	13.409006
2289.000000	13.449316
2288.000000	13.441893
2287.000000	13.428989
2286.000000	13.390963
2285.000000	13.355449
2284.000000	13.333867
2283.000000	13.291158
2282.000000	13.247765
2281.000000	13.202316
2280.000000	13.128776
2279.000000	13.058890
2278.000000	13.053180
2277.000000	12.996540
2276.000000	12.929509
2275.000000	12.905528
2274.000000	12.897649
2273.000000	12.890683
2272.000000	12.894337
2271.000000	12.920830
2270.000000	12.968677
2269.000000	13.053408
2268.000000	13.154698
2267.000000	13.299038
2266.000000	13.408435
2265.000000	13.626886
2264.000000	13.806968
2263.000000	14.006578
2262.000000	14.275274
2261.000000	14.553677
2260.000000	14.836305
2259.000000	15.147709
2258.000000	15.479211
2257.000000	15.794156
2256.000000	16.150324
2255.000000	16.479200
2254.000000	16.797342
2253.000000	17.109432
2252.000000	17.436252
2251.000000	17.709174
2250.000000	18.006075
2249.000000	18.277741
2248.000000	18.510809
2247.000000	18.769913
2246.000000	18.976488
2245.000000	19.168561
2244.000000	19.365886
2243.000000	19.577029
2242.000000	19.713718
2241.000000	19.850065
2240.000000	20.003426
2239.000000	20.130637
2238.000000	20.272922
2237.000000	20.384831
2236.000000	20.463967
2235.000000	20.557605
2234.000000	20.642679
2233.000000	20.698748
2232.000000	20.759270
2231.000000	20.822647
2230.000000	20.851195
2229.000000	20.849711
2228.000000	20.895959
2227.000000	20.895046
2226.000000	20.871293
2225.000000	20.919255
2224.000000	20.895160
2223.000000	20.883969
2222.000000	20.854850
2221.000000	20.819564
2220.000000	20.774915
2219.000000	20.735518
2218.000000	20.705371
2217.000000	20.670770
2216.000000	20.596317
2215.000000	20.551895
2214.000000	20.515925
2213.000000	20.476300
2212.000000	20.416463
2211.000000	20.404815
2210.000000	20.355598
2209.000000	20.342465
2208.000000	20.294504
2207.000000	20.278632
2206.000000	20.251339
2205.000000	20.220964
2204.000000	20.191388
2203.000000	20.162726
2202.000000	20.133150
2201.000000	20.126184
2200.000000	20.113394
2199.000000	20.099234
2198.000000	20.067260
2197.000000	20.044764
2196.000000	20.052872
2195.000000	20.009707
2194.000000	19.999429
2193.000000	19.972366
2192.000000	19.948956
2191.000000	19.945987
2190.000000	19.918809
2189.000000	19.906362
2188.000000	19.875302
2187.000000	19.859200
2186.000000	19.851664
2185.000000	19.831794
2184.000000	19.799706
2183.000000	19.765220
2182.000000	19.757797
2181.000000	19.742381
2180.000000	19.722854
2179.000000	19.698873
2178.000000	19.695790
2177.000000	19.687340
2176.000000	19.673294
2175.000000	19.643718
2174.000000	19.646916
2173.000000	19.659591
2172.000000	19.664730
2171.000000	19.669526
2170.000000	19.667584
2169.000000	19.688824
2168.000000	19.722854
2167.000000	19.729934
2166.000000	19.755285
2165.000000	19.776867
2164.000000	19.807471
2163.000000	19.841729
2162.000000	19.847439
2161.000000	19.890375
2160.000000	19.924290
2159.000000	19.992235
2158.000000	20.038940
2157.000000	20.095580
2156.000000	20.136004
2155.000000	20.207832
2154.000000	20.279773
2153.000000	20.350802
2152.000000	20.426854
2151.000000	20.490802
2150.000000	20.553837
2149.000000	20.619612
2148.000000	20.671570
2147.000000	20.728895
2146.000000	20.779825
2145.000000	20.831326
2144.000000	20.907493
2143.000000	20.958309
2142.000000	21.016890
2141.000000	21.075699
2140.000000	21.141931
2139.000000	21.189093
2138.000000	21.252127
2137.000000	21.287070
2136.000000	21.322356
2135.000000	21.364722
2134.000000	21.421590
2133.000000	21.462357
2132.000000	21.496729
2131.000000	21.522194
2130.000000	21.541949
2129.000000	21.570612
2128.000000	21.590367
2127.000000	21.592879
2126.000000	21.599503
2125.000000	21.610694
2124.000000	21.618116
2123.000000	21.636844
2122.000000	21.625082
2121.000000	21.601672
2120.000000	21.604870
2119.000000	21.606811
2118.000000	21.593222
2117.000000	21.578263
2116.000000	21.559421
2115.000000	21.538295
2114.000000	21.498670
2113.000000	21.469323
2112.000000	21.454934
2111.000000	21.431410
2110.000000	21.407087
2109.000000	21.374656
2108.000000	21.353074
2107.000000	21.336859
2106.000000	21.305570
2105.000000	21.273596
2104.000000	21.230316
2103.000000	21.194688
2102.000000	21.174019
2101.000000	21.148326
2100.000000	21.123089
2099.000000	21.094998
2098.000000	21.062795
2097.000000	21.045438
2096.000000	21.033105
2095.000000	21.014720
2094.000000	20.996906
2093.000000	20.972811
2092.000000	20.963904
2091.000000	20.964247
2090.000000	20.952942
2089.000000	20.928047
2088.000000	20.905209
2087.000000	20.892305
2086.000000	20.858047
2085.000000	20.852908
2084.000000	20.840119
2083.000000	20.811570
2082.000000	20.787590
2081.000000	20.750820
2080.000000	20.720559
2079.000000	20.707541
2078.000000	20.667573
2077.000000	20.607393
2076.000000	20.573478
2075.000000	20.541276
2074.000000	20.495142
2073.000000	20.449579
2072.000000	20.387914
2071.000000	20.322025
2070.000000	20.279888
2069.000000	20.231241
2068.000000	20.200752
2067.000000	20.151078
2066.000000	20.080278
2065.000000	20.038826
2064.000000	19.999544
2063.000000	19.963801
2062.000000	19.922121
2061.000000	19.902137
2060.000000	19.892659
2059.000000	19.883638
2058.000000	19.879070
2057.000000	19.883752
2056.000000	19.905106
2055.000000	19.956950
2054.000000	20.010049
2053.000000	20.076967
2052.000000	20.174830
2051.000000	20.283199
2050.000000	20.385745
2049.000000	20.543559
2048.000000	20.695550
2047.000000	20.834523
2046.000000	21.015063
2045.000000	21.180414
2044.000000	21.340741
2043.000000	21.513287
2042.000000	21.707415
2041.000000	21.925295
2040.000000	22.097613
2039.000000	22.263193
2038.000000	22.439393
2037.000000	22.611025
2036.000000	22.785512
2035.000000	22.939330
2034.000000	23.056492
2033.000000	23.218874
2032.000000	23.325188
2031.000000	23.446804
2030.000000	23.583835
2029.000000	23.713787
2028.000000	23.825468
2027.000000	23.925387
2026.000000	24.021880
2025.000000	24.125225
2024.000000	24.222060
2023.000000	24.300397
2022.000000	24.370511
2021.000000	24.452616
2020.000000	24.534835
2019.000000	24.618539
2018.000000	24.651312
2017.000000	24.710807
2016.000000	24.793026
2015.000000	24.843271
2014.000000	24.890204
2013.000000	24.913499
2012.000000	24.949927
2011.000000	24.999372
2010.000000	24.996175
2009.000000	24.982700
2008.000000	24.999487
2007.000000	25.004968
2006.000000	24.985669
2005.000000	24.943075
2004.000000	24.940106
2003.000000	24.932570
2002.000000	24.875473
2001.000000	24.860057
2000.000000	24.817691
1999.000000	24.748034
1998.000000	24.718914
1997.000000	24.658049
1996.000000	24.577886
1995.000000	24.497837
1994.000000	24.424296
1993.000000	24.347901
1992.000000	24.270821
1991.000000	24.190086
1990.000000	24.098161
1989.000000	24.014001
1988.000000	23.910884
1987.000000	23.816903
1986.000000	23.719611
1985.000000	23.615010
1984.000000	23.513835
1983.000000	23.390050
1982.000000	23.297211
1981.000000	23.180277
1980.000000	23.085497
1979.000000	22.979297
1978.000000	22.874468
1977.000000	22.762901
1976.000000	22.651106
1975.000000	22.519442
1974.000000	22.458120
1973.000000	22.347125
1972.000000	22.246292
1971.000000	22.122164
1970.000000	22.020418
1969.000000	21.913876
1968.000000	21.832114
1967.000000	21.732195
1966.000000	21.647007
1965.000000	21.543891
1964.000000	21.423874
1963.000000	21.372829
1962.000000	21.244476
1961.000000	21.150610
1960.000000	21.043497
1959.000000	20.959451
1958.000000	20.882713
1957.000000	20.760640
1956.000000	20.662320
1955.000000	20.587181
1954.000000	20.474815
1953.000000	20.396936
1952.000000	20.332759
1951.000000	20.220393
1950.000000	20.129952
1949.000000	20.080050
1948.000000	19.996917
1947.000000	19.916640
1946.000000	19.858858
1945.000000	19.820717
1944.000000	19.749689
1943.000000	19.709493
1942.000000	19.723653
1941.000000	19.659934
1940.000000	19.635839
1939.000000	19.612886
1938.000000	19.636296
1937.000000	19.667584
1936.000000	19.684257
1935.000000	19.706867
1934.000000	19.775839
1933.000000	19.804045
1932.000000	19.853719
1931.000000	19.959919
1930.000000	20.062692
1929.000000	20.155417
1928.000000	20.297473
1927.000000	20.413151
1926.000000	20.566055
1925.000000	20.727182
1924.000000	20.875861
1923.000000	21.022028
1922.000000	21.241279
1921.000000	21.491933
1920.000000	21.723402
1919.000000	21.924153
1918.000000	22.165215
1917.000000	22.367908
1916.000000	22.593211
1915.000000	22.850259
1914.000000	23.181305
1913.000000	23.496592
1912.000000	23.837116
1911.000000	24.133104
1910.000000	24.412991
1909.000000	24.691622
1908.000000	24.998002
1907.000000	25.329048
1906.000000	25.727125
1905.000000	26.135936
1904.000000	26.528646
1903.000000	26.902742
1902.000000	27.263136
1901.000000	27.641115
1900.000000	28.083156
1899.000000	28.537644
1898.000000	28.989392
1897.000000	29.398888
1896.000000	29.754257
1895.000000	30.118647
1894.000000	30.505077
1893.000000	30.920739
1892.000000	31.397952
1891.000000	31.885100
1890.000000	32.309327
1889.000000	32.711743
1888.000000	33.177765
1887.000000	33.652922
1886.000000	34.156514
1885.000000	34.723482
1884.000000	35.349032
1883.000000	35.922053
1882.000000	36.502724
1881.000000	37.127703
1880.000000	37.674688
1879.000000	38.199519
1878.000000	38.719212
1877.000000	39.219491
1876.000000	39.660505
1875.000000	40.097065
1874.000000	40.500623
1873.000000	40.875062
1872.000000	41.225635
1871.000000	41.535098
1870.000000	41.816584
1869.000000	42.073404
1868.000000	42.255428
1867.000000	42.380812
1866.000000	42.467370
1865.000000	42.573113
1864.000000	42.651221
1863.000000	42.707290
1862.000000	42.788367
1861.000000	42.866818
1860.000000	42.930081
1859.000000	42.982495
1858.000000	43.008303
1857.000000	43.011843
1856.000000	42.978613
1855.000000	42.950179
1854.000000	42.929395
1853.000000	42.878009
1852.000000	42.833473
1851.000000	42.806638
1850.000000	42.763473
1849.000000	42.699525
1848.000000	42.635120
1847.000000	42.569002
1846.000000	42.482901
1845.000000	42.398969
1844.000000	42.331252
1843.000000	42.309670
1842.000000	42.297223
1841.000000	42.260681
1840.000000	42.208152
1839.000000	42.141920
1838.000000	42.070093
1837.000000	42.009342
1836.000000	41.951446
1835.000000	41.850385
1834.000000	41.741445
1833.000000	41.635474
1832.000000	41.538524
1831.000000	41.464869
1830.000000	41.391786
1829.000000	41.294265
1828.000000	41.159974
1827.000000	41.082323
1826.000000	41.020544
1825.000000	40.937868
1824.000000	40.885568
1823.000000	40.855193
1822.000000	40.850282
1821.000000	40.837607
1820.000000	40.808602
1819.000000	40.768977
1818.000000	40.719303
1817.000000	40.700347
1816.000000	40.706856
1815.000000	40.699091
1814.000000	40.686986
1813.000000	40.657410
1812.000000	40.627834
1811.000000	40.599743
1810.000000	40.553495
1809.000000	40.503821
1808.000000	40.457230
1807.000000	40.408469
1806.000000	40.346919
1805.000000	40.287882
1804.000000	40.239350
1803.000000	40.187734
1802.000000	40.126984
1801.000000	40.059724
1800.000000	39.982529
1799.000000	39.930572
1798.000000	39.883752
1797.000000	39.828140
1796.000000	39.780979
1795.000000	39.712691
1794.000000	39.642691
1793.000000	39.590390
1792.000000	39.525985
1791.000000	39.444223
1790.000000	39.376621
1789.000000	39.321923
1788.000000	39.263684
1787.000000	39.172444
1786.000000	39.093422
1785.000000	39.010404
1784.000000	38.922133
1783.000000	38.820387
1782.000000	38.725949
1781.000000	38.629684
1780.000000	38.541870
1779.000000	38.428019
1778.000000	38.302978
1777.000000	38.174967
1776.000000	38.024004
1775.000000	37.878979
1774.000000	37.729843
1773.000000	37.554557
1772.000000	37.376644
1771.000000	37.225909
1770.000000	37.069122
1769.000000	36.898289
1768.000000	36.740931
1767.000000	36.613377
1766.000000	36.512317
1765.000000	36.420962
1764.000000	36.359869
1763.000000	36.339428
1762.000000	36.353474
1761.000000	36.399265
1760.000000	36.471093
1759.000000	36.533785
1758.000000	36.595335
1757.000000	36.669104
1756.000000	36.728712
1755.000000	36.745613
1754.000000	36.750066
1753.000000	36.731453
1752.000000	36.672301
1751.000000	36.646151
1750.000000	36.595221
1749.000000	36.487879
1748.000000	36.362724
1747.000000	36.236540
1746.000000	36.069019
1745.000000	35.890535
1744.000000	35.663634
1743.000000	35.403159
1742.000000	35.136861
1741.000000	34.857659
1740.000000	34.533808
1739.000000	34.261229
1738.000000	33.975061
1737.000000	33.741650
1736.000000	33.587033
1735.000000	33.467244
1734.000000	33.405009
1733.000000	33.397473
1732.000000	33.453199
1731.000000	33.548322
1730.000000	33.673363
1729.000000	33.820672
1728.000000	33.944686
1727.000000	34.048601
1726.000000	34.158912
1725.000000	34.252436
1724.000000	34.298227
1723.000000	34.342763
1722.000000	34.382159
1721.000000	34.421099
1720.000000	34.478767
1719.000000	34.551622
1718.000000	34.614999
1717.000000	34.708751
1716.000000	34.823630
1715.000000	34.927659
1714.000000	35.028835
1713.000000	35.105230
1712.000000	35.193615
1711.000000	35.248542
1710.000000	35.289537
1709.000000	35.293306
1708.000000	35.268297
1707.000000	35.254137
1706.000000	35.189162
1705.000000	35.164724
1704.000000	35.053500
1703.000000	34.939421
1702.000000	34.800334
1701.000000	34.637038
1700.000000	34.426352
1699.000000	34.220804
1698.000000	34.028618
1697.000000	33.890901
1696.000000	33.825582
1695.000000	33.836431
1694.000000	33.908486
1693.000000	34.030787
1692.000000	34.220119
1691.000000	34.422812
1690.000000	34.599126
1689.000000	34.717773
1688.000000	34.836305
1687.000000	34.868279
1686.000000	34.913842
1685.000000	35.022668
1684.000000	35.178884
1683.000000	35.519979
1682.000000	35.972983
1681.000000	36.585743
1680.000000	37.245093
1679.000000	37.973302
1678.000000	38.665883
1677.000000	39.260943
1676.000000	39.808042
1675.000000	40.287653
1674.000000	40.711309
1673.000000	41.071817
1672.000000	41.398637
1671.000000	41.697823
1670.000000	41.969945
1669.000000	42.187826
1668.000000	42.384809
1667.000000	42.580421
1666.000000	42.723962
1665.000000	42.863049
1664.000000	42.958515
1663.000000	43.070995
1662.000000	43.173540
1661.000000	43.257700
1660.000000	43.328614
1659.000000	43.381600
1658.000000	43.411975
1657.000000	43.453427
1656.000000	43.455369
1655.000000	43.465646
1654.000000	43.464961
1653.000000	43.461535
1652.000000	43.455254
1651.000000	43.408435
1650.000000	43.386168
1649.000000	43.341404
1648.000000	43.283394
1647.000000	43.236803
1646.000000	43.165547
1645.000000	43.114388
1644.000000	43.040163
1643.000000	42.979298
1642.000000	42.924599
1641.000000	42.859738
1640.000000	42.791793
1639.000000	42.716768
1638.000000	42.632265
1637.000000	42.549589
1636.000000	42.476277
1635.000000	42.401595
1634.000000	42.319490
1633.000000	42.217744
1632.000000	42.118168
1631.000000	42.013910
1630.000000	41.908053
1629.000000	41.825491
1628.000000	41.730026
1627.000000	41.616975
1626.000000	41.519454
1625.000000	41.431068
1624.000000	41.336402
1623.000000	41.250872
1622.000000	41.144101
1621.000000	41.044182
1620.000000	40.940495
1619.000000	40.858276
1618.000000	40.762240
1617.000000	40.664376
1616.000000	40.583299
1615.000000	40.496056
1614.000000	40.415549
1613.000000	40.314032
1612.000000	40.236837
1611.000000	40.154390
1610.000000	40.074912
1609.000000	39.980702
1608.000000	39.888663
1607.000000	39.809641
1606.000000	39.706639
1605.000000	39.617911
1604.000000	39.516507
1603.000000	39.425039
1602.000000	39.335169
1601.000000	39.258660
1600.000000	39.175755
1599.000000	39.088169
1598.000000	38.998414
1597.000000	38.926015
1596.000000	38.860240
1595.000000	38.787499
1594.000000	38.718983
1593.000000	38.644758
1592.000000	38.583208
1591.000000	38.531592
1590.000000	38.480434
1589.000000	38.424822
1588.000000	38.367154
1587.000000	38.315197
1586.000000	38.267464
1585.000000	38.223043
1584.000000	38.179078
1583.000000	38.133401
1582.000000	38.108165
1581.000000	38.079159
1580.000000	38.059176
1579.000000	38.050611
1578.000000	38.030513
1577.000000	38.012927
1576.000000	38.028800
1575.000000	38.044902
1574.000000	38.044102
1573.000000	38.057234
1572.000000	38.086925
1571.000000	38.126664
1570.000000	38.148018
1569.000000	38.166860
1568.000000	38.187529
1567.000000	38.218475
1566.000000	38.270433
1565.000000	38.312113
1564.000000	38.340547
1563.000000	38.375605
1562.000000	38.402440
1561.000000	38.422538
1560.000000	38.438639
1559.000000	38.453941
1558.000000	38.464447
1557.000000	38.471984
1556.000000	38.471755
1555.000000	38.463990
1554.000000	38.459765
1553.000000	38.435328
1552.000000	38.410205
1551.000000	38.375605
1550.000000	38.351510
1549.000000	38.332325
1548.000000	38.299895
1547.000000	38.281167
1546.000000	38.259699
1545.000000	38.240172
1544.000000	38.220188
1543.000000	38.209796
1542.000000	38.206599
1541.000000	38.193010
1540.000000	38.190612
1539.000000	38.173826
1538.000000	38.157039
1537.000000	38.155555
1536.000000	38.149959
1535.000000	38.125979
1534.000000	38.116501
1533.000000	38.089094
1532.000000	38.055407
1531.000000	38.037822
1530.000000	38.012242
1529.000000	37.970219
1528.000000	37.955717
1527.000000	37.928539
1526.000000	37.881605
1525.000000	37.831817
1524.000000	37.796303
1523.000000	37.754851
1522.000000	37.703807
1521.000000	37.654932
1520.000000	37.611881
1519.000000	37.562893
1518.000000	37.510821
1517.000000	37.461489
1516.000000	37.423920
1515.000000	37.371733
1514.000000	37.327312
1513.000000	37.276725
1512.000000	37.220085
1511.000000	37.173723
1510.000000	37.123135
1509.000000	37.052335
1508.000000	37.010998
1507.000000	36.967604
1506.000000	36.913705
1505.000000	36.854896
1504.000000	36.803280
1503.000000	36.755319
1502.000000	36.701420
1501.000000	36.668647
1500.000000	36.642382
1499.000000	36.619087
1498.000000	36.581746
1497.000000	36.564389
1496.000000	36.546917
1495.000000	36.536640
1494.000000	36.535155
1493.000000	36.531501
1492.000000	36.524193
1491.000000	36.525791
1490.000000	36.532415
1489.000000	36.533785
1488.000000	36.544176
1487.000000	36.556052
1486.000000	36.552284
1485.000000	36.547602
1484.000000	36.571240
1483.000000	36.589511
1482.000000	36.632219
1481.000000	36.648435
1480.000000	36.682693
1479.000000	36.705988
1478.000000	36.737848
1477.000000	36.792090
1476.000000	36.848272
1475.000000	36.875222
1474.000000	36.925581
1473.000000	36.977996
1472.000000	37.037947
1471.000000	37.106235
1470.000000	37.161618
1469.000000	37.191308
1468.000000	37.243380
1467.000000	37.305273
1466.000000	37.369564
1465.000000	37.434882
1464.000000	37.519956
1463.000000	37.603317
1462.000000	37.684737
1461.000000	37.776205
1460.000000	37.864933
1459.000000	37.974559
1458.000000	38.084298
1457.000000	38.209340
1456.000000	38.338264
1455.000000	38.455083
1454.000000	38.609929
1453.000000	38.725035
1452.000000	38.877483
1451.000000	39.030388
1450.000000	39.154515
1449.000000	39.287094
1448.000000	39.445936
1447.000000	39.620081
1446.000000	39.811582
1445.000000	39.952154
1444.000000	40.094781
1443.000000	40.248828
1442.000000	40.435990
1441.000000	40.571309
1440.000000	40.764181
1439.000000	40.958081
1438.000000	41.148326
1437.000000	41.271541
1436.000000	41.436435
1435.000000	41.618231
1434.000000	41.794316
1433.000000	41.993127
1432.000000	42.184857
1431.000000	42.376701
1430.000000	42.588757
1429.000000	42.815202
1428.000000	43.062659
1427.000000	43.302464
1426.000000	43.584064
1425.000000	43.869547
1424.000000	44.175927
1423.000000	44.473171
1422.000000	44.714461
1421.000000	45.040597
1420.000000	45.376324
1419.000000	45.679621
1418.000000	45.984402
1417.000000	46.225464
1416.000000	46.563018
1415.000000	46.914048
1414.000000	47.238927
1413.000000	47.512305
1412.000000	47.797674
1411.000000	48.181477
1410.000000	48.614268
1409.000000	49.046261
1408.000000	49.493327
1407.000000	49.892888
1406.000000	50.360851
1405.000000	50.811000
1404.000000	51.242764
1403.000000	51.674985
1402.000000	52.129930
1401.000000	52.625985
1400.000000	53.030799
1399.000000	53.279854
1398.000000	53.498077
1397.000000	53.804571
1396.000000	54.207787
1395.000000	54.410023
1394.000000	54.540660
1393.000000	54.730220
1392.000000	54.979275
1391.000000	55.218053
1390.000000	55.411838
1389.000000	55.739344
1388.000000	56.111728
1387.000000	56.427015
1386.000000	56.820181
1385.000000	57.268389
1384.000000	57.706320
1383.000000	58.116387
1382.000000	58.475410
1381.000000	58.725493
1380.000000	58.853046
1379.000000	58.992362
1378.000000	59.061905
1377.000000	59.189573
1376.000000	59.332315
1375.000000	59.541745
1374.000000	59.795824
1373.000000	60.094439
1372.000000	60.446839
1371.000000	60.800609
1370.000000	61.083465
1369.000000	61.379568
1368.000000	61.655001
1367.000000	61.870826
1366.000000	62.050109
1365.000000	62.260795
1364.000000	62.405135
1363.000000	62.559068
1362.000000	62.746801
1361.000000	62.846834
1360.000000	62.837813
1359.000000	62.949151
1358.000000	63.045416
1357.000000	63.206086
1356.000000	63.511324
1355.000000	63.897068
1354.000000	64.307249
1353.000000	64.729992
1352.000000	65.245459
1351.000000	65.725299
1350.000000	66.153408
1349.000000	66.546118
1348.000000	66.913135
1347.000000	67.234702
1346.000000	67.557412
1345.000000	67.865162
1344.000000	68.175425
1343.000000	68.453485
1342.000000	68.704025
1341.000000	68.959018
1340.000000	69.201107
1339.000000	69.417389
1338.000000	69.639380
1337.000000	69.865368
1336.000000	70.059839
1335.000000	70.254538
1334.000000	70.437704
1333.000000	70.624295
1332.000000	70.795699
1331.000000	70.947576
1330.000000	71.095456
1329.000000	71.228947
1328.000000	71.363238
1327.000000	71.493076
1326.000000	71.604642
1325.000000	71.705246
1324.000000	71.814872
1323.000000	71.916275
1322.000000	72.010485
1321.000000	72.109033
1320.000000	72.199131
1319.000000	72.282949
1318.000000	72.367795
1317.000000	72.444875
1316.000000	72.516360
1315.000000	72.584533
1314.000000	72.655219
1313.000000	72.720880
1312.000000	72.773979
1311.000000	72.831989
1310.000000	72.893996
1309.000000	72.944812
1308.000000	72.977471
1307.000000	73.022578
1306.000000	73.057064
1305.000000	73.078761
1304.000000	73.109593
1303.000000	73.126722
1302.000000	73.139169
1301.000000	73.151730
1300.000000	73.142024
1299.000000	73.136999
1298.000000	73.150816
1297.000000	73.148190
1296.000000	73.136085
1295.000000	73.135172
1294.000000	73.130718
1293.000000	73.125009
1292.000000	73.108908
1291.000000	73.090865
1290.000000	73.062888
1289.000000	73.012985
1288.000000	72.962398
1287.000000	72.923572
1286.000000	72.889200
1285.000000	72.847291
1284.000000	72.805382
1283.000000	72.747601
1282.000000	72.697813
1281.000000	72.650537
1280.000000	72.598236
1279.000000	72.546393
1278.000000	72.498089
1277.000000	72.465315
1276.000000	72.426490
1275.000000	72.389149
1274.000000	72.358888
1273.000000	72.333765
1272.000000	72.311497
1271.000000	72.292770
1270.000000	72.268218
1269.000000	72.240812
1268.000000	72.206440
1267.000000	72.166815
1266.000000	72.134955
1265.000000	72.109832
1264.000000	72.072149
1263.000000	72.032752
1262.000000	71.994497
1261.000000	71.965721
1260.000000	71.939228
1259.000000	71.889554
1258.000000	71.842735
1257.000000	71.790434
1256.000000	71.725459
1255.000000	71.679896
1254.000000	71.615377
1253.000000	71.555311
1252.000000	71.497415
1251.000000	71.407774
1250.000000	71.322015
1249.000000	71.241394
1248.000000	71.148898
1247.000000	71.053889
1246.000000	70.958766
1245.000000	70.833953
1244.000000	70.709711
1243.000000	70.579988
1242.000000	70.446268
1241.000000	70.331504
1240.000000	70.184994
1239.000000	70.045565
1238.000000	69.910703
1237.000000	69.782464
1236.000000	69.647145
1235.000000	69.494012
1234.000000	69.340993
1233.000000	69.214125
1232.000000	69.058708
1231.000000	68.897810
1230.000000	68.744335
1229.000000	68.586634
1228.000000	68.429847
1227.000000	68.276486
1226.000000	68.118557
1225.000000	67.966452
1224.000000	67.808523
1223.000000	67.649109
1222.000000	67.499859
1221.000000	67.339303
1220.000000	67.200901
1219.000000	67.060901
1218.000000	66.923184
1217.000000	66.793917
1216.000000	66.679039
1215.000000	66.561877
1214.000000	66.440490
1213.000000	66.316019
1212.000000	66.209934
1211.000000	66.086720
1210.000000	65.995594
1209.000000	65.910634
1208.000000	65.831384
1207.000000	65.738317
1206.000000	65.683847
1205.000000	65.651530
1204.000000	65.609278
1203.000000	65.541676
1202.000000	65.488120
1201.000000	65.468478
1200.000000	65.413666
1199.000000	65.322654
1198.000000	65.194986
1197.000000	65.053387
1196.000000	64.901510
1195.000000	64.658735
1194.000000	64.373139
1193.000000	64.019597
1192.000000	63.611128
1191.000000	63.207456
1190.000000	62.837813
1189.000000	62.528007
1188.000000	62.307843
1187.000000	62.207011
1186.000000	62.191024
1185.000000	62.312182
1184.000000	62.545479
1183.000000	62.908270
1182.000000	63.352481
1181.000000	63.779449
1180.000000	64.249239
1179.000000	64.670155
1178.000000	65.041853
1177.000000	65.390370
1176.000000	65.674825
1175.000000	65.939411
1174.000000	66.215301
1173.000000	66.494160
1172.000000	66.800540
1171.000000	67.115827
1170.000000	67.415242
1169.000000	67.746173
1168.000000	68.047871
1167.000000	68.381543
1166.000000	68.696259
1165.000000	69.012917
1164.000000	69.361548
1163.000000	69.739984
1162.000000	70.017587
1161.000000	70.306267
1160.000000	70.609107
1159.000000	70.898473
1158.000000	71.155064
1157.000000	71.397382
1156.000000	71.586714
1155.000000	71.760516
1154.000000	71.863404
1153.000000	71.940941
1152.000000	71.957727
1151.000000	71.973486
1150.000000	71.985019
1149.000000	71.993127
1148.000000	72.003176
1147.000000	72.085053
1146.000000	72.172639
1145.000000	72.324173
1144.000000	72.516360
1143.000000	72.713114
1142.000000	72.973475
1141.000000	73.203802
1140.000000	73.453656
1139.000000	73.717557
1138.000000	73.970494
1137.000000	74.270822
1136.000000	74.524559
1135.000000	74.831510
1134.000000	75.068575
1133.000000	75.250827
1132.000000	75.439017
1131.000000	75.631432
1130.000000	75.785022
1129.000000	75.938840
1128.000000	76.026198
1127.000000	76.119151
1126.000000	76.204110
1125.000000	76.257895
1124.000000	76.325840
1123.000000	76.362268
1122.000000	76.389560
1121.000000	76.397439
1120.000000	76.396754
1119.000000	76.412056
1118.000000	76.414340
1117.000000	76.395270
1116.000000	76.384535
1115.000000	76.389217
1114.000000	76.372545
1113.000000	76.345481
1112.000000	76.315449
1111.000000	76.304829
1110.000000	76.307341
1109.000000	76.285530
1108.000000	76.276509
1107.000000	76.236084
1106.000000	76.225122
1105.000000	76.212446
1104.000000	76.200913
1103.000000	76.186410
1102.000000	76.147927
1101.000000	76.137650
1100.000000	76.111386
1099.000000	76.105676
1098.000000	76.075072
1097.000000	76.049379
1096.000000	76.027796
1095.000000	75.989085
1094.000000	75.954599
1093.000000	75.930504
1092.000000	75.894076
1091.000000	75.856050
1090.000000	75.819051
1089.000000	75.774059
1088.000000	75.733749
1087.000000	75.700405
1086.000000	75.647876
1085.000000	75.598088
1084.000000	75.548642
1083.000000	75.500339
1082.000000	75.463112
1081.000000	75.397451
1080.000000	75.350060
1079.000000	75.302099
1078.000000	75.269212
1077.000000	75.221593
1076.000000	75.164954
1075.000000	75.110598
1074.000000	75.057498
1073.000000	74.992179
1072.000000	74.952212
1071.000000	74.896600
1070.000000	74.832766
1069.000000	74.772815
1068.000000	74.703728
1067.000000	74.646289
1066.000000	74.603352
1065.000000	74.532552
1064.000000	74.471916
1063.000000	74.403172
1062.000000	74.340936
1061.000000	74.273677
1060.000000	74.196711
1059.000000	74.132877
1058.000000	74.071669
1057.000000	73.991391
1056.000000	73.918194
1055.000000	73.843169
1054.000000	73.782989
1053.000000	73.723609
1052.000000	73.647785
1051.000000	73.566022
1050.000000	73.509040
1049.000000	73.461764
1048.000000	73.376804
1047.000000	73.312628
1046.000000	73.262269
1045.000000	73.198092
1044.000000	73.138027
1043.000000	73.090751
1042.000000	73.037994
1041.000000	72.967422
1040.000000	72.921631
1039.000000	72.866019
1038.000000	72.794534
1037.000000	72.743261
1036.000000	72.681711
1035.000000	72.628612
1034.000000	72.565006
1033.000000	72.512135
1032.000000	72.471824
1031.000000	72.400911
1030.000000	72.321204
1029.000000	72.256456
1028.000000	72.207582
1027.000000	72.142377
1026.000000	72.073062
1025.000000	72.016423
1024.000000	71.956700
1023.000000	71.902915
1022.000000	71.854725
1021.000000	71.789407
1020.000000	71.736992
1019.000000	71.697938
1018.000000	71.660825
1017.000000	71.614235
1016.000000	71.560450
1015.000000	71.529960
1014.000000	71.497073
1013.000000	71.479601
1012.000000	71.482113
1011.000000	71.454935
1010.000000	71.435637
1009.000000	71.423875
1008.000000	71.430384
1007.000000	71.431069
1006.000000	71.415196
1005.000000	71.410057
1004.000000	71.411085
1003.000000	71.417937
1002.000000	71.421248
1001.000000	71.400237
1000.000000	71.390188
999.000000	71.402863
998.000000	71.380710
997.000000	71.369405
996.000000	71.375914
995.000000	71.388475
994.000000	71.389845
993.000000	71.362667
992.000000	71.350106
991.000000	71.361411
990.000000	71.351134
989.000000	71.350563
988.000000	71.348051
987.000000	71.343254
986.000000	71.343711
985.000000	71.339829
984.000000	71.348736
983.000000	71.341542
982.000000	71.348736
981.000000	71.323271
980.000000	71.305571
979.000000	71.329437
978.000000	71.351819
977.000000	71.325783
976.000000	71.318018
975.000000	71.326011
974.000000	71.321329
973.000000	71.291297
972.000000	71.290041
971.000000	71.294608
970.000000	71.265032
969.000000	71.270513
968.000000	71.266745
967.000000	71.270970
966.000000	71.263890
965.000000	71.263205
964.000000	71.277365
963.000000	71.272112
962.000000	71.279763
961.000000	71.304543
960.000000	71.327838
959.000000	71.318018
958.000000	71.322700
957.000000	71.331150
956.000000	71.349078
955.000000	71.352961
954.000000	71.346794
953.000000	71.378198
952.000000	71.375457
951.000000	71.376713
950.000000	71.406632
949.000000	71.443973
948.000000	71.428671
947.000000	71.439976
946.000000	71.462244
945.000000	71.490564
944.000000	71.521738
943.000000	71.528932
942.000000	71.551428
941.000000	71.598933
940.000000	71.604528
939.000000	71.640499
938.000000	71.656943
937.000000	71.693256
936.000000	71.780271
935.000000	71.801854
934.000000	71.849701
933.000000	71.894464
932.000000	71.936031
931.000000	72.020419
930.000000	72.089392
929.000000	72.102410
928.000000	72.109718
927.000000	72.164759
926.000000	72.243667
925.000000	72.269246
924.000000	72.312982
923.000000	72.349410
922.000000	72.434712
921.000000	72.456865
920.000000	72.507453
919.000000	72.548334
918.000000	72.592412
917.000000	72.621760
916.000000	72.666980
915.000000	72.665724
914.000000	72.683995
913.000000	72.730700
912.000000	72.746916
911.000000	72.785284
910.000000	72.820456
909.000000	72.843865
908.000000	72.877895
907.000000	72.881663
906.000000	72.934535
905.000000	72.982724
904.000000	73.056607
903.000000	73.081615
902.000000	73.112562
901.000000	73.148076
900.000000	73.204145
899.000000	73.216021
898.000000	73.221844
897.000000	73.174454
896.000000	73.205629
895.000000	73.217962
894.000000	73.234977
893.000000	73.250849
892.000000	73.261469
891.000000	73.193753
890.000000	73.099886
889.000000	73.089266
888.000000	73.070196
887.000000	72.984894
886.000000	72.842952
885.000000	72.744632
884.000000	72.695871
883.000000	72.540683
882.000000	72.426832
881.000000	72.324401
880.000000	72.078658
879.000000	71.922784
878.000000	71.675556
877.000000	71.486681
876.000000	71.194347
875.000000	70.956825
874.000000	70.629205
873.000000	70.370215
872.000000	69.993835
871.000000	69.651142
870.000000	69.128937
869.000000	68.580239
868.000000	68.100057
867.000000	67.684851
866.000000	67.013625
865.000000	66.590311
864.000000	66.499984
863.000000	66.556738
862.000000	66.639186
861.000000	66.699594
860.000000	66.738419
859.000000	66.797000
858.000000	68.558200
857.000000	68.647400
856.000000	68.120500
855.000000	68.906700
854.000000	68.476600
853.000000	68.575100
852.000000	68.847000
851.000000	68.675400
850.000000	68.382200
849.000000	68.696900
848.000000	68.771200
847.000000	68.746000
846.000000	68.830400
845.000000	68.408700
844.000000	68.558100
843.000000	68.825200
842.000000	68.845600
841.000000	68.794100
840.000000	68.843700
839.000000	68.642200
838.000000	68.670100
837.000000	68.615200
836.000000	68.551700
835.000000	68.661900
834.000000	68.361000
833.000000	68.234100
832.000000	68.518400
831.000000	68.325000
830.000000	68.270500
829.000000	68.046300
828.000000	68.126700
827.000000	67.938200
826.000000	67.911700
825.000000	67.813900
824.000000	67.676400
823.000000	67.734200
822.000000	67.442600
821.000000	67.377900
820.000000	67.427000
819.000000	67.234900
818.000000	67.138900
817.000000	66.974700
816.000000	67.047700
815.000000	66.866900
814.000000	66.835800
813.000000	66.579600
812.000000	66.486200
811.000000	66.449200
810.000000	66.354600
809.000000	66.217700
808.000000	66.151500
807.000000	66.088600
806.000000	66.073100
805.000000	65.950600
804.000000	65.879100
803.000000	65.729700
802.000000	65.592800
801.000000	65.527400
800.000000	65.385700
799.000000	65.299400
798.000000	65.241500
797.000000	65.182100
796.000000	65.106500
795.000000	65.010700
794.000000	64.848400
793.000000	64.878900
792.000000	64.803900
791.000000	64.691800
790.000000	64.593900
789.000000	64.527600
788.000000	64.434100
787.000000	64.351600
786.000000	64.250200
785.000000	64.206100
784.000000	64.073000
783.000000	63.974100
782.000000	63.905700
781.000000	63.810500
780.000000	63.786100
779.000000	63.782900
778.000000	63.680500
777.000000	63.514000
776.000000	63.489200
775.000000	63.487900
774.000000	63.468500
773.000000	63.430300
772.000000	63.332800
771.000000	63.293500
770.000000	63.176500
769.000000	63.059000
768.000000	62.975900
767.000000	62.909500
766.000000	62.836200
765.000000	62.754600
764.000000	62.673500
763.000000	62.539600
762.000000	62.468700
761.000000	62.408400
760.000000	62.343400
759.000000	62.240500
758.000000	62.130000
757.000000	62.025300
756.000000	61.977000
755.000000	61.926400
754.000000	61.765100
753.000000	61.664100
752.000000	61.615900
751.000000	61.547300
750.000000	61.517200
749.000000	61.429200
748.000000	61.289600
747.000000	61.148100
746.000000	61.077900
745.000000	61.105300
744.000000	61.054200
743.000000	60.992300
742.000000	60.939100
741.000000	60.915600
740.000000	60.888900
739.000000	60.807700
738.000000	60.697900
737.000000	60.643800
736.000000	60.635300
735.000000	60.623200
734.000000	60.559700
733.000000	60.513900
732.000000	60.509900
731.000000	60.487300
730.000000	60.438100
729.000000	60.385200
728.000000	60.389000
727.000000	60.346300
726.000000	60.312400
725.000000	60.350600
724.000000	60.304100
723.000000	60.232100
722.000000	60.191700
721.000000	60.168300
720.000000	60.079300
719.000000	60.022700
718.000000	60.064800
717.000000	59.945900
716.000000	59.864400
715.000000	59.861200
714.000000	59.801200
713.000000	59.701700
712.000000	59.598300
711.000000	59.515900
710.000000	59.404800
709.000000	59.319500
708.000000	59.236500
707.000000	59.135300
706.000000	59.040100
705.000000	59.003500
704.000000	58.910300
703.000000	58.784500
702.000000	58.629900
701.000000	58.524600
700.000000	58.357000
699.000000	58.235800
698.000000	58.062800
697.000000	57.877500
696.000000	57.773900
695.000000	57.629000
694.000000	57.427300
693.000000	57.230800
692.000000	57.031000
691.000000	56.879500
690.000000	56.715700
689.000000	56.566300
688.000000	56.407900
687.000000	56.248100
686.000000	56.010800
685.000000	55.877600
684.000000	55.695800
683.000000	55.502400
682.000000	55.353200
681.000000	55.165800
680.000000	54.952100
679.000000	54.807900
678.000000	54.648100
677.000000	54.504100
676.000000	54.373300
675.000000	54.272500
674.000000	54.141200
673.000000	53.998000
672.000000	53.914900
671.000000	53.793300
670.000000	53.716700
669.000000	53.614800
668.000000	53.552400
667.000000	53.435700
666.000000	53.393000
665.000000	53.318000
664.000000	53.263900
663.000000	53.232900
662.000000	53.154100
661.000000	53.045900
660.000000	52.970700
659.000000	52.983900
658.000000	52.871100
657.000000	52.789800
656.000000	52.748500
655.000000	52.673800
654.000000	52.586000
653.000000	52.489100
652.000000	52.418200
651.000000	52.332100
650.000000	52.192600
649.000000	52.083600
648.000000	52.002900
647.000000	51.861400
646.000000	51.707900
645.000000	51.508000
644.000000	51.300400
643.000000	51.078400
642.000000	50.864600
641.000000	50.618400
640.000000	50.369800
639.000000	50.098000
638.000000	49.844600
637.000000	49.586100
636.000000	49.273300
635.000000	49.032300
634.000000	48.735700
633.000000	48.474600
632.000000	48.262500
631.000000	48.076200
630.000000	47.880900
629.000000	47.752000
628.000000	47.667400
627.000000	47.616600
626.000000	47.592700
625.000000	47.612700
624.000000	47.713600
623.000000	47.843300
622.000000	47.986700
621.000000	48.219800
620.000000	48.469000
619.000000	48.759400
618.000000	49.119300
617.000000	49.518000
616.000000	49.956400
615.000000	50.454300
614.000000	50.992200
613.000000	51.546000
612.000000	52.140900
611.000000	52.701400
610.000000	53.305700
609.000000	53.896800
608.000000	54.543300
607.000000	55.186900
606.000000	55.875000
605.000000	56.497800
604.000000	57.214400
603.000000	57.887600
602.000000	58.538800
601.000000	59.220600
600.000000	59.813700
599.000000	60.412200
598.000000	60.970300
597.000000	61.589500
596.000000	62.097300
595.000000	62.581400
594.000000	63.113200
593.000000	63.614400
592.000000	64.041400
591.000000	64.495400
590.000000	64.891500
589.000000	65.279400
588.000000	65.725800
587.000000	66.085500
586.000000	66.500800
585.000000	66.903600
584.000000	67.212900
583.000000	67.623100
582.000000	67.955800
581.000000	68.294900
580.000000	68.658100
579.000000	68.974300
578.000000	69.285700
577.000000	69.586700
576.000000	69.867800
575.000000	70.088100
574.000000	70.332300
573.000000	70.530200
572.000000	70.686700
571.000000	70.795000
570.000000	70.899300
569.000000	70.954000
568.000000	70.955600
567.000000	70.952500
566.000000	70.963300
565.000000	70.896600
564.000000	70.874800
563.000000	70.829200
562.000000	70.776300
561.000000	70.758200
560.000000	70.688700
559.000000	70.614800
558.000000	70.596500
557.000000	70.538400
556.000000	70.502600
555.000000	70.406400
554.000000	70.353700
553.000000	70.214300
552.000000	70.098000
551.000000	69.912300
550.000000	69.718300
549.000000	69.466600
548.000000	69.183300
547.000000	68.848300
546.000000	68.507700
545.000000	68.134300
544.000000	67.698700
543.000000	67.266400
542.000000	66.830900
541.000000	66.325300
540.000000	65.763700
539.000000	65.206800
538.000000	64.594200
537.000000	63.927900
536.000000	63.226600
535.000000	62.472300
534.000000	61.687200
533.000000	60.853000
532.000000	59.949300
531.000000	59.037800
530.000000	58.089300
529.000000	57.093600
528.000000	56.107400
527.000000	55.077300
526.000000	54.019400
525.000000	52.978600
524.000000	51.897900
523.000000	50.797500
522.000000	49.730800
521.000000	48.670300
520.000000	47.598000
519.000000	46.550200
518.000000	45.527100
517.000000	44.522300
516.000000	43.548300
515.000000	42.577900
514.000000	41.651100
513.000000	40.745500
512.000000	39.863400
511.000000	39.043100
510.000000	38.218500
509.000000	37.403000
508.000000	36.631300
507.000000	35.901100
506.000000	35.220100
505.000000	34.517300
504.000000	33.831300
503.000000	33.197400
502.000000	32.556700
501.000000	31.966900
500.000000	31.357600
499.000000	30.798000
498.000000	30.222900
497.000000	29.679400
496.000000	29.145300
495.000000	28.591400
494.000000	28.069900
493.000000	27.593400
492.000000	27.112100
491.000000	26.639000
490.000000	26.222900
489.000000	25.811800
488.000000	25.414900
487.000000	25.031000
486.000000	24.661500
485.000000	24.308500
484.000000	23.977900
483.000000	23.660900
482.000000	23.340600
481.000000	23.027600
480.000000	22.720700
479.000000	22.403200
478.000000	22.088200
477.000000	21.792800
476.000000	21.501200
475.000000	21.222300
474.000000	20.919500
473.000000	20.603300
472.000000	20.321900
471.000000	20.040500
470.000000	19.742800
469.000000	19.436800
468.000000	19.153300
467.000000	18.862200
466.000000	18.578100
465.000000	18.310600
464.000000	18.031500
463.000000	17.758800
462.000000	17.487700
461.000000	17.216400
460.000000	16.950600
459.000000	16.683200
458.000000	16.418300
457.000000	16.173500
456.000000	15.924700
455.000000	15.681100
454.000000	15.424300
453.000000	15.181500
452.000000	14.974600
451.000000	14.765900
450.000000	14.579500
449.000000	14.420300
448.000000	14.264200
447.000000	14.104400
446.000000	13.971500
445.000000	13.845600
444.000000	13.727100
443.000000	13.638600
442.000000	13.554900
441.000000	13.489300
440.000000	13.427500
439.000000	13.369100
438.000000	13.325000
437.000000	13.276200
436.000000	13.243700
435.000000	13.203700
434.000000	13.161900
433.000000	13.137500
432.000000	13.103900
431.000000	13.070000
430.000000	13.047600
429.000000	13.026900
428.000000	12.996600
427.000000	12.965200
426.000000	12.938800
425.000000	12.895000
424.000000	12.851700
423.000000	12.816000
422.000000	12.765800
421.000000	12.683400
420.000000	12.634800
419.000000	12.577900
418.000000	12.492400
417.000000	12.424400
416.000000	12.358800
415.000000	12.269800
414.000000	12.147500
413.000000	12.026900
412.000000	11.938600
411.000000	11.839100
410.000000	11.728200
409.000000	11.591000
408.000000	11.460900
407.000000	11.343400
406.000000	11.217000
405.000000	11.080700
404.000000	10.900300
403.000000	10.744700
402.000000	10.596300
401.000000	10.450600
400.000000	10.297200
399.000000	10.120200
398.000000	9.950400
397.000000	9.802100
396.000000	9.628900
395.000000	9.439800
394.000000	9.248000
393.000000	9.095400
392.000000	8.898900
391.000000	8.718500
390.000000	8.551500
389.000000	8.390700
388.000000	8.208600
387.000000	8.053800
386.000000	7.890600
385.000000	7.740900
384.000000	7.567200
383.000000	7.411600
382.000000	7.267700
381.000000	7.140800
380.000000	7.014400
379.000000	6.891200
378.000000	6.777000
377.000000	6.669700
376.000000	6.387000
375.000000	6.051600
374.000000	5.916600
373.000000	5.908100
372.000000	5.879300
371.000000	6.065600
370.000000	5.960900
369.000000	5.941100
368.000000	5.976300
367.000000	5.884500
366.000000	5.776600
365.000000	5.780800
364.000000	5.618000
363.000000	5.684300
362.000000	5.694300
361.000000	5.758600
360.000000	5.696900
359.000000	5.579800
358.000000	5.580400
357.000000	5.540500
356.000000	5.558300
355.000000	5.574500
354.000000	5.555500
353.000000	5.540500
352.000000	5.631800
351.000000	5.676900
350.000000	5.818600
349.000000	5.665300
348.000000	5.564100
347.000000	5.503000
346.000000	5.667700
345.000000	5.600000
344.000000	5.509000
343.000000	5.494100
342.000000	5.598400
341.000000	5.709000
340.000000	5.615300
339.000000	5.582900
338.000000	5.479300
337.000000	5.348600
336.000000	5.429700
335.000000	5.343700
334.000000	5.647800
333.000000	5.600300
332.000000	5.771300
331.000000	5.634600
330.000000	5.767800
329.000000	5.779800
328.000000	5.682300
327.000000	5.606300
326.000000	5.908000
325.000000	5.602600
324.000000	5.773100
323.000000	5.990900
322.000000	6.280700
321.000000	5.908900
320.000000	6.403400
319.000000	6.079800
318.000000	6.116600
317.000000	6.442600
316.000000	5.480600
315.000000	5.454200
314.000000	5.402400
313.000000	5.368700
312.000000	5.423600
311.000000	5.387500
310.000000	5.429200
309.000000	5.451800
308.000000	5.475400
307.000000	5.499800
306.000000	5.400500
305.000000	5.389200
304.000000	5.352200
303.000000	5.424800
302.000000	5.396200
301.000000	5.408600
300.000000	5.426600
299.000000	5.539000
298.000000	5.457300
297.000000	5.475900
296.000000	5.509700
295.000000	5.457500
294.000000	5.442900
293.000000	5.407300
292.000000	5.521500
291.000000	5.476200
290.000000	5.517300
289.000000	5.502300
288.000000	5.532700
287.000000	5.494700
286.000000	5.483400
285.000000	5.476300
284.000000	5.496500
283.000000	5.588400
282.000000	5.622800
281.000000	5.548600
280.000000	5.549300
279.000000	5.580800
278.000000	5.572700
277.000000	5.584700
276.000000	5.637300
275.000000	5.621300
274.000000	5.553300
273.000000	5.593200
272.000000	5.687700
271.000000	5.663400
270.000000	5.722800
269.000000	5.735900
268.000000	5.668100
267.000000	5.714000
266.000000	5.725700
265.000000	5.766400
264.000000	5.861700
263.000000	5.855100
262.000000	5.917600
261.000000	5.937000
260.000000	5.911800
259.000000	5.955800
258.000000	6.051000
257.000000	5.968900
256.000000	5.999600
255.000000	6.024500
254.000000	6.062800
253.000000	6.067900
252.000000	6.084600
251.000000	6.032200
250.000000	6.082400
