PE UV       SUBTECH     SPECTRUM    ASCII       PEDS        4.00        
   -1
CICIMAUCR0108-2.Sample.ASC
24/04/19
17:04:33.00
24/04/19
17:04:33.00
Vinicio Soto Monge
C. resplendens
250,000000
1
Lambda 1050
1050L1511233
PerkinElmer UV WinLab 6.3.2.0749 / 2.02.05 Lambda 900 UV/VIS/NIR, Aug  7 2015 09:38:08

0
0
3350/servo 860,8/2
0
0
UV/VIS
1
1
1
DoubleDePol,CommonBeamDepol,RBeamAtt,SBeamAtt,60mm sphere, WB InGaAs Detector
0
0
0
0
Program
Program
3350/servo 860,8/2
3350/0,2 860,8/0,2
3350/0,2 860,8/0,2
0
15.00
 
 
 
0
 
860,8
319,2
860,8
Front
100
on
S:100 R:100
0
0
0
0
 
0
 
 
 
0
 
 
0
0
0
0
0
 
 
 
 
0
0


0
0
#HDR
-1
-1
#GR
nm
%R
1.0
0.0
2500,000000
-1,000000
2251
8
90,331100
5,360400
#DATA
2500.000000	10.569600
2499.000000	10.525600
2498.000000	10.572200
2497.000000	10.421400
2496.000000	10.436700
2495.000000	10.429000
2494.000000	10.359200
2493.000000	10.397100
2492.000000	10.310800
2491.000000	10.329100
2490.000000	10.316800
2489.000000	10.236300
2488.000000	10.271600
2487.000000	10.209500
2486.000000	10.285200
2485.000000	10.234600
2484.000000	10.189500
2483.000000	10.181100
2482.000000	10.213500
2481.000000	10.239500
2480.000000	10.180700
2479.000000	10.151300
2478.000000	10.145200
2477.000000	10.172800
2476.000000	10.230500
2475.000000	10.255700
2474.000000	10.242900
2473.000000	10.224700
2472.000000	10.232200
2471.000000	10.216200
2470.000000	10.180400
2469.000000	10.247700
2468.000000	10.286200
2467.000000	10.277100
2466.000000	10.275500
2465.000000	10.319700
2464.000000	10.364200
2463.000000	10.386200
2462.000000	10.406400
2461.000000	10.454800
2460.000000	10.511400
2459.000000	10.602400
2458.000000	10.665000
2457.000000	10.710900
2456.000000	10.793600
2455.000000	10.897300
2454.000000	10.959000
2453.000000	11.037200
2452.000000	11.119400
2451.000000	11.210700
2450.000000	11.301800
2449.000000	11.407300
2448.000000	11.512400
2447.000000	11.617400
2446.000000	11.678400
2445.000000	11.783800
2444.000000	11.875200
2443.000000	11.955800
2442.000000	12.059200
2441.000000	12.161400
2440.000000	12.233300
2439.000000	12.314900
2438.000000	12.412800
2437.000000	12.472700
2436.000000	12.571600
2435.000000	12.664800
2434.000000	12.721500
2433.000000	12.778800
2432.000000	12.857900
2431.000000	12.920200
2430.000000	12.953300
2429.000000	13.031700
2428.000000	13.096000
2427.000000	13.149100
2426.000000	13.196700
2425.000000	13.233700
2424.000000	13.277700
2423.000000	13.279500
2422.000000	13.294900
2421.000000	13.311900
2420.000000	13.317200
2419.000000	13.326400
2418.000000	13.353700
2417.000000	13.385700
2416.000000	13.413800
2415.000000	13.440000
2414.000000	13.459300
2413.000000	13.468700
2412.000000	13.489900
2411.000000	13.521800
2410.000000	13.534200
2409.000000	13.545400
2408.000000	13.552900
2407.000000	13.570900
2406.000000	13.586200
2405.000000	13.608800
2404.000000	13.630400
2403.000000	13.642200
2402.000000	13.648200
2401.000000	13.666600
2400.000000	13.704900
2399.000000	13.720600
2398.000000	13.729800
2397.000000	13.737600
2396.000000	13.765600
2395.000000	13.790800
2394.000000	13.799100
2393.000000	13.813000
2392.000000	13.827200
2391.000000	13.834100
2390.000000	13.860700
2389.000000	13.870000
2388.000000	13.861100
2387.000000	13.860800
2386.000000	13.859200
2385.000000	13.860200
2384.000000	13.847500
2383.000000	13.824000
2382.000000	13.808800
2381.000000	13.799700
2380.000000	13.780800
2379.000000	13.744700
2378.000000	13.714600
2377.000000	13.695100
2376.000000	13.647900
2375.000000	13.613700
2374.000000	13.601100
2373.000000	13.556800
2372.000000	13.490700
2371.000000	13.443500
2370.000000	13.391400
2369.000000	13.337300
2368.000000	13.270800
2367.000000	13.191500
2366.000000	13.131100
2365.000000	13.048300
2364.000000	12.951100
2363.000000	12.850400
2362.000000	12.758100
2361.000000	12.684600
2360.000000	12.588100
2359.000000	12.493200
2358.000000	12.425300
2357.000000	12.340100
2356.000000	12.263400
2355.000000	12.229300
2354.000000	12.189400
2353.000000	12.150800
2352.000000	12.138900
2351.000000	12.148200
2350.000000	12.165400
2349.000000	12.174700
2348.000000	12.214000
2347.000000	12.283600
2346.000000	12.331300
2345.000000	12.364700
2344.000000	12.408000
2343.000000	12.444700
2342.000000	12.491700
2341.000000	12.526700
2340.000000	12.544600
2339.000000	12.566700
2338.000000	12.569200
2337.000000	12.557400
2336.000000	12.541300
2335.000000	12.505500
2334.000000	12.467600
2333.000000	12.433800
2332.000000	12.365200
2331.000000	12.306700
2330.000000	12.247500
2329.000000	12.167800
2328.000000	12.078700
2327.000000	11.989400
2326.000000	11.882800
2325.000000	11.772300
2324.000000	11.671300
2323.000000	11.564900
2322.000000	11.430500
2321.000000	11.280100
2320.000000	11.150700
2319.000000	10.995400
2318.000000	10.848600
2317.000000	10.711400
2316.000000	10.547100
2315.000000	10.407300
2314.000000	10.272600
2313.000000	10.132900
2312.000000	10.021400
2311.000000	9.915300
2310.000000	9.837000
2309.000000	9.765200
2308.000000	9.702700
2307.000000	9.669700
2306.000000	9.644500
2305.000000	9.653700
2304.000000	9.703100
2303.000000	9.761000
2302.000000	9.824300
2301.000000	9.917100
2300.000000	10.026500
2299.000000	10.123300
2298.000000	10.227100
2297.000000	10.335200
2296.000000	10.445500
2295.000000	10.538900
2294.000000	10.630100
2293.000000	10.690900
2292.000000	10.741600
2291.000000	10.798500
2290.000000	10.835500
2289.000000	10.865700
2288.000000	10.857200
2287.000000	10.839400
2286.000000	10.829400
2285.000000	10.763300
2284.000000	10.721600
2283.000000	10.703600
2282.000000	10.645600
2281.000000	10.577800
2280.000000	10.519300
2279.000000	10.468200
2278.000000	10.419100
2277.000000	10.353800
2276.000000	10.325000
2275.000000	10.302000
2274.000000	10.257400
2273.000000	10.272300
2272.000000	10.262300
2271.000000	10.282700
2270.000000	10.326700
2269.000000	10.354300
2268.000000	10.427400
2267.000000	10.528300
2266.000000	10.665500
2265.000000	10.805600
2264.000000	10.977100
2263.000000	11.151000
2262.000000	11.395500
2261.000000	11.619100
2260.000000	11.881200
2259.000000	12.150700
2258.000000	12.440600
2257.000000	12.729100
2256.000000	13.014100
2255.000000	13.339500
2254.000000	13.593100
2253.000000	13.882700
2252.000000	14.136100
2251.000000	14.396200
2250.000000	14.627000
2249.000000	14.841100
2248.000000	15.054300
2247.000000	15.250300
2246.000000	15.434900
2245.000000	15.598800
2244.000000	15.770100
2243.000000	15.928300
2242.000000	16.038800
2241.000000	16.165900
2240.000000	16.257100
2239.000000	16.359800
2238.000000	16.475300
2237.000000	16.553300
2236.000000	16.611200
2235.000000	16.698100
2234.000000	16.772200
2233.000000	16.835100
2232.000000	16.865600
2231.000000	16.904500
2230.000000	16.920800
2229.000000	16.952700
2228.000000	16.987200
2227.000000	16.999300
2226.000000	16.974400
2225.000000	16.994000
2224.000000	16.972000
2223.000000	16.967500
2222.000000	16.956200
2221.000000	16.930300
2220.000000	16.886700
2219.000000	16.862700
2218.000000	16.852900
2217.000000	16.780700
2216.000000	16.774000
2215.000000	16.727500
2214.000000	16.697500
2213.000000	16.670600
2212.000000	16.648800
2211.000000	16.605300
2210.000000	16.606300
2209.000000	16.560700
2208.000000	16.553900
2207.000000	16.509500
2206.000000	16.502400
2205.000000	16.465200
2204.000000	16.437800
2203.000000	16.411100
2202.000000	16.396900
2201.000000	16.403000
2200.000000	16.361800
2199.000000	16.339400
2198.000000	16.304900
2197.000000	16.304600
2196.000000	16.296000
2195.000000	16.267800
2194.000000	16.278700
2193.000000	16.266300
2192.000000	16.268200
2191.000000	16.253400
2190.000000	16.242800
2189.000000	16.200200
2188.000000	16.193000
2187.000000	16.183100
2186.000000	16.164100
2185.000000	16.133800
2184.000000	16.141300
2183.000000	16.104300
2182.000000	16.107600
2181.000000	16.081400
2180.000000	16.072500
2179.000000	16.065600
2178.000000	16.063700
2177.000000	16.045100
2176.000000	16.073000
2175.000000	16.067500
2174.000000	16.057600
2173.000000	16.074100
2172.000000	16.078000
2171.000000	16.085300
2170.000000	16.096900
2169.000000	16.133200
2168.000000	16.135600
2167.000000	16.172000
2166.000000	16.191400
2165.000000	16.211500
2164.000000	16.254400
2163.000000	16.270100
2162.000000	16.325400
2161.000000	16.350300
2160.000000	16.375000
2159.000000	16.428900
2158.000000	16.479500
2157.000000	16.531200
2156.000000	16.576500
2155.000000	16.618100
2154.000000	16.661900
2153.000000	16.717200
2152.000000	16.774100
2151.000000	16.824200
2150.000000	16.882600
2149.000000	16.934800
2148.000000	16.985300
2147.000000	17.033100
2146.000000	17.085300
2145.000000	17.127200
2144.000000	17.164300
2143.000000	17.211400
2142.000000	17.257700
2141.000000	17.299800
2140.000000	17.355100
2139.000000	17.378100
2138.000000	17.396900
2137.000000	17.429700
2136.000000	17.475700
2135.000000	17.492800
2134.000000	17.510300
2133.000000	17.529700
2132.000000	17.542900
2131.000000	17.560500
2130.000000	17.569300
2129.000000	17.583500
2128.000000	17.584600
2127.000000	17.576600
2126.000000	17.577900
2125.000000	17.566700
2124.000000	17.558300
2123.000000	17.546400
2122.000000	17.525700
2121.000000	17.510900
2120.000000	17.507000
2119.000000	17.480700
2118.000000	17.453700
2117.000000	17.424400
2116.000000	17.402600
2115.000000	17.380900
2114.000000	17.347700
2113.000000	17.317700
2112.000000	17.284100
2111.000000	17.242100
2110.000000	17.220700
2109.000000	17.189300
2108.000000	17.152100
2107.000000	17.123000
2106.000000	17.093600
2105.000000	17.059900
2104.000000	17.029400
2103.000000	16.992200
2102.000000	16.964300
2101.000000	16.943400
2100.000000	16.905100
2099.000000	16.873400
2098.000000	16.843900
2097.000000	16.822900
2096.000000	16.802400
2095.000000	16.783600
2094.000000	16.753800
2093.000000	16.729400
2092.000000	16.715000
2091.000000	16.699600
2090.000000	16.685400
2089.000000	16.666800
2088.000000	16.655700
2087.000000	16.633000
2086.000000	16.622200
2085.000000	16.608600
2084.000000	16.578800
2083.000000	16.568800
2082.000000	16.535300
2081.000000	16.508600
2080.000000	16.503200
2079.000000	16.461200
2078.000000	16.424600
2077.000000	16.393800
2076.000000	16.363100
2075.000000	16.318700
2074.000000	16.289300
2073.000000	16.260000
2072.000000	16.209200
2071.000000	16.153200
2070.000000	16.118900
2069.000000	16.086000
2068.000000	16.053500
2067.000000	16.016100
2066.000000	15.967900
2065.000000	15.927400
2064.000000	15.887200
2063.000000	15.852700
2062.000000	15.822000
2061.000000	15.798200
2060.000000	15.791000
2059.000000	15.772500
2058.000000	15.780600
2057.000000	15.782900
2056.000000	15.785000
2055.000000	15.832700
2054.000000	15.869900
2053.000000	15.915100
2052.000000	15.985100
2051.000000	16.063500
2050.000000	16.162600
2049.000000	16.254700
2048.000000	16.402300
2047.000000	16.522100
2046.000000	16.638000
2045.000000	16.794700
2044.000000	16.939600
2043.000000	17.096400
2042.000000	17.242000
2041.000000	17.396100
2040.000000	17.553200
2039.000000	17.700000
2038.000000	17.831100
2037.000000	17.984700
2036.000000	18.109900
2035.000000	18.236200
2034.000000	18.382600
2033.000000	18.499000
2032.000000	18.606300
2031.000000	18.707900
2030.000000	18.812000
2029.000000	18.911700
2028.000000	19.008600
2027.000000	19.101700
2026.000000	19.194800
2025.000000	19.281900
2024.000000	19.364200
2023.000000	19.441000
2022.000000	19.519500
2021.000000	19.600000
2020.000000	19.684300
2019.000000	19.724800
2018.000000	19.787200
2017.000000	19.844300
2016.000000	19.906600
2015.000000	19.971300
2014.000000	19.999200
2013.000000	20.028100
2012.000000	20.070500
2011.000000	20.123100
2010.000000	20.126100
2009.000000	20.159800
2008.000000	20.171600
2007.000000	20.179400
2006.000000	20.176300
2005.000000	20.183300
2004.000000	20.174600
2003.000000	20.160200
2002.000000	20.160200
2001.000000	20.136400
2000.000000	20.126600
1999.000000	20.093300
1998.000000	20.051000
1997.000000	20.009900
1996.000000	19.965200
1995.000000	19.925200
1994.000000	19.890200
1993.000000	19.846800
1992.000000	19.777800
1991.000000	19.715900
1990.000000	19.654000
1989.000000	19.600400
1988.000000	19.494800
1987.000000	19.431200
1986.000000	19.365100
1985.000000	19.274700
1984.000000	19.208000
1983.000000	19.123300
1982.000000	19.064000
1981.000000	18.964200
1980.000000	18.906800
1979.000000	18.833400
1978.000000	18.748200
1977.000000	18.633800
1976.000000	18.562200
1975.000000	18.502700
1974.000000	18.398700
1973.000000	18.309200
1972.000000	18.232000
1971.000000	18.169500
1970.000000	18.091800
1969.000000	18.005400
1968.000000	17.931600
1967.000000	17.857400
1966.000000	17.814700
1965.000000	17.721500
1964.000000	17.653600
1963.000000	17.567600
1962.000000	17.512300
1961.000000	17.435600
1960.000000	17.338800
1959.000000	17.263600
1958.000000	17.209700
1957.000000	17.139000
1956.000000	17.064500
1955.000000	16.977000
1954.000000	16.909000
1953.000000	16.846700
1952.000000	16.765000
1951.000000	16.706800
1950.000000	16.641300
1949.000000	16.560900
1948.000000	16.513800
1947.000000	16.473700
1946.000000	16.413500
1945.000000	16.370400
1944.000000	16.320700
1943.000000	16.312100
1942.000000	16.297900
1941.000000	16.291000
1940.000000	16.292800
1939.000000	16.279800
1938.000000	16.272500
1937.000000	16.279900
1936.000000	16.296700
1935.000000	16.327300
1934.000000	16.383800
1933.000000	16.442800
1932.000000	16.514600
1931.000000	16.579900
1930.000000	16.660300
1929.000000	16.783900
1928.000000	16.866700
1927.000000	16.978200
1926.000000	17.082000
1925.000000	17.223500
1924.000000	17.360600
1923.000000	17.510800
1922.000000	17.680200
1921.000000	17.847000
1920.000000	18.028500
1919.000000	18.185900
1918.000000	18.390500
1917.000000	18.586200
1916.000000	18.793400
1915.000000	19.014500
1914.000000	19.263800
1913.000000	19.507200
1912.000000	19.750700
1911.000000	19.999100
1910.000000	20.226900
1909.000000	20.470700
1908.000000	20.741500
1907.000000	21.017800
1906.000000	21.321700
1905.000000	21.624300
1904.000000	21.916000
1903.000000	22.211500
1902.000000	22.494000
1901.000000	22.777000
1900.000000	23.098700
1899.000000	23.400100
1898.000000	23.725400
1897.000000	24.034500
1896.000000	24.313900
1895.000000	24.601600
1894.000000	24.889100
1893.000000	25.206600
1892.000000	25.530100
1891.000000	25.847200
1890.000000	26.150700
1889.000000	26.441600
1888.000000	26.760600
1887.000000	27.078300
1886.000000	27.456400
1885.000000	27.864400
1884.000000	28.325400
1883.000000	28.747900
1882.000000	29.202300
1881.000000	29.675800
1880.000000	30.075300
1879.000000	30.493200
1878.000000	30.910700
1877.000000	31.283900
1876.000000	31.634000
1875.000000	31.977200
1874.000000	32.291600
1873.000000	32.568100
1872.000000	32.838100
1871.000000	33.047000
1870.000000	33.196200
1869.000000	33.349500
1868.000000	33.489200
1867.000000	33.562900
1866.000000	33.616500
1865.000000	33.671000
1864.000000	33.709400
1863.000000	33.754200
1862.000000	33.803200
1861.000000	33.839200
1860.000000	33.869500
1859.000000	33.865200
1858.000000	33.854400
1857.000000	33.836300
1856.000000	33.797800
1855.000000	33.761000
1854.000000	33.709300
1853.000000	33.629200
1852.000000	33.558400
1851.000000	33.514700
1850.000000	33.469000
1849.000000	33.439300
1848.000000	33.403600
1847.000000	33.317100
1846.000000	33.218400
1845.000000	33.121700
1844.000000	33.050700
1843.000000	33.051900
1842.000000	33.054500
1841.000000	33.019600
1840.000000	32.974000
1839.000000	32.915700
1838.000000	32.860200
1837.000000	32.814500
1836.000000	32.747000
1835.000000	32.649800
1834.000000	32.554200
1833.000000	32.468800
1832.000000	32.390300
1831.000000	32.315300
1830.000000	32.245200
1829.000000	32.166300
1828.000000	32.069800
1827.000000	31.993000
1826.000000	31.922300
1825.000000	31.861400
1824.000000	31.821100
1823.000000	31.797800
1822.000000	31.816900
1821.000000	31.807100
1820.000000	31.771900
1819.000000	31.727400
1818.000000	31.682900
1817.000000	31.682400
1816.000000	31.687500
1815.000000	31.672600
1814.000000	31.656000
1813.000000	31.640400
1812.000000	31.626400
1811.000000	31.593400
1810.000000	31.530700
1809.000000	31.486900
1808.000000	31.458400
1807.000000	31.425200
1806.000000	31.367500
1805.000000	31.305300
1804.000000	31.253800
1803.000000	31.223900
1802.000000	31.176000
1801.000000	31.116400
1800.000000	31.059900
1799.000000	31.015200
1798.000000	30.961700
1797.000000	30.920900
1796.000000	30.868500
1795.000000	30.818500
1794.000000	30.769000
1793.000000	30.722100
1792.000000	30.658700
1791.000000	30.592100
1790.000000	30.525800
1789.000000	30.472400
1788.000000	30.419800
1787.000000	30.362800
1786.000000	30.286300
1785.000000	30.223300
1784.000000	30.126700
1783.000000	30.041900
1782.000000	29.966200
1781.000000	29.891100
1780.000000	29.798700
1779.000000	29.707700
1778.000000	29.600800
1777.000000	29.505900
1776.000000	29.395800
1775.000000	29.258100
1774.000000	29.142000
1773.000000	29.003400
1772.000000	28.840800
1771.000000	28.713600
1770.000000	28.590100
1769.000000	28.454300
1768.000000	28.329900
1767.000000	28.227100
1766.000000	28.133000
1765.000000	28.076200
1764.000000	28.034200
1763.000000	28.028300
1762.000000	28.040300
1761.000000	28.067900
1760.000000	28.138400
1759.000000	28.206800
1758.000000	28.274000
1757.000000	28.347400
1756.000000	28.392900
1755.000000	28.404500
1754.000000	28.414600
1753.000000	28.413400
1752.000000	28.392800
1751.000000	28.366400
1750.000000	28.306500
1749.000000	28.219900
1748.000000	28.150400
1747.000000	28.049000
1746.000000	27.908800
1745.000000	27.754600
1744.000000	27.585500
1743.000000	27.372200
1742.000000	27.145600
1741.000000	26.898500
1740.000000	26.655100
1739.000000	26.412500
1738.000000	26.191100
1737.000000	26.002600
1736.000000	25.857200
1735.000000	25.756600
1734.000000	25.712100
1733.000000	25.710900
1732.000000	25.768400
1731.000000	25.839500
1730.000000	25.931700
1729.000000	26.034100
1728.000000	26.147100
1727.000000	26.245200
1726.000000	26.328200
1725.000000	26.376100
1724.000000	26.439500
1723.000000	26.444600
1722.000000	26.481900
1721.000000	26.519100
1720.000000	26.551700
1719.000000	26.601600
1718.000000	26.633900
1717.000000	26.709200
1716.000000	26.783000
1715.000000	26.863300
1714.000000	26.958700
1713.000000	27.027300
1712.000000	27.084100
1711.000000	27.122800
1710.000000	27.149200
1709.000000	27.145800
1708.000000	27.164900
1707.000000	27.117300
1706.000000	27.100400
1705.000000	27.065000
1704.000000	26.995200
1703.000000	26.905200
1702.000000	26.816000
1701.000000	26.671900
1700.000000	26.510400
1699.000000	26.355200
1698.000000	26.219100
1697.000000	26.096500
1696.000000	26.034100
1695.000000	26.023000
1694.000000	26.085200
1693.000000	26.194600
1692.000000	26.347900
1691.000000	26.485800
1690.000000	26.617800
1689.000000	26.718500
1688.000000	26.769900
1687.000000	26.764600
1686.000000	26.796900
1685.000000	26.812900
1684.000000	26.932400
1683.000000	27.191800
1682.000000	27.551400
1681.000000	28.008200
1680.000000	28.529700
1679.000000	29.089400
1678.000000	29.618900
1677.000000	30.110500
1676.000000	30.574600
1675.000000	30.944100
1674.000000	31.255600
1673.000000	31.536900
1672.000000	31.800600
1671.000000	32.017700
1670.000000	32.209800
1669.000000	32.384600
1668.000000	32.541400
1667.000000	32.638700
1666.000000	32.755900
1665.000000	32.849200
1664.000000	32.931000
1663.000000	33.017900
1662.000000	33.076100
1661.000000	33.125200
1660.000000	33.193600
1659.000000	33.239500
1658.000000	33.268400
1657.000000	33.282400
1656.000000	33.302700
1655.000000	33.291100
1654.000000	33.281800
1653.000000	33.292300
1652.000000	33.278800
1651.000000	33.250800
1650.000000	33.217100
1649.000000	33.186600
1648.000000	33.152800
1647.000000	33.101500
1646.000000	33.059000
1645.000000	33.002500
1644.000000	32.942600
1643.000000	32.903000
1642.000000	32.856600
1641.000000	32.784900
1640.000000	32.728300
1639.000000	32.655700
1638.000000	32.580400
1637.000000	32.534200
1636.000000	32.455600
1635.000000	32.377500
1634.000000	32.301700
1633.000000	32.238000
1632.000000	32.156300
1631.000000	32.055900
1630.000000	31.994400
1629.000000	31.911800
1628.000000	31.824500
1627.000000	31.731300
1626.000000	31.648200
1625.000000	31.569400
1624.000000	31.490900
1623.000000	31.402800
1622.000000	31.322200
1621.000000	31.248000
1620.000000	31.158600
1619.000000	31.089600
1618.000000	31.006900
1617.000000	30.926900
1616.000000	30.845900
1615.000000	30.778300
1614.000000	30.694100
1613.000000	30.616400
1612.000000	30.553400
1611.000000	30.495600
1610.000000	30.423900
1609.000000	30.343000
1608.000000	30.275900
1607.000000	30.209600
1606.000000	30.135600
1605.000000	30.058400
1604.000000	29.993500
1603.000000	29.921700
1602.000000	29.840300
1601.000000	29.774200
1600.000000	29.706800
1599.000000	29.643400
1598.000000	29.568200
1597.000000	29.509400
1596.000000	29.465000
1595.000000	29.414100
1594.000000	29.351900
1593.000000	29.295400
1592.000000	29.251600
1591.000000	29.213200
1590.000000	29.172400
1589.000000	29.126500
1588.000000	29.078900
1587.000000	29.046200
1586.000000	29.002000
1585.000000	28.965800
1584.000000	28.938300
1583.000000	28.915800
1582.000000	28.905300
1581.000000	28.886300
1580.000000	28.875800
1579.000000	28.866700
1578.000000	28.847800
1577.000000	28.848300
1576.000000	28.847200
1575.000000	28.853500
1574.000000	28.872300
1573.000000	28.879100
1572.000000	28.887100
1571.000000	28.899100
1570.000000	28.916300
1569.000000	28.950400
1568.000000	28.978700
1567.000000	28.997600
1566.000000	29.028100
1565.000000	29.044500
1564.000000	29.064400
1563.000000	29.085700
1562.000000	29.113400
1561.000000	29.138100
1560.000000	29.156600
1559.000000	29.177700
1558.000000	29.187700
1557.000000	29.194100
1556.000000	29.191800
1555.000000	29.188000
1554.000000	29.184600
1553.000000	29.165500
1552.000000	29.143100
1551.000000	29.136200
1550.000000	29.133100
1549.000000	29.111900
1548.000000	29.085400
1547.000000	29.074100
1546.000000	29.069100
1545.000000	29.053700
1544.000000	29.036700
1543.000000	29.030400
1542.000000	29.012500
1541.000000	29.008500
1540.000000	29.005500
1539.000000	28.998300
1538.000000	28.990600
1537.000000	28.992700
1536.000000	28.988300
1535.000000	28.971000
1534.000000	28.971000
1533.000000	28.962200
1532.000000	28.940900
1531.000000	28.918700
1530.000000	28.898100
1529.000000	28.880300
1528.000000	28.874900
1527.000000	28.843800
1526.000000	28.815800
1525.000000	28.790700
1524.000000	28.765800
1523.000000	28.739100
1522.000000	28.718300
1521.000000	28.693300
1520.000000	28.660300
1519.000000	28.628200
1518.000000	28.604900
1517.000000	28.582500
1516.000000	28.542900
1515.000000	28.515700
1514.000000	28.485000
1513.000000	28.450100
1512.000000	28.417400
1511.000000	28.390200
1510.000000	28.346200
1509.000000	28.326500
1508.000000	28.296600
1507.000000	28.251900
1506.000000	28.217700
1505.000000	28.192000
1504.000000	28.156300
1503.000000	28.124800
1502.000000	28.095600
1501.000000	28.065000
1500.000000	28.060200
1499.000000	28.040000
1498.000000	28.032600
1497.000000	28.022800
1496.000000	28.011600
1495.000000	28.019900
1494.000000	28.006200
1493.000000	28.007800
1492.000000	28.039600
1491.000000	28.029600
1490.000000	28.058800
1489.000000	28.074900
1488.000000	28.071300
1487.000000	28.082300
1486.000000	28.099300
1485.000000	28.124200
1484.000000	28.128000
1483.000000	28.152500
1482.000000	28.188100
1481.000000	28.208100
1480.000000	28.242400
1479.000000	28.289500
1478.000000	28.329400
1477.000000	28.344700
1476.000000	28.373600
1475.000000	28.452100
1474.000000	28.502600
1473.000000	28.550600
1472.000000	28.596600
1471.000000	28.657000
1470.000000	28.696700
1469.000000	28.717700
1468.000000	28.766300
1467.000000	28.829600
1466.000000	28.872100
1465.000000	28.939400
1464.000000	29.007000
1463.000000	29.076000
1462.000000	29.148200
1461.000000	29.227500
1460.000000	29.298100
1459.000000	29.375100
1458.000000	29.477900
1457.000000	29.566700
1456.000000	29.667400
1455.000000	29.764700
1454.000000	29.867700
1453.000000	29.963000
1452.000000	30.114200
1451.000000	30.230500
1450.000000	30.330800
1449.000000	30.411100
1448.000000	30.536700
1447.000000	30.667000
1446.000000	30.831100
1445.000000	30.939900
1444.000000	31.043000
1443.000000	31.173400
1442.000000	31.322100
1441.000000	31.431500
1440.000000	31.565500
1439.000000	31.692300
1438.000000	31.850100
1437.000000	31.946500
1436.000000	32.059100
1435.000000	32.199100
1434.000000	32.349100
1433.000000	32.478300
1432.000000	32.588000
1431.000000	32.767800
1430.000000	32.892300
1429.000000	33.066200
1428.000000	33.224900
1427.000000	33.416500
1426.000000	33.625900
1425.000000	33.830400
1424.000000	34.072000
1423.000000	34.263900
1422.000000	34.477200
1421.000000	34.713100
1420.000000	34.974200
1419.000000	35.188500
1418.000000	35.372400
1417.000000	35.528400
1416.000000	35.793800
1415.000000	36.066600
1414.000000	36.266500
1413.000000	36.436100
1412.000000	36.614800
1411.000000	36.897900
1410.000000	37.211100
1409.000000	37.536300
1408.000000	37.875500
1407.000000	38.200300
1406.000000	38.583300
1405.000000	38.974400
1404.000000	39.316800
1403.000000	39.712100
1402.000000	40.094500
1401.000000	40.558000
1400.000000	40.859800
1399.000000	41.054000
1398.000000	41.243100
1397.000000	41.501300
1396.000000	41.774500
1395.000000	41.912900
1394.000000	42.006700
1393.000000	42.102600
1392.000000	42.277900
1391.000000	42.441500
1390.000000	42.598700
1389.000000	42.838100
1388.000000	43.096300
1387.000000	43.345300
1386.000000	43.669100
1385.000000	44.044100
1384.000000	44.456000
1383.000000	44.796800
1382.000000	45.091000
1381.000000	45.282800
1380.000000	45.359300
1379.000000	45.422200
1378.000000	45.466800
1377.000000	45.557400
1376.000000	45.683500
1375.000000	45.890900
1374.000000	46.181100
1373.000000	46.522600
1372.000000	46.899200
1371.000000	47.273700
1370.000000	47.597100
1369.000000	47.917500
1368.000000	48.224100
1367.000000	48.436500
1366.000000	48.656000
1365.000000	48.870000
1364.000000	49.033100
1363.000000	49.208200
1362.000000	49.374300
1361.000000	49.471900
1360.000000	49.486400
1359.000000	49.539800
1358.000000	49.658000
1357.000000	49.835700
1356.000000	50.167900
1355.000000	50.638200
1354.000000	51.190800
1353.000000	51.749800
1352.000000	52.405500
1351.000000	53.012800
1350.000000	53.561400
1349.000000	54.066200
1348.000000	54.528800
1347.000000	54.951200
1346.000000	55.306400
1345.000000	55.693800
1344.000000	56.085600
1343.000000	56.413800
1342.000000	56.721300
1341.000000	57.035500
1340.000000	57.333400
1339.000000	57.617900
1338.000000	57.871600
1337.000000	58.136900
1336.000000	58.382200
1335.000000	58.608400
1334.000000	58.827800
1333.000000	59.040100
1332.000000	59.243400
1331.000000	59.424600
1330.000000	59.600600
1329.000000	59.766800
1328.000000	59.921600
1327.000000	60.060900
1326.000000	60.198700
1325.000000	60.330000
1324.000000	60.460400
1323.000000	60.577500
1322.000000	60.672900
1321.000000	60.777700
1320.000000	60.886700
1319.000000	60.992100
1318.000000	61.087600
1317.000000	61.174600
1316.000000	61.261500
1315.000000	61.340000
1314.000000	61.403200
1313.000000	61.468400
1312.000000	61.538200
1311.000000	61.595400
1310.000000	61.652900
1309.000000	61.698200
1308.000000	61.735900
1307.000000	61.771400
1306.000000	61.794000
1305.000000	61.815600
1304.000000	61.820700
1303.000000	61.828200
1302.000000	61.835300
1301.000000	61.827500
1300.000000	61.815300
1299.000000	61.809800
1298.000000	61.800100
1297.000000	61.786100
1296.000000	61.761800
1295.000000	61.746900
1294.000000	61.723800
1293.000000	61.694200
1292.000000	61.658600
1291.000000	61.609100
1290.000000	61.556700
1289.000000	61.499700
1288.000000	61.439600
1287.000000	61.371800
1286.000000	61.284500
1285.000000	61.200400
1284.000000	61.111100
1283.000000	61.023200
1282.000000	60.943200
1281.000000	60.854300
1280.000000	60.766100
1279.000000	60.679000
1278.000000	60.593100
1277.000000	60.511000
1276.000000	60.440200
1275.000000	60.370800
1274.000000	60.305300
1273.000000	60.238200
1272.000000	60.174700
1271.000000	60.116600
1270.000000	60.048600
1269.000000	59.976000
1268.000000	59.901200
1267.000000	59.841300
1266.000000	59.782500
1265.000000	59.724000
1264.000000	59.662300
1263.000000	59.595800
1262.000000	59.532600
1261.000000	59.471600
1260.000000	59.413800
1259.000000	59.339400
1258.000000	59.254500
1257.000000	59.190500
1256.000000	59.130600
1255.000000	59.039500
1254.000000	58.952900
1253.000000	58.873200
1252.000000	58.790200
1251.000000	58.675200
1250.000000	58.579200
1249.000000	58.476700
1248.000000	58.343000
1247.000000	58.226100
1246.000000	58.101600
1245.000000	57.938600
1244.000000	57.788900
1243.000000	57.628100
1242.000000	57.443300
1241.000000	57.269900
1240.000000	57.094800
1239.000000	56.924300
1238.000000	56.741900
1237.000000	56.533000
1236.000000	56.338900
1235.000000	56.146100
1234.000000	55.947200
1233.000000	55.750300
1232.000000	55.533500
1231.000000	55.322300
1230.000000	55.129300
1229.000000	54.917100
1228.000000	54.724900
1227.000000	54.510200
1226.000000	54.291900
1225.000000	54.097700
1224.000000	53.899500
1223.000000	53.718000
1222.000000	53.523300
1221.000000	53.338100
1220.000000	53.161900
1219.000000	53.002500
1218.000000	52.847800
1217.000000	52.702500
1216.000000	52.579500
1215.000000	52.421700
1214.000000	52.304200
1213.000000	52.179400
1212.000000	52.075900
1211.000000	51.968500
1210.000000	51.850500
1209.000000	51.744000
1208.000000	51.680600
1207.000000	51.624800
1206.000000	51.574800
1205.000000	51.539800
1204.000000	51.515000
1203.000000	51.500400
1202.000000	51.461000
1201.000000	51.415800
1200.000000	51.347100
1199.000000	51.252600
1198.000000	51.135800
1197.000000	50.978600
1196.000000	50.756000
1195.000000	50.462800
1194.000000	50.094600
1193.000000	49.688100
1192.000000	49.212100
1191.000000	48.697700
1190.000000	48.233500
1189.000000	47.855500
1188.000000	47.574400
1187.000000	47.426300
1186.000000	47.399400
1185.000000	47.525900
1184.000000	47.785600
1183.000000	48.164600
1182.000000	48.640700
1181.000000	49.159100
1180.000000	49.686100
1179.000000	50.169600
1178.000000	50.603100
1177.000000	50.964700
1176.000000	51.285800
1175.000000	51.602100
1174.000000	51.883900
1173.000000	52.217700
1172.000000	52.576500
1171.000000	52.934900
1170.000000	53.297900
1169.000000	53.652300
1168.000000	54.024600
1167.000000	54.412300
1166.000000	54.770500
1165.000000	55.144700
1164.000000	55.552600
1163.000000	55.968800
1162.000000	56.326100
1161.000000	56.686600
1160.000000	57.045100
1159.000000	57.398700
1158.000000	57.712100
1157.000000	58.018300
1156.000000	58.265200
1155.000000	58.430800
1154.000000	58.538500
1153.000000	58.585200
1152.000000	58.602100
1151.000000	58.554100
1150.000000	58.522700
1149.000000	58.487500
1148.000000	58.460100
1147.000000	58.509800
1146.000000	58.633000
1145.000000	58.819800
1144.000000	59.074000
1143.000000	59.391200
1142.000000	59.723300
1141.000000	60.078100
1140.000000	60.429500
1139.000000	60.801900
1138.000000	61.162000
1137.000000	61.590000
1136.000000	61.980000
1135.000000	62.355900
1134.000000	62.695400
1133.000000	62.948000
1132.000000	63.272600
1131.000000	63.534900
1130.000000	63.762200
1129.000000	63.966600
1128.000000	64.101900
1127.000000	64.222500
1126.000000	64.325100
1125.000000	64.395700
1124.000000	64.492800
1123.000000	64.545800
1122.000000	64.597300
1121.000000	64.622300
1120.000000	64.656000
1119.000000	64.689400
1118.000000	64.690200
1117.000000	64.670500
1116.000000	64.672400
1115.000000	64.666700
1114.000000	64.636800
1113.000000	64.628800
1112.000000	64.617100
1111.000000	64.612000
1110.000000	64.592800
1109.000000	64.571500
1108.000000	64.553800
1107.000000	64.525100
1106.000000	64.507200
1105.000000	64.494500
1104.000000	64.461000
1103.000000	64.441300
1102.000000	64.408200
1101.000000	64.361800
1100.000000	64.335700
1099.000000	64.301100
1098.000000	64.264800
1097.000000	64.215000
1096.000000	64.172900
1095.000000	64.115900
1094.000000	64.067300
1093.000000	64.007400
1092.000000	63.943400
1091.000000	63.884100
1090.000000	63.804700
1089.000000	63.747000
1088.000000	63.679700
1087.000000	63.601200
1086.000000	63.543700
1085.000000	63.472000
1084.000000	63.400400
1083.000000	63.310700
1082.000000	63.246000
1081.000000	63.171600
1080.000000	63.101800
1079.000000	63.035500
1078.000000	62.970500
1077.000000	62.903800
1076.000000	62.822000
1075.000000	62.769100
1074.000000	62.707600
1073.000000	62.626400
1072.000000	62.563500
1071.000000	62.501700
1070.000000	62.427600
1069.000000	62.366100
1068.000000	62.304300
1067.000000	62.243400
1066.000000	62.183600
1065.000000	62.130400
1064.000000	62.075300
1063.000000	62.022800
1062.000000	61.960700
1061.000000	61.909300
1060.000000	61.850100
1059.000000	61.779800
1058.000000	61.734200
1057.000000	61.689900
1056.000000	61.608400
1055.000000	61.554300
1054.000000	61.533400
1053.000000	61.498900
1052.000000	61.448300
1051.000000	61.416500
1050.000000	61.399000
1049.000000	61.371900
1048.000000	61.350700
1047.000000	61.331800
1046.000000	61.319900
1045.000000	61.310400
1044.000000	61.300700
1043.000000	61.286000
1042.000000	61.273300
1041.000000	61.262400
1040.000000	61.242700
1039.000000	61.226400
1038.000000	61.215600
1037.000000	61.204400
1036.000000	61.169900
1035.000000	61.144200
1034.000000	61.135400
1033.000000	61.105800
1032.000000	61.068700
1031.000000	61.036700
1030.000000	61.006300
1029.000000	60.967500
1028.000000	60.930500
1027.000000	60.889600
1026.000000	60.831300
1025.000000	60.770000
1024.000000	60.712300
1023.000000	60.665000
1022.000000	60.622700
1021.000000	60.576500
1020.000000	60.512400
1019.000000	60.444000
1018.000000	60.383100
1017.000000	60.344800
1016.000000	60.309900
1015.000000	60.277000
1014.000000	60.244500
1013.000000	60.207600
1012.000000	60.206200
1011.000000	60.211500
1010.000000	60.219800
1009.000000	60.249400
1008.000000	60.271500
1007.000000	60.285000
1006.000000	60.318600
1005.000000	60.343600
1004.000000	60.370200
1003.000000	60.412300
1002.000000	60.444300
1001.000000	60.466500
1000.000000	60.510400
999.000000	60.550100
998.000000	60.595900
997.000000	60.660400
996.000000	60.717000
995.000000	60.768000
994.000000	60.827700
993.000000	60.904300
992.000000	60.993500
991.000000	61.063600
990.000000	61.152300
989.000000	61.240000
988.000000	61.339500
987.000000	61.443300
986.000000	61.565500
985.000000	61.673200
984.000000	61.806000
983.000000	61.934400
982.000000	62.067400
981.000000	62.186200
980.000000	62.296200
979.000000	62.422600
978.000000	62.559000
977.000000	62.664000
976.000000	62.769000
975.000000	62.898900
974.000000	63.012100
973.000000	63.123000
972.000000	63.229000
971.000000	63.350200
970.000000	63.461100
969.000000	63.588300
968.000000	63.694600
967.000000	63.813000
966.000000	63.933900
965.000000	64.046500
964.000000	64.153400
963.000000	64.271400
962.000000	64.395300
961.000000	64.533400
960.000000	64.641400
959.000000	64.753600
958.000000	64.880400
957.000000	64.989800
956.000000	65.096800
955.000000	65.176800
954.000000	65.289600
953.000000	65.366200
952.000000	65.457200
951.000000	65.556700
950.000000	65.615300
949.000000	65.702700
948.000000	65.793200
947.000000	65.882100
946.000000	65.970500
945.000000	66.063500
944.000000	66.150000
943.000000	66.245700
942.000000	66.366500
941.000000	66.466100
940.000000	66.575300
939.000000	66.704800
938.000000	66.838000
937.000000	66.964500
936.000000	67.072600
935.000000	67.185000
934.000000	67.319300
933.000000	67.478400
932.000000	67.611400
931.000000	67.750600
930.000000	67.882600
929.000000	68.038300
928.000000	68.194900
927.000000	68.383800
926.000000	68.544300
925.000000	68.736600
924.000000	68.923300
923.000000	69.126600
922.000000	69.333500
921.000000	69.530700
920.000000	69.715600
919.000000	69.936600
918.000000	70.145600
917.000000	70.337300
916.000000	70.539400
915.000000	70.733300
914.000000	70.923100
913.000000	71.128600
912.000000	71.321800
911.000000	71.525100
910.000000	71.740900
909.000000	71.943600
908.000000	72.169300
907.000000	72.359900
906.000000	72.578100
905.000000	72.800700
904.000000	73.020400
903.000000	73.252700
902.000000	73.485400
901.000000	73.703900
900.000000	73.934000
899.000000	74.136600
898.000000	74.339200
897.000000	74.539400
896.000000	74.732800
895.000000	74.936000
894.000000	75.148600
893.000000	75.340000
892.000000	75.526900
891.000000	75.721200
890.000000	75.905900
889.000000	76.095500
888.000000	76.274800
887.000000	76.445800
886.000000	76.633100
885.000000	76.843600
884.000000	77.028700
883.000000	77.218400
882.000000	77.387600
881.000000	77.576000
880.000000	77.777300
879.000000	77.945400
878.000000	78.127400
877.000000	78.314500
876.000000	78.487500
875.000000	78.675900
874.000000	78.846400
873.000000	79.020200
872.000000	79.198900
871.000000	79.357800
870.000000	79.521100
869.000000	79.666100
868.000000	79.818200
867.000000	79.983200
866.000000	80.107900
865.000000	80.240900
864.000000	80.363300
863.000000	80.466300
862.000000	80.525400
861.000000	80.558600
860.000000	80.588100
859.000000	80.637300
858.000000	80.588000
857.000000	80.597920
856.000000	81.380740
855.000000	81.568412
854.000000	81.511560
853.000000	81.688223
852.000000	81.789516
851.000000	82.062567
850.000000	82.051056
849.000000	82.166963
848.000000	82.317101
847.000000	82.486957
846.000000	82.636895
845.000000	82.803048
844.000000	83.220932
843.000000	83.191105
842.000000	83.353154
841.000000	83.244954
840.000000	83.365966
839.000000	83.403700
838.000000	83.793459
837.000000	83.940094
836.000000	84.172307
835.000000	84.163899
834.000000	84.114454
833.000000	84.239869
832.000000	84.463375
831.000000	84.393711
830.000000	84.651348
829.000000	84.507215
828.000000	84.757846
827.000000	84.658855
826.000000	84.732722
825.000000	84.700693
824.000000	84.564568
823.000000	84.621220
822.000000	84.617416
821.000000	84.641939
820.000000	84.581684
819.000000	84.471783
818.000000	84.370189
817.000000	84.167202
816.000000	83.862422
815.000000	83.817881
814.000000	83.640918
813.000000	83.437431
812.000000	83.345447
811.000000	83.199613
810.000000	82.898836
809.000000	82.610070
808.000000	82.566530
807.000000	82.452526
806.000000	82.198492
805.000000	81.982193
804.000000	81.904421
803.000000	81.680616
802.000000	81.621061
801.000000	81.467820
800.000000	81.535682
799.000000	81.484035
798.000000	81.328592
797.000000	81.341404
796.000000	81.295361
795.000000	81.163340
794.000000	81.200174
793.000000	81.169946
792.000000	81.199273
791.000000	81.118098
790.000000	81.061046
789.000000	80.961354
788.000000	81.002392
787.000000	81.098681
786.000000	81.067051
785.000000	81.117198
784.000000	81.070054
783.000000	81.091074
782.000000	81.136015
781.000000	81.140619
780.000000	81.214387
779.000000	81.217790
778.000000	81.146525
777.000000	81.169546
776.000000	81.138317
775.000000	81.026414
774.000000	80.965958
773.000000	80.973966
772.000000	80.927523
771.000000	80.902000
770.000000	80.834037
769.000000	80.657475
768.000000	80.490521
767.000000	80.406644
766.000000	80.383423
765.000000	80.310556
764.000000	80.173330
763.000000	80.047214
762.000000	79.995666
761.000000	79.870251
760.000000	79.696891
759.000000	79.587090
758.000000	79.434550
757.000000	79.295923
756.000000	79.150689
755.000000	78.936792
754.000000	78.769138
753.000000	78.570155
752.000000	78.309516
751.000000	78.093917
750.000000	77.917855
749.000000	77.684341
748.000000	77.458933
747.000000	77.217111
746.000000	76.940857
745.000000	76.698634
744.000000	76.404464
743.000000	76.060347
742.000000	75.702418
741.000000	75.412952
740.000000	75.109873
739.000000	74.699796
738.000000	74.323350
737.000000	73.978132
736.000000	73.557445
735.000000	73.098824
734.000000	72.749903
733.000000	72.410691
732.000000	71.964280
731.000000	71.512565
730.000000	71.109594
729.000000	70.715732
728.000000	70.398240
727.000000	70.044315
726.000000	69.707705
725.000000	69.387811
724.000000	69.064714
723.000000	68.754529
722.000000	68.497993
721.000000	68.261575
720.000000	68.118243
719.000000	67.959197
718.000000	67.793745
717.000000	67.659922
716.000000	67.503278
715.000000	67.444424
714.000000	67.458236
713.000000	67.460438
712.000000	67.443723
711.000000	67.435015
710.000000	67.523797
709.000000	67.589257
708.000000	67.672533
707.000000	67.752807
706.000000	67.839787
705.000000	67.937077
704.000000	68.047779
703.000000	68.169290
702.000000	68.242257
701.000000	68.368774
700.000000	68.477874
699.000000	68.504699
698.000000	68.628112
697.000000	68.681561
696.000000	68.732408
695.000000	68.823592
694.000000	68.787459
693.000000	68.835703
692.000000	68.821890
691.000000	68.753728
690.000000	68.749924
689.000000	68.712790
688.000000	68.627011
687.000000	68.542133
686.000000	68.409211
685.000000	68.291703
684.000000	68.184704
683.000000	67.991227
682.000000	67.804455
681.000000	67.570940
680.000000	67.269963
679.000000	67.035247
678.000000	66.704443
677.000000	66.293265
676.000000	65.898902
675.000000	65.439080
674.000000	64.919001
673.000000	64.419542
672.000000	63.777552
671.000000	63.144670
670.000000	62.456837
669.000000	61.764400
668.000000	61.067359
667.000000	60.334685
666.000000	59.563776
665.000000	58.833905
664.000000	58.043578
663.000000	57.299995
662.000000	56.550706
661.000000	55.878888
660.000000	55.183648
659.000000	54.589902
658.000000	54.014373
657.000000	53.468971
656.000000	53.038676
655.000000	52.637006
654.000000	52.310706
653.000000	52.110222
652.000000	51.957481
651.000000	51.893923
650.000000	51.930957
649.000000	52.052869
648.000000	52.318714
647.000000	52.680747
646.000000	53.177804
645.000000	53.718201
644.000000	54.444669
643.000000	55.241802
642.000000	56.118208
641.000000	57.071184
640.000000	58.143370
639.000000	59.195938
638.000000	60.337588
637.000000	61.399965
636.000000	62.535009
635.000000	63.663847
634.000000	64.804496
633.000000	65.936337
632.000000	67.005120
631.000000	68.124649
630.000000	69.259693
629.000000	70.365610
628.000000	71.434593
627.000000	72.447825
626.000000	73.498791
625.000000	74.559367
624.000000	75.529859
623.000000	76.524474
622.000000	77.457732
621.000000	78.382883
620.000000	79.249080
619.000000	80.104166
618.000000	80.904402
617.000000	81.643181
616.000000	82.361742
615.000000	83.004934
614.000000	83.613994
613.000000	84.219250
612.000000	84.771058
611.000000	85.260408
610.000000	85.710422
609.000000	86.119798
608.000000	86.591432
607.000000	86.972983
606.000000	87.316999
605.000000	87.686239
604.000000	87.949981
603.000000	88.246454
602.000000	88.528914
601.000000	88.852912
600.000000	89.082423
599.000000	89.322043
598.000000	89.480889
597.000000	89.675368
596.000000	89.809892
595.000000	89.956727
594.000000	90.093653
593.000000	90.145300
592.000000	90.214063
591.000000	90.289032
590.000000	90.330570
589.000000	90.374010
588.000000	90.381317
587.000000	90.393028
586.000000	90.407741
585.000000	90.414247
584.000000	90.412746
583.000000	90.358096
582.000000	90.297840
581.000000	90.186438
580.000000	90.148303
579.000000	90.070131
578.000000	89.983651
577.000000	89.858036
576.000000	89.722011
575.000000	89.584885
574.000000	89.431944
573.000000	89.233361
572.000000	89.073715
571.000000	88.887543
570.000000	88.679552
569.000000	88.456647
568.000000	88.223132
567.000000	88.011638
566.000000	87.696848
565.000000	87.418893
564.000000	87.128626
563.000000	86.812435
562.000000	86.474424
561.000000	86.093474
560.000000	85.736045
559.000000	85.207659
558.000000	84.703996
557.000000	84.245474
556.000000	83.758827
555.000000	83.219431
554.000000	82.599461
553.000000	81.971984
552.000000	81.283050
551.000000	80.549876
550.000000	79.780769
549.000000	78.915473
548.000000	78.104327
547.000000	77.192488
546.000000	76.188165
545.000000	75.177735
544.000000	74.097042
543.000000	72.870714
542.000000	71.654896
541.000000	70.360405
540.000000	69.014067
539.000000	67.607674
538.000000	66.220598
537.000000	64.749445
536.000000	63.311923
535.000000	61.849579
534.000000	60.343894
533.000000	58.819492
532.000000	57.362252
531.000000	55.939944
530.000000	54.577491
529.000000	53.241262
528.000000	51.970393
527.000000	50.758479
526.000000	49.628540
525.000000	48.527527
524.000000	47.471456
523.000000	46.454421
522.000000	45.501044
521.000000	44.587804
520.000000	43.711098
519.000000	42.900953
518.000000	42.163875
517.000000	41.430801
516.000000	40.739065
515.000000	40.075655
514.000000	39.447477
513.000000	38.848126
512.000000	38.237064
511.000000	37.675648
510.000000	37.130746
509.000000	36.582442
508.000000	36.034839
507.000000	35.536881
506.000000	35.037321
505.000000	34.529354
504.000000	34.070933
503.000000	33.618717
502.000000	33.189522
501.000000	32.805569
500.000000	32.445838
499.000000	32.115034
498.000000	31.818261
497.000000	31.532398
496.000000	31.255543
495.000000	31.028735
494.000000	30.823746
493.000000	30.636874
492.000000	30.456208
491.000000	30.289055
490.000000	30.156633
489.000000	30.040326
488.000000	29.969761
487.000000	29.921216
486.000000	29.868368
485.000000	29.834136
484.000000	29.816020
483.000000	29.796702
482.000000	29.775582
481.000000	29.744554
480.000000	29.748858
479.000000	29.766074
478.000000	29.737447
477.000000	29.712625
476.000000	29.706219
475.000000	29.704517
474.000000	29.709422
473.000000	29.690604
472.000000	29.668184
471.000000	29.642360
470.000000	29.612833
469.000000	29.584707
468.000000	29.541267
467.000000	29.473104
466.000000	29.386024
465.000000	29.312457
464.000000	29.232183
463.000000	29.106367
462.000000	28.990560
461.000000	28.857238
460.000000	28.726017
459.000000	28.570774
458.000000	28.400118
457.000000	28.221053
456.000000	28.004053
455.000000	27.804970
454.000000	27.609390
453.000000	27.375575
452.000000	27.101323
451.000000	26.836379
450.000000	26.553920
449.000000	26.262251
448.000000	25.954769
447.000000	25.626267
446.000000	25.288356
445.000000	24.922319
444.000000	24.528357
443.000000	24.149509
442.000000	23.731824
441.000000	23.296824
440.000000	22.854518
439.000000	22.397698
438.000000	21.935472
437.000000	21.456132
436.000000	20.975890
435.000000	20.487141
434.000000	19.980174
433.000000	19.460396
432.000000	18.923503
431.000000	18.387510
430.000000	17.875939
429.000000	17.350256
428.000000	16.830478
427.000000	16.319608
426.000000	15.820949
425.000000	15.317086
424.000000	14.821931
423.000000	14.342690
422.000000	13.876862
421.000000	13.415437
420.000000	12.974031
419.000000	12.554045
418.000000	12.151575
417.000000	11.777731
416.000000	11.414597
415.000000	11.063274
414.000000	10.734272
413.000000	10.408072
412.000000	10.103692
411.000000	9.831742
410.000000	9.577908
409.000000	9.338988
408.000000	9.099768
407.000000	8.892578
406.000000	8.702203
405.000000	8.522938
404.000000	8.349078
403.000000	8.184226
402.000000	8.024680
401.000000	7.896862
400.000000	7.772448
399.000000	7.663047
398.000000	7.567059
397.000000	7.461161
396.000000	7.376283
395.000000	7.285900
394.000000	7.193015
393.000000	7.118646
392.000000	7.048282
391.000000	6.977216
390.000000	6.909955
389.000000	6.861010
388.000000	6.794048
387.000000	6.751909
386.000000	6.708669
385.000000	6.650516
384.000000	6.606876
383.000000	6.550324
382.000000	6.510087
381.000000	6.466647
380.000000	6.424408
379.000000	6.393279
378.000000	6.353143
377.000000	6.312205
376.000000	6.268565
375.000000	6.185088
374.000000	6.181184
373.000000	6.207809
372.000000	6.128736
371.000000	6.098909
370.000000	6.086297
369.000000	6.075287
368.000000	6.070983
367.000000	5.986205
366.000000	5.959180
365.000000	5.982402
364.000000	6.024340
363.000000	5.943165
362.000000	5.841072
361.000000	5.850781
360.000000	5.845576
359.000000	5.839370
358.000000	5.766703
357.000000	5.770307
356.000000	5.656902
355.000000	5.700442
354.000000	5.673217
353.000000	5.727767
352.000000	5.678622
351.000000	5.611160
350.000000	5.576128
349.000000	5.508566
348.000000	5.575828
347.000000	5.593844
346.000000	5.746685
345.000000	5.586237
344.000000	5.515973
343.000000	5.645692
342.000000	5.475135
341.000000	5.365334
340.000000	5.563817
339.000000	5.589240
338.000000	5.606256
337.000000	5.607357
336.000000	5.521278
335.000000	5.768905
334.000000	5.605655
333.000000	5.677121
332.000000	5.541096
331.000000	5.484444
330.000000	5.373942
329.000000	5.568421
328.000000	5.700843
327.000000	5.571424
326.000000	5.676720
325.000000	5.678922
324.000000	5.634081
323.000000	5.750989
322.000000	5.564617
321.000000	5.896423
320.000000	5.740179
319.000000	5.542897
318.000000	5.839470
317.000000	6.163068
316.000000	5.542897
315.000000	5.485945
314.000000	5.472232
313.000000	5.471231
312.000000	5.468429
311.000000	5.479839
310.000000	5.461022
309.000000	5.504762
308.000000	5.503561
307.000000	5.507865
306.000000	5.495153
305.000000	5.501559
304.000000	5.516473
303.000000	5.539294
302.000000	5.494353
301.000000	5.500158
300.000000	5.562415
299.000000	5.495854
298.000000	5.484944
297.000000	5.567320
296.000000	5.538994
295.000000	5.565118
294.000000	5.535591
293.000000	5.542097
292.000000	5.502760
291.000000	5.538493
290.000000	5.589340
289.000000	5.601852
288.000000	5.540896
287.000000	5.552206
286.000000	5.606856
285.000000	5.606856
284.000000	5.654300
283.000000	5.646092
282.000000	5.608258
281.000000	5.649295
280.000000	5.647994
279.000000	5.661006
278.000000	5.660706
277.000000	5.688331
276.000000	5.637484
275.000000	5.671015
274.000000	5.706448
273.000000	5.755193
272.000000	5.748787
271.000000	5.763100
270.000000	5.791526
269.000000	5.770507
268.000000	5.839670
267.000000	5.859388
266.000000	5.836367
265.000000	5.910636
264.000000	5.933957
263.000000	5.898124
262.000000	5.941564
261.000000	6.003821
260.000000	5.975996
259.000000	5.994813
258.000000	5.963784
257.000000	6.051565
256.000000	5.998616
255.000000	6.064077
254.000000	6.035250
253.000000	6.083294
252.000000	6.123832
251.000000	6.122530
250.000000	6.074186
