PE UV       SUBTECH     SPECTRUM    ASCII       PEDS        4.00        
   -1
CICIMAUCR0014-2.Sample.ASC
24/04/12
11:08:00.00
24/04/12
11:08:00.00
Vinicio Soto Monge
C. cupreomarginata
250,000000
1
Lambda 1050
1050L1511233
PerkinElmer UV WinLab 6.3.2.0749 / 2.02.05 Lambda 900 UV/VIS/NIR, Aug  7 2015 09:38:08

0
0
3350/servo 860,8/2
0
0
UV/VIS
1
1
1
DoubleDePol,CommonBeamDepol,RBeamAtt,SBeamAtt,60mm sphere, WB InGaAs Detector
0
0
0
0
Program
Program
3350/servo 860,8/2
3350/0,2 860,8/0,2
3350/0,2 860,8/0,2
0
15.00
 
 
 
0
 
860,8
319,2
860,8
Front
100
on
S:100 R:100
0
0
0
0
 
0
 
 
 
0
 
 
0
0
0
0
0
 
 
 
 
0
0


0
0
#HDR
-1
-1
#GR
nm
%R
1.0
0.0
2500,000000
-1,000000
2251
8
42,998300
3,080100
#DATA
2500.000000	9.289500
2499.000000	9.215500
2498.000000	9.345300
2497.000000	9.222500
2496.000000	9.190500
2495.000000	9.220000
2494.000000	9.178500
2493.000000	9.226100
2492.000000	9.123300
2491.000000	9.094700
2490.000000	9.090400
2489.000000	9.141600
2488.000000	9.052900
2487.000000	9.084800
2486.000000	9.088400
2485.000000	9.046800
2484.000000	9.076700
2483.000000	9.089000
2482.000000	9.122400
2481.000000	9.134800
2480.000000	9.024000
2479.000000	9.103100
2478.000000	9.104100
2477.000000	9.129900
2476.000000	9.138000
2475.000000	9.158900
2474.000000	9.122400
2473.000000	9.121200
2472.000000	9.151600
2471.000000	9.168600
2470.000000	9.209800
2469.000000	9.214100
2468.000000	9.246100
2467.000000	9.306800
2466.000000	9.321300
2465.000000	9.333700
2464.000000	9.378100
2463.000000	9.434000
2462.000000	9.498200
2461.000000	9.538500
2460.000000	9.614300
2459.000000	9.674800
2458.000000	9.742500
2457.000000	9.803100
2456.000000	9.859600
2455.000000	9.957300
2454.000000	10.036900
2453.000000	10.119900
2452.000000	10.175200
2451.000000	10.243500
2450.000000	10.322000
2449.000000	10.402300
2448.000000	10.460200
2447.000000	10.555000
2446.000000	10.653300
2445.000000	10.707400
2444.000000	10.762800
2443.000000	10.841400
2442.000000	10.899900
2441.000000	10.974900
2440.000000	11.071900
2439.000000	11.117800
2438.000000	11.184200
2437.000000	11.257400
2436.000000	11.306200
2435.000000	11.388700
2434.000000	11.443000
2433.000000	11.515200
2432.000000	11.580000
2431.000000	11.623000
2430.000000	11.673100
2429.000000	11.705800
2428.000000	11.613800
2427.000000	11.492400
2426.000000	11.404400
2425.000000	11.342700
2424.000000	11.339800
2423.000000	11.393500
2422.000000	11.427800
2421.000000	11.449300
2420.000000	11.476400
2419.000000	11.452500
2418.000000	11.432800
2417.000000	11.459600
2416.000000	11.482000
2415.000000	11.443900
2414.000000	11.426000
2413.000000	11.456200
2412.000000	11.469400
2411.000000	11.473400
2410.000000	11.470000
2409.000000	11.448700
2408.000000	11.467600
2407.000000	11.474100
2406.000000	11.468000
2405.000000	11.483800
2404.000000	11.463300
2403.000000	11.477800
2402.000000	11.484800
2401.000000	11.462400
2400.000000	11.481100
2399.000000	11.494500
2398.000000	11.487600
2397.000000	11.505000
2396.000000	11.493800
2395.000000	11.492300
2394.000000	11.509200
2393.000000	11.501900
2392.000000	11.471700
2391.000000	11.481000
2390.000000	11.498100
2389.000000	11.479800
2388.000000	11.439900
2387.000000	11.433700
2386.000000	11.425000
2385.000000	11.397900
2384.000000	11.388300
2383.000000	11.374700
2382.000000	11.342900
2381.000000	11.308700
2380.000000	11.297500
2379.000000	11.279400
2378.000000	11.243600
2377.000000	11.207100
2376.000000	11.194200
2375.000000	11.151100
2374.000000	11.101100
2373.000000	11.083200
2372.000000	11.057700
2371.000000	11.013900
2370.000000	10.964500
2369.000000	10.913000
2368.000000	10.862900
2367.000000	10.802100
2366.000000	10.749500
2365.000000	10.696500
2364.000000	10.637000
2363.000000	10.573400
2362.000000	10.511900
2361.000000	10.454200
2360.000000	10.401300
2359.000000	10.342800
2358.000000	10.296400
2357.000000	10.265600
2356.000000	10.235900
2355.000000	10.195200
2354.000000	10.169600
2353.000000	10.154700
2352.000000	10.161700
2351.000000	10.149000
2350.000000	10.142000
2349.000000	10.179900
2348.000000	10.179000
2347.000000	10.186700
2346.000000	10.228800
2345.000000	10.250900
2344.000000	10.239200
2343.000000	10.245400
2342.000000	10.260400
2341.000000	10.247700
2340.000000	10.258200
2339.000000	10.223000
2338.000000	10.189800
2337.000000	10.173100
2336.000000	10.138500
2335.000000	10.101500
2334.000000	10.080100
2333.000000	10.029300
2332.000000	9.953300
2331.000000	9.897300
2330.000000	9.876400
2329.000000	9.847600
2328.000000	9.766500
2327.000000	9.682600
2326.000000	9.609600
2325.000000	9.573100
2324.000000	9.524600
2323.000000	9.458600
2322.000000	9.392000
2321.000000	9.293500
2320.000000	9.177600
2319.000000	9.101200
2318.000000	9.041700
2317.000000	8.971400
2316.000000	8.883600
2315.000000	8.790800
2314.000000	8.729600
2313.000000	8.636500
2312.000000	8.568100
2311.000000	8.521500
2310.000000	8.488500
2309.000000	8.476900
2308.000000	8.432000
2307.000000	8.425500
2306.000000	8.434900
2305.000000	8.452500
2304.000000	8.481800
2303.000000	8.526100
2302.000000	8.595100
2301.000000	8.633500
2300.000000	8.688600
2299.000000	8.725800
2298.000000	8.784700
2297.000000	8.867000
2296.000000	8.929700
2295.000000	8.932300
2294.000000	8.971100
2293.000000	9.013700
2292.000000	9.012800
2291.000000	9.022700
2290.000000	8.979100
2289.000000	8.976600
2288.000000	8.968200
2287.000000	8.958400
2286.000000	8.947800
2285.000000	8.880700
2284.000000	8.848100
2283.000000	8.795800
2282.000000	8.743400
2281.000000	8.695000
2280.000000	8.668100
2279.000000	8.642800
2278.000000	8.579600
2277.000000	8.540200
2276.000000	8.499800
2275.000000	8.508300
2274.000000	8.480800
2273.000000	8.443500
2272.000000	8.437600
2271.000000	8.492300
2270.000000	8.482800
2269.000000	8.537100
2268.000000	8.587700
2267.000000	8.669200
2266.000000	8.759000
2265.000000	8.853700
2264.000000	8.961000
2263.000000	9.116500
2262.000000	9.271600
2261.000000	9.423700
2260.000000	9.585700
2259.000000	9.779300
2258.000000	9.958600
2257.000000	10.139100
2256.000000	10.306300
2255.000000	10.497100
2254.000000	10.679700
2253.000000	10.872000
2252.000000	11.006000
2251.000000	11.178400
2250.000000	11.345600
2249.000000	11.470700
2248.000000	11.594000
2247.000000	11.721100
2246.000000	11.849800
2245.000000	11.969000
2244.000000	12.058900
2243.000000	12.170100
2242.000000	12.261300
2241.000000	12.335600
2240.000000	12.387300
2239.000000	12.441100
2238.000000	12.552700
2237.000000	12.614500
2236.000000	12.642800
2235.000000	12.726600
2234.000000	12.752600
2233.000000	12.782400
2232.000000	12.816200
2231.000000	12.847600
2230.000000	12.870600
2229.000000	12.919000
2228.000000	12.914700
2227.000000	12.932600
2226.000000	12.935000
2225.000000	12.930400
2224.000000	12.883000
2223.000000	12.896500
2222.000000	12.884200
2221.000000	12.880400
2220.000000	12.866400
2219.000000	12.812400
2218.000000	12.821800
2217.000000	12.786800
2216.000000	12.753700
2215.000000	12.729400
2214.000000	12.708900
2213.000000	12.688600
2212.000000	12.652100
2211.000000	12.638200
2210.000000	12.627900
2209.000000	12.613200
2208.000000	12.590700
2207.000000	12.568400
2206.000000	12.555400
2205.000000	12.534200
2204.000000	12.522600
2203.000000	12.527700
2202.000000	12.465000
2201.000000	12.462300
2200.000000	12.448400
2199.000000	12.439800
2198.000000	12.419700
2197.000000	12.388400
2196.000000	12.355400
2195.000000	12.358700
2194.000000	12.342900
2193.000000	12.316600
2192.000000	12.302600
2191.000000	12.285300
2190.000000	12.264300
2189.000000	12.241800
2188.000000	12.244300
2187.000000	12.227900
2186.000000	12.222500
2185.000000	12.202400
2184.000000	12.179700
2183.000000	12.181400
2182.000000	12.171600
2181.000000	12.152400
2180.000000	12.139800
2179.000000	12.118000
2178.000000	12.118600
2177.000000	12.104500
2176.000000	12.130800
2175.000000	12.144400
2174.000000	12.143500
2173.000000	12.144700
2172.000000	12.145400
2171.000000	12.135700
2170.000000	12.142800
2169.000000	12.187500
2168.000000	12.205900
2167.000000	12.203400
2166.000000	12.218200
2165.000000	12.238500
2164.000000	12.266100
2163.000000	12.288900
2162.000000	12.311400
2161.000000	12.339300
2160.000000	12.385600
2159.000000	12.411100
2158.000000	12.435600
2157.000000	12.454700
2156.000000	12.495300
2155.000000	12.550000
2154.000000	12.573200
2153.000000	12.611800
2152.000000	12.654400
2151.000000	12.658300
2150.000000	12.693000
2149.000000	12.721300
2148.000000	12.744500
2147.000000	12.779000
2146.000000	12.819900
2145.000000	12.830900
2144.000000	12.864200
2143.000000	12.898300
2142.000000	12.910400
2141.000000	12.953000
2140.000000	12.973300
2139.000000	12.994200
2138.000000	13.008800
2137.000000	13.016500
2136.000000	13.040500
2135.000000	13.057100
2134.000000	13.064200
2133.000000	13.073900
2132.000000	13.070000
2131.000000	13.070800
2130.000000	13.065200
2129.000000	13.065400
2128.000000	13.058900
2127.000000	13.022000
2126.000000	13.019400
2125.000000	13.000600
2124.000000	12.955800
2123.000000	12.938000
2122.000000	12.915100
2121.000000	12.896600
2120.000000	12.897200
2119.000000	12.887300
2118.000000	12.846200
2117.000000	12.808800
2116.000000	12.780500
2115.000000	12.755800
2114.000000	12.746500
2113.000000	12.725300
2112.000000	12.696500
2111.000000	12.668700
2110.000000	12.646400
2109.000000	12.631900
2108.000000	12.600600
2107.000000	12.563500
2106.000000	12.540300
2105.000000	12.524500
2104.000000	12.499600
2103.000000	12.466500
2102.000000	12.442400
2101.000000	12.444700
2100.000000	12.419300
2099.000000	12.387600
2098.000000	12.378000
2097.000000	12.355200
2096.000000	12.338900
2095.000000	12.337400
2094.000000	12.316600
2093.000000	12.299400
2092.000000	12.293300
2091.000000	12.282100
2090.000000	12.281300
2089.000000	12.274900
2088.000000	12.276000
2087.000000	12.278400
2086.000000	12.282100
2085.000000	12.259100
2084.000000	12.231900
2083.000000	12.228300
2082.000000	12.208800
2081.000000	12.188900
2080.000000	12.186200
2079.000000	12.170200
2078.000000	12.157900
2077.000000	12.147400
2076.000000	12.116600
2075.000000	12.078500
2074.000000	12.056100
2073.000000	12.043200
2072.000000	12.005800
2071.000000	11.988000
2070.000000	11.960900
2069.000000	11.929500
2068.000000	11.913900
2067.000000	11.882200
2066.000000	11.854200
2065.000000	11.833300
2064.000000	11.792400
2063.000000	11.775300
2062.000000	11.771400
2061.000000	11.752500
2060.000000	11.756300
2059.000000	11.772700
2058.000000	11.765100
2057.000000	11.757300
2056.000000	11.781200
2055.000000	11.823400
2054.000000	11.830100
2053.000000	11.858800
2052.000000	11.901500
2051.000000	11.958900
2050.000000	12.045000
2049.000000	12.137300
2048.000000	12.210200
2047.000000	12.293500
2046.000000	12.389200
2045.000000	12.485100
2044.000000	12.593700
2043.000000	12.702700
2042.000000	12.796600
2041.000000	12.887600
2040.000000	12.991800
2039.000000	13.100000
2038.000000	13.212500
2037.000000	13.307200
2036.000000	13.402900
2035.000000	13.488500
2034.000000	13.570500
2033.000000	13.663400
2032.000000	13.743400
2031.000000	13.810300
2030.000000	13.882300
2029.000000	13.970000
2028.000000	14.038800
2027.000000	14.086200
2026.000000	14.155300
2025.000000	14.215600
2024.000000	14.246000
2023.000000	14.314000
2022.000000	14.368900
2021.000000	14.430200
2020.000000	14.478600
2019.000000	14.526500
2018.000000	14.553400
2017.000000	14.582000
2016.000000	14.642700
2015.000000	14.670000
2014.000000	14.693600
2013.000000	14.712900
2012.000000	14.737700
2011.000000	14.741700
2010.000000	14.741800
2009.000000	14.778500
2008.000000	14.764200
2007.000000	14.772800
2006.000000	14.792700
2005.000000	14.796500
2004.000000	14.772900
2003.000000	14.754200
2002.000000	14.743600
2001.000000	14.725500
2000.000000	14.702800
1999.000000	14.682100
1998.000000	14.653600
1997.000000	14.623500
1996.000000	14.569900
1995.000000	14.523200
1994.000000	14.503500
1993.000000	14.458200
1992.000000	14.403700
1991.000000	14.374300
1990.000000	14.328500
1989.000000	14.283700
1988.000000	14.204600
1987.000000	14.174100
1986.000000	14.106400
1985.000000	14.054600
1984.000000	13.983800
1983.000000	13.910800
1982.000000	13.866600
1981.000000	13.812000
1980.000000	13.751000
1979.000000	13.683900
1978.000000	13.621900
1977.000000	13.569600
1976.000000	13.489700
1975.000000	13.433600
1974.000000	13.375500
1973.000000	13.318200
1972.000000	13.263400
1971.000000	13.191100
1970.000000	13.153300
1969.000000	13.094100
1968.000000	13.031700
1967.000000	12.946100
1966.000000	12.919900
1965.000000	12.847400
1964.000000	12.785800
1963.000000	12.752200
1962.000000	12.689200
1961.000000	12.630700
1960.000000	12.567100
1959.000000	12.521700
1958.000000	12.474100
1957.000000	12.410000
1956.000000	12.353100
1955.000000	12.279600
1954.000000	12.233500
1953.000000	12.198700
1952.000000	12.121900
1951.000000	12.067200
1950.000000	11.994700
1949.000000	11.959500
1948.000000	11.901500
1947.000000	11.841600
1946.000000	11.828600
1945.000000	11.808400
1944.000000	11.763900
1943.000000	11.746600
1942.000000	11.733600
1941.000000	11.686500
1940.000000	11.686200
1939.000000	11.693300
1938.000000	11.734200
1937.000000	11.739400
1936.000000	11.742000
1935.000000	11.744700
1934.000000	11.743800
1933.000000	11.776200
1932.000000	11.787700
1931.000000	11.829900
1930.000000	11.894400
1929.000000	11.995100
1928.000000	12.068500
1927.000000	12.161600
1926.000000	12.253600
1925.000000	12.344800
1924.000000	12.399500
1923.000000	12.454600
1922.000000	12.585100
1921.000000	12.776800
1920.000000	12.981900
1919.000000	13.142500
1918.000000	13.249400
1917.000000	13.311700
1916.000000	13.366700
1915.000000	13.493400
1914.000000	13.730100
1913.000000	14.022000
1912.000000	14.278000
1911.000000	14.462600
1910.000000	14.585000
1909.000000	14.653200
1908.000000	14.749300
1907.000000	14.989900
1906.000000	15.290600
1905.000000	15.667000
1904.000000	15.978700
1903.000000	16.159500
1902.000000	16.332000
1901.000000	16.527300
1900.000000	16.840400
1899.000000	17.211200
1898.000000	17.545900
1897.000000	17.795900
1896.000000	17.922400
1895.000000	18.044000
1894.000000	18.225900
1893.000000	18.504500
1892.000000	18.860000
1891.000000	19.237600
1890.000000	19.556300
1889.000000	19.800300
1888.000000	20.039500
1887.000000	20.238900
1886.000000	20.485500
1885.000000	20.825000
1884.000000	21.247200
1883.000000	21.597800
1882.000000	21.914000
1881.000000	22.218400
1880.000000	22.447400
1879.000000	22.678500
1878.000000	22.922400
1877.000000	23.172600
1876.000000	23.408100
1875.000000	23.671000
1874.000000	23.883000
1873.000000	24.148100
1872.000000	24.440000
1871.000000	24.693000
1870.000000	24.940500
1869.000000	25.105300
1868.000000	25.187800
1867.000000	25.206900
1866.000000	25.170600
1865.000000	25.103200
1864.000000	25.015400
1863.000000	24.924400
1862.000000	24.894900
1861.000000	24.941500
1860.000000	25.028800
1859.000000	25.146400
1858.000000	25.230300
1857.000000	25.157400
1856.000000	25.041200
1855.000000	25.042300
1854.000000	25.089100
1853.000000	25.088500
1852.000000	25.038800
1851.000000	24.885900
1850.000000	24.671200
1849.000000	24.630800
1848.000000	24.825000
1847.000000	25.057300
1846.000000	25.079800
1845.000000	24.836000
1844.000000	24.525800
1843.000000	24.345200
1842.000000	24.405000
1841.000000	24.570500
1840.000000	24.607400
1839.000000	24.546500
1838.000000	24.465200
1837.000000	24.469600
1836.000000	24.521500
1835.000000	24.504300
1834.000000	24.352600
1833.000000	24.142400
1832.000000	23.993600
1831.000000	23.963900
1830.000000	24.004500
1829.000000	23.980700
1828.000000	23.891800
1827.000000	23.843600
1826.000000	23.837700
1825.000000	23.784500
1824.000000	23.656700
1823.000000	23.504600
1822.000000	23.473800
1821.000000	23.599400
1820.000000	23.718100
1819.000000	23.707000
1818.000000	23.589700
1817.000000	23.487400
1816.000000	23.479200
1815.000000	23.486900
1814.000000	23.460500
1813.000000	23.428200
1812.000000	23.427500
1811.000000	23.450900
1810.000000	23.434300
1809.000000	23.367800
1808.000000	23.293600
1807.000000	23.275500
1806.000000	23.259400
1805.000000	23.240400
1804.000000	23.195500
1803.000000	23.135700
1802.000000	23.115300
1801.000000	23.130200
1800.000000	23.109900
1799.000000	23.057200
1798.000000	23.003200
1797.000000	22.952000
1796.000000	22.940000
1795.000000	22.916100
1794.000000	22.876300
1793.000000	22.835300
1792.000000	22.797000
1791.000000	22.755600
1790.000000	22.723100
1789.000000	22.697600
1788.000000	22.667900
1787.000000	22.610400
1786.000000	22.581800
1785.000000	22.522600
1784.000000	22.471500
1783.000000	22.423500
1782.000000	22.364600
1781.000000	22.316400
1780.000000	22.267200
1779.000000	22.212900
1778.000000	22.135600
1777.000000	22.062800
1776.000000	21.990100
1775.000000	21.908300
1774.000000	21.801800
1773.000000	21.681900
1772.000000	21.587800
1771.000000	21.493300
1770.000000	21.400100
1769.000000	21.312400
1768.000000	21.209500
1767.000000	21.122300
1766.000000	21.051000
1765.000000	20.996600
1764.000000	20.965800
1763.000000	20.939500
1762.000000	20.954700
1761.000000	20.970700
1760.000000	21.008100
1759.000000	21.025500
1758.000000	21.065100
1757.000000	21.105400
1756.000000	21.107200
1755.000000	21.120900
1754.000000	21.118200
1753.000000	21.105800
1752.000000	21.071100
1751.000000	21.017900
1750.000000	20.981200
1749.000000	20.929200
1748.000000	20.866500
1747.000000	20.798500
1746.000000	20.692400
1745.000000	20.587000
1744.000000	20.452900
1743.000000	20.297900
1742.000000	20.139600
1741.000000	19.969300
1740.000000	19.751500
1739.000000	19.592100
1738.000000	19.425800
1737.000000	19.287100
1736.000000	19.168200
1735.000000	19.098100
1734.000000	19.053700
1733.000000	19.043000
1732.000000	19.067800
1731.000000	19.123100
1730.000000	19.167000
1729.000000	19.234600
1728.000000	19.295300
1727.000000	19.364300
1726.000000	19.405400
1725.000000	19.455100
1724.000000	19.487500
1723.000000	19.501000
1722.000000	19.524700
1721.000000	19.528900
1720.000000	19.555000
1719.000000	19.598200
1718.000000	19.646700
1717.000000	19.691000
1716.000000	19.749400
1715.000000	19.847300
1714.000000	19.911400
1713.000000	19.959800
1712.000000	20.038000
1711.000000	20.083200
1710.000000	20.130800
1709.000000	20.125200
1708.000000	20.119300
1707.000000	20.119800
1706.000000	20.117900
1705.000000	20.091300
1704.000000	20.048700
1703.000000	19.995900
1702.000000	19.908900
1701.000000	19.825700
1700.000000	19.713800
1699.000000	19.606500
1698.000000	19.503300
1697.000000	19.425000
1696.000000	19.379600
1695.000000	19.385900
1694.000000	19.421400
1693.000000	19.493000
1692.000000	19.594300
1691.000000	19.716500
1690.000000	19.763000
1689.000000	19.842200
1688.000000	19.877900
1687.000000	19.878400
1686.000000	19.885600
1685.000000	19.932400
1684.000000	20.029300
1683.000000	20.214600
1682.000000	20.501700
1681.000000	20.842600
1680.000000	21.256300
1679.000000	21.670200
1678.000000	22.062700
1677.000000	22.451600
1676.000000	22.762200
1675.000000	23.030400
1674.000000	23.286000
1673.000000	23.507400
1672.000000	23.693000
1671.000000	23.857900
1670.000000	23.996600
1669.000000	24.143600
1668.000000	24.276100
1667.000000	24.463800
1666.000000	24.583200
1665.000000	24.675600
1664.000000	24.754800
1663.000000	24.864500
1662.000000	24.947600
1661.000000	25.025500
1660.000000	25.079400
1659.000000	25.127100
1658.000000	25.171900
1657.000000	25.226400
1656.000000	25.258400
1655.000000	25.270800
1654.000000	25.272400
1653.000000	25.295200
1652.000000	25.273600
1651.000000	25.244000
1650.000000	25.247700
1649.000000	25.236400
1648.000000	25.212000
1647.000000	25.181800
1646.000000	25.144200
1645.000000	25.115700
1644.000000	25.072300
1643.000000	25.047100
1642.000000	25.021800
1641.000000	24.982600
1640.000000	24.923800
1639.000000	24.858200
1638.000000	24.814000
1637.000000	24.778800
1636.000000	24.726900
1635.000000	24.689600
1634.000000	24.635400
1633.000000	24.589700
1632.000000	24.535300
1631.000000	24.496000
1630.000000	24.439500
1629.000000	24.359300
1628.000000	24.293500
1627.000000	24.250600
1626.000000	24.183500
1625.000000	24.111500
1624.000000	24.056200
1623.000000	23.988700
1622.000000	23.942500
1621.000000	23.890500
1620.000000	23.824600
1619.000000	23.773800
1618.000000	23.722600
1617.000000	23.661400
1616.000000	23.599800
1615.000000	23.547000
1614.000000	23.489400
1613.000000	23.425500
1612.000000	23.377600
1611.000000	23.314500
1610.000000	23.254100
1609.000000	23.228600
1608.000000	23.172500
1607.000000	23.120300
1606.000000	23.058900
1605.000000	22.967800
1604.000000	22.900800
1603.000000	22.864400
1602.000000	22.825800
1601.000000	22.766600
1600.000000	22.704600
1599.000000	22.650700
1598.000000	22.612100
1597.000000	22.561000
1596.000000	22.505400
1595.000000	22.466900
1594.000000	22.412200
1593.000000	22.363700
1592.000000	22.323700
1591.000000	22.285900
1590.000000	22.257500
1589.000000	22.219300
1588.000000	22.183800
1587.000000	22.151900
1586.000000	22.122200
1585.000000	22.086600
1584.000000	22.063300
1583.000000	22.051600
1582.000000	22.019700
1581.000000	21.987600
1580.000000	21.961000
1579.000000	21.949600
1578.000000	21.953100
1577.000000	21.969600
1576.000000	21.964400
1575.000000	21.951900
1574.000000	21.970300
1573.000000	21.970900
1572.000000	21.977000
1571.000000	21.989100
1570.000000	22.014300
1569.000000	22.042300
1568.000000	22.078800
1567.000000	22.108700
1566.000000	22.109400
1565.000000	22.130800
1564.000000	22.155700
1563.000000	22.171400
1562.000000	22.198100
1561.000000	22.222400
1560.000000	22.226500
1559.000000	22.231800
1558.000000	22.235300
1557.000000	22.234300
1556.000000	22.241400
1555.000000	22.232800
1554.000000	22.237100
1553.000000	22.237700
1552.000000	22.199600
1551.000000	22.175600
1550.000000	22.167100
1549.000000	22.155400
1548.000000	22.140400
1547.000000	22.112400
1546.000000	22.096400
1545.000000	22.092600
1544.000000	22.086900
1543.000000	22.066100
1542.000000	22.048100
1541.000000	22.056400
1540.000000	22.059200
1539.000000	22.055000
1538.000000	22.044400
1537.000000	22.033900
1536.000000	22.027000
1535.000000	22.015900
1534.000000	22.010300
1533.000000	21.990400
1532.000000	21.976600
1531.000000	21.964900
1530.000000	21.951400
1529.000000	21.931300
1528.000000	21.921200
1527.000000	21.907400
1526.000000	21.878300
1525.000000	21.849300
1524.000000	21.829700
1523.000000	21.815300
1522.000000	21.791100
1521.000000	21.781100
1520.000000	21.749400
1519.000000	21.714800
1518.000000	21.696400
1517.000000	21.683300
1516.000000	21.651900
1515.000000	21.611700
1514.000000	21.582200
1513.000000	21.556900
1512.000000	21.529200
1511.000000	21.484800
1510.000000	21.445300
1509.000000	21.422000
1508.000000	21.398500
1507.000000	21.367800
1506.000000	21.334900
1505.000000	21.297400
1504.000000	21.269000
1503.000000	21.273400
1502.000000	21.241800
1501.000000	21.202800
1500.000000	21.187000
1499.000000	21.174400
1498.000000	21.151800
1497.000000	21.138500
1496.000000	21.129500
1495.000000	21.127700
1494.000000	21.135500
1493.000000	21.158000
1492.000000	21.152900
1491.000000	21.151800
1490.000000	21.165400
1489.000000	21.185800
1488.000000	21.211600
1487.000000	21.212000
1486.000000	21.250800
1485.000000	21.241900
1484.000000	21.251600
1483.000000	21.262200
1482.000000	21.284500
1481.000000	21.326800
1480.000000	21.365400
1479.000000	21.366300
1478.000000	21.388000
1477.000000	21.434500
1476.000000	21.468400
1475.000000	21.506300
1474.000000	21.521400
1473.000000	21.552600
1472.000000	21.594000
1471.000000	21.666000
1470.000000	21.713100
1469.000000	21.748300
1468.000000	21.748800
1467.000000	21.799500
1466.000000	21.860100
1465.000000	21.904500
1464.000000	21.947200
1463.000000	21.981800
1462.000000	22.056800
1461.000000	22.065800
1460.000000	22.155300
1459.000000	22.221600
1458.000000	22.314500
1457.000000	22.377200
1456.000000	22.441700
1455.000000	22.519600
1454.000000	22.592100
1453.000000	22.653000
1452.000000	22.746800
1451.000000	22.857700
1450.000000	22.990500
1449.000000	23.043900
1448.000000	23.112900
1447.000000	23.180100
1446.000000	23.315800
1445.000000	23.438900
1444.000000	23.518200
1443.000000	23.584100
1442.000000	23.696600
1441.000000	23.845600
1440.000000	23.925400
1439.000000	24.025300
1438.000000	24.139200
1437.000000	24.241700
1436.000000	24.323300
1435.000000	24.426800
1434.000000	24.560900
1433.000000	24.653700
1432.000000	24.797100
1431.000000	24.962000
1430.000000	25.047800
1429.000000	25.179300
1428.000000	25.364700
1427.000000	25.488100
1426.000000	25.629300
1425.000000	25.803100
1424.000000	25.982200
1423.000000	26.192200
1422.000000	26.362900
1421.000000	26.493500
1420.000000	26.680300
1419.000000	26.925900
1418.000000	27.162600
1417.000000	27.252500
1416.000000	27.358600
1415.000000	27.511200
1414.000000	27.837900
1413.000000	28.055800
1412.000000	28.119800
1411.000000	28.252500
1410.000000	28.461100
1409.000000	28.833000
1408.000000	29.071500
1407.000000	29.318900
1406.000000	29.557800
1405.000000	29.859300
1404.000000	30.181000
1403.000000	30.338800
1402.000000	30.388100
1401.000000	30.721300
1400.000000	31.219300
1399.000000	31.453100
1398.000000	31.342500
1397.000000	31.351100
1396.000000	31.677100
1395.000000	32.044700
1394.000000	32.060300
1393.000000	32.035600
1392.000000	32.231400
1391.000000	32.372200
1390.000000	32.367800
1389.000000	32.445200
1388.000000	32.747300
1387.000000	32.960300
1386.000000	33.081000
1385.000000	33.251300
1384.000000	33.438900
1383.000000	33.677500
1382.000000	34.002000
1381.000000	34.245900
1380.000000	34.306600
1379.000000	34.318700
1378.000000	34.247600
1377.000000	34.265000
1376.000000	34.290000
1375.000000	34.391600
1374.000000	34.537400
1373.000000	34.664100
1372.000000	34.850000
1371.000000	35.123500
1370.000000	35.287400
1369.000000	35.364800
1368.000000	35.607500
1367.000000	35.785900
1366.000000	35.796200
1365.000000	35.940000
1364.000000	36.078200
1363.000000	36.084100
1362.000000	36.221700
1361.000000	36.495300
1360.000000	36.548700
1359.000000	36.464000
1358.000000	36.475100
1357.000000	36.507000
1356.000000	36.604300
1355.000000	36.873200
1354.000000	37.206300
1353.000000	37.419100
1352.000000	37.621300
1351.000000	37.872800
1350.000000	38.086400
1349.000000	38.275300
1348.000000	38.509300
1347.000000	38.753400
1346.000000	38.908900
1345.000000	39.031100
1344.000000	39.197000
1343.000000	39.344000
1342.000000	39.472100
1341.000000	39.618500
1340.000000	39.754400
1339.000000	39.880400
1338.000000	40.004000
1337.000000	40.119000
1336.000000	40.207100
1335.000000	40.309100
1334.000000	40.429300
1333.000000	40.519200
1332.000000	40.603800
1331.000000	40.681300
1330.000000	40.762500
1329.000000	40.839800
1328.000000	40.893900
1327.000000	40.957500
1326.000000	41.025600
1325.000000	41.074200
1324.000000	41.116000
1323.000000	41.165600
1322.000000	41.208100
1321.000000	41.237400
1320.000000	41.275200
1319.000000	41.293600
1318.000000	41.327500
1317.000000	41.371400
1316.000000	41.407200
1315.000000	41.441200
1314.000000	41.470000
1313.000000	41.480500
1312.000000	41.483400
1311.000000	41.503400
1310.000000	41.528300
1309.000000	41.539600
1308.000000	41.540800
1307.000000	41.548900
1306.000000	41.562100
1305.000000	41.559000
1304.000000	41.546100
1303.000000	41.538400
1302.000000	41.537900
1301.000000	41.534200
1300.000000	41.517700
1299.000000	41.489900
1298.000000	41.468400
1297.000000	41.456800
1296.000000	41.457000
1295.000000	41.451700
1294.000000	41.456200
1293.000000	41.450500
1292.000000	41.414500
1291.000000	41.395500
1290.000000	41.370200
1289.000000	41.345500
1288.000000	41.332700
1287.000000	41.321900
1286.000000	41.302900
1285.000000	41.276700
1284.000000	41.251200
1283.000000	41.227600
1282.000000	41.205500
1281.000000	41.178100
1280.000000	41.143000
1279.000000	41.120200
1278.000000	41.099600
1277.000000	41.081600
1276.000000	41.063600
1275.000000	41.036500
1274.000000	41.042200
1273.000000	41.052000
1272.000000	41.037000
1271.000000	41.017800
1270.000000	41.012900
1269.000000	40.994600
1268.000000	40.972000
1267.000000	40.955800
1266.000000	40.933900
1265.000000	40.913800
1264.000000	40.896600
1263.000000	40.875500
1262.000000	40.853800
1261.000000	40.825600
1260.000000	40.805300
1259.000000	40.803600
1258.000000	40.792200
1257.000000	40.778400
1256.000000	40.746800
1255.000000	40.699500
1254.000000	40.630700
1253.000000	40.572100
1252.000000	40.554100
1251.000000	40.532700
1250.000000	40.497900
1249.000000	40.451900
1248.000000	40.426600
1247.000000	40.390200
1246.000000	40.348100
1245.000000	40.314800
1244.000000	40.261000
1243.000000	40.198000
1242.000000	40.141200
1241.000000	40.080300
1240.000000	40.045300
1239.000000	40.002900
1238.000000	39.943400
1237.000000	39.899800
1236.000000	39.842500
1235.000000	39.782000
1234.000000	39.712700
1233.000000	39.627500
1232.000000	39.562000
1231.000000	39.495200
1230.000000	39.430000
1229.000000	39.359100
1228.000000	39.277400
1227.000000	39.223000
1226.000000	39.147700
1225.000000	39.067400
1224.000000	38.983300
1223.000000	38.908400
1222.000000	38.839900
1221.000000	38.759700
1220.000000	38.681700
1219.000000	38.611000
1218.000000	38.540200
1217.000000	38.449400
1216.000000	38.396000
1215.000000	38.316600
1214.000000	38.250300
1213.000000	38.192600
1212.000000	38.135600
1211.000000	38.077700
1210.000000	38.031400
1209.000000	37.993900
1208.000000	37.940500
1207.000000	37.893900
1206.000000	37.852200
1205.000000	37.849400
1204.000000	37.829100
1203.000000	37.783400
1202.000000	37.752900
1201.000000	37.735100
1200.000000	37.705300
1199.000000	37.664100
1198.000000	37.622800
1197.000000	37.521300
1196.000000	37.433800
1195.000000	37.302500
1194.000000	37.164000
1193.000000	36.963700
1192.000000	36.757200
1191.000000	36.553100
1190.000000	36.344600
1189.000000	36.158400
1188.000000	36.008700
1187.000000	35.856700
1186.000000	35.797600
1185.000000	35.851000
1184.000000	35.933600
1183.000000	36.079400
1182.000000	36.281600
1181.000000	36.487500
1180.000000	36.716800
1179.000000	36.920600
1178.000000	37.072500
1177.000000	37.233900
1176.000000	37.374300
1175.000000	37.492300
1174.000000	37.637300
1173.000000	37.774000
1172.000000	37.923900
1171.000000	38.070400
1170.000000	38.216000
1169.000000	38.380100
1168.000000	38.544500
1167.000000	38.736400
1166.000000	38.902000
1165.000000	39.066900
1164.000000	39.229500
1163.000000	39.398500
1162.000000	39.559400
1161.000000	39.716300
1160.000000	39.854200
1159.000000	39.990800
1158.000000	40.148700
1157.000000	40.305200
1156.000000	40.428200
1155.000000	40.501800
1154.000000	40.555900
1153.000000	40.599900
1152.000000	40.618800
1151.000000	40.648600
1150.000000	40.668300
1149.000000	40.645700
1148.000000	40.648600
1147.000000	40.677400
1146.000000	40.740700
1145.000000	40.854900
1144.000000	40.965400
1143.000000	41.051200
1142.000000	41.134000
1141.000000	41.226700
1140.000000	41.332300
1139.000000	41.481600
1138.000000	41.602700
1137.000000	41.724100
1136.000000	41.829600
1135.000000	42.045200
1134.000000	42.259600
1133.000000	42.370900
1132.000000	42.408300
1131.000000	42.462800
1130.000000	42.530900
1129.000000	42.654000
1128.000000	42.725700
1127.000000	42.770400
1126.000000	42.807400
1125.000000	42.859000
1124.000000	42.888600
1123.000000	42.913000
1122.000000	42.974900
1121.000000	42.981200
1120.000000	42.995000
1119.000000	42.994400
1118.000000	42.992000
1117.000000	42.979900
1116.000000	42.998300
1115.000000	42.988600
1114.000000	42.965300
1113.000000	42.945800
1112.000000	42.910000
1111.000000	42.901900
1110.000000	42.895500
1109.000000	42.903400
1108.000000	42.895900
1107.000000	42.868600
1106.000000	42.860000
1105.000000	42.832300
1104.000000	42.829100
1103.000000	42.818500
1102.000000	42.811700
1101.000000	42.783000
1100.000000	42.781400
1099.000000	42.760200
1098.000000	42.728200
1097.000000	42.696100
1096.000000	42.662500
1095.000000	42.624100
1094.000000	42.613900
1093.000000	42.602700
1092.000000	42.594200
1091.000000	42.589200
1090.000000	42.546900
1089.000000	42.514800
1088.000000	42.464200
1087.000000	42.422100
1086.000000	42.394500
1085.000000	42.357500
1084.000000	42.318000
1083.000000	42.286400
1082.000000	42.251100
1081.000000	42.211700
1080.000000	42.164500
1079.000000	42.142800
1078.000000	42.101800
1077.000000	42.062000
1076.000000	42.039400
1075.000000	42.000700
1074.000000	41.958800
1073.000000	41.921900
1072.000000	41.862700
1071.000000	41.817900
1070.000000	41.787900
1069.000000	41.746000
1068.000000	41.683000
1067.000000	41.645200
1066.000000	41.613800
1065.000000	41.567900
1064.000000	41.513100
1063.000000	41.466000
1062.000000	41.446400
1061.000000	41.401000
1060.000000	41.351500
1059.000000	41.298100
1058.000000	41.261100
1057.000000	41.217100
1056.000000	41.167800
1055.000000	41.139300
1054.000000	41.115300
1053.000000	41.072100
1052.000000	41.021500
1051.000000	40.979500
1050.000000	40.943700
1049.000000	40.896800
1048.000000	40.861800
1047.000000	40.840000
1046.000000	40.815100
1045.000000	40.770100
1044.000000	40.715300
1043.000000	40.682000
1042.000000	40.655300
1041.000000	40.630800
1040.000000	40.596400
1039.000000	40.576100
1038.000000	40.551400
1037.000000	40.514400
1036.000000	40.489100
1035.000000	40.476400
1034.000000	40.449600
1033.000000	40.411900
1032.000000	40.391000
1031.000000	40.363100
1030.000000	40.327500
1029.000000	40.291000
1028.000000	40.261100
1027.000000	40.232300
1026.000000	40.196900
1025.000000	40.174500
1024.000000	40.148400
1023.000000	40.110300
1022.000000	40.061800
1021.000000	40.005400
1020.000000	39.964700
1019.000000	39.939900
1018.000000	39.938300
1017.000000	39.925100
1016.000000	39.893700
1015.000000	39.865500
1014.000000	39.840800
1013.000000	39.825700
1012.000000	39.802700
1011.000000	39.800300
1010.000000	39.805700
1009.000000	39.805600
1008.000000	39.787700
1007.000000	39.779300
1006.000000	39.778000
1005.000000	39.763700
1004.000000	39.756400
1003.000000	39.735300
1002.000000	39.707400
1001.000000	39.681100
1000.000000	39.668400
999.000000	39.681900
998.000000	39.664600
997.000000	39.646600
996.000000	39.637100
995.000000	39.604300
994.000000	39.563400
993.000000	39.567400
992.000000	39.572600
991.000000	39.549600
990.000000	39.544600
989.000000	39.514200
988.000000	39.479800
987.000000	39.477900
986.000000	39.468600
985.000000	39.451000
984.000000	39.407000
983.000000	39.377100
982.000000	39.382800
981.000000	39.373500
980.000000	39.365300
979.000000	39.357700
978.000000	39.355100
977.000000	39.337300
976.000000	39.319200
975.000000	39.287200
974.000000	39.271900
973.000000	39.256400
972.000000	39.241900
971.000000	39.257800
970.000000	39.237400
969.000000	39.212300
968.000000	39.185900
967.000000	39.173600
966.000000	39.177300
965.000000	39.191500
964.000000	39.200200
963.000000	39.177100
962.000000	39.150600
961.000000	39.146700
960.000000	39.145100
959.000000	39.145700
958.000000	39.140200
957.000000	39.133800
956.000000	39.143300
955.000000	39.151600
954.000000	39.144200
953.000000	39.125100
952.000000	39.132800
951.000000	39.121500
950.000000	39.118800
949.000000	39.123500
948.000000	39.123700
947.000000	39.158300
946.000000	39.173100
945.000000	39.179100
944.000000	39.195700
943.000000	39.202100
942.000000	39.200700
941.000000	39.212500
940.000000	39.203600
939.000000	39.190400
938.000000	39.179700
937.000000	39.182500
936.000000	39.216200
935.000000	39.251100
934.000000	39.297300
933.000000	39.319400
932.000000	39.318600
931.000000	39.354600
930.000000	39.341800
929.000000	39.324300
928.000000	39.314700
927.000000	39.304700
926.000000	39.289000
925.000000	39.300000
924.000000	39.310900
923.000000	39.284500
922.000000	39.319500
921.000000	39.327200
920.000000	39.358300
919.000000	39.403500
918.000000	39.393100
917.000000	39.385500
916.000000	39.387100
915.000000	39.390900
914.000000	39.405600
913.000000	39.417100
912.000000	39.434800
911.000000	39.449100
910.000000	39.474200
909.000000	39.457800
908.000000	39.486300
907.000000	39.532400
906.000000	39.514800
905.000000	39.553000
904.000000	39.573200
903.000000	39.601900
902.000000	39.651100
901.000000	39.666400
900.000000	39.713000
899.000000	39.724500
898.000000	39.772700
897.000000	39.817900
896.000000	39.835900
895.000000	39.870400
894.000000	39.887500
893.000000	39.930300
892.000000	39.997400
891.000000	40.061600
890.000000	40.073000
889.000000	40.113700
888.000000	40.138400
887.000000	40.172700
886.000000	40.245000
885.000000	40.271100
884.000000	40.316400
883.000000	40.354100
882.000000	40.374600
881.000000	40.431400
880.000000	40.496100
879.000000	40.550400
878.000000	40.579200
877.000000	40.648200
876.000000	40.700200
875.000000	40.719800
874.000000	40.767000
873.000000	40.856900
872.000000	40.916900
871.000000	40.953800
870.000000	41.036300
869.000000	41.087300
868.000000	41.159700
867.000000	41.248700
866.000000	41.303600
865.000000	41.408300
864.000000	41.470900
863.000000	41.563500
862.000000	41.643200
861.000000	41.719700
860.000000	41.818400
859.000000	41.910800
858.000000	41.645000
857.000000	41.802200
856.000000	41.781935
855.000000	41.750539
854.000000	41.448555
853.000000	41.363189
852.000000	41.414640
851.000000	41.272363
850.000000	41.360039
849.000000	41.509666
848.000000	41.485516
847.000000	41.298403
846.000000	41.239918
845.000000	41.238448
844.000000	41.004505
843.000000	41.057320
842.000000	41.103836
841.000000	41.015425
840.000000	40.946649
839.000000	41.004505
838.000000	40.837132
837.000000	40.698111
836.000000	40.741581
835.000000	40.674485
834.000000	40.612744
833.000000	40.502808
832.000000	40.401482
831.000000	40.344256
830.000000	40.345096
829.000000	40.180664
828.000000	40.067997
827.000000	40.053927
826.000000	39.998066
825.000000	39.873535
824.000000	39.790059
823.000000	39.733673
822.000000	39.661642
821.000000	39.545091
820.000000	39.383073
819.000000	39.371103
818.000000	39.290462
817.000000	39.236282
816.000000	39.233132
815.000000	39.208351
814.000000	39.044969
813.000000	39.018194
812.000000	38.915712
811.000000	38.806196
810.000000	38.831291
809.000000	38.775956
808.000000	38.625174
807.000000	38.424306
806.000000	38.366555
805.000000	38.281504
804.000000	38.230158
803.000000	38.152772
802.000000	38.028241
801.000000	37.991280
800.000000	37.957470
799.000000	37.862444
798.000000	37.756077
797.000000	37.717962
796.000000	37.699902
795.000000	37.559200
794.000000	37.484439
793.000000	37.454828
792.000000	37.346152
791.000000	37.237790
790.000000	37.177730
789.000000	37.094989
788.000000	36.994187
787.000000	36.967727
786.000000	36.951872
785.000000	36.839835
784.000000	36.729269
783.000000	36.682753
782.000000	36.644218
781.000000	36.553077
780.000000	36.438730
779.000000	36.365019
778.000000	36.277553
777.000000	36.174337
776.000000	36.102411
775.000000	36.001609
774.000000	35.930208
773.000000	35.863218
772.000000	35.781527
771.000000	35.704876
770.000000	35.662665
769.000000	35.590214
768.000000	35.497288
767.000000	35.397431
766.000000	35.303665
765.000000	35.222499
764.000000	35.069512
763.000000	34.954011
762.000000	34.884395
761.000000	34.804384
760.000000	34.727103
759.000000	34.634492
758.000000	34.507230
757.000000	34.408109
756.000000	34.318437
755.000000	34.193591
754.000000	34.090374
753.000000	34.024434
752.000000	33.873337
751.000000	33.732950
750.000000	33.628263
749.000000	33.491027
748.000000	33.378780
747.000000	33.229888
746.000000	33.082361
745.000000	32.963080
744.000000	32.845898
743.000000	32.720842
742.000000	32.581190
741.000000	32.457813
740.000000	32.346827
739.000000	32.246970
738.000000	32.132939
737.000000	32.008617
736.000000	31.865605
735.000000	31.746639
734.000000	31.588087
733.000000	31.407169
732.000000	31.287993
731.000000	31.177216
730.000000	31.053105
729.000000	30.915028
728.000000	30.765926
727.000000	30.666910
726.000000	30.572304
725.000000	30.420577
724.000000	30.277670
723.000000	30.148308
722.000000	30.027451
721.000000	29.932845
720.000000	29.800859
719.000000	29.663832
718.000000	29.557465
717.000000	29.433984
716.000000	29.314912
715.000000	29.239836
714.000000	29.136515
713.000000	28.994553
712.000000	28.866031
711.000000	28.737090
710.000000	28.622638
709.000000	28.495692
708.000000	28.402975
707.000000	28.283589
706.000000	28.147192
705.000000	28.033685
704.000000	27.916819
703.000000	27.803837
702.000000	27.685711
701.000000	27.612210
700.000000	27.501119
699.000000	27.386142
698.000000	27.298466
697.000000	27.209740
696.000000	27.100853
695.000000	27.015907
694.000000	26.940096
693.000000	26.842865
692.000000	26.751829
691.000000	26.687883
690.000000	26.614277
689.000000	26.536786
688.000000	26.471055
687.000000	26.418449
686.000000	26.333713
685.000000	26.234907
684.000000	26.160251
683.000000	26.080135
682.000000	25.998444
681.000000	25.859632
680.000000	25.771851
679.000000	25.678820
678.000000	25.559118
677.000000	25.442567
676.000000	25.381561
675.000000	25.264799
674.000000	25.105092
673.000000	24.975521
672.000000	24.856659
671.000000	24.724147
670.000000	24.613266
669.000000	24.484744
668.000000	24.354228
667.000000	24.197775
666.000000	24.090149
665.000000	23.993758
664.000000	23.878466
663.000000	23.780290
662.000000	23.660903
661.000000	23.573542
660.000000	23.485551
659.000000	23.364065
658.000000	23.262423
657.000000	23.168972
656.000000	23.100616
655.000000	23.016300
654.000000	22.908254
653.000000	22.830238
652.000000	22.752642
651.000000	22.683236
650.000000	22.616455
649.000000	22.582539
648.000000	22.538544
647.000000	22.494863
646.000000	22.464833
645.000000	22.437323
644.000000	22.394692
643.000000	22.346076
642.000000	22.309431
641.000000	22.308801
640.000000	22.270160
639.000000	22.267010
638.000000	22.287066
637.000000	22.308276
636.000000	22.331271
635.000000	22.400467
634.000000	22.463573
633.000000	22.530879
632.000000	22.603015
631.000000	22.722296
630.000000	22.786452
629.000000	22.904474
628.000000	23.005065
627.000000	23.139152
626.000000	23.261583
625.000000	23.397350
624.000000	23.518627
623.000000	23.651138
622.000000	23.771890
621.000000	23.900832
620.000000	24.016543
619.000000	24.168270
618.000000	24.231481
617.000000	24.307607
616.000000	24.422898
615.000000	24.539345
614.000000	24.647286
613.000000	24.717952
612.000000	24.787043
611.000000	24.881964
610.000000	24.963550
609.000000	25.018571
608.000000	25.108452
607.000000	25.168408
606.000000	25.210934
605.000000	25.276875
604.000000	25.331790
603.000000	25.418836
602.000000	25.484357
601.000000	25.555233
600.000000	25.619494
599.000000	25.682600
598.000000	25.792851
597.000000	25.967469
596.000000	26.044960
595.000000	26.136521
594.000000	26.277223
593.000000	26.402909
592.000000	26.491320
591.000000	26.567131
590.000000	26.671503
589.000000	26.767474
588.000000	26.867120
587.000000	26.958366
586.000000	27.025357
585.000000	27.112508
584.000000	27.209320
583.000000	27.296156
582.000000	27.375432
581.000000	27.460588
580.000000	27.510569
579.000000	27.574725
578.000000	27.661666
577.000000	27.706606
576.000000	27.742937
575.000000	27.789242
574.000000	27.805833
573.000000	27.878073
572.000000	28.006385
571.000000	28.041666
570.000000	28.077891
569.000000	28.103826
568.000000	28.136692
567.000000	28.190663
566.000000	28.218278
565.000000	28.275504
564.000000	28.251143
563.000000	28.251353
562.000000	28.240853
561.000000	28.246313
560.000000	28.250198
559.000000	28.733205
558.000000	28.753680
557.000000	28.690889
556.000000	28.628833
555.000000	28.562052
554.000000	28.430906
553.000000	28.317924
552.000000	28.195913
551.000000	28.055316
550.000000	27.927004
549.000000	27.812868
548.000000	27.648435
547.000000	27.478753
546.000000	27.286706
545.000000	27.097283
544.000000	26.903451
543.000000	26.721378
542.000000	26.497935
541.000000	26.256222
540.000000	26.013669
539.000000	25.786026
538.000000	25.544943
537.000000	25.305225
536.000000	25.056582
535.000000	24.810353
534.000000	24.549635
533.000000	24.262771
532.000000	24.003838
531.000000	23.758975
530.000000	23.487231
529.000000	23.221683
528.000000	22.967159
527.000000	22.691216
526.000000	22.434802
525.000000	22.179229
524.000000	21.928591
523.000000	21.684148
522.000000	21.436449
521.000000	21.199461
520.000000	20.963418
519.000000	20.709945
518.000000	20.477787
517.000000	20.244684
516.000000	19.999191
515.000000	19.764828
514.000000	19.531515
513.000000	19.299042
512.000000	19.040003
511.000000	18.766370
510.000000	18.470266
509.000000	18.185607
508.000000	17.910294
507.000000	17.624270
506.000000	17.329531
505.000000	17.031537
504.000000	16.718843
503.000000	16.409824
502.000000	16.092300
501.000000	15.765536
500.000000	15.443286
499.000000	15.140882
498.000000	14.847929
497.000000	14.543320
496.000000	14.258241
495.000000	13.988807
494.000000	13.718639
493.000000	13.451515
492.000000	13.213792
491.000000	12.984784
490.000000	12.773732
489.000000	12.578324
488.000000	12.408222
487.000000	12.236860
486.000000	12.095213
485.000000	11.961021
484.000000	11.824414
483.000000	11.693162
482.000000	11.568526
481.000000	11.440844
480.000000	11.315998
479.000000	11.225276
478.000000	11.149150
477.000000	11.080794
476.000000	11.028819
475.000000	10.979048
474.000000	10.913317
473.000000	10.855987
472.000000	10.815141
471.000000	10.778916
470.000000	10.723790
469.000000	10.670554
468.000000	10.638739
467.000000	10.615533
466.000000	10.581618
465.000000	10.544867
464.000000	10.507697
463.000000	10.466431
462.000000	10.440916
461.000000	10.410676
460.000000	10.364895
459.000000	10.323105
458.000000	10.304519
457.000000	10.274069
456.000000	10.239418
455.000000	10.204558
454.000000	10.154472
453.000000	10.111632
452.000000	10.070576
451.000000	10.021331
450.000000	9.966415
449.000000	9.910764
448.000000	9.852068
447.000000	9.803768
446.000000	9.768592
445.000000	9.720607
444.000000	9.654561
443.000000	9.582320
442.000000	9.507874
441.000000	9.425553
440.000000	9.345332
439.000000	9.266056
438.000000	9.185310
437.000000	9.108869
436.000000	9.033268
435.000000	8.961027
434.000000	8.877761
433.000000	8.785780
432.000000	8.702303
431.000000	8.619982
430.000000	8.536401
429.000000	8.452925
428.000000	8.371234
427.000000	8.291328
426.000000	8.212472
425.000000	8.127106
424.000000	8.038275
423.000000	7.950914
422.000000	7.860507
421.000000	7.766426
420.000000	7.667410
419.000000	7.570179
418.000000	7.474732
417.000000	7.378656
416.000000	7.283420
415.000000	7.187239
414.000000	7.094837
413.000000	7.004116
412.000000	6.912660
411.000000	6.812069
410.000000	6.708747
409.000000	6.613406
408.000000	6.498535
407.000000	6.393113
406.000000	6.311737
405.000000	6.208626
404.000000	6.101105
403.000000	5.990958
402.000000	5.895722
401.000000	5.793976
400.000000	5.679944
399.000000	5.560873
398.000000	5.461331
397.000000	5.372920
396.000000	5.268549
395.000000	5.167432
394.000000	5.070831
393.000000	4.967720
392.000000	4.888969
391.000000	4.803393
390.000000	4.713091
389.000000	4.626150
388.000000	4.540469
387.000000	4.464238
386.000000	4.383282
385.000000	4.325426
384.000000	4.257281
383.000000	4.182625
382.000000	4.124769
381.000000	4.074368
380.000000	4.025752
379.000000	3.966007
378.000000	3.931461
377.000000	3.897651
376.000000	4.066808
375.000000	3.874656
374.000000	3.810500
373.000000	3.843260
372.000000	3.805670
371.000000	3.763879
370.000000	3.763984
369.000000	3.747079
368.000000	3.769549
367.000000	3.745399
366.000000	3.694998
365.000000	3.658143
364.000000	3.693843
363.000000	3.657618
362.000000	3.676098
361.000000	3.672213
360.000000	3.600392
359.000000	3.573407
358.000000	3.589472
357.000000	3.629372
356.000000	3.644808
355.000000	3.619607
354.000000	3.548731
353.000000	3.627797
352.000000	3.571832
351.000000	3.565426
350.000000	3.557656
349.000000	3.503371
348.000000	3.580652
347.000000	3.503161
346.000000	3.520171
345.000000	3.555976
344.000000	3.550726
343.000000	3.655518
342.000000	3.698568
341.000000	3.553561
340.000000	3.589577
339.000000	3.567842
338.000000	3.527101
337.000000	3.525421
336.000000	3.519016
335.000000	3.494131
334.000000	3.455595
333.000000	3.536026
332.000000	3.492136
331.000000	3.458115
330.000000	3.531826
329.000000	3.531826
328.000000	3.547891
327.000000	3.527521
326.000000	3.570257
325.000000	3.690798
324.000000	3.464310
323.000000	3.623492
322.000000	3.621497
321.000000	3.311848
320.000000	3.636932
319.000000	3.917181
318.000000	3.578972
317.000000	3.622022
316.000000	3.297043
315.000000	3.263653
314.000000	3.270583
313.000000	3.345449
312.000000	3.276043
311.000000	3.297463
310.000000	3.334423
309.000000	3.255252
308.000000	3.250737
307.000000	3.309328
306.000000	3.259137
305.000000	3.274363
304.000000	3.234147
303.000000	3.246852
302.000000	3.299458
301.000000	3.273418
300.000000	3.236667
299.000000	3.320038
298.000000	3.261658
297.000000	3.371699
296.000000	3.295363
295.000000	3.306703
294.000000	3.285913
293.000000	3.314368
292.000000	3.269428
291.000000	3.295363
290.000000	3.293788
289.000000	3.337784
288.000000	3.316153
287.000000	3.295363
286.000000	3.281923
285.000000	3.306598
284.000000	3.343244
283.000000	3.308068
282.000000	3.323083
281.000000	3.349544
280.000000	3.354584
279.000000	3.279613
278.000000	3.345029
277.000000	3.362354
276.000000	3.380624
275.000000	3.391754
274.000000	3.376214
273.000000	3.411284
272.000000	3.443520
271.000000	3.351434
270.000000	3.381044
269.000000	3.358364
268.000000	3.414225
267.000000	3.436275
266.000000	3.433230
265.000000	3.508936
264.000000	3.476070
263.000000	3.456750
262.000000	3.518071
261.000000	3.463890
260.000000	3.506731
259.000000	3.543901
258.000000	3.566687
257.000000	3.574457
256.000000	3.619292
255.000000	3.577187
254.000000	3.575822
253.000000	3.586322
252.000000	3.555556
251.000000	3.565321
250.000000	3.597767
