PE UV       SUBTECH     SPECTRUM    ASCII       PEDS        4.00        
   -1
CICIMAUCR0234-3.Sample.ASC
24/06/19
15:05:53.00
24/06/19
15:05:53.00
Vinicio Soto Monge
C. resplendens. Sex M. Ventral 
250,000000
1
Lambda 1050
1050L1511233
PerkinElmer UV WinLab 6.3.2.0749 / 2.02.05 Lambda 900 UV/VIS/NIR, Aug  7 2015 09:38:08

0
0
3350/servo 860,8/2
0
0
UV/VIS
1
1
1
DoubleDePol,CommonBeamDepol,RBeamAtt,SBeamAtt,60mm sphere, WB InGaAs Detector
0
0
0
0
Program
Program
3350/servo 860,8/2
3350/0,2 860,8/0,2
3350/0,2 860,8/0,2
0
15.00
 
 
 
0
 
860,8
319,2
860,8
Front
100
on
S:100 R:100
0
0
0
0
 
0
 
 
 
0
 
 
0
0
0
0
0
 
 
 
 
0
0


0
0
#HDR
-1
-1
#GR
nm
%R
1.0
0.0
2500,000000
-1,000000
2251
8
62,610300
4,484000
#DATA
2482.000000	8.236665
2481.000000	8.181333
2480.000000	8.127695
2479.000000	8.147908
2478.000000	8.171396
2477.000000	8.139213
2476.000000	8.216678
2475.000000	8.190593
2474.000000	8.145650
2473.000000	8.201207
2472.000000	8.164959
2471.000000	8.166427
2470.000000	8.190141
2469.000000	8.207757
2468.000000	8.148699
2467.000000	8.173090
2466.000000	8.195900
2465.000000	8.247731
2464.000000	8.253829
2463.000000	8.256314
2462.000000	8.270993
2461.000000	8.316840
2460.000000	8.321018
2459.000000	8.334343
2458.000000	8.393288
2457.000000	8.423439
2456.000000	8.454153
2455.000000	8.495709
2454.000000	8.567302
2453.000000	8.573964
2452.000000	8.598694
2451.000000	8.625231
2450.000000	8.699308
2449.000000	8.764125
2448.000000	8.785242
2447.000000	8.835944
2446.000000	8.887210
2445.000000	8.964675
2444.000000	8.983194
2443.000000	9.004762
2442.000000	9.081098
2441.000000	9.139027
2440.000000	9.196392
2439.000000	9.218073
2438.000000	9.266855
2437.000000	9.338674
2436.000000	9.372889
2435.000000	9.419413
2434.000000	9.467970
2433.000000	9.494845
2432.000000	9.548483
2431.000000	9.583489
2430.000000	9.620415
2429.000000	9.660841
2428.000000	9.681167
2427.000000	9.735821
2426.000000	9.763262
2425.000000	9.787992
2424.000000	9.821078
2423.000000	9.862181
2422.000000	9.892445
2421.000000	9.927676
2420.000000	9.960650
2419.000000	9.996559
2418.000000	10.031226
2417.000000	10.048955
2416.000000	10.090059
2415.000000	10.100673
2414.000000	10.135453
2413.000000	10.159958
2412.000000	10.185139
2411.000000	10.210660
2410.000000	10.229066
2409.000000	10.264637
2408.000000	10.293319
2407.000000	10.301223
2406.000000	10.340182
2405.000000	10.372364
2404.000000	10.370671
2403.000000	10.397998
2402.000000	10.424647
2401.000000	10.461686
2400.000000	10.478511
2399.000000	10.504258
2398.000000	10.526390
2397.000000	10.534521
2396.000000	10.555750
2395.000000	10.576076
2394.000000	10.591434
2393.000000	10.618196
2392.000000	10.630956
2391.000000	10.650266
2390.000000	10.659639
2389.000000	10.677029
2388.000000	10.694758
2387.000000	10.706840
2386.000000	10.722649
2385.000000	10.729989
2384.000000	10.720052
2383.000000	10.724004
2382.000000	10.738684
2381.000000	10.732022
2380.000000	10.728070
2379.000000	10.732361
2378.000000	10.727731
2377.000000	10.714519
2376.000000	10.720956
2375.000000	10.720278
2374.000000	10.698597
2373.000000	10.676803
2372.000000	10.662236
2371.000000	10.648572
2370.000000	10.649250
2369.000000	10.632650
2368.000000	10.600354
2367.000000	10.573592
2366.000000	10.550330
2365.000000	10.535537
2364.000000	10.513178
2363.000000	10.478511
2362.000000	10.461008
2361.000000	10.440005
2360.000000	10.401950
2359.000000	10.374397
2358.000000	10.356442
2357.000000	10.329906
2356.000000	10.288237
2355.000000	10.269605
2354.000000	10.269718
2353.000000	10.257748
2352.000000	10.256167
2351.000000	10.241487
2350.000000	10.247924
2349.000000	10.262152
2348.000000	10.262378
2347.000000	10.289028
2346.000000	10.300433
2345.000000	10.315339
2344.000000	10.355539
2343.000000	10.379817
2342.000000	10.394158
2341.000000	10.418324
2340.000000	10.433681
2339.000000	10.442602
2338.000000	10.447909
2337.000000	10.465525
2336.000000	10.468687
2335.000000	10.458185
2334.000000	10.465412
2333.000000	10.448700
2332.000000	10.437746
2331.000000	10.435262
2330.000000	10.430068
2329.000000	10.398901
2328.000000	10.364686
2327.000000	10.333858
2326.000000	10.312854
2325.000000	10.276945
2324.000000	10.245214
2323.000000	10.204449
2322.000000	10.146971
2321.000000	10.087123
2320.000000	10.034614
2319.000000	9.990574
2318.000000	9.918643
2317.000000	9.859584
2316.000000	9.803801
2315.000000	9.736951
2314.000000	9.664793
2313.000000	9.595346
2312.000000	9.536852
2311.000000	9.482875
2310.000000	9.448208
2309.000000	9.397393
2308.000000	9.353015
2307.000000	9.322074
2306.000000	9.325349
2305.000000	9.303103
2304.000000	9.290004
2303.000000	9.317218
2302.000000	9.342965
2301.000000	9.367921
2300.000000	9.401120
2299.000000	9.432173
2298.000000	9.473955
2297.000000	9.521269
2296.000000	9.581118
2295.000000	9.641193
2294.000000	9.676198
2293.000000	9.715721
2292.000000	9.759874
2291.000000	9.795783
2290.000000	9.814754
2289.000000	9.822433
2288.000000	9.857439
2287.000000	9.891767
2286.000000	9.885218
2285.000000	9.878442
2284.000000	9.860262
2283.000000	9.841178
2282.000000	9.821417
2281.000000	9.807753
2280.000000	9.778732
2279.000000	9.774215
2278.000000	9.738983
2277.000000	9.714027
2276.000000	9.684555
2275.000000	9.661293
2274.000000	9.631142
2273.000000	9.632498
2272.000000	9.618495
2271.000000	9.607655
2270.000000	9.606525
2269.000000	9.619286
2268.000000	9.653275
2267.000000	9.701606
2266.000000	9.755244
2265.000000	9.820061
2264.000000	9.901365
2263.000000	9.991139
2262.000000	10.102028
2261.000000	10.207611
2260.000000	10.344698
2259.000000	10.466767
2258.000000	10.622600
2257.000000	10.779449
2256.000000	10.930201
2255.000000	11.081855
2254.000000	11.269532
2253.000000	11.432253
2252.000000	11.591135
2251.000000	11.751259
2250.000000	11.906753
2249.000000	12.041920
2248.000000	12.174040
2247.000000	12.303561
2246.000000	12.463234
2245.000000	12.572881
2244.000000	12.693934
2243.000000	12.778738
2242.000000	12.876303
2241.000000	12.967657
2240.000000	13.048849
2239.000000	13.139525
2238.000000	13.186614
2237.000000	13.239010
2236.000000	13.325057
2235.000000	13.366838
2234.000000	13.399924
2233.000000	13.456950
2232.000000	13.463725
2231.000000	13.506410
2230.000000	13.525494
2229.000000	13.533511
2228.000000	13.551240
2227.000000	13.540061
2226.000000	13.557564
2225.000000	13.538028
2224.000000	13.528768
2223.000000	13.499070
2222.000000	13.485406
2221.000000	13.451304
2220.000000	13.423976
2219.000000	13.413475
2218.000000	13.368193
2217.000000	13.349335
2216.000000	13.322233
2215.000000	13.309925
2214.000000	13.281581
2213.000000	13.227266
2212.000000	13.185936
2211.000000	13.178370
2210.000000	13.153753
2209.000000	13.126652
2208.000000	13.115134
2207.000000	13.091872
2206.000000	13.056301
2205.000000	13.059350
2204.000000	13.025361
2203.000000	13.008535
2202.000000	12.993630
2201.000000	13.000857
2200.000000	12.998485
2199.000000	12.948461
2198.000000	12.958962
2197.000000	12.949590
2196.000000	12.934458
2195.000000	12.924521
2194.000000	12.904534
2193.000000	12.910519
2192.000000	12.898097
2191.000000	12.895500
2190.000000	12.858913
2189.000000	12.877433
2188.000000	12.860833
2187.000000	12.853719
2186.000000	12.830231
2185.000000	12.853154
2184.000000	12.824359
2183.000000	12.805162
2182.000000	12.804372
2181.000000	12.789692
2180.000000	12.776593
2179.000000	12.749266
2178.000000	12.746894
2177.000000	12.746443
2176.000000	12.734925
2175.000000	12.752089
2174.000000	12.733005
2173.000000	12.735038
2172.000000	12.734473
2171.000000	12.734247
2170.000000	12.743394
2169.000000	12.756154
2168.000000	12.750847
2167.000000	12.757961
2166.000000	12.786417
2165.000000	12.786304
2164.000000	12.800984
2163.000000	12.825150
2162.000000	12.839152
2161.000000	12.858236
2160.000000	12.875400
2159.000000	12.923166
2158.000000	12.937620
2157.000000	12.968222
2156.000000	13.006051
2155.000000	13.038008
2154.000000	13.081257
2153.000000	13.112876
2152.000000	13.154657
2151.000000	13.196664
2150.000000	13.236300
2149.000000	13.260691
2148.000000	13.289712
2147.000000	13.330816
2146.000000	13.368983
2145.000000	13.411781
2144.000000	13.442044
2143.000000	13.490375
2142.000000	13.535431
2141.000000	13.566823
2140.000000	13.592569
2139.000000	13.619671
2138.000000	13.623736
2137.000000	13.669357
2136.000000	13.725931
2135.000000	13.758904
2134.000000	13.782731
2133.000000	13.802153
2132.000000	13.821011
2131.000000	13.837950
2130.000000	13.849919
2129.000000	13.862792
2128.000000	13.859631
2127.000000	13.863357
2126.000000	13.878602
2125.000000	13.886732
2124.000000	13.885038
2123.000000	13.876569
2122.000000	13.879731
2121.000000	13.883796
2120.000000	13.875440
2119.000000	13.867309
2118.000000	13.853985
2117.000000	13.838627
2116.000000	13.832755
2115.000000	13.816494
2114.000000	13.796055
2113.000000	13.785215
2112.000000	13.786005
2111.000000	13.754839
2110.000000	13.728415
2109.000000	13.718704
2108.000000	13.705943
2107.000000	13.685166
2106.000000	13.664049
2105.000000	13.637964
2104.000000	13.634915
2103.000000	13.609959
2102.000000	13.582519
2101.000000	13.573147
2100.000000	13.551804
2099.000000	13.534640
2098.000000	13.504829
2097.000000	13.489358
2096.000000	13.465758
2095.000000	13.446109
2094.000000	13.446448
2093.000000	13.423412
2092.000000	13.417992
2091.000000	13.398343
2090.000000	13.373387
2089.000000	13.373274
2088.000000	13.353739
2087.000000	13.335107
2086.000000	13.327654
2085.000000	13.301004
2084.000000	13.271531
2083.000000	13.256513
2082.000000	13.241042
2081.000000	13.220378
2080.000000	13.194180
2079.000000	13.156802
2078.000000	13.107907
2077.000000	13.070981
2076.000000	13.043315
2075.000000	13.001421
2074.000000	12.961221
2073.000000	12.925199
2072.000000	12.870093
2071.000000	12.839829
2070.000000	12.800871
2069.000000	12.752202
2068.000000	12.713582
2067.000000	12.653733
2066.000000	12.604161
2065.000000	12.557185
2064.000000	12.518453
2063.000000	12.477236
2062.000000	12.445166
2061.000000	12.402707
2060.000000	12.359797
2059.000000	12.328404
2058.000000	12.291479
2057.000000	12.272621
2056.000000	12.257941
2055.000000	12.241567
2054.000000	12.251391
2053.000000	12.265845
2052.000000	12.277363
2051.000000	12.313273
2050.000000	12.350876
2049.000000	12.389382
2048.000000	12.436358
2047.000000	12.489996
2046.000000	12.545102
2045.000000	12.612404
2044.000000	12.680157
2043.000000	12.737409
2042.000000	12.823456
2041.000000	12.910745
2040.000000	12.952074
2039.000000	13.008084
2038.000000	13.077531
2037.000000	13.139638
2036.000000	13.198358
2035.000000	13.240252
2034.000000	13.277742
2033.000000	13.324379
2032.000000	13.377791
2031.000000	13.415056
2030.000000	13.449723
2029.000000	13.474001
2028.000000	13.496247
2027.000000	13.530236
2026.000000	13.532495
2025.000000	13.558241
2024.000000	13.593134
2023.000000	13.594828
2022.000000	13.602281
2021.000000	13.619671
2020.000000	13.620574
2019.000000	13.614363
2018.000000	13.623962
2017.000000	13.632657
2016.000000	13.620800
2015.000000	13.615380
2014.000000	13.605668
2013.000000	13.629156
2012.000000	13.599684
2011.000000	13.583084
2010.000000	13.556773
2009.000000	13.558693
2008.000000	13.527978
2007.000000	13.504151
2006.000000	13.484164
2005.000000	13.442044
2004.000000	13.404328
2003.000000	13.374855
2002.000000	13.338607
2001.000000	13.289938
2000.000000	13.246011
1999.000000	13.220716
1998.000000	13.155673
1997.000000	13.106100
1996.000000	13.064432
1995.000000	13.013843
1994.000000	12.933555
1993.000000	12.909277
1992.000000	12.835538
1991.000000	12.789127
1990.000000	12.732553
1989.000000	12.680835
1988.000000	12.630810
1987.000000	12.564977
1986.000000	12.490109
1985.000000	12.438842
1984.000000	12.364991
1983.000000	12.288656
1982.000000	12.244164
1981.000000	12.176185
1980.000000	12.112723
1979.000000	12.032548
1978.000000	11.964343
1977.000000	11.904946
1976.000000	11.864407
1975.000000	11.795072
1974.000000	11.739740
1973.000000	11.692539
1972.000000	11.631335
1971.000000	11.567873
1970.000000	11.509605
1969.000000	11.434511
1968.000000	11.399054
1967.000000	11.347223
1966.000000	11.298779
1965.000000	11.251916
1964.000000	11.181904
1963.000000	11.129283
1962.000000	11.096987
1961.000000	11.031605
1960.000000	10.994905
1959.000000	10.925797
1958.000000	10.883112
1957.000000	10.843250
1956.000000	10.797291
1955.000000	10.757316
1954.000000	10.707179
1953.000000	10.659639
1952.000000	10.626891
1951.000000	10.559928
1950.000000	10.523229
1949.000000	10.475237
1948.000000	10.437859
1947.000000	10.405789
1946.000000	10.378462
1945.000000	10.347521
1944.000000	10.301110
1943.000000	10.266669
1942.000000	10.284850
1941.000000	10.249053
1940.000000	10.257635
1939.000000	10.243746
1938.000000	10.231550
1937.000000	10.228727
1936.000000	10.207724
1935.000000	10.231099
1934.000000	10.231324
1933.000000	10.277171
1932.000000	10.290834
1931.000000	10.273670
1930.000000	10.341762
1929.000000	10.344360
1928.000000	10.398675
1927.000000	10.459653
1926.000000	10.518825
1925.000000	10.577883
1924.000000	10.626440
1923.000000	10.724004
1922.000000	10.744895
1921.000000	10.855220
1920.000000	10.967578
1919.000000	11.065707
1918.000000	11.144979
1917.000000	11.254965
1916.000000	11.365968
1915.000000	11.474825
1914.000000	11.582327
1913.000000	11.706428
1912.000000	11.910253
1911.000000	12.047002
1910.000000	12.194366
1909.000000	12.359910
1908.000000	12.494739
1907.000000	12.649781
1906.000000	12.850218
1905.000000	13.077305
1904.000000	13.304843
1903.000000	13.513411
1902.000000	13.743208
1901.000000	13.990508
1900.000000	14.251697
1899.000000	14.525421
1898.000000	14.854250
1897.000000	15.146945
1896.000000	15.413329
1895.000000	15.688520
1894.000000	15.956824
1893.000000	16.295139
1892.000000	16.637858
1891.000000	17.054089
1890.000000	17.480258
1889.000000	17.859677
1888.000000	18.285055
1887.000000	18.705126
1886.000000	19.123278
1885.000000	19.596987
1884.000000	20.121285
1883.000000	20.672233
1882.000000	21.216518
1881.000000	21.753012
1880.000000	22.303508
1879.000000	22.783202
1878.000000	23.258944
1877.000000	23.744848
1876.000000	24.235157
1875.000000	24.688088
1874.000000	25.141020
1873.000000	25.598919
1872.000000	26.064498
1871.000000	26.480391
1870.000000	26.895606
1869.000000	27.290157
1868.000000	27.678948
1867.000000	27.974804
1866.000000	28.224363
1865.000000	28.425139
1864.000000	28.617332
1863.000000	28.778698
1862.000000	28.914092
1861.000000	29.093074
1860.000000	29.284138
1859.000000	29.450925
1858.000000	29.611500
1857.000000	29.751185
1856.000000	29.840845
1855.000000	29.904985
1854.000000	29.990806
1853.000000	30.073014
1852.000000	30.104858
1851.000000	30.137944
1850.000000	30.165723
1849.000000	30.159173
1848.000000	30.175886
1847.000000	30.239687
1846.000000	30.263175
1845.000000	30.243188
1844.000000	30.193840
1843.000000	30.123151
1842.000000	30.107003
1841.000000	30.137605
1840.000000	30.161545
1839.000000	30.147542
1838.000000	30.105196
1837.000000	30.091194
1836.000000	30.068610
1835.000000	30.049752
1834.000000	30.000405
1833.000000	29.939088
1832.000000	29.856090
1831.000000	29.779980
1830.000000	29.737070
1829.000000	29.708162
1828.000000	29.652378
1827.000000	29.573220
1826.000000	29.522856
1825.000000	29.483672
1824.000000	29.422468
1823.000000	29.366346
1822.000000	29.311804
1821.000000	29.302206
1820.000000	29.326936
1819.000000	29.323661
1818.000000	29.275669
1817.000000	29.227564
1816.000000	29.199786
1815.000000	29.178330
1814.000000	29.155407
1813.000000	29.135759
1812.000000	29.115207
1811.000000	29.097139
1810.000000	29.070941
1809.000000	29.015948
1808.000000	28.961181
1807.000000	28.930014
1806.000000	28.902461
1805.000000	28.854469
1804.000000	28.792249
1803.000000	28.741547
1802.000000	28.698523
1801.000000	28.653129
1800.000000	28.595651
1799.000000	28.542917
1798.000000	28.494925
1797.000000	28.438915
1796.000000	28.399166
1795.000000	28.366758
1794.000000	28.312668
1793.000000	28.258239
1792.000000	28.210022
1791.000000	28.160675
1790.000000	28.102068
1789.000000	28.046171
1788.000000	27.994792
1787.000000	27.935733
1786.000000	27.886725
1785.000000	27.856688
1784.000000	27.797855
1783.000000	27.724456
1782.000000	27.664833
1781.000000	27.594595
1780.000000	27.531923
1779.000000	27.465412
1778.000000	27.395174
1777.000000	27.323695
1776.000000	27.254021
1775.000000	27.176670
1774.000000	27.080912
1773.000000	26.980411
1772.000000	26.870424
1771.000000	26.767101
1770.000000	26.677214
1769.000000	26.578294
1768.000000	26.456113
1767.000000	26.343981
1766.000000	26.266064
1765.000000	26.187357
1764.000000	26.117572
1763.000000	26.086292
1762.000000	26.068224
1761.000000	26.061336
1760.000000	26.092616
1759.000000	26.135752
1758.000000	26.195149
1757.000000	26.245625
1756.000000	26.297231
1755.000000	26.359338
1754.000000	26.394457
1753.000000	26.414783
1752.000000	26.456225
1751.000000	26.491570
1750.000000	26.483440
1749.000000	26.477229
1748.000000	26.440642
1747.000000	26.397958
1746.000000	26.323203
1745.000000	26.253756
1744.000000	26.178662
1743.000000	26.056593
1742.000000	25.915666
1741.000000	25.774401
1740.000000	25.608179
1739.000000	25.440377
1738.000000	25.252248
1737.000000	25.067394
1736.000000	24.902528
1735.000000	24.763746
1734.000000	24.677812
1733.000000	24.605994
1732.000000	24.580812
1731.000000	24.598541
1730.000000	24.613334
1729.000000	24.660761
1728.000000	24.722642
1727.000000	24.811512
1726.000000	24.880056
1725.000000	24.949390
1724.000000	24.989817
1723.000000	25.065700
1722.000000	25.123742
1721.000000	25.189915
1720.000000	25.247618
1719.000000	25.335472
1718.000000	25.384819
1717.000000	25.478657
1716.000000	25.567075
1715.000000	25.691290
1714.000000	25.792694
1713.000000	25.874902
1712.000000	25.977096
1711.000000	26.068224
1710.000000	26.122540
1709.000000	26.177533
1708.000000	26.229252
1707.000000	26.239076
1706.000000	26.221573
1705.000000	26.200795
1704.000000	26.193004
1703.000000	26.137672
1702.000000	26.058513
1701.000000	25.971111
1700.000000	25.893421
1699.000000	25.780611
1698.000000	25.646460
1697.000000	25.531279
1696.000000	25.435521
1695.000000	25.386626
1694.000000	25.350490
1693.000000	25.372736
1692.000000	25.435521
1691.000000	25.552847
1690.000000	25.675707
1689.000000	25.808164
1688.000000	25.924249
1687.000000	26.048011
1686.000000	26.122427
1685.000000	26.210394
1684.000000	26.314056
1683.000000	26.479713
1682.000000	26.674053
1681.000000	26.984250
1680.000000	27.367283
1679.000000	27.793903
1678.000000	28.264337
1677.000000	28.759050
1676.000000	29.198882
1675.000000	29.661073
1674.000000	30.030555
1673.000000	30.419572
1672.000000	30.678842
1671.000000	30.980457
1670.000000	31.199752
1669.000000	31.438470
1668.000000	31.602433
1667.000000	31.790449
1666.000000	31.929343
1665.000000	32.079191
1664.000000	32.216166
1663.000000	32.320054
1662.000000	32.422023
1661.000000	32.489664
1660.000000	32.567128
1659.000000	32.617718
1658.000000	32.680502
1657.000000	32.724994
1656.000000	32.754353
1655.000000	32.800652
1654.000000	32.804378
1653.000000	32.810928
1652.000000	32.814767
1651.000000	32.786423
1650.000000	32.774454
1649.000000	32.737189
1648.000000	32.720928
1647.000000	32.661870
1646.000000	32.617943
1645.000000	32.589374
1644.000000	32.542060
1643.000000	32.499149
1642.000000	32.429928
1641.000000	32.368159
1640.000000	32.329653
1639.000000	32.284823
1638.000000	32.187258
1637.000000	32.156769
1636.000000	32.086757
1635.000000	32.009292
1634.000000	31.945943
1633.000000	31.895805
1632.000000	31.814162
1631.000000	31.736133
1630.000000	31.641278
1629.000000	31.572170
1628.000000	31.499222
1627.000000	31.381218
1626.000000	31.308496
1625.000000	31.220756
1624.000000	31.130870
1623.000000	31.030482
1622.000000	30.956743
1621.000000	30.879618
1620.000000	30.797071
1619.000000	30.713283
1618.000000	30.639319
1617.000000	30.580035
1616.000000	30.494327
1615.000000	30.396649
1614.000000	30.335558
1613.000000	30.241607
1612.000000	30.175208
1611.000000	30.088032
1610.000000	29.998711
1609.000000	29.942701
1608.000000	29.854396
1607.000000	29.772076
1606.000000	29.683432
1605.000000	29.606193
1604.000000	29.510548
1603.000000	29.446408
1602.000000	29.355957
1601.000000	29.249697
1600.000000	29.166925
1599.000000	29.092171
1598.000000	28.995283
1597.000000	28.914431
1596.000000	28.824093
1595.000000	28.748887
1594.000000	28.670519
1593.000000	28.594974
1592.000000	28.514912
1591.000000	28.453482
1590.000000	28.375340
1589.000000	28.310410
1588.000000	28.244463
1587.000000	28.186647
1586.000000	28.110989
1585.000000	28.049220
1584.000000	27.991630
1583.000000	27.922183
1582.000000	27.875546
1581.000000	27.821682
1580.000000	27.760930
1579.000000	27.703001
1578.000000	27.667995
1577.000000	27.624407
1576.000000	27.582625
1575.000000	27.563880
1574.000000	27.534633
1573.000000	27.524357
1572.000000	27.505951
1571.000000	27.471736
1570.000000	27.459766
1569.000000	27.465412
1568.000000	27.451974
1567.000000	27.447119
1566.000000	27.456039
1565.000000	27.443618
1564.000000	27.436278
1563.000000	27.444973
1562.000000	27.429616
1561.000000	27.403418
1560.000000	27.405337
1559.000000	27.376090
1558.000000	27.360733
1557.000000	27.321549
1556.000000	27.280445
1555.000000	27.258087
1554.000000	27.229404
1553.000000	27.168088
1552.000000	27.121677
1551.000000	27.085654
1550.000000	27.043308
1549.000000	26.970474
1548.000000	26.924401
1547.000000	26.883411
1546.000000	26.819384
1545.000000	26.761342
1544.000000	26.717076
1543.000000	26.681393
1542.000000	26.650904
1541.000000	26.612962
1540.000000	26.572423
1539.000000	26.547918
1538.000000	26.522850
1537.000000	26.491457
1536.000000	26.449337
1535.000000	26.411508
1534.000000	26.373792
1533.000000	26.325913
1532.000000	26.277018
1531.000000	26.242576
1530.000000	26.210281
1529.000000	26.155965
1528.000000	26.089115
1527.000000	26.041349
1526.000000	25.988275
1525.000000	25.919280
1524.000000	25.856608
1523.000000	25.808503
1522.000000	25.751026
1521.000000	25.696371
1520.000000	25.639797
1519.000000	25.569785
1518.000000	25.483626
1517.000000	25.414517
1516.000000	25.371720
1515.000000	25.317065
1514.000000	25.238246
1513.000000	25.164620
1512.000000	25.107707
1511.000000	25.047181
1510.000000	24.960231
1509.000000	24.881298
1508.000000	24.816481
1507.000000	24.736645
1506.000000	24.670585
1505.000000	24.586345
1504.000000	24.514978
1503.000000	24.468680
1502.000000	24.392683
1501.000000	24.314202
1500.000000	24.237980
1499.000000	24.183213
1498.000000	24.124832
1497.000000	24.061821
1496.000000	23.999601
1495.000000	23.939639
1494.000000	23.892551
1493.000000	23.849640
1492.000000	23.806956
1491.000000	23.771724
1490.000000	23.723506
1489.000000	23.666254
1488.000000	23.627409
1487.000000	23.601776
1486.000000	23.568802
1485.000000	23.541927
1484.000000	23.511664
1483.000000	23.470447
1482.000000	23.433860
1481.000000	23.412744
1480.000000	23.397612
1479.000000	23.370059
1478.000000	23.344313
1477.000000	23.340812
1476.000000	23.334263
1475.000000	23.320373
1474.000000	23.301628
1473.000000	23.307049
1472.000000	23.328955
1471.000000	23.316421
1470.000000	23.315856
1469.000000	23.332343
1468.000000	23.336973
1467.000000	23.353911
1466.000000	23.351540
1465.000000	23.373108
1464.000000	23.414325
1463.000000	23.437135
1462.000000	23.452267
1461.000000	23.474061
1460.000000	23.517197
1459.000000	23.572868
1458.000000	23.632942
1457.000000	23.681160
1456.000000	23.743606
1455.000000	23.808311
1454.000000	23.878097
1453.000000	23.945624
1452.000000	24.011571
1451.000000	24.101909
1450.000000	24.189197
1449.000000	24.268356
1448.000000	24.331254
1447.000000	24.419559
1446.000000	24.531465
1445.000000	24.646872
1444.000000	24.739581
1443.000000	24.828112
1442.000000	24.922854
1441.000000	25.025839
1440.000000	25.137406
1439.000000	25.252926
1438.000000	25.380076
1437.000000	25.511630
1436.000000	25.611567
1435.000000	25.743686
1434.000000	25.890033
1433.000000	26.036380
1432.000000	26.182728
1431.000000	26.340028
1430.000000	26.476551
1429.000000	26.648645
1428.000000	26.833838
1427.000000	27.024450
1426.000000	27.231324
1425.000000	27.416404
1424.000000	27.638522
1423.000000	27.882095
1422.000000	28.145317
1421.000000	28.369807
1420.000000	28.619252
1419.000000	28.927304
1418.000000	29.209497
1417.000000	29.488641
1416.000000	29.763494
1415.000000	30.063189
1414.000000	30.411216
1413.000000	30.793910
1412.000000	31.146114
1411.000000	31.457893
1410.000000	31.823422
1409.000000	32.270481
1408.000000	32.733124
1407.000000	33.201977
1406.000000	33.638761
1405.000000	34.090902
1404.000000	34.597019
1403.000000	35.077391
1402.000000	35.545341
1401.000000	36.019163
1400.000000	36.587727
1399.000000	37.163743
1398.000000	37.563714
1397.000000	37.891979
1396.000000	38.320406
1395.000000	38.885695
1394.000000	39.409768
1393.000000	39.801834
1392.000000	40.198643
1391.000000	40.706003
1390.000000	41.202183
1389.000000	41.623609
1388.000000	42.195561
1387.000000	42.826232
1386.000000	43.400216
1385.000000	44.002543
1384.000000	44.617631
1383.000000	45.272467
1382.000000	45.918157
1381.000000	46.524324
1380.000000	47.036201
1379.000000	47.390777
1378.000000	47.706620
1377.000000	47.930093
1376.000000	48.199300
1375.000000	48.450891
1374.000000	48.729922
1373.000000	48.983771
1372.000000	49.311585
1371.000000	49.680728
1370.000000	50.071439
1369.000000	50.401059
1368.000000	50.678170
1367.000000	51.034666
1366.000000	51.289193
1365.000000	51.512779
1364.000000	51.751723
1363.000000	51.970114
1362.000000	52.161066
1361.000000	52.355631
1360.000000	52.583282
1359.000000	52.699028
1358.000000	52.757747
1357.000000	52.907144
1356.000000	53.053152
1355.000000	53.280803
1354.000000	53.618667
1353.000000	53.987584
1352.000000	54.299137
1351.000000	54.764151
1350.000000	55.202289
1349.000000	55.612423
1348.000000	56.035882
1347.000000	56.401637
1346.000000	56.813465
1345.000000	57.117451
1344.000000	57.455541
1343.000000	57.813391
1342.000000	58.141318
1341.000000	58.445756
1340.000000	58.762955
1339.000000	59.074733
1338.000000	59.376801
1337.000000	59.689031
1336.000000	59.967158
1335.000000	60.257030
1334.000000	60.529624
1333.000000	60.821303
1332.000000	61.088364
1331.000000	61.347520
1330.000000	61.600692
1329.000000	61.842572
1328.000000	62.089533
1327.000000	62.294261
1326.000000	62.511298
1325.000000	62.710493
1324.000000	62.909236
1323.000000	63.126272
1322.000000	63.327952
1321.000000	63.490673
1320.000000	63.658475
1319.000000	63.837683
1318.000000	64.010002
1317.000000	64.158382
1316.000000	64.297277
1315.000000	64.461917
1314.000000	64.604086
1313.000000	64.730898
1312.000000	64.843595
1311.000000	64.971310
1310.000000	65.090443
1309.000000	65.216351
1308.000000	65.302624
1307.000000	65.381669
1306.000000	65.468055
1305.000000	65.545294
1304.000000	65.607401
1303.000000	65.688253
1302.000000	65.740875
1301.000000	65.794287
1300.000000	65.833020
1299.000000	65.876608
1298.000000	65.911275
1297.000000	65.931036
1296.000000	65.955202
1295.000000	65.974963
1294.000000	66.001952
1293.000000	66.017196
1292.000000	66.012002
1291.000000	66.030973
1290.000000	66.047346
1289.000000	66.002855
1288.000000	65.992805
1287.000000	65.989191
1286.000000	65.956218
1285.000000	65.916808
1284.000000	65.890949
1283.000000	65.846796
1282.000000	65.808177
1281.000000	65.767299
1280.000000	65.721453
1279.000000	65.666911
1278.000000	65.609321
1277.000000	65.565620
1276.000000	65.538293
1275.000000	65.502609
1274.000000	65.461618
1273.000000	65.436775
1272.000000	65.410465
1271.000000	65.394994
1270.000000	65.369587
1269.000000	65.349712
1268.000000	65.318772
1267.000000	65.300027
1266.000000	65.270893
1265.000000	65.240517
1264.000000	65.225837
1263.000000	65.178974
1262.000000	65.137418
1261.000000	65.101396
1260.000000	65.057131
1259.000000	65.021109
1258.000000	64.976391
1257.000000	64.944547
1256.000000	64.892377
1255.000000	64.827898
1254.000000	64.762968
1253.000000	64.713960
1252.000000	64.648126
1251.000000	64.570210
1250.000000	64.499972
1249.000000	64.410538
1248.000000	64.296260
1247.000000	64.209762
1246.000000	64.115923
1245.000000	64.013390
1244.000000	63.910744
1243.000000	63.797257
1242.000000	63.683092
1241.000000	63.558652
1240.000000	63.442794
1239.000000	63.327839
1238.000000	63.196510
1237.000000	63.074893
1236.000000	62.960615
1235.000000	62.836175
1234.000000	62.721333
1233.000000	62.593844
1232.000000	62.440721
1231.000000	62.290535
1230.000000	62.147010
1229.000000	62.001679
1228.000000	61.854316
1227.000000	61.697580
1226.000000	61.541069
1225.000000	61.380268
1224.000000	61.197447
1223.000000	61.031338
1222.000000	60.860938
1221.000000	60.687603
1220.000000	60.517203
1219.000000	60.337318
1218.000000	60.172903
1217.000000	60.003181
1216.000000	59.832894
1215.000000	59.691289
1214.000000	59.545845
1213.000000	59.385270
1212.000000	59.238922
1211.000000	59.102625
1210.000000	58.959891
1209.000000	58.816254
1208.000000	58.675101
1207.000000	58.545580
1206.000000	58.443724
1205.000000	58.330914
1204.000000	58.245206
1203.000000	58.187277
1202.000000	58.100666
1201.000000	58.017668
1200.000000	57.940655
1199.000000	57.860367
1198.000000	57.770707
1197.000000	57.666592
1196.000000	57.547121
1195.000000	57.386658
1194.000000	57.185769
1193.000000	56.937566
1192.000000	56.656164
1191.000000	56.335690
1190.000000	56.008667
1189.000000	55.680854
1188.000000	55.375399
1187.000000	55.134197
1186.000000	54.997448
1185.000000	54.934776
1184.000000	54.954764
1183.000000	55.098965
1182.000000	55.335876
1181.000000	55.645848
1180.000000	55.998956
1179.000000	56.418349
1178.000000	56.797317
1177.000000	57.154942
1176.000000	57.483207
1175.000000	57.760657
1174.000000	58.039914
1173.000000	58.287665
1172.000000	58.546709
1171.000000	58.788024
1170.000000	59.070329
1169.000000	59.349925
1168.000000	59.617212
1167.000000	59.905503
1166.000000	60.194358
1165.000000	60.494957
1164.000000	60.812382
1163.000000	61.124047
1162.000000	61.441585
1161.000000	61.768156
1160.000000	62.057576
1159.000000	62.366870
1158.000000	62.687795
1157.000000	62.998896
1156.000000	63.284477
1155.000000	63.521275
1154.000000	63.754459
1153.000000	63.962236
1152.000000	64.116714
1151.000000	64.272095
1150.000000	64.389647
1149.000000	64.497375
1148.000000	64.605216
1147.000000	64.733721
1146.000000	64.871148
1145.000000	65.036805
1144.000000	65.253841
1143.000000	65.487929
1142.000000	65.752732
1141.000000	66.041813
1140.000000	66.334846
1139.000000	66.661418
1138.000000	66.985392
1137.000000	67.325401
1136.000000	67.666313
1135.000000	68.050362
1134.000000	68.452817
1133.000000	68.794633
1132.000000	69.059323
1131.000000	69.337676
1130.000000	69.589041
1129.000000	69.825275
1128.000000	70.009112
1127.000000	70.190014
1126.000000	70.298193
1125.000000	70.405356
1124.000000	70.465883
1123.000000	70.550574
1122.000000	70.607374
1121.000000	70.653898
1120.000000	70.650962
1119.000000	70.680548
1118.000000	70.700987
1117.000000	70.689808
1116.000000	70.670498
1115.000000	70.644074
1114.000000	70.625894
1113.000000	70.579031
1112.000000	70.559947
1111.000000	70.520650
1110.000000	70.520763
1109.000000	70.455833
1108.000000	70.439798
1107.000000	70.413148
1106.000000	70.388079
1105.000000	70.355332
1104.000000	70.309937
1103.000000	70.260703
1102.000000	70.244329
1101.000000	70.203113
1100.000000	70.168107
1099.000000	70.124406
1098.000000	70.091658
1097.000000	70.053491
1096.000000	70.005499
1095.000000	69.967895
1094.000000	69.889640
1093.000000	69.821209
1092.000000	69.772427
1091.000000	69.725338
1090.000000	69.657811
1089.000000	69.572667
1088.000000	69.534048
1087.000000	69.464488
1086.000000	69.389733
1085.000000	69.326497
1084.000000	69.226899
1083.000000	69.175633
1082.000000	69.113638
1081.000000	69.019235
1080.000000	68.946513
1079.000000	68.838673
1078.000000	68.786615
1077.000000	68.720330
1076.000000	68.649641
1075.000000	68.533218
1074.000000	68.474159
1073.000000	68.402680
1072.000000	68.325328
1071.000000	68.241426
1070.000000	68.144539
1069.000000	68.065381
1068.000000	67.979786
1067.000000	67.909322
1066.000000	67.829260
1065.000000	67.747166
1064.000000	67.652763
1063.000000	67.552149
1062.000000	67.460343
1061.000000	67.378474
1060.000000	67.295251
1059.000000	67.202541
1058.000000	67.104525
1057.000000	67.008202
1056.000000	66.911654
1055.000000	66.827865
1054.000000	66.735269
1053.000000	66.611506
1052.000000	66.541833
1051.000000	66.446075
1050.000000	66.345800
1049.000000	66.265286
1048.000000	66.181498
1047.000000	66.105501
1046.000000	66.021035
1045.000000	65.934311
1044.000000	65.856169
1043.000000	65.776897
1042.000000	65.687011
1041.000000	65.605933
1040.000000	65.521580
1039.000000	65.446035
1038.000000	65.377153
1037.000000	65.282411
1036.000000	65.212963
1035.000000	65.134144
1034.000000	65.030933
1033.000000	64.945902
1032.000000	64.854548
1031.000000	64.771550
1030.000000	64.695215
1029.000000	64.595843
1028.000000	64.502908
1027.000000	64.400826
1026.000000	64.320877
1025.000000	64.231217
1024.000000	64.129587
1023.000000	64.055397
1022.000000	63.949815
1021.000000	63.841635
1020.000000	63.765864
1019.000000	63.684221
1018.000000	63.593997
1017.000000	63.509757
1016.000000	63.436696
1015.000000	63.362619
1014.000000	63.298140
1013.000000	63.214013
1012.000000	63.181717
1011.000000	63.119723
1010.000000	63.031644
1009.000000	63.008269
1008.000000	62.958470
1007.000000	62.910026
1006.000000	62.872423
1005.000000	62.844080
1004.000000	62.825786
1003.000000	62.766615
1002.000000	62.714106
1001.000000	62.690167
1000.000000	62.663856
999.000000	62.635060
998.000000	62.589666
997.000000	62.537383
996.000000	62.504184
995.000000	62.481712
994.000000	62.468500
993.000000	62.440044
992.000000	62.400634
991.000000	62.384373
990.000000	62.355691
989.000000	62.338978
988.000000	62.331074
987.000000	62.309054
986.000000	62.269079
985.000000	62.261175
984.000000	62.275290
983.000000	62.244349
982.000000	62.208779
981.000000	62.205052
980.000000	62.179306
979.000000	62.175918
978.000000	62.175467
977.000000	62.159771
976.000000	62.128491
975.000000	62.119006
974.000000	62.110875
973.000000	62.087952
972.000000	62.070788
971.000000	62.064012
970.000000	62.051026
969.000000	62.029797
968.000000	62.033862
967.000000	62.002018
966.000000	62.002809
965.000000	62.039847
964.000000	62.035330
963.000000	62.002583
962.000000	61.991629
961.000000	62.007664
960.000000	62.019634
959.000000	62.021328
958.000000	62.025393
957.000000	62.018843
956.000000	62.040863
955.000000	62.046622
954.000000	62.015117
953.000000	62.022909
952.000000	62.024264
951.000000	61.991629
950.000000	61.996824
949.000000	61.995920
948.000000	61.961479
947.000000	61.949961
946.000000	61.937652
945.000000	61.904566
944.000000	61.888418
943.000000	61.885143
942.000000	61.855671
941.000000	61.811179
940.000000	61.775044
939.000000	61.761381
938.000000	61.736538
937.000000	61.687191
936.000000	61.654330
935.000000	61.649136
934.000000	61.623277
933.000000	61.573817
932.000000	61.549538
931.000000	61.521534
930.000000	61.514420
929.000000	61.486415
928.000000	61.434245
927.000000	61.372702
926.000000	61.345375
925.000000	61.302013
924.000000	61.228162
923.000000	61.168200
922.000000	61.109593
921.000000	61.048502
920.000000	61.037097
919.000000	61.000736
918.000000	60.915141
917.000000	60.839709
916.000000	60.764277
915.000000	60.705783
914.000000	60.638933
913.000000	60.571518
912.000000	60.511218
911.000000	60.448546
910.000000	60.400441
909.000000	60.355611
908.000000	60.287067
907.000000	60.242802
906.000000	60.213216
905.000000	60.171999
904.000000	60.134848
903.000000	60.070143
902.000000	60.026330
901.000000	60.000696
900.000000	59.978676
899.000000	59.953946
898.000000	59.904938
897.000000	59.881563
896.000000	59.822279
895.000000	59.761527
894.000000	59.728102
893.000000	59.679432
892.000000	59.625455
891.000000	59.549120
890.000000	59.466687
889.000000	59.379624
888.000000	59.310289
887.000000	59.252586
886.000000	59.188559
885.000000	59.080944
884.000000	58.979879
883.000000	58.876103
882.000000	58.783281
881.000000	58.667310
880.000000	58.575843
879.000000	58.407814
878.000000	58.253337
877.000000	58.123137
876.000000	57.941445
875.000000	57.730506
874.000000	57.529505
873.000000	57.276107
872.000000	56.994592
871.000000	56.822950
870.000000	56.800140
869.000000	56.815610
868.000000	56.850051
867.000000	56.866538
866.000000	56.888445
865.000000	56.908997
864.000000	56.913965
863.000000	56.922886
862.000000	56.955295
861.000000	56.991769
860.000000	56.991317
859.000000	57.017628
858.000000	57.049133
857.000000	56.298300
856.000000	57.580400
855.000000	57.268700
854.000000	57.103200
853.000000	57.331200
852.000000	57.281100
851.000000	57.363800
850.000000	57.560200
849.000000	57.836400
848.000000	57.396200
847.000000	57.563700
846.000000	57.386700
845.000000	57.636700
844.000000	57.207100
843.000000	57.428600
842.000000	57.524900
841.000000	57.470400
840.000000	57.316200
839.000000	57.303100
838.000000	57.135800
837.000000	57.043200
836.000000	57.271500
835.000000	57.239000
834.000000	57.346000
833.000000	56.983500
832.000000	56.984300
831.000000	56.996200
830.000000	57.066400
829.000000	56.839900
828.000000	56.852900
827.000000	56.755900
826.000000	56.866900
825.000000	56.618000
824.000000	56.550200
823.000000	56.407400
822.000000	56.266500
821.000000	56.302800
820.000000	56.222600
819.000000	56.139100
818.000000	55.969400
817.000000	55.859600
816.000000	55.849300
815.000000	55.804500
814.000000	55.721900
813.000000	55.606100
812.000000	55.393700
811.000000	55.412400
810.000000	55.247100
809.000000	55.186100
808.000000	55.084100
807.000000	55.008700
806.000000	54.846200
805.000000	54.870200
804.000000	54.556200
803.000000	54.538500
802.000000	54.364900
801.000000	54.165500
800.000000	54.195700
799.000000	53.892000
798.000000	53.812900
797.000000	53.703900
796.000000	53.607900
795.000000	53.493000
794.000000	53.196800
793.000000	53.010600
792.000000	53.033200
791.000000	52.860700
790.000000	52.578100
789.000000	52.535000
788.000000	52.228600
787.000000	52.209000
786.000000	51.935900
785.000000	51.594000
784.000000	51.495100
783.000000	51.365800
782.000000	51.115700
781.000000	50.871800
780.000000	50.595700
779.000000	50.377400
778.000000	50.240000
777.000000	50.070500
776.000000	49.662900
775.000000	49.501300
774.000000	49.265800
773.000000	49.042000
772.000000	48.708000
771.000000	48.409500
770.000000	48.145100
769.000000	47.931200
768.000000	47.617300
767.000000	47.420300
766.000000	47.053900
765.000000	46.795000
764.000000	46.494600
763.000000	46.175800
762.000000	45.897400
761.000000	45.542600
760.000000	45.182700
759.000000	44.966400
758.000000	44.669200
757.000000	44.272500
756.000000	44.088900
755.000000	43.748500
754.000000	43.412800
753.000000	43.067100
752.000000	42.795900
751.000000	42.515600
750.000000	42.231600
749.000000	41.852300
748.000000	41.567100
747.000000	41.233400
746.000000	40.885400
745.000000	40.656400
744.000000	40.379200
743.000000	39.985900
742.000000	39.695000
741.000000	39.471000
740.000000	39.117000
739.000000	38.804300
738.000000	38.531100
737.000000	38.294100
736.000000	38.047900
735.000000	37.709500
734.000000	37.432200
733.000000	37.162100
732.000000	36.884700
731.000000	36.688500
730.000000	36.389900
729.000000	36.119600
728.000000	35.855800
727.000000	35.602300
726.000000	35.349700
725.000000	35.127700
724.000000	34.917200
723.000000	34.615300
722.000000	34.387100
721.000000	34.179700
720.000000	33.963300
719.000000	33.730700
718.000000	33.499200
717.000000	33.322900
716.000000	33.120800
715.000000	32.910800
714.000000	32.748100
713.000000	32.555200
712.000000	32.301600
711.000000	32.132800
710.000000	31.971000
709.000000	31.783000
708.000000	31.569700
707.000000	31.378500
706.000000	31.188000
705.000000	31.042100
704.000000	30.909100
703.000000	30.734900
702.000000	30.525700
701.000000	30.348500
700.000000	30.202600
699.000000	30.062900
698.000000	29.866700
697.000000	29.744200
696.000000	29.600800
695.000000	29.506100
694.000000	29.344400
693.000000	29.174100
692.000000	29.055300
691.000000	28.916700
690.000000	28.765200
689.000000	28.653700
688.000000	28.541300
687.000000	28.411800
686.000000	28.304500
685.000000	28.191800
684.000000	28.069700
683.000000	27.959900
682.000000	27.857400
681.000000	27.768800
680.000000	27.663000
679.000000	27.564500
678.000000	27.475300
677.000000	27.392000
676.000000	27.304200
675.000000	27.209200
674.000000	27.150800
673.000000	27.054700
672.000000	26.962500
671.000000	26.903500
670.000000	26.837700
669.000000	26.791500
668.000000	26.691400
667.000000	26.662000
666.000000	26.643400
665.000000	26.569600
664.000000	26.509600
663.000000	26.454300
662.000000	26.403900
661.000000	26.369100
660.000000	26.329200
659.000000	26.291400
658.000000	26.274200
657.000000	26.249700
656.000000	26.209700
655.000000	26.183500
654.000000	26.156300
653.000000	26.145700
652.000000	26.133300
651.000000	26.116900
650.000000	26.132000
649.000000	26.138400
648.000000	26.128000
647.000000	26.127700
646.000000	26.129800
645.000000	26.135000
644.000000	26.150300
643.000000	26.171600
642.000000	26.193900
641.000000	26.197700
640.000000	26.226700
639.000000	26.263800
638.000000	26.300900
637.000000	26.369700
636.000000	26.425300
635.000000	26.469100
634.000000	26.532300
633.000000	26.593000
632.000000	26.651300
631.000000	26.714500
630.000000	26.790800
629.000000	26.874500
628.000000	26.950900
627.000000	27.029000
626.000000	27.119200
625.000000	27.213000
624.000000	27.303800
623.000000	27.380500
622.000000	27.467600
621.000000	27.569400
620.000000	27.664600
619.000000	27.751300
618.000000	27.834800
617.000000	27.931000
616.000000	28.019200
615.000000	28.127900
614.000000	28.216600
613.000000	28.308200
612.000000	28.401900
611.000000	28.486700
610.000000	28.587300
609.000000	28.652200
608.000000	28.715700
607.000000	28.797600
606.000000	28.879900
605.000000	28.957200
604.000000	29.044300
603.000000	29.092200
602.000000	29.119900
601.000000	29.181900
600.000000	29.234900
599.000000	29.277900
598.000000	29.312700
597.000000	29.340500
596.000000	29.363400
595.000000	29.376900
594.000000	29.392500
593.000000	29.406500
592.000000	29.420300
591.000000	29.421600
590.000000	29.403100
589.000000	29.388700
588.000000	29.373600
587.000000	29.328300
586.000000	29.309600
585.000000	29.274400
584.000000	29.239100
583.000000	29.190000
582.000000	29.127800
581.000000	29.049700
580.000000	28.969200
579.000000	28.896500
578.000000	28.831700
577.000000	28.728000
576.000000	28.641800
575.000000	28.544800
574.000000	28.423300
573.000000	28.294700
572.000000	28.195700
571.000000	28.068200
570.000000	27.917400
569.000000	27.792800
568.000000	27.653500
567.000000	27.496900
566.000000	27.338800
565.000000	27.152800
564.000000	27.003200
563.000000	26.815200
562.000000	26.639900
561.000000	26.460400
560.000000	26.259300
559.000000	26.078900
558.000000	25.903100
557.000000	25.692700
556.000000	25.493700
555.000000	25.278400
554.000000	25.079600
553.000000	24.856200
552.000000	24.623000
551.000000	24.390500
550.000000	24.148000
549.000000	23.909100
548.000000	23.681800
547.000000	23.450200
546.000000	23.191600
545.000000	22.961200
544.000000	22.711200
543.000000	22.469300
542.000000	22.224100
541.000000	21.946800
540.000000	21.700400
539.000000	21.443900
538.000000	21.186900
537.000000	20.929300
536.000000	20.671500
535.000000	20.421400
534.000000	20.153400
533.000000	19.902700
532.000000	19.622200
531.000000	19.386000
530.000000	19.116000
529.000000	18.877600
528.000000	18.626500
527.000000	18.371500
526.000000	18.134500
525.000000	17.876000
524.000000	17.629000
523.000000	17.382300
522.000000	17.141200
521.000000	16.910900
520.000000	16.686600
519.000000	16.451400
518.000000	16.247200
517.000000	16.023900
516.000000	15.801000
515.000000	15.580800
514.000000	15.381300
513.000000	15.182800
512.000000	14.974700
511.000000	14.808800
510.000000	14.621800
509.000000	14.443600
508.000000	14.261800
507.000000	14.098400
506.000000	13.921700
505.000000	13.749300
504.000000	13.627200
503.000000	13.465500
502.000000	13.326300
501.000000	13.193200
500.000000	13.083300
499.000000	12.936800
498.000000	12.821500
497.000000	12.687100
496.000000	12.581400
495.000000	12.469600
494.000000	12.374100
493.000000	12.270900
492.000000	12.168600
491.000000	12.073000
490.000000	11.956200
489.000000	11.895700
488.000000	11.786700
487.000000	11.727800
486.000000	11.639500
485.000000	11.574200
484.000000	11.485600
483.000000	11.402100
482.000000	11.318800
481.000000	11.220500
480.000000	11.112400
479.000000	11.047000
478.000000	10.950300
477.000000	10.847900
476.000000	10.783400
475.000000	10.707200
474.000000	10.605700
473.000000	10.521900
472.000000	10.418200
471.000000	10.352800
470.000000	10.267600
469.000000	10.164100
468.000000	10.105600
467.000000	10.032500
466.000000	9.947700
465.000000	9.871100
464.000000	9.786000
463.000000	9.723500
462.000000	9.642700
461.000000	9.577700
460.000000	9.496900
459.000000	9.415900
458.000000	9.364200
457.000000	9.265600
456.000000	9.183600
455.000000	9.115400
454.000000	9.066200
453.000000	8.987900
452.000000	8.901000
451.000000	8.834000
450.000000	8.752500
449.000000	8.680400
448.000000	8.609300
447.000000	8.550300
446.000000	8.477800
445.000000	8.382800
444.000000	8.312200
443.000000	8.232000
442.000000	8.157800
441.000000	8.059300
440.000000	8.014900
439.000000	7.916600
438.000000	7.845500
437.000000	7.760600
436.000000	7.676200
435.000000	7.619100
434.000000	7.538000
433.000000	7.479700
432.000000	7.390600
431.000000	7.339900
430.000000	7.243500
429.000000	7.203600
428.000000	7.135800
427.000000	7.056900
426.000000	7.001800
425.000000	6.931400
424.000000	6.866700
423.000000	6.816800
422.000000	6.745500
421.000000	6.677700
420.000000	6.629900
419.000000	6.576400
418.000000	6.526400
417.000000	6.464600
416.000000	6.405600
415.000000	6.350100
414.000000	6.291500
413.000000	6.247400
412.000000	6.187400
411.000000	6.139700
410.000000	6.094900
409.000000	6.039100
408.000000	5.994700
407.000000	5.931400
406.000000	5.870200
405.000000	5.843700
404.000000	5.795300
403.000000	5.757600
402.000000	5.699800
401.000000	5.665400
400.000000	5.629900
399.000000	5.563700
398.000000	5.518400
397.000000	5.483700
396.000000	5.455100
395.000000	5.411000
394.000000	5.398100
393.000000	5.365400
392.000000	5.316600
391.000000	5.271600
390.000000	5.239400
389.000000	5.216900
388.000000	5.182700
387.000000	5.158600
386.000000	5.127200
385.000000	5.098000
384.000000	5.092900
383.000000	5.061800
382.000000	5.020000
381.000000	4.981900
380.000000	4.965900
379.000000	4.958200
378.000000	4.930800
377.000000	4.907800
376.000000	4.905300
375.000000	4.734100
374.000000	4.484000
373.000000	4.591100
372.000000	4.622100
371.000000	4.659300
370.000000	4.655700
369.000000	4.597400
368.000000	4.583200
367.000000	4.650300
366.000000	4.773900
365.000000	4.680800
364.000000	4.560600
363.000000	4.572800
362.000000	4.643800
361.000000	4.524300
360.000000	4.583100
359.000000	4.662800
358.000000	4.715700
357.000000	4.691400
356.000000	4.623300
355.000000	4.650500
354.000000	4.669600
353.000000	4.713700
352.000000	4.824800
351.000000	4.837400
350.000000	4.695000
349.000000	4.706700
348.000000	4.725400
347.000000	4.683900
346.000000	4.748900
345.000000	4.676100
344.000000	4.591700
343.000000	4.599700
342.000000	4.619500
341.000000	4.672000
340.000000	4.732100
339.000000	4.785700
338.000000	4.718000
337.000000	4.489500
336.000000	4.520000
335.000000	4.673000
334.000000	4.810500
333.000000	4.976100
332.000000	5.040000
331.000000	5.034600
330.000000	4.858600
329.000000	4.943900
328.000000	5.037000
327.000000	4.819100
326.000000	4.879400
325.000000	5.063600
324.000000	5.366900
323.000000	5.376300
322.000000	5.228800
321.000000	5.271800
320.000000	5.045100
319.000000	5.178100
318.000000	5.230900
317.000000	5.188400
316.000000	4.927100
315.000000	4.650400
314.000000	4.676900
313.000000	4.703300
312.000000	4.692700
311.000000	4.704700
310.000000	4.709300
309.000000	4.683700
308.000000	4.666500
307.000000	4.716500
306.000000	4.694500
305.000000	4.685000
304.000000	4.705900
303.000000	4.682300
302.000000	4.692000
301.000000	4.735900
300.000000	4.732300
299.000000	4.745800
298.000000	4.717500
297.000000	4.721700
296.000000	4.744800
295.000000	4.756300
294.000000	4.746600
293.000000	4.775600
292.000000	4.801400
291.000000	4.793300
290.000000	4.792000
289.000000	4.790800
288.000000	4.780200
287.000000	4.820800
286.000000	4.818600
285.000000	4.833800
284.000000	4.820200
283.000000	4.837500
282.000000	4.840700
281.000000	4.857400
280.000000	4.898500
279.000000	4.875500
278.000000	4.864300
277.000000	4.919200
276.000000	4.916600
275.000000	4.910900
274.000000	4.965200
273.000000	4.942100
272.000000	4.955700
271.000000	4.984700
270.000000	4.992200
269.000000	5.002900
268.000000	4.995000
267.000000	5.020700
266.000000	5.057200
265.000000	5.089600
264.000000	5.080300
263.000000	5.099600
262.000000	5.137700
261.000000	5.145000
260.000000	5.168200
259.000000	5.164200
258.000000	5.204100
257.000000	5.239700
256.000000	5.215300
255.000000	5.250800
254.000000	5.288100
253.000000	5.282500
252.000000	5.287800
251.000000	5.326700
250.000000	5.310800
