PE UV       SUBTECH     SPECTRUM    ASCII       PEDS        4.00        
   -1
CICIMAUCR0232-3.Sample.ASC
24/06/13
17:20:27.00
24/06/13
17:20:27.00
Vinicio Soto Monge
C. resplendens. Sex M. Dorsal.
250,000000
1
Lambda 1050
1050L1511233
PerkinElmer UV WinLab 6.3.2.0749 / 2.02.05 Lambda 900 UV/VIS/NIR, Aug  7 2015 09:38:08

0
0
3350/servo 860,8/2
0
0
UV/VIS
1
1
1
DoubleDePol,CommonBeamDepol,RBeamAtt,SBeamAtt,60mm sphere, WB InGaAs Detector
0
0
0
0
Program
Program
3350/servo 860,8/2
3350/0,2 860,8/0,2
3350/0,2 860,8/0,2
0
15.00
 
 
 
0
 
860,8
319,2
860,8
Front
100
on
S:100 R:100
0
0
0
0
 
0
 
 
 
0
 
 
0
0
0
0
0
 
 
 
 
0
0


0
0
#HDR
-1
-1
#GR
nm
%R
1.0
0.0
2500,000000
-1,000000
2251
8
94,018800
5,873500
#DATA
2482.000000	7.958385
2481.000000	7.937338
2480.000000	7.971997
2479.000000	7.966238
2478.000000	7.996918
2477.000000	7.939223
2476.000000	7.989379
2475.000000	7.975243
2474.000000	7.909066
2473.000000	7.946448
2472.000000	8.019326
2471.000000	8.019431
2470.000000	8.017860
2469.000000	7.999955
2468.000000	8.001421
2467.000000	8.017546
2466.000000	8.012729
2465.000000	8.044352
2464.000000	8.072205
2463.000000	8.096707
2462.000000	8.084351
2461.000000	8.149690
2460.000000	8.153564
2459.000000	8.218170
2458.000000	8.242673
2457.000000	8.331362
2456.000000	8.392932
2455.000000	8.400471
2454.000000	8.467485
2453.000000	8.506856
2452.000000	8.585703
2451.000000	8.631042
2450.000000	8.697952
2449.000000	8.767270
2448.000000	8.799416
2447.000000	8.857949
2446.000000	8.954910
2445.000000	9.012815
2444.000000	9.091243
2443.000000	9.149357
2442.000000	9.186320
2441.000000	9.265795
2440.000000	9.325689
2439.000000	9.394693
2438.000000	9.454168
2437.000000	9.502335
2436.000000	9.581600
2435.000000	9.624531
2434.000000	9.665682
2433.000000	9.731755
2432.000000	9.792486
2431.000000	9.836988
2430.000000	9.890181
2429.000000	9.945573
2428.000000	10.008922
2427.000000	10.053214
2426.000000	10.065256
2425.000000	10.112690
2424.000000	10.164312
2423.000000	10.203369
2422.000000	10.253211
2421.000000	10.288707
2420.000000	10.320539
2419.000000	10.358549
2418.000000	10.384517
2417.000000	10.414569
2416.000000	10.450066
2415.000000	10.478233
2414.000000	10.509960
2413.000000	10.536033
2412.000000	10.585037
2411.000000	10.614565
2410.000000	10.625141
2409.000000	10.655402
2408.000000	10.688700
2407.000000	10.700009
2406.000000	10.731945
2405.000000	10.760950
2404.000000	10.791316
2403.000000	10.827231
2402.000000	10.853304
2401.000000	10.873723
2400.000000	10.911942
2399.000000	10.948904
2398.000000	10.969428
2397.000000	11.007333
2396.000000	11.035604
2395.000000	11.063248
2394.000000	11.087017
2393.000000	11.113928
2392.000000	11.155497
2391.000000	11.180209
2390.000000	11.191832
2389.000000	11.212983
2388.000000	11.236752
2387.000000	11.250574
2386.000000	11.252459
2385.000000	11.261150
2384.000000	11.285233
2383.000000	11.282406
2382.000000	11.283872
2381.000000	11.299893
2380.000000	11.287013
2379.000000	11.269527
2378.000000	11.266176
2377.000000	11.266176
2376.000000	11.275076
2375.000000	11.276333
2374.000000	11.253925
2373.000000	11.228062
2372.000000	11.215078
2371.000000	11.192774
2370.000000	11.168482
2369.000000	11.147330
2368.000000	11.124503
2367.000000	11.086703
2366.000000	11.035919
2365.000000	10.999270
2364.000000	10.961993
2363.000000	10.909743
2362.000000	10.864822
2361.000000	10.830792
2360.000000	10.775714
2359.000000	10.726291
2358.000000	10.686606
2357.000000	10.627654
2356.000000	10.591110
2355.000000	10.571215
2354.000000	10.544200
2353.000000	10.522734
2352.000000	10.512054
2351.000000	10.508075
2350.000000	10.528912
2349.000000	10.540116
2348.000000	10.557498
2347.000000	10.594984
2346.000000	10.618544
2345.000000	10.646083
2344.000000	10.674983
2343.000000	10.716762
2342.000000	10.774772
2341.000000	10.829849
2340.000000	10.853723
2339.000000	10.857911
2338.000000	10.880529
2337.000000	10.895398
2336.000000	10.898958
2335.000000	10.903356
2334.000000	10.903251
2333.000000	10.892570
2332.000000	10.876026
2331.000000	10.840425
2330.000000	10.815504
2329.000000	10.773306
2328.000000	10.719589
2327.000000	10.687548
2326.000000	10.629120
2325.000000	10.572367
2324.000000	10.499803
2323.000000	10.423783
2322.000000	10.362109
2321.000000	10.270069
2320.000000	10.181380
2319.000000	10.092900
2318.000000	9.992692
2317.000000	9.897615
2316.000000	9.817617
2315.000000	9.710394
2314.000000	9.588197
2313.000000	9.506104
2312.000000	9.426629
2311.000000	9.338359
2310.000000	9.266318
2309.000000	9.208728
2308.000000	9.157734
2307.000000	9.113232
2306.000000	9.097630
2305.000000	9.082971
2304.000000	9.088730
2303.000000	9.126007
2302.000000	9.176372
2301.000000	9.228099
2300.000000	9.287365
2299.000000	9.369458
2298.000000	9.439718
2297.000000	9.538983
2296.000000	9.627568
2295.000000	9.687148
2294.000000	9.763796
2293.000000	9.840339
2292.000000	9.903479
2291.000000	9.955415
2290.000000	10.000755
2289.000000	10.037089
2288.000000	10.050806
2287.000000	10.045361
2286.000000	10.046618
2285.000000	10.042848
2284.000000	10.023163
2283.000000	9.982430
2282.000000	9.942431
2281.000000	9.897825
2280.000000	9.858558
2279.000000	9.817198
2278.000000	9.747880
2277.000000	9.722331
2276.000000	9.681389
2275.000000	9.628720
2274.000000	9.586103
2273.000000	9.575841
2272.000000	9.561182
2271.000000	9.566836
2270.000000	9.575422
2269.000000	9.585056
2268.000000	9.607673
2267.000000	9.676363
2266.000000	9.754267
2265.000000	9.835313
2264.000000	9.952693
2263.000000	10.094051
2262.000000	10.222950
2261.000000	10.418757
2260.000000	10.594147
2259.000000	10.762939
2258.000000	10.975815
2257.000000	11.210994
2256.000000	11.434969
2255.000000	11.648158
2254.000000	11.881138
2253.000000	12.107103
2252.000000	12.327203
2251.000000	12.523430
2250.000000	12.742065
2249.000000	12.944155
2248.000000	13.118497
2247.000000	13.309279
2246.000000	13.472417
2245.000000	13.622886
2244.000000	13.742988
2243.000000	13.885603
2242.000000	14.008742
2241.000000	14.125494
2240.000000	14.242351
2239.000000	14.333553
2238.000000	14.434912
2237.000000	14.498053
2236.000000	14.587370
2235.000000	14.642029
2234.000000	14.713755
2233.000000	14.770089
2232.000000	14.815848
2231.000000	14.853229
2230.000000	14.885375
2229.000000	14.902966
2228.000000	14.920453
2227.000000	14.934065
2226.000000	14.964955
2225.000000	14.957939
2224.000000	14.967258
2223.000000	14.966735
2222.000000	14.956787
2221.000000	14.927259
2220.000000	14.889249
2219.000000	14.862862
2218.000000	14.837523
2217.000000	14.819827
2216.000000	14.797209
2215.000000	14.778466
2214.000000	14.721190
2213.000000	14.717106
2212.000000	14.668416
2211.000000	14.647893
2210.000000	14.623705
2209.000000	14.597318
2208.000000	14.582554
2207.000000	14.570407
2206.000000	14.545905
2205.000000	14.507581
2204.000000	14.525277
2203.000000	14.492712
2202.000000	14.484754
2201.000000	14.462032
2200.000000	14.449991
2199.000000	14.445488
2198.000000	14.408107
2197.000000	14.406955
2196.000000	14.410096
2195.000000	14.385803
2194.000000	14.378160
2193.000000	14.346746
2192.000000	14.337323
2191.000000	14.335857
2190.000000	14.319731
2189.000000	14.291460
2188.000000	14.275648
2187.000000	14.279523
2186.000000	14.254392
2185.000000	14.234183
2184.000000	14.222456
2183.000000	14.215545
2182.000000	14.216173
2181.000000	14.176907
2180.000000	14.165179
2179.000000	14.151148
2178.000000	14.121515
2177.000000	14.126541
2176.000000	14.118793
2175.000000	14.105599
2174.000000	14.110521
2173.000000	14.094500
2172.000000	14.102458
2171.000000	14.090416
2170.000000	14.098898
2169.000000	14.104866
2168.000000	14.095861
2167.000000	14.110939
2166.000000	14.131044
2165.000000	14.156802
2164.000000	14.159106
2163.000000	14.181619
2162.000000	14.205493
2161.000000	14.230623
2160.000000	14.254183
2159.000000	14.269575
2158.000000	14.301721
2157.000000	14.329679
2156.000000	14.359312
2155.000000	14.407059
2154.000000	14.442242
2153.000000	14.460148
2152.000000	14.506325
2151.000000	14.557737
2150.000000	14.592292
2149.000000	14.644018
2148.000000	14.689463
2147.000000	14.717001
2146.000000	14.760561
2145.000000	14.806110
2144.000000	14.816476
2143.000000	14.853229
2142.000000	14.894275
2141.000000	14.952075
2140.000000	14.964012
2139.000000	15.010713
2138.000000	15.053016
2137.000000	15.073330
2136.000000	15.081707
2135.000000	15.130501
2134.000000	15.148616
2133.000000	15.182228
2132.000000	15.182542
2131.000000	15.200448
2130.000000	15.220238
2129.000000	15.233117
2128.000000	15.235211
2127.000000	15.236154
2126.000000	15.237725
2125.000000	15.249661
2124.000000	15.250290
2123.000000	15.228719
2122.000000	15.233536
2121.000000	15.231442
2120.000000	15.228196
2119.000000	15.212699
2118.000000	15.189872
2117.000000	15.178877
2116.000000	15.165370
2115.000000	15.145475
2114.000000	15.130187
2113.000000	15.118669
2112.000000	15.088932
2111.000000	15.062335
2110.000000	15.039508
2109.000000	14.999404
2108.000000	14.980766
2107.000000	14.962651
2106.000000	14.927783
2105.000000	14.898045
2104.000000	14.870402
2103.000000	14.852077
2102.000000	14.825272
2101.000000	14.794801
2100.000000	14.764435
2099.000000	14.739514
2098.000000	14.734907
2097.000000	14.708729
2096.000000	14.674698
2095.000000	14.645380
2094.000000	14.628521
2093.000000	14.597422
2092.000000	14.577423
2091.000000	14.570093
2090.000000	14.556167
2089.000000	14.542973
2088.000000	14.525277
2087.000000	14.505696
2086.000000	14.484021
2085.000000	14.463708
2084.000000	14.445383
2083.000000	14.419939
2082.000000	14.402348
2081.000000	14.380777
2080.000000	14.356903
2079.000000	14.334810
2078.000000	14.311459
2077.000000	14.295439
2076.000000	14.247062
2075.000000	14.196697
2074.000000	14.175755
2073.000000	14.144970
2072.000000	14.099631
2071.000000	14.056385
2070.000000	14.020156
2069.000000	13.970628
2068.000000	13.935550
2067.000000	13.903823
2066.000000	13.860996
2065.000000	13.808432
2064.000000	13.775134
2063.000000	13.740161
2062.000000	13.697544
2061.000000	13.674508
2060.000000	13.643828
2059.000000	13.596185
2058.000000	13.596499
2057.000000	13.606027
2056.000000	13.586656
2055.000000	13.573777
2054.000000	13.589483
2053.000000	13.598698
2052.000000	13.616289
2051.000000	13.658697
2050.000000	13.714821
2049.000000	13.743198
2048.000000	13.792725
2047.000000	13.866755
2046.000000	13.930524
2045.000000	14.015234
2044.000000	14.091882
2043.000000	14.162876
2042.000000	14.235963
2041.000000	14.307375
2040.000000	14.385385
2039.000000	14.464964
2038.000000	14.540774
2037.000000	14.607893
2036.000000	14.669463
2035.000000	14.725064
2034.000000	14.781398
2033.000000	14.836894
2032.000000	14.882339
2031.000000	14.919301
2030.000000	14.966944
2029.000000	15.004116
2028.000000	15.048932
2027.000000	15.076890
2026.000000	15.099507
2025.000000	15.121601
2024.000000	15.146627
2023.000000	15.176364
2022.000000	15.183799
2021.000000	15.201181
2020.000000	15.207044
2019.000000	15.207777
2018.000000	15.226730
2017.000000	15.230500
2016.000000	15.223275
2015.000000	15.219086
2014.000000	15.194898
2013.000000	15.194584
2012.000000	15.174794
2011.000000	15.151758
2010.000000	15.140554
2009.000000	15.108617
2008.000000	15.071131
2007.000000	15.044430
2006.000000	15.015216
2005.000000	14.975426
2004.000000	14.945269
2003.000000	14.894380
2002.000000	14.826737
2001.000000	14.779199
2000.000000	14.739619
1999.000000	14.682761
1998.000000	14.610092
1997.000000	14.544439
1996.000000	14.496063
1995.000000	14.414494
1994.000000	14.348527
1993.000000	14.280046
1992.000000	14.209890
1991.000000	14.132929
1990.000000	14.055757
1989.000000	13.979005
1988.000000	13.911257
1987.000000	13.844871
1986.000000	13.744245
1985.000000	13.673670
1984.000000	13.600897
1983.000000	13.492941
1982.000000	13.414408
1981.000000	13.329174
1980.000000	13.245196
1979.000000	13.161114
1978.000000	13.073786
1977.000000	13.007400
1976.000000	12.913789
1975.000000	12.829812
1974.000000	12.738819
1973.000000	12.674212
1972.000000	12.615575
1971.000000	12.536833
1970.000000	12.447934
1969.000000	12.354951
1968.000000	12.311811
1967.000000	12.205844
1966.000000	12.129615
1965.000000	12.080820
1964.000000	12.015900
1963.000000	11.932027
1962.000000	11.859673
1961.000000	11.797580
1960.000000	11.729728
1959.000000	11.668682
1958.000000	11.607845
1957.000000	11.529941
1956.000000	11.467952
1955.000000	11.423451
1954.000000	11.377588
1953.000000	11.286804
1952.000000	11.242407
1951.000000	11.206910
1950.000000	11.125760
1949.000000	11.076441
1948.000000	11.014767
1947.000000	10.991312
1946.000000	10.953512
1945.000000	10.908486
1944.000000	10.845032
1943.000000	10.829011
1942.000000	10.825975
1941.000000	10.775714
1940.000000	10.774039
1939.000000	10.753515
1938.000000	10.758751
1937.000000	10.774143
1936.000000	10.761264
1935.000000	10.769536
1934.000000	10.789431
1933.000000	10.805975
1932.000000	10.832990
1931.000000	10.883775
1930.000000	10.907125
1929.000000	10.987124
1928.000000	11.023982
1927.000000	11.109634
1926.000000	11.204606
1925.000000	11.279055
1924.000000	11.357064
1923.000000	11.429524
1922.000000	11.535072
1921.000000	11.667844
1920.000000	11.823862
1919.000000	11.985534
1918.000000	12.117050
1917.000000	12.242807
1916.000000	12.372333
1915.000000	12.490970
1914.000000	12.634004
1913.000000	12.847822
1912.000000	13.088445
1911.000000	13.303834
1910.000000	13.480061
1909.000000	13.642676
1908.000000	13.771574
1907.000000	13.966439
1906.000000	14.177744
1905.000000	14.461718
1904.000000	14.734383
1903.000000	15.010085
1902.000000	15.264740
1901.000000	15.513950
1900.000000	15.760961
1899.000000	16.081583
1898.000000	16.407441
1897.000000	16.771832
1896.000000	17.072664
1895.000000	17.317686
1894.000000	17.554644
1893.000000	17.817571
1892.000000	18.155366
1891.000000	18.539233
1890.000000	18.961948
1889.000000	19.341522
1888.000000	19.699944
1887.000000	20.097005
1886.000000	20.484328
1885.000000	20.890393
1884.000000	21.357819
1883.000000	21.856134
1882.000000	22.392355
1881.000000	22.863341
1880.000000	23.370347
1879.000000	23.801962
1878.000000	24.232215
1877.000000	24.708751
1876.000000	25.153559
1875.000000	25.569782
1874.000000	26.001711
1873.000000	26.409033
1872.000000	26.844627
1871.000000	27.234567
1870.000000	27.608801
1869.000000	27.958533
1868.000000	28.296851
1867.000000	28.512135
1866.000000	28.702812
1865.000000	28.831815
1864.000000	28.940713
1863.000000	29.045109
1862.000000	29.127097
1861.000000	29.257776
1860.000000	29.394003
1859.000000	29.532116
1858.000000	29.666145
1857.000000	29.766457
1856.000000	29.819440
1855.000000	29.838812
1854.000000	29.859021
1853.000000	29.922056
1852.000000	29.936192
1851.000000	29.935145
1850.000000	29.911899
1849.000000	29.847712
1848.000000	29.866769
1847.000000	29.935773
1846.000000	29.980903
1845.000000	29.954098
1844.000000	29.854309
1843.000000	29.751902
1842.000000	29.703212
1841.000000	29.717348
1840.000000	29.745620
1839.000000	29.754206
1838.000000	29.733892
1837.000000	29.684050
1836.000000	29.661224
1835.000000	29.655988
1834.000000	29.609811
1833.000000	29.519551
1832.000000	29.405521
1831.000000	29.322068
1830.000000	29.277985
1829.000000	29.245420
1828.000000	29.188353
1827.000000	29.131495
1826.000000	29.085109
1825.000000	29.028775
1824.000000	28.954535
1823.000000	28.875898
1822.000000	28.811501
1821.000000	28.788046
1820.000000	28.816108
1819.000000	28.832339
1818.000000	28.807103
1817.000000	28.739880
1816.000000	28.709304
1815.000000	28.715377
1814.000000	28.708467
1813.000000	28.688676
1812.000000	28.662080
1811.000000	28.648677
1810.000000	28.639672
1809.000000	28.608364
1808.000000	28.556951
1807.000000	28.518522
1806.000000	28.492031
1805.000000	28.449414
1804.000000	28.408472
1803.000000	28.362504
1802.000000	28.327950
1801.000000	28.297479
1800.000000	28.258108
1799.000000	28.204078
1798.000000	28.144603
1797.000000	28.111514
1796.000000	28.071515
1795.000000	28.028584
1794.000000	27.986805
1793.000000	27.945339
1792.000000	27.905026
1791.000000	27.858849
1790.000000	27.813928
1789.000000	27.767018
1788.000000	27.716129
1787.000000	27.664507
1786.000000	27.628173
1785.000000	27.581367
1784.000000	27.520007
1783.000000	27.457076
1782.000000	27.407444
1781.000000	27.356869
1780.000000	27.294252
1779.000000	27.224306
1778.000000	27.165564
1777.000000	27.115093
1776.000000	27.048917
1775.000000	26.965777
1774.000000	26.877506
1773.000000	26.784000
1772.000000	26.686724
1771.000000	26.595522
1770.000000	26.501073
1769.000000	26.412384
1768.000000	26.315213
1767.000000	26.212388
1766.000000	26.117520
1765.000000	26.051658
1764.000000	25.995219
1763.000000	25.956162
1762.000000	25.940246
1761.000000	25.948204
1760.000000	25.984539
1759.000000	26.038883
1758.000000	26.084746
1757.000000	26.142860
1756.000000	26.215529
1755.000000	26.267360
1754.000000	26.320239
1753.000000	26.364531
1752.000000	26.391128
1751.000000	26.396782
1750.000000	26.385473
1749.000000	26.381180
1748.000000	26.345893
1747.000000	26.289664
1746.000000	26.218147
1745.000000	26.141080
1744.000000	26.043490
1743.000000	25.930299
1742.000000	25.786532
1741.000000	25.621928
1740.000000	25.457533
1739.000000	25.253348
1738.000000	25.053457
1737.000000	24.857963
1736.000000	24.699851
1735.000000	24.559749
1734.000000	24.444986
1733.000000	24.369909
1732.000000	24.335669
1731.000000	24.329386
1730.000000	24.363208
1729.000000	24.447081
1728.000000	24.535979
1727.000000	24.628438
1726.000000	24.709693
1725.000000	24.768226
1724.000000	24.833356
1723.000000	24.893145
1722.000000	24.932621
1721.000000	24.972935
1720.000000	25.010002
1719.000000	25.038169
1718.000000	25.086231
1717.000000	25.132827
1716.000000	25.182250
1715.000000	25.251359
1714.000000	25.314289
1713.000000	25.396591
1712.000000	25.490307
1711.000000	25.549363
1710.000000	25.582033
1709.000000	25.611142
1708.000000	25.608420
1707.000000	25.608106
1706.000000	25.598263
1705.000000	25.570829
1704.000000	25.512296
1703.000000	25.449365
1702.000000	25.381513
1701.000000	25.301515
1700.000000	25.196386
1699.000000	25.045813
1698.000000	24.914087
1697.000000	24.764876
1696.000000	24.655663
1695.000000	24.559120
1694.000000	24.540168
1693.000000	24.570010
1692.000000	24.636606
1691.000000	24.757441
1690.000000	24.889795
1689.000000	24.999740
1688.000000	25.113351
1687.000000	25.205705
1686.000000	25.280887
1685.000000	25.314708
1684.000000	25.373660
1683.000000	25.453449
1682.000000	25.598787
1681.000000	25.874698
1680.000000	26.206733
1679.000000	26.635521
1678.000000	27.096245
1677.000000	27.560216
1676.000000	28.000626
1675.000000	28.418001
1674.000000	28.805637
1673.000000	29.138092
1672.000000	29.409500
1671.000000	29.664679
1670.000000	29.874623
1669.000000	30.045195
1668.000000	30.260584
1667.000000	30.353567
1666.000000	30.498066
1665.000000	30.601206
1664.000000	30.711884
1663.000000	30.797433
1662.000000	30.864238
1661.000000	30.957115
1660.000000	31.021722
1659.000000	31.076485
1658.000000	31.149782
1657.000000	31.178682
1656.000000	31.206954
1655.000000	31.235644
1654.000000	31.235016
1653.000000	31.242346
1652.000000	31.251665
1651.000000	31.248628
1650.000000	31.216063
1649.000000	31.216063
1648.000000	31.194493
1647.000000	31.169363
1646.000000	31.130201
1645.000000	31.110411
1644.000000	31.057951
1643.000000	31.020465
1642.000000	30.977324
1641.000000	30.940676
1640.000000	30.864447
1639.000000	30.805914
1638.000000	30.763192
1637.000000	30.722670
1636.000000	30.652200
1635.000000	30.599007
1634.000000	30.520579
1633.000000	30.461732
1632.000000	30.384980
1631.000000	30.313253
1630.000000	30.255034
1629.000000	30.180690
1628.000000	30.091477
1627.000000	30.037342
1626.000000	29.954516
1625.000000	29.869492
1624.000000	29.788865
1623.000000	29.694940
1622.000000	29.607193
1621.000000	29.552220
1620.000000	29.457981
1619.000000	29.398820
1618.000000	29.321439
1617.000000	29.223954
1616.000000	29.153170
1615.000000	29.095684
1614.000000	29.021445
1613.000000	28.953907
1612.000000	28.867102
1611.000000	28.806789
1610.000000	28.742288
1609.000000	28.672760
1608.000000	28.603861
1607.000000	28.509517
1606.000000	28.448053
1605.000000	28.366693
1604.000000	28.289626
1603.000000	28.231722
1602.000000	28.139367
1601.000000	28.076960
1600.000000	27.994763
1599.000000	27.929738
1598.000000	27.864713
1597.000000	27.788798
1596.000000	27.730370
1595.000000	27.674140
1594.000000	27.605346
1593.000000	27.531106
1592.000000	27.473830
1591.000000	27.420114
1590.000000	27.363884
1589.000000	27.315194
1588.000000	27.257499
1587.000000	27.224620
1586.000000	27.164307
1585.000000	27.122423
1584.000000	27.085460
1583.000000	27.048184
1582.000000	27.016247
1581.000000	26.976981
1580.000000	26.929128
1579.000000	26.910909
1578.000000	26.868292
1577.000000	26.847664
1576.000000	26.826198
1575.000000	26.811643
1574.000000	26.804837
1573.000000	26.804314
1572.000000	26.785047
1571.000000	26.780335
1570.000000	26.784105
1569.000000	26.776984
1568.000000	26.787246
1567.000000	26.803895
1566.000000	26.812900
1565.000000	26.821696
1564.000000	26.824942
1563.000000	26.833842
1562.000000	26.844837
1561.000000	26.850072
1560.000000	26.856983
1559.000000	26.843580
1558.000000	26.841486
1557.000000	26.847245
1556.000000	26.849130
1555.000000	26.835203
1554.000000	26.819916
1553.000000	26.813319
1552.000000	26.803162
1551.000000	26.776251
1550.000000	26.759707
1549.000000	26.754367
1548.000000	26.730703
1547.000000	26.698661
1546.000000	26.679709
1545.000000	26.664735
1544.000000	26.647772
1543.000000	26.633532
1542.000000	26.621804
1541.000000	26.598244
1540.000000	26.571229
1539.000000	26.560863
1538.000000	26.549973
1537.000000	26.544842
1536.000000	26.526099
1535.000000	26.497094
1534.000000	26.488613
1533.000000	26.462121
1532.000000	26.420865
1531.000000	26.400656
1530.000000	26.370395
1529.000000	26.328825
1528.000000	26.291025
1527.000000	26.261811
1526.000000	26.225058
1525.000000	26.177205
1524.000000	26.128201
1523.000000	26.075217
1522.000000	26.033438
1521.000000	25.985690
1520.000000	25.927786
1519.000000	25.883389
1518.000000	25.840772
1517.000000	25.780668
1516.000000	25.725067
1515.000000	25.663707
1514.000000	25.605698
1513.000000	25.556588
1512.000000	25.491145
1511.000000	25.428842
1510.000000	25.368634
1509.000000	25.299106
1508.000000	25.233663
1507.000000	25.168009
1506.000000	25.101518
1505.000000	25.037750
1504.000000	24.964244
1503.000000	24.893774
1502.000000	24.833775
1501.000000	24.769588
1500.000000	24.721421
1499.000000	24.666972
1498.000000	24.607915
1497.000000	24.555246
1496.000000	24.507184
1495.000000	24.457133
1494.000000	24.407710
1493.000000	24.371480
1492.000000	24.325826
1491.000000	24.281324
1490.000000	24.240278
1489.000000	24.204363
1488.000000	24.175881
1487.000000	24.148971
1486.000000	24.112532
1485.000000	24.075779
1484.000000	24.049706
1483.000000	24.008659
1482.000000	23.986356
1481.000000	23.982901
1480.000000	23.968974
1479.000000	23.952116
1478.000000	23.932430
1477.000000	23.933687
1476.000000	23.918923
1475.000000	23.917352
1474.000000	23.919865
1473.000000	23.941959
1472.000000	23.957456
1471.000000	23.964472
1470.000000	23.980911
1469.000000	23.998607
1468.000000	23.996199
1467.000000	24.009916
1466.000000	24.047297
1465.000000	24.070124
1464.000000	24.079443
1463.000000	24.104783
1462.000000	24.146667
1461.000000	24.182164
1460.000000	24.237974
1459.000000	24.268131
1458.000000	24.327397
1457.000000	24.374202
1456.000000	24.442369
1455.000000	24.504566
1454.000000	24.584565
1453.000000	24.661527
1452.000000	24.727704
1451.000000	24.811157
1450.000000	24.898800
1449.000000	24.988432
1448.000000	25.050734
1447.000000	25.128638
1446.000000	25.233139
1445.000000	25.331881
1444.000000	25.434706
1443.000000	25.513867
1442.000000	25.582557
1441.000000	25.714596
1440.000000	25.812709
1439.000000	25.909147
1438.000000	25.990088
1437.000000	26.112913
1436.000000	26.206419
1435.000000	26.316470
1434.000000	26.423483
1433.000000	26.539083
1432.000000	26.656568
1431.000000	26.787560
1430.000000	26.909233
1429.000000	27.021587
1428.000000	27.168600
1427.000000	27.320849
1426.000000	27.473725
1425.000000	27.640005
1424.000000	27.819164
1423.000000	27.998637
1422.000000	28.197481
1421.000000	28.386064
1420.000000	28.588364
1419.000000	28.809826
1418.000000	29.046157
1417.000000	29.250865
1416.000000	29.447196
1415.000000	29.669600
1414.000000	29.953155
1413.000000	30.246343
1412.000000	30.495449
1411.000000	30.711466
1410.000000	30.992089
1409.000000	31.334176
1408.000000	31.689667
1407.000000	32.067042
1406.000000	32.394575
1405.000000	32.756349
1404.000000	33.153828
1403.000000	33.532041
1402.000000	33.904809
1401.000000	34.241556
1400.000000	34.699139
1399.000000	35.124891
1398.000000	35.473156
1397.000000	35.707602
1396.000000	36.002570
1395.000000	36.408950
1394.000000	36.793341
1393.000000	37.011138
1392.000000	37.258673
1391.000000	37.592384
1390.000000	37.934681
1389.000000	38.199283
1388.000000	38.534355
1387.000000	39.009320
1386.000000	39.403135
1385.000000	39.881451
1384.000000	40.343641
1383.000000	40.910855
1382.000000	41.432835
1381.000000	41.914397
1380.000000	42.344336
1379.000000	42.620980
1378.000000	42.882651
1377.000000	43.049663
1376.000000	43.241911
1375.000000	43.390285
1374.000000	43.622846
1373.000000	43.858339
1372.000000	44.171213
1371.000000	44.470789
1370.000000	44.829735
1369.000000	45.112347
1368.000000	45.397996
1367.000000	45.680713
1366.000000	45.933902
1365.000000	46.136202
1364.000000	46.356303
1363.000000	46.522582
1362.000000	46.672632
1361.000000	46.869382
1360.000000	47.025086
1359.000000	47.075661
1358.000000	47.177335
1357.000000	47.258275
1356.000000	47.381100
1355.000000	47.564971
1354.000000	47.840254
1353.000000	48.216373
1352.000000	48.548722
1351.000000	48.978976
1350.000000	49.421586
1349.000000	49.824301
1348.000000	50.179896
1347.000000	50.538109
1346.000000	50.872344
1345.000000	51.167417
1344.000000	51.481966
1343.000000	51.808347
1342.000000	52.102059
1341.000000	52.362473
1340.000000	52.662467
1339.000000	52.936494
1338.000000	53.218268
1337.000000	53.462033
1336.000000	53.734594
1335.000000	53.995112
1334.000000	54.225684
1333.000000	54.470077
1332.000000	54.711015
1331.000000	54.966403
1330.000000	55.178965
1329.000000	55.391317
1328.000000	55.575397
1327.000000	55.790053
1326.000000	55.967746
1325.000000	56.153187
1324.000000	56.359780
1323.000000	56.519149
1322.000000	56.670769
1321.000000	56.821970
1320.000000	56.982177
1319.000000	57.134739
1318.000000	57.277983
1317.000000	57.408870
1316.000000	57.566250
1315.000000	57.694415
1314.000000	57.809805
1313.000000	57.932525
1312.000000	58.040691
1311.000000	58.159851
1310.000000	58.253043
1309.000000	58.375658
1308.000000	58.466966
1307.000000	58.543090
1306.000000	58.626020
1305.000000	58.702459
1304.000000	58.758583
1303.000000	58.821933
1302.000000	58.894078
1301.000000	58.941093
1300.000000	58.979417
1299.000000	59.027898
1298.000000	59.054285
1297.000000	59.094598
1296.000000	59.122032
1295.000000	59.151351
1294.000000	59.166010
1293.000000	59.186638
1292.000000	59.192921
1291.000000	59.185277
1290.000000	59.202030
1289.000000	59.199308
1288.000000	59.188209
1287.000000	59.167371
1286.000000	59.141403
1285.000000	59.106744
1284.000000	59.067059
1283.000000	59.031877
1282.000000	58.985909
1281.000000	58.945805
1280.000000	58.894078
1279.000000	58.845493
1278.000000	58.793975
1277.000000	58.737222
1276.000000	58.712825
1275.000000	58.662145
1274.000000	58.609581
1273.000000	58.575864
1272.000000	58.540053
1271.000000	58.508326
1270.000000	58.468955
1269.000000	58.440998
1268.000000	58.401312
1267.000000	58.366549
1266.000000	58.312728
1265.000000	58.261106
1264.000000	58.222886
1263.000000	58.190217
1262.000000	58.142050
1261.000000	58.100376
1260.000000	58.067183
1259.000000	58.013571
1258.000000	57.968755
1257.000000	57.915248
1256.000000	57.865616
1255.000000	57.820486
1254.000000	57.764466
1253.000000	57.714624
1252.000000	57.656824
1251.000000	57.594626
1250.000000	57.514837
1249.000000	57.451801
1248.000000	57.364159
1247.000000	57.285941
1246.000000	57.221544
1245.000000	57.116206
1244.000000	57.015056
1243.000000	56.924691
1242.000000	56.809300
1241.000000	56.690140
1240.000000	56.588572
1239.000000	56.483129
1238.000000	56.346377
1237.000000	56.224076
1236.000000	56.106068
1235.000000	55.975913
1234.000000	55.845549
1233.000000	55.709949
1232.000000	55.566601
1231.000000	55.430164
1230.000000	55.285455
1229.000000	55.133416
1228.000000	54.984518
1227.000000	54.836458
1226.000000	54.685466
1225.000000	54.522537
1224.000000	54.373116
1223.000000	54.222019
1222.000000	54.054169
1221.000000	53.901083
1220.000000	53.740248
1219.000000	53.586115
1218.000000	53.443186
1217.000000	53.304759
1216.000000	53.170311
1215.000000	53.042879
1214.000000	52.917646
1213.000000	52.798486
1212.000000	52.669483
1211.000000	52.533779
1210.000000	52.410535
1209.000000	52.290956
1208.000000	52.188235
1207.000000	52.097033
1206.000000	52.005935
1205.000000	51.931277
1204.000000	51.856723
1203.000000	51.806044
1202.000000	51.772222
1201.000000	51.739343
1200.000000	51.686988
1199.000000	51.626570
1198.000000	51.562174
1197.000000	51.466259
1196.000000	51.351602
1195.000000	51.201029
1194.000000	51.011818
1193.000000	50.768681
1192.000000	50.467849
1191.000000	50.133928
1190.000000	49.761998
1189.000000	49.382424
1188.000000	49.046200
1187.000000	48.775420
1186.000000	48.600135
1185.000000	48.522545
1184.000000	48.543696
1183.000000	48.689453
1182.000000	48.933323
1181.000000	49.270384
1180.000000	49.672366
1179.000000	50.100421
1178.000000	50.535177
1177.000000	50.944280
1176.000000	51.318828
1175.000000	51.628141
1174.000000	51.906879
1173.000000	52.188654
1172.000000	52.459853
1171.000000	52.745712
1170.000000	53.043298
1169.000000	53.342978
1168.000000	53.625276
1167.000000	53.941815
1166.000000	54.256050
1165.000000	54.567144
1164.000000	54.865044
1163.000000	55.201268
1162.000000	55.543984
1161.000000	55.876543
1160.000000	56.197584
1159.000000	56.521976
1158.000000	56.842284
1157.000000	57.143116
1156.000000	57.430336
1155.000000	57.692321
1154.000000	57.897762
1153.000000	58.088334
1152.000000	58.236289
1151.000000	58.366758
1150.000000	58.440474
1149.000000	58.519216
1148.000000	58.569267
1147.000000	58.636177
1146.000000	58.740573
1145.000000	58.873450
1144.000000	59.068316
1143.000000	59.290092
1142.000000	59.572914
1141.000000	59.861599
1140.000000	60.193740
1139.000000	60.528602
1138.000000	60.870585
1137.000000	61.231731
1136.000000	61.618006
1135.000000	62.023862
1134.000000	62.444587
1133.000000	62.842172
1132.000000	63.163946
1131.000000	63.496924
1130.000000	63.795976
1129.000000	64.079216
1128.000000	64.333034
1127.000000	64.545700
1126.000000	64.714388
1125.000000	64.857841
1124.000000	64.972289
1123.000000	65.101291
1122.000000	65.185374
1121.000000	65.273435
1120.000000	65.329978
1119.000000	65.384951
1118.000000	65.436678
1117.000000	65.479504
1116.000000	65.501389
1115.000000	65.509347
1114.000000	65.524948
1113.000000	65.522331
1112.000000	65.558246
1111.000000	65.553220
1110.000000	65.561073
1109.000000	65.559084
1108.000000	65.575942
1107.000000	65.557409
1106.000000	65.558665
1105.000000	65.570602
1104.000000	65.572801
1103.000000	65.584005
1102.000000	65.563586
1101.000000	65.558351
1100.000000	65.557618
1099.000000	65.563796
1098.000000	65.547356
1097.000000	65.530184
1096.000000	65.528299
1095.000000	65.491441
1094.000000	65.495106
1093.000000	65.446416
1092.000000	65.442960
1091.000000	65.400239
1090.000000	65.367779
1089.000000	65.354376
1088.000000	65.294063
1087.000000	65.290188
1086.000000	65.239090
1085.000000	65.205583
1084.000000	65.171657
1083.000000	65.144223
1082.000000	65.116998
1081.000000	65.091239
1080.000000	65.027052
1079.000000	65.021817
1078.000000	64.976372
1077.000000	64.927054
1076.000000	64.907264
1075.000000	64.871348
1074.000000	64.843600
1073.000000	64.801611
1072.000000	64.779308
1071.000000	64.755958
1070.000000	64.721717
1069.000000	64.702346
1068.000000	64.683498
1067.000000	64.664127
1066.000000	64.620149
1065.000000	64.631143
1064.000000	64.578055
1063.000000	64.552925
1062.000000	64.522978
1061.000000	64.489366
1060.000000	64.482560
1059.000000	64.453660
1058.000000	64.427692
1057.000000	64.407692
1056.000000	64.364865
1055.000000	64.360363
1054.000000	64.329369
1053.000000	64.312301
1052.000000	64.285076
1051.000000	64.269684
1050.000000	64.266229
1049.000000	64.257328
1048.000000	64.235234
1047.000000	64.236596
1046.000000	64.229685
1045.000000	64.232512
1044.000000	64.230627
1043.000000	64.230522
1042.000000	64.221099
1041.000000	64.213141
1040.000000	64.208219
1039.000000	64.230104
1038.000000	64.213769
1037.000000	64.216701
1036.000000	64.221099
1035.000000	64.224763
1034.000000	64.217957
1033.000000	64.219633
1032.000000	64.198062
1031.000000	64.197958
1030.000000	64.186858
1029.000000	64.186754
1028.000000	64.171361
1027.000000	64.167068
1026.000000	64.157540
1025.000000	64.155969
1024.000000	64.143194
1023.000000	64.127907
1022.000000	64.113980
1021.000000	64.118378
1020.000000	64.114818
1019.000000	64.123299
1018.000000	64.118273
1017.000000	64.135132
1016.000000	64.170838
1015.000000	64.185183
1014.000000	64.208010
1013.000000	64.234187
1012.000000	64.303087
1011.000000	64.343400
1010.000000	64.391985
1009.000000	64.467481
1008.000000	64.528213
1007.000000	64.600777
1006.000000	64.674703
1005.000000	64.754806
1004.000000	64.831768
1003.000000	64.901819
1002.000000	64.988100
1001.000000	65.063910
1000.000000	65.147050
999.000000	65.230923
998.000000	65.317204
997.000000	65.395841
996.000000	65.496467
995.000000	65.594162
994.000000	65.688506
993.000000	65.781279
992.000000	65.890282
991.000000	66.002636
990.000000	66.107136
989.000000	66.212579
988.000000	66.326399
987.000000	66.435298
986.000000	66.547338
985.000000	66.668801
984.000000	66.795291
983.000000	66.912985
982.000000	67.038323
981.000000	67.150677
980.000000	67.291093
979.000000	67.418421
978.000000	67.545748
977.000000	67.682081
976.000000	67.825534
975.000000	67.973175
974.000000	68.131915
973.000000	68.291807
972.000000	68.450024
971.000000	68.605309
970.000000	68.745830
969.000000	68.885723
968.000000	69.043207
967.000000	69.197969
966.000000	69.328123
965.000000	69.468435
964.000000	69.609060
963.000000	69.766858
962.000000	69.928426
961.000000	70.056696
960.000000	70.180254
959.000000	70.315016
958.000000	70.455222
957.000000	70.581607
956.000000	70.710820
955.000000	70.840032
954.000000	70.946208
953.000000	71.083483
952.000000	71.216151
951.000000	71.334682
950.000000	71.464209
949.000000	71.575097
948.000000	71.676247
947.000000	71.796349
946.000000	71.917289
945.000000	72.024826
944.000000	72.139379
943.000000	72.247231
942.000000	72.337700
941.000000	72.432253
940.000000	72.526178
939.000000	72.638637
938.000000	72.743766
937.000000	72.838005
936.000000	72.929207
935.000000	73.038629
934.000000	73.149727
933.000000	73.251191
932.000000	73.356110
931.000000	73.444276
930.000000	73.554431
929.000000	73.650450
928.000000	73.728878
927.000000	73.820185
926.000000	73.932435
925.000000	74.018611
924.000000	74.075887
923.000000	74.150650
922.000000	74.223319
921.000000	74.289705
920.000000	74.393997
919.000000	74.466247
918.000000	74.518602
917.000000	74.575040
916.000000	74.633469
915.000000	74.691373
914.000000	74.742891
913.000000	74.791057
912.000000	74.850951
911.000000	74.905401
910.000000	74.962468
909.000000	75.022152
908.000000	75.081837
907.000000	75.145396
906.000000	75.217960
905.000000	75.273666
904.000000	75.343612
903.000000	75.435652
902.000000	75.533347
901.000000	75.616906
900.000000	75.690726
899.000000	75.787897
898.000000	75.886325
897.000000	75.987475
896.000000	76.074803
895.000000	76.164853
894.000000	76.239931
893.000000	76.335950
892.000000	76.441812
891.000000	76.510711
890.000000	76.581181
889.000000	76.661807
888.000000	76.741597
887.000000	76.806098
886.000000	76.894473
885.000000	76.971121
884.000000	77.006513
883.000000	77.067873
882.000000	77.120961
881.000000	77.166510
880.000000	77.208918
879.000000	77.263472
878.000000	77.287764
877.000000	77.322633
876.000000	77.351847
875.000000	77.343784
874.000000	77.346507
873.000000	77.310905
872.000000	77.254676
871.000000	77.165672
870.000000	77.110176
869.000000	77.152584
868.000000	77.251744
867.000000	77.409333
866.000000	77.570063
865.000000	77.720217
864.000000	77.863774
863.000000	77.979374
862.000000	78.124712
861.000000	78.255704
860.000000	78.427848
859.000000	78.586274
858.000000	78.726167
857.000000	78.054400
856.000000	78.814200
855.000000	79.309900
854.000000	79.585700
853.000000	79.351400
852.000000	79.568900
851.000000	79.587400
850.000000	79.726300
849.000000	80.083500
848.000000	80.040300
847.000000	80.683100
846.000000	81.190500
845.000000	81.047300
844.000000	81.238100
843.000000	80.933200
842.000000	81.417100
841.000000	81.802500
840.000000	82.134900
839.000000	82.387900
838.000000	82.585200
837.000000	82.825500
836.000000	83.115100
835.000000	83.644600
834.000000	83.626000
833.000000	83.956100
832.000000	84.095600
831.000000	84.445400
830.000000	84.953200
829.000000	85.094900
828.000000	85.405700
827.000000	85.416800
826.000000	86.089200
825.000000	86.317400
824.000000	86.637500
823.000000	86.940700
822.000000	87.335600
821.000000	87.847700
820.000000	87.868900
819.000000	88.190000
818.000000	88.509300
817.000000	88.784600
816.000000	89.165600
815.000000	89.134500
814.000000	89.691900
813.000000	89.899900
812.000000	89.976500
811.000000	90.239400
810.000000	90.439600
809.000000	90.682000
808.000000	90.818000
807.000000	91.032300
806.000000	91.259500
805.000000	91.404700
804.000000	91.353900
803.000000	91.599000
802.000000	91.356300
801.000000	91.544100
800.000000	91.530600
799.000000	91.535200
798.000000	91.354900
797.000000	91.434400
796.000000	91.330500
795.000000	91.387600
794.000000	91.422300
793.000000	91.533400
792.000000	91.363400
791.000000	91.710300
790.000000	91.702100
789.000000	91.723700
788.000000	91.822500
787.000000	92.003000
786.000000	91.940400
785.000000	92.135700
784.000000	92.332900
783.000000	92.510600
782.000000	92.486600
781.000000	92.650700
780.000000	92.836000
779.000000	92.850000
778.000000	93.076900
777.000000	93.286100
776.000000	93.476900
775.000000	93.474500
774.000000	93.737900
773.000000	93.716700
772.000000	93.886100
771.000000	93.927800
770.000000	93.890900
769.000000	93.931700
768.000000	93.888300
767.000000	94.018800
766.000000	93.803800
765.000000	93.874800
764.000000	93.759000
763.000000	93.802700
762.000000	93.634600
761.000000	93.285500
760.000000	93.283600
759.000000	93.155500
758.000000	93.042100
757.000000	92.928300
756.000000	92.918500
755.000000	92.753700
754.000000	92.887200
753.000000	92.491900
752.000000	92.394400
751.000000	92.295500
750.000000	92.110000
749.000000	92.054400
748.000000	91.932200
747.000000	91.629700
746.000000	91.260900
745.000000	91.158200
744.000000	90.950900
743.000000	90.606300
742.000000	90.321200
741.000000	90.176200
740.000000	89.872000
739.000000	89.604100
738.000000	89.357000
737.000000	88.816800
736.000000	88.475200
735.000000	88.220700
734.000000	87.770800
733.000000	87.285500
732.000000	86.851400
731.000000	86.441100
730.000000	85.863600
729.000000	85.385900
728.000000	85.004600
727.000000	84.429400
726.000000	84.014300
725.000000	83.539200
724.000000	83.188200
723.000000	82.703700
722.000000	82.365800
721.000000	82.006900
720.000000	81.713900
719.000000	81.406100
718.000000	81.250700
717.000000	81.071400
716.000000	80.801200
715.000000	80.475600
714.000000	80.280900
713.000000	80.175100
712.000000	79.994200
711.000000	79.887000
710.000000	79.775700
709.000000	79.725800
708.000000	79.649200
707.000000	79.639500
706.000000	79.648700
705.000000	79.775600
704.000000	79.844600
703.000000	79.894700
702.000000	79.995700
701.000000	80.089100
700.000000	80.276400
699.000000	80.345500
698.000000	80.499300
697.000000	80.597000
696.000000	80.636500
695.000000	80.788200
694.000000	80.869800
693.000000	80.911000
692.000000	80.946100
691.000000	80.885000
690.000000	80.989900
689.000000	80.998700
688.000000	80.923600
687.000000	80.901300
686.000000	80.962300
685.000000	80.951900
684.000000	80.913900
683.000000	80.881600
682.000000	80.755300
681.000000	80.581600
680.000000	80.407700
679.000000	80.128000
678.000000	79.867700
677.000000	79.543900
676.000000	79.188100
675.000000	78.773800
674.000000	78.297100
673.000000	77.773500
672.000000	77.176900
671.000000	76.556700
670.000000	75.918700
669.000000	75.297300
668.000000	74.569300
667.000000	73.792900
666.000000	72.996200
665.000000	72.134400
664.000000	71.252200
663.000000	70.300800
662.000000	69.251900
661.000000	68.196200
660.000000	67.170300
659.000000	66.075500
658.000000	64.979200
657.000000	63.923400
656.000000	62.836400
655.000000	61.832000
654.000000	60.907400
653.000000	60.016000
652.000000	59.250100
651.000000	58.597500
650.000000	58.011700
649.000000	57.579300
648.000000	57.269600
647.000000	57.112600
646.000000	57.149100
645.000000	57.303200
644.000000	57.601600
643.000000	58.022700
642.000000	58.581500
641.000000	59.227000
640.000000	59.955800
639.000000	60.787000
638.000000	61.714500
637.000000	62.712600
636.000000	63.737900
635.000000	64.810300
634.000000	65.916600
633.000000	67.059500
632.000000	68.206900
631.000000	69.383500
630.000000	70.522500
629.000000	71.596100
628.000000	72.631000
627.000000	73.610100
626.000000	74.517200
625.000000	75.431300
624.000000	76.259800
623.000000	77.042200
622.000000	77.854100
621.000000	78.536300
620.000000	79.199600
619.000000	79.878100
618.000000	80.513500
617.000000	81.170800
616.000000	81.820800
615.000000	82.468600
614.000000	83.079500
613.000000	83.686600
612.000000	84.265600
611.000000	84.774900
610.000000	85.222500
609.000000	85.655600
608.000000	86.068600
607.000000	86.447700
606.000000	86.816100
605.000000	87.139100
604.000000	87.440800
603.000000	87.695100
602.000000	87.949700
601.000000	88.179000
600.000000	88.391500
599.000000	88.626000
598.000000	88.804900
597.000000	88.941800
596.000000	89.066200
595.000000	89.181300
594.000000	89.273300
593.000000	89.323300
592.000000	89.376200
591.000000	89.374900
590.000000	89.373200
589.000000	89.301900
588.000000	89.248800
587.000000	89.215500
586.000000	89.159800
585.000000	89.083000
584.000000	89.010000
583.000000	88.914400
582.000000	88.866500
581.000000	88.803200
580.000000	88.718400
579.000000	88.623300
578.000000	88.491100
577.000000	88.362300
576.000000	88.199100
575.000000	88.060300
574.000000	87.844600
573.000000	87.666900
572.000000	87.416100
571.000000	87.179100
570.000000	86.885400
569.000000	86.648900
568.000000	86.348000
567.000000	86.057200
566.000000	85.750000
565.000000	85.417700
564.000000	85.097400
563.000000	84.775200
562.000000	84.483000
561.000000	84.203700
560.000000	83.833100
559.000000	83.468000
558.000000	83.113600
557.000000	82.738400
556.000000	82.293800
555.000000	81.844100
554.000000	81.399700
553.000000	80.827400
552.000000	80.258300
551.000000	79.667300
550.000000	79.073400
549.000000	78.461800
548.000000	77.839700
547.000000	77.237300
546.000000	76.613800
545.000000	75.994200
544.000000	75.287900
543.000000	74.644900
542.000000	73.879900
541.000000	73.111000
540.000000	72.245400
539.000000	71.366000
538.000000	70.423600
537.000000	69.417800
536.000000	68.316000
535.000000	67.196600
534.000000	65.996300
533.000000	64.723300
532.000000	63.398100
531.000000	62.005900
530.000000	60.614500
529.000000	59.177100
528.000000	57.715200
527.000000	56.231000
526.000000	54.724400
525.000000	53.249500
524.000000	51.777200
523.000000	50.311600
522.000000	48.938700
521.000000	47.607000
520.000000	46.358800
519.000000	45.218300
518.000000	44.175900
517.000000	43.242300
516.000000	42.445600
515.000000	41.745600
514.000000	41.169500
513.000000	40.665900
512.000000	40.308800
511.000000	40.013900
510.000000	39.760400
509.000000	39.589400
508.000000	39.467700
507.000000	39.346300
506.000000	39.214300
505.000000	39.080100
504.000000	38.973800
503.000000	38.806700
502.000000	38.602800
501.000000	38.372900
500.000000	38.106900
499.000000	37.782900
498.000000	37.405500
497.000000	36.985500
496.000000	36.543500
495.000000	36.013600
494.000000	35.464700
493.000000	34.909700
492.000000	34.283000
491.000000	33.750800
490.000000	33.145800
489.000000	32.591500
488.000000	32.025800
487.000000	31.521400
486.000000	31.063100
485.000000	30.640300
484.000000	30.260400
483.000000	29.934900
482.000000	29.657300
481.000000	29.452700
480.000000	29.315700
479.000000	29.214300
478.000000	29.199600
477.000000	29.216500
476.000000	29.249200
475.000000	29.325300
474.000000	29.405600
473.000000	29.535800
472.000000	29.651300
471.000000	29.820200
470.000000	29.961100
469.000000	30.088200
468.000000	30.236200
467.000000	30.321000
466.000000	30.434000
465.000000	30.525900
464.000000	30.601800
463.000000	30.621400
462.000000	30.626100
461.000000	30.635300
460.000000	30.626700
459.000000	30.564200
458.000000	30.588000
457.000000	30.485100
456.000000	30.412700
455.000000	30.314400
454.000000	30.179800
453.000000	30.095900
452.000000	29.905500
451.000000	29.743200
450.000000	29.576800
449.000000	29.377100
448.000000	29.180800
447.000000	28.994500
446.000000	28.762200
445.000000	28.543900
444.000000	28.299300
443.000000	28.022400
442.000000	27.719200
441.000000	27.428100
440.000000	27.128900
439.000000	26.808800
438.000000	26.474900
437.000000	26.131700
436.000000	25.776500
435.000000	25.445800
434.000000	25.023500
433.000000	24.649000
432.000000	24.190000
431.000000	23.720800
430.000000	23.293000
429.000000	22.798100
428.000000	22.338200
427.000000	21.844900
426.000000	21.316200
425.000000	20.805900
424.000000	20.246200
423.000000	19.687500
422.000000	19.138200
421.000000	18.549300
420.000000	17.930200
419.000000	17.365600
418.000000	16.805300
417.000000	16.209600
416.000000	15.648900
415.000000	15.096600
414.000000	14.568100
413.000000	14.020600
412.000000	13.517500
411.000000	13.021400
410.000000	12.559700
409.000000	12.120300
408.000000	11.703600
407.000000	11.338500
406.000000	10.983600
405.000000	10.654500
404.000000	10.333200
403.000000	10.014400
402.000000	9.773900
401.000000	9.520500
400.000000	9.277300
399.000000	9.056300
398.000000	8.868700
397.000000	8.715100
396.000000	8.534300
395.000000	8.401200
394.000000	8.245000
393.000000	8.092300
392.000000	7.987100
391.000000	7.874600
390.000000	7.773500
389.000000	7.676600
388.000000	7.583800
387.000000	7.482500
386.000000	7.408500
385.000000	7.327400
384.000000	7.253300
383.000000	7.203900
382.000000	7.117900
381.000000	7.050300
380.000000	7.001500
379.000000	6.929500
378.000000	6.884300
377.000000	6.830800
376.000000	6.700200
375.000000	6.505400
374.000000	6.497100
373.000000	6.484900
372.000000	6.334600
371.000000	6.487200
370.000000	6.518000
369.000000	6.529600
368.000000	6.396200
367.000000	6.401200
366.000000	6.379000
365.000000	6.356800
364.000000	6.265600
363.000000	6.342000
362.000000	6.261400
361.000000	6.206700
360.000000	6.273800
359.000000	6.284800
358.000000	6.177400
357.000000	6.166600
356.000000	6.047300
355.000000	6.025800
354.000000	6.206700
353.000000	6.147400
352.000000	6.048700
351.000000	6.091000
350.000000	6.003500
349.000000	6.006200
348.000000	5.988000
347.000000	6.016100
346.000000	6.072800
345.000000	6.022200
344.000000	6.148000
343.000000	6.138100
342.000000	6.026300
341.000000	5.887500
340.000000	5.939900
339.000000	6.147900
338.000000	6.134600
337.000000	5.912900
336.000000	5.887800
335.000000	6.082500
334.000000	6.202900
333.000000	6.375100
332.000000	6.407900
331.000000	6.307600
330.000000	6.239800
329.000000	6.272300
328.000000	6.176400
327.000000	6.265900
326.000000	6.176600
325.000000	6.173900
324.000000	6.338000
323.000000	6.353100
322.000000	6.429700
321.000000	6.624600
320.000000	6.898200
319.000000	6.862700
318.000000	6.586500
317.000000	6.352800
316.000000	6.074000
315.000000	5.926300
314.000000	5.910200
313.000000	5.907300
312.000000	5.906900
311.000000	5.910600
310.000000	5.910100
309.000000	5.898400
308.000000	5.889800
307.000000	5.887000
306.000000	5.873500
305.000000	5.896800
304.000000	5.885900
303.000000	5.937600
302.000000	5.957900
301.000000	5.930800
300.000000	5.926800
299.000000	5.912400
298.000000	5.892900
297.000000	5.940500
296.000000	5.960300
295.000000	5.939200
294.000000	5.940900
293.000000	5.987100
292.000000	5.968800
291.000000	5.979700
290.000000	6.002200
289.000000	6.028200
288.000000	5.976500
287.000000	5.991400
286.000000	6.002500
285.000000	6.011300
284.000000	6.016100
283.000000	6.005300
282.000000	6.009400
281.000000	5.989000
280.000000	6.001800
279.000000	6.032200
278.000000	6.066000
277.000000	6.068400
276.000000	6.087700
275.000000	6.043300
274.000000	6.091800
273.000000	6.070500
272.000000	6.069900
271.000000	6.106700
270.000000	6.103200
269.000000	6.124900
268.000000	6.134400
267.000000	6.142900
266.000000	6.176500
265.000000	6.209000
264.000000	6.229900
263.000000	6.257600
262.000000	6.291300
261.000000	6.290100
260.000000	6.299800
259.000000	6.317200
258.000000	6.361700
257.000000	6.367600
256.000000	6.380400
255.000000	6.379800
254.000000	6.364900
253.000000	6.376000
252.000000	6.388100
251.000000	6.388200
250.000000	6.413800
