PE UV       SUBTECH     SPECTRUM    ASCII       PEDS        4.00        
   -1
CICIMAUCR0252-2.ASC
24/06/27
15:00:36.00
24/06/27
15:00:36.00
Vinicio Soto Monge
C. resplendens. Sex F. Ventral
250,000000
1
Lambda 1050
1050L1511233
PerkinElmer UV WinLab 6.3.2.0749 / 2.02.05 Lambda 900 UV/VIS/NIR, Aug  7 2015 09:38:08

0
0
3350/servo 860,8/2
0
0
UV/VIS
1
1
1
DoubleDePol,CommonBeamDepol,RBeamAtt,SBeamAtt,60mm sphere, WB InGaAs Detector
0
0
0
0
Program
Program
3350/servo 860,8/2
3350/0,2 860,8/0,2
3350/0,2 860,8/0,2
0
15.00
 
 
 
0
 
860,8
319,2
860,8
Front
100
on
S:100 R:100
0
0
0
0
 
0
 
 
 
0
 
 
0
0
0
0
0
 
 
 
 
0
0


0
0
#HDR
-1
-1
#GR
nm
%R
1.0
0.0
2500,000000
-1,000000
2251
8
57,870800
4,373000
#DATA
2482.000000	5.150555
2481.000000	5.123136
2480.000000	5.178669
2479.000000	5.166521
2478.000000	5.124871
2477.000000	5.133086
2476.000000	5.180636
2475.000000	5.145581
2474.000000	5.122210
2473.000000	5.141763
2472.000000	5.074545
2471.000000	5.059273
2470.000000	5.085536
2469.000000	5.116657
2468.000000	5.110410
2467.000000	5.123946
2466.000000	5.081602
2465.000000	5.117467
2464.000000	5.135747
2463.000000	5.124524
2462.000000	5.107633
2461.000000	5.084494
2460.000000	5.076859
2459.000000	5.108096
2458.000000	5.096527
2457.000000	5.096064
2456.000000	5.093634
2455.000000	5.113071
2454.000000	5.070727
2453.000000	5.109716
2452.000000	5.149746
2451.000000	5.096758
2450.000000	5.110525
2449.000000	5.133201
2448.000000	5.142225
2447.000000	5.184106
2446.000000	5.153679
2445.000000	5.157960
2444.000000	5.176355
2443.000000	5.212914
2442.000000	5.220897
2441.000000	5.221128
2440.000000	5.231656
2439.000000	5.228417
2438.000000	5.228648
2437.000000	5.244383
2436.000000	5.263009
2435.000000	5.263935
2434.000000	5.275041
2433.000000	5.278628
2432.000000	5.317617
2431.000000	5.310791
2430.000000	5.307667
2429.000000	5.336475
2428.000000	5.338789
2427.000000	5.342954
2426.000000	5.342954
2425.000000	5.340871
2424.000000	5.355564
2423.000000	5.376158
2422.000000	5.374075
2421.000000	5.407973
2420.000000	5.413758
2419.000000	5.417344
2418.000000	5.420121
2417.000000	5.408205
2416.000000	5.420699
2415.000000	5.432963
2414.000000	5.449623
2413.000000	5.453209
2412.000000	5.449739
2411.000000	5.447425
2410.000000	5.452631
2409.000000	5.454366
2408.000000	5.465820
2407.000000	5.492082
2406.000000	5.498793
2405.000000	5.508164
2404.000000	5.521816
2403.000000	5.546111
2402.000000	5.572721
2401.000000	5.569250
2400.000000	5.587645
2399.000000	5.584174
2398.000000	5.584059
2397.000000	5.599446
2396.000000	5.628369
2395.000000	5.638666
2394.000000	5.651855
2393.000000	5.650351
2392.000000	5.650004
2391.000000	5.664118
2390.000000	5.679621
2389.000000	5.702182
2388.000000	5.698595
2387.000000	5.697785
2386.000000	5.707388
2385.000000	5.713172
2384.000000	5.740707
2383.000000	5.759334
2382.000000	5.753665
2381.000000	5.736543
2380.000000	5.739319
2379.000000	5.751467
2378.000000	5.753202
2377.000000	5.751930
2376.000000	5.752624
2375.000000	5.746839
2374.000000	5.743716
2373.000000	5.750079
2372.000000	5.768243
2371.000000	5.763846
2370.000000	5.750194
2369.000000	5.763846
2368.000000	5.751351
2367.000000	5.736427
2366.000000	5.757136
2365.000000	5.768011
2364.000000	5.753549
2363.000000	5.739203
2362.000000	5.715024
2361.000000	5.704264
2360.000000	5.713982
2359.000000	5.710280
2358.000000	5.703801
2357.000000	5.688183
2356.000000	5.680084
2355.000000	5.680894
2354.000000	5.676613
2353.000000	5.674994
2352.000000	5.665044
2351.000000	5.680200
2350.000000	5.685175
2349.000000	5.679621
2348.000000	5.690612
2347.000000	5.707272
2346.000000	5.712363
2345.000000	5.709355
2344.000000	5.714792
2343.000000	5.719767
2342.000000	5.742790
2341.000000	5.744872
2340.000000	5.737352
2339.000000	5.761648
2338.000000	5.780737
2337.000000	5.776110
2336.000000	5.797166
2335.000000	5.807000
2334.000000	5.797513
2333.000000	5.798091
2332.000000	5.805033
2331.000000	5.798786
2330.000000	5.798786
2329.000000	5.772292
2328.000000	5.764309
2327.000000	5.772292
2326.000000	5.777035
2325.000000	5.756442
2324.000000	5.748343
2323.000000	5.723585
2322.000000	5.716759
2321.000000	5.708776
2320.000000	5.688414
2319.000000	5.674762
2318.000000	5.641790
2317.000000	5.629410
2316.000000	5.626402
2315.000000	5.587992
2314.000000	5.587067
2313.000000	5.574456
2312.000000	5.553747
2311.000000	5.519617
2310.000000	5.502842
2309.000000	5.494859
2308.000000	5.502726
2307.000000	5.488959
2306.000000	5.467787
2305.000000	5.485372
2304.000000	5.477389
2303.000000	5.465241
2302.000000	5.460961
2301.000000	5.471720
2300.000000	5.462349
2299.000000	5.471373
2298.000000	5.491157
2297.000000	5.518460
2296.000000	5.542756
2295.000000	5.564969
2294.000000	5.589033
2293.000000	5.600256
2292.000000	5.597942
2291.000000	5.629179
2290.000000	5.649194
2289.000000	5.650004
2288.000000	5.656714
2287.000000	5.635195
2286.000000	5.652318
2285.000000	5.661110
2284.000000	5.654169
2283.000000	5.658102
2282.000000	5.638087
2281.000000	5.620155
2280.000000	5.616684
2279.000000	5.609858
2278.000000	5.590653
2277.000000	5.586025
2276.000000	5.592273
2275.000000	5.580472
2274.000000	5.580241
2273.000000	5.576423
2272.000000	5.556986
2271.000000	5.566242
2270.000000	5.570175
2269.000000	5.558606
2268.000000	5.581976
2267.000000	5.578621
2266.000000	5.588686
2265.000000	5.610552
2264.000000	5.645607
2263.000000	5.677192
2262.000000	5.712941
2261.000000	5.710627
2260.000000	5.749153
2259.000000	5.796356
2258.000000	5.884630
2257.000000	5.919107
2256.000000	5.973251
2255.000000	6.052617
2254.000000	6.097043
2253.000000	6.170509
2252.000000	6.215398
2251.000000	6.285971
2250.000000	6.329934
2249.000000	6.376327
2248.000000	6.464023
2247.000000	6.524646
2246.000000	6.565023
2245.000000	6.622523
2244.000000	6.662437
2243.000000	6.726647
2242.000000	6.764826
2241.000000	6.796988
2240.000000	6.849166
2239.000000	6.875313
2238.000000	6.910021
2237.000000	6.930846
2236.000000	6.971454
2235.000000	7.006856
2234.000000	7.008360
2233.000000	7.044457
2232.000000	7.075694
2231.000000	7.086800
2230.000000	7.105774
2229.000000	7.116996
2228.000000	7.082057
2227.000000	7.114104
2226.000000	7.127293
2225.000000	7.134582
2224.000000	7.115955
2223.000000	7.127177
2222.000000	7.115030
2221.000000	7.143490
2220.000000	7.114914
2219.000000	7.133541
2218.000000	7.116881
2217.000000	7.127640
2216.000000	7.102188
2215.000000	7.092816
2214.000000	7.080784
2213.000000	7.064125
2212.000000	7.073264
2211.000000	7.079396
2210.000000	7.041217
2209.000000	7.042258
2208.000000	7.040523
2207.000000	7.015765
2206.000000	7.025020
2205.000000	7.016343
2204.000000	7.022012
2203.000000	7.016922
2202.000000	7.016112
2201.000000	7.003617
2200.000000	7.007898
2199.000000	7.006741
2198.000000	6.989502
2197.000000	6.999915
2196.000000	6.978627
2195.000000	6.985684
2194.000000	6.965322
2193.000000	6.974694
2192.000000	6.992163
2191.000000	6.981519
2190.000000	6.975619
2189.000000	6.966364
2188.000000	6.965785
2187.000000	6.975388
2186.000000	6.958381
2185.000000	6.939523
2184.000000	6.950745
2183.000000	6.931887
2182.000000	6.937787
2181.000000	6.919971
2180.000000	6.925987
2179.000000	6.928763
2178.000000	6.925987
2177.000000	6.903195
2176.000000	6.888618
2175.000000	6.909674
2174.000000	6.914996
2173.000000	6.927259
2172.000000	6.904583
2171.000000	6.905972
2170.000000	6.892667
2169.000000	6.897063
2168.000000	6.912450
2167.000000	6.901575
2166.000000	6.910831
2165.000000	6.919276
2164.000000	6.923210
2163.000000	6.925639
2162.000000	6.926565
2161.000000	6.928069
2160.000000	6.930961
2159.000000	6.950282
2158.000000	6.956414
2157.000000	6.965554
2156.000000	6.976082
2155.000000	6.995981
2154.000000	6.997601
2153.000000	6.982561
2152.000000	7.001997
2151.000000	7.033929
2150.000000	7.030111
2149.000000	7.041102
2148.000000	7.050588
2147.000000	7.068058
2146.000000	7.083792
2145.000000	7.089577
2144.000000	7.099064
2143.000000	7.113179
2142.000000	7.119542
2141.000000	7.123244
2140.000000	7.136664
2139.000000	7.159456
2138.000000	7.156795
2137.000000	7.149969
2136.000000	7.179124
2135.000000	7.195899
2134.000000	7.207584
2133.000000	7.191156
2132.000000	7.184330
2131.000000	7.213138
2130.000000	7.207006
2129.000000	7.217997
2128.000000	7.200064
2127.000000	7.209667
2126.000000	7.206080
2125.000000	7.215336
2124.000000	7.234194
2123.000000	7.226674
2122.000000	7.223087
2121.000000	7.217303
2120.000000	7.218691
2119.000000	7.200411
2118.000000	7.209898
2117.000000	7.210939
2116.000000	7.186991
2115.000000	7.184446
2114.000000	7.186065
2113.000000	7.179818
2112.000000	7.164084
2111.000000	7.155060
2110.000000	7.146267
2109.000000	7.151473
2108.000000	7.153208
2107.000000	7.125442
2106.000000	7.118500
2105.000000	7.111559
2104.000000	7.112137
2103.000000	7.109476
2102.000000	7.093279
2101.000000	7.077776
2100.000000	7.075694
2099.000000	7.066438
2098.000000	7.064934
2097.000000	7.054059
2096.000000	7.046423
2095.000000	7.055216
2094.000000	7.050588
2093.000000	7.047812
2092.000000	7.031962
2091.000000	7.022359
2090.000000	7.008129
2089.000000	7.005237
2088.000000	7.018888
2087.000000	7.018310
2086.000000	7.010790
2085.000000	6.995518
2084.000000	6.981866
2083.000000	6.982214
2082.000000	6.983486
2081.000000	6.986610
2080.000000	6.964744
2079.000000	6.952133
2078.000000	6.945307
2077.000000	6.926565
2076.000000	6.913029
2075.000000	6.903542
2074.000000	6.904236
2073.000000	6.894402
2072.000000	6.881792
2071.000000	6.862008
2070.000000	6.841646
2069.000000	6.822094
2068.000000	6.815962
2067.000000	6.812954
2066.000000	6.787039
2065.000000	6.784146
2064.000000	6.780329
2063.000000	6.753950
2062.000000	6.741918
2061.000000	6.728614
2060.000000	6.716466
2059.000000	6.705938
2058.000000	6.695410
2057.000000	6.677824
2056.000000	6.675742
2055.000000	6.682915
2054.000000	6.672271
2053.000000	6.678056
2052.000000	6.689856
2051.000000	6.683840
2050.000000	6.700616
2049.000000	6.717160
2048.000000	6.734861
2047.000000	6.745968
2046.000000	6.756843
2045.000000	6.791319
2044.000000	6.826375
2043.000000	6.840373
2042.000000	6.838060
2041.000000	6.874619
2040.000000	6.905046
2039.000000	6.929110
2038.000000	6.953290
2037.000000	6.960116
2036.000000	6.971801
2035.000000	6.998295
2034.000000	7.007898
2033.000000	7.032077
2032.000000	7.047233
2031.000000	7.059150
2030.000000	7.078586
2029.000000	7.090618
2028.000000	7.090503
2027.000000	7.087610
2026.000000	7.097213
2025.000000	7.109939
2024.000000	7.116765
2023.000000	7.113063
2022.000000	7.125211
2021.000000	7.113873
2020.000000	7.112947
2019.000000	7.129607
2018.000000	7.132268
2017.000000	7.134350
2016.000000	7.126599
2015.000000	7.128681
2014.000000	7.123360
2013.000000	7.127409
2012.000000	7.111443
2011.000000	7.110286
2010.000000	7.103692
2009.000000	7.102535
2008.000000	7.078008
2007.000000	7.075115
2006.000000	7.063430
2005.000000	7.031152
2004.000000	7.026640
2003.000000	7.011137
2002.000000	7.001419
2001.000000	6.998064
2000.000000	6.952712
1999.000000	6.951671
1998.000000	6.942415
1997.000000	6.929689
1996.000000	6.903311
1995.000000	6.876007
1994.000000	6.857033
1993.000000	6.839679
1992.000000	6.826375
1991.000000	6.808673
1990.000000	6.775932
1989.000000	6.762743
1988.000000	6.751174
1987.000000	6.710450
1986.000000	6.687311
1985.000000	6.645430
1984.000000	6.631200
1983.000000	6.626572
1982.000000	6.595682
1981.000000	6.580063
1980.000000	6.565949
1979.000000	6.542232
1978.000000	6.498615
1977.000000	6.497921
1976.000000	6.470155
1975.000000	6.446322
1974.000000	6.420753
1973.000000	6.406755
1972.000000	6.388938
1971.000000	6.391946
1970.000000	6.347751
1969.000000	6.326810
1968.000000	6.313506
1967.000000	6.311655
1966.000000	6.293953
1965.000000	6.233909
1964.000000	6.235065
1963.000000	6.237726
1962.000000	6.221182
1961.000000	6.173169
1960.000000	6.175483
1959.000000	6.166112
1958.000000	6.140544
1957.000000	6.118215
1956.000000	6.120760
1955.000000	6.119488
1954.000000	6.081772
1953.000000	6.085127
1952.000000	6.043824
1951.000000	6.054005
1950.000000	6.037924
1949.000000	5.999167
1948.000000	5.977879
1947.000000	6.006224
1946.000000	5.985630
1945.000000	5.964806
1944.000000	5.942477
1943.000000	5.964343
1942.000000	5.950807
1941.000000	5.920726
1940.000000	5.945601
1939.000000	5.923040
1938.000000	5.928709
1937.000000	5.901984
1936.000000	5.912859
1935.000000	5.901984
1934.000000	5.917256
1933.000000	5.923040
1932.000000	5.923503
1931.000000	5.934957
1930.000000	5.933453
1929.000000	5.942245
1928.000000	5.963996
1927.000000	5.962723
1926.000000	5.992919
1925.000000	6.015595
1924.000000	6.036188
1923.000000	6.038040
1922.000000	6.052386
1921.000000	6.070202
1920.000000	6.124694
1919.000000	6.138230
1918.000000	6.162988
1917.000000	6.240734
1916.000000	6.260055
1915.000000	6.286549
1914.000000	6.307490
1913.000000	6.350065
1912.000000	6.417514
1911.000000	6.465642
1910.000000	6.493756
1909.000000	6.554264
1908.000000	6.599153
1907.000000	6.640571
1906.000000	6.708599
1905.000000	6.772577
1904.000000	6.868718
1903.000000	6.916847
1902.000000	7.009749
1901.000000	7.094552
1900.000000	7.170562
1899.000000	7.265778
1898.000000	7.394429
1897.000000	7.506305
1896.000000	7.599091
1895.000000	7.730750
1894.000000	7.837535
1893.000000	7.935296
1892.000000	8.097498
1891.000000	8.247090
1890.000000	8.423522
1889.000000	8.589658
1888.000000	8.773148
1887.000000	8.944490
1886.000000	9.155283
1885.000000	9.357168
1884.000000	9.580688
1883.000000	9.889242
1882.000000	10.159155
1881.000000	10.411135
1880.000000	10.692154
1879.000000	10.972017
1878.000000	11.266110
1877.000000	11.541807
1876.000000	11.839833
1875.000000	12.111597
1874.000000	12.402913
1873.000000	12.673404
1872.000000	12.966224
1871.000000	13.251062
1870.000000	13.546195
1869.000000	13.822356
1868.000000	14.106267
1867.000000	14.332795
1866.000000	14.556430
1865.000000	14.742581
1864.000000	14.905130
1863.000000	15.066754
1862.000000	15.212181
1861.000000	15.361194
1860.000000	15.498291
1859.000000	15.635619
1858.000000	15.779310
1857.000000	15.876608
1856.000000	15.964188
1855.000000	16.048066
1854.000000	16.122457
1853.000000	16.195112
1852.000000	16.255388
1851.000000	16.294955
1850.000000	16.312656
1849.000000	16.321449
1848.000000	16.332209
1847.000000	16.376866
1846.000000	16.396766
1845.000000	16.401162
1844.000000	16.381378
1843.000000	16.370040
1842.000000	16.378717
1841.000000	16.388204
1840.000000	16.400121
1839.000000	16.380453
1838.000000	16.362983
1837.000000	16.365413
1836.000000	16.356389
1835.000000	16.352339
1834.000000	16.327118
1833.000000	16.294840
1832.000000	16.252843
1831.000000	16.223573
1830.000000	16.195690
1829.000000	16.173015
1828.000000	16.140389
1827.000000	16.085897
1826.000000	16.053388
1825.000000	16.015671
1824.000000	15.981889
1823.000000	15.944983
1822.000000	15.906573
1821.000000	15.890144
1820.000000	15.909118
1819.000000	15.883318
1818.000000	15.840280
1817.000000	15.813324
1816.000000	15.793772
1815.000000	15.780814
1814.000000	15.780698
1813.000000	15.756865
1812.000000	15.731991
1811.000000	15.731297
1810.000000	15.720885
1809.000000	15.688028
1808.000000	15.652973
1807.000000	15.639205
1806.000000	15.607042
1805.000000	15.569673
1804.000000	15.526635
1803.000000	15.475730
1802.000000	15.443452
1801.000000	15.414876
1800.000000	15.394282
1799.000000	15.364202
1798.000000	15.307281
1797.000000	15.259499
1796.000000	15.222824
1795.000000	15.199917
1794.000000	15.187654
1793.000000	15.149243
1792.000000	15.099264
1791.000000	15.061316
1790.000000	15.015618
1789.000000	14.970150
1788.000000	14.933822
1787.000000	14.893098
1786.000000	14.860126
1785.000000	14.826343
1784.000000	14.785272
1783.000000	14.736449
1782.000000	14.686933
1781.000000	14.640771
1780.000000	14.594725
1779.000000	14.563256
1778.000000	14.510963
1777.000000	14.462603
1776.000000	14.403484
1775.000000	14.333026
1774.000000	14.280849
1773.000000	14.224043
1772.000000	14.171056
1771.000000	14.111358
1770.000000	14.048421
1769.000000	13.977269
1768.000000	13.916414
1767.000000	13.859725
1766.000000	13.800605
1765.000000	13.746924
1764.000000	13.704580
1763.000000	13.678433
1762.000000	13.663856
1761.000000	13.659344
1760.000000	13.668715
1759.000000	13.690002
1758.000000	13.746229
1757.000000	13.803382
1756.000000	13.856022
1755.000000	13.911440
1754.000000	13.955287
1753.000000	13.989764
1752.000000	14.013481
1751.000000	14.040206
1750.000000	14.061263
1749.000000	14.065775
1748.000000	14.059411
1747.000000	14.030025
1746.000000	13.985946
1745.000000	13.959568
1744.000000	13.923009
1743.000000	13.855097
1742.000000	13.767517
1741.000000	13.674962
1740.000000	13.587961
1739.000000	13.473309
1738.000000	13.344658
1737.000000	13.236253
1736.000000	13.124840
1735.000000	13.028930
1734.000000	12.962869
1733.000000	12.911270
1732.000000	12.842548
1731.000000	12.848911
1730.000000	12.873323
1729.000000	12.899469
1728.000000	12.959977
1727.000000	13.014121
1726.000000	13.091636
1725.000000	13.138839
1724.000000	13.185810
1723.000000	13.251293
1722.000000	13.284034
1721.000000	13.318858
1720.000000	13.362706
1719.000000	13.388621
1718.000000	13.455029
1717.000000	13.493324
1716.000000	13.539138
1715.000000	13.576507
1714.000000	13.626371
1713.000000	13.706894
1712.000000	13.746924
1711.000000	13.811943
1710.000000	13.861576
1709.000000	13.917109
1708.000000	13.907622
1707.000000	13.923240
1706.000000	13.903341
1705.000000	13.873955
1704.000000	13.866203
1703.000000	13.813100
1702.000000	13.773533
1701.000000	13.705621
1700.000000	13.657030
1699.000000	13.575003
1698.000000	13.497141
1697.000000	13.383530
1696.000000	13.300925
1695.000000	13.236368
1694.000000	13.203280
1693.000000	13.196223
1692.000000	13.239955
1691.000000	13.298496
1690.000000	13.382605
1689.000000	13.492976
1688.000000	13.595018
1687.000000	13.655873
1686.000000	13.722397
1685.000000	13.739635
1684.000000	13.816224
1683.000000	13.885524
1682.000000	13.990111
1681.000000	14.126398
1680.000000	14.356859
1679.000000	14.639498
1678.000000	14.934516
1677.000000	15.294554
1676.000000	15.610860
1675.000000	15.952966
1674.000000	16.240117
1673.000000	16.510029
1672.000000	16.744424
1671.000000	16.954639
1670.000000	17.140212
1669.000000	17.299290
1668.000000	17.433610
1667.000000	17.572095
1666.000000	17.692763
1665.000000	17.800474
1664.000000	17.866303
1663.000000	17.930860
1662.000000	17.980030
1661.000000	18.051066
1660.000000	18.105673
1659.000000	18.127308
1658.000000	18.167569
1657.000000	18.197187
1656.000000	18.193137
1655.000000	18.241729
1654.000000	18.223449
1653.000000	18.206326
1652.000000	18.224837
1651.000000	18.203897
1650.000000	18.180180
1649.000000	18.189782
1648.000000	18.119556
1647.000000	18.107987
1646.000000	18.060321
1645.000000	18.037067
1644.000000	17.991137
1643.000000	17.981187
1642.000000	17.909226
1641.000000	17.873476
1640.000000	17.818291
1639.000000	17.776988
1638.000000	17.731983
1637.000000	17.686284
1636.000000	17.610505
1635.000000	17.572558
1634.000000	17.552196
1633.000000	17.486135
1632.000000	17.408505
1631.000000	17.341981
1630.000000	17.298133
1629.000000	17.219346
1628.000000	17.185910
1627.000000	17.103305
1626.000000	17.058763
1625.000000	16.982521
1624.000000	16.921782
1623.000000	16.846466
1622.000000	16.792784
1621.000000	16.746970
1620.000000	16.665406
1619.000000	16.616352
1618.000000	16.564058
1617.000000	16.507947
1616.000000	16.439804
1615.000000	16.369578
1614.000000	16.337184
1613.000000	16.275750
1612.000000	16.194881
1611.000000	16.164453
1610.000000	16.118407
1609.000000	16.063337
1608.000000	16.010928
1607.000000	15.966733
1606.000000	15.909002
1605.000000	15.854395
1604.000000	15.814134
1603.000000	15.744486
1602.000000	15.684673
1601.000000	15.607736
1600.000000	15.565508
1599.000000	15.515297
1598.000000	15.447732
1597.000000	15.395555
1596.000000	15.352864
1595.000000	15.304504
1594.000000	15.240641
1593.000000	15.191124
1592.000000	15.157920
1591.000000	15.108519
1590.000000	15.044425
1589.000000	15.025452
1588.000000	14.981604
1587.000000	14.922716
1586.000000	14.864291
1585.000000	14.818939
1584.000000	14.791519
1583.000000	14.752762
1582.000000	14.699659
1581.000000	14.662058
1580.000000	14.632904
1579.000000	14.607914
1578.000000	14.563488
1577.000000	14.540349
1576.000000	14.524268
1575.000000	14.502864
1574.000000	14.481345
1573.000000	14.454736
1572.000000	14.430556
1571.000000	14.408343
1570.000000	14.402442
1569.000000	14.395964
1568.000000	14.369007
1567.000000	14.358479
1566.000000	14.354892
1565.000000	14.344017
1564.000000	14.344017
1563.000000	14.322961
1562.000000	14.305954
1561.000000	14.310929
1560.000000	14.309309
1559.000000	14.279576
1558.000000	14.249727
1557.000000	14.259677
1556.000000	14.241744
1555.000000	14.206689
1554.000000	14.206226
1553.000000	14.171865
1552.000000	14.136000
1551.000000	14.119456
1550.000000	14.096318
1549.000000	14.077691
1548.000000	14.043793
1547.000000	14.011052
1546.000000	13.983864
1545.000000	13.959568
1544.000000	13.928331
1543.000000	13.912249
1542.000000	13.885293
1541.000000	13.852783
1540.000000	13.827330
1539.000000	13.789730
1538.000000	13.780590
1537.000000	13.774806
1536.000000	13.751667
1535.000000	13.731189
1534.000000	13.712563
1533.000000	13.682829
1532.000000	13.644882
1531.000000	13.599299
1530.000000	13.548625
1529.000000	13.519239
1528.000000	13.512876
1527.000000	13.487655
1526.000000	13.450054
1525.000000	13.404471
1524.000000	13.378787
1523.000000	13.342344
1522.000000	13.293752
1521.000000	13.256268
1520.000000	13.219362
1519.000000	13.180373
1518.000000	13.126228
1517.000000	13.074860
1516.000000	13.037029
1515.000000	12.994801
1514.000000	12.952688
1513.000000	12.904328
1512.000000	12.854002
1511.000000	12.823112
1510.000000	12.783660
1509.000000	12.738308
1508.000000	12.693535
1507.000000	12.643902
1506.000000	12.595890
1505.000000	12.556323
1504.000000	12.509582
1503.000000	12.457867
1502.000000	12.423738
1501.000000	12.375609
1500.000000	12.329332
1499.000000	12.305152
1498.000000	12.268246
1497.000000	12.218613
1496.000000	12.176732
1495.000000	12.148156
1494.000000	12.109977
1493.000000	12.071914
1492.000000	12.050395
1491.000000	12.004002
1490.000000	11.980285
1489.000000	11.963625
1488.000000	11.929727
1487.000000	11.912373
1486.000000	11.876508
1485.000000	11.846890
1484.000000	11.830693
1483.000000	11.810216
1482.000000	11.794713
1481.000000	11.789969
1480.000000	11.772962
1479.000000	11.749477
1478.000000	11.741725
1477.000000	11.726801
1476.000000	11.699960
1475.000000	11.683878
1474.000000	11.678209
1473.000000	11.672078
1472.000000	11.676590
1471.000000	11.680408
1470.000000	11.677862
1469.000000	11.669301
1468.000000	11.656112
1467.000000	11.652526
1466.000000	11.658079
1465.000000	11.679945
1464.000000	11.692903
1463.000000	11.694522
1462.000000	11.691977
1461.000000	11.710604
1460.000000	11.727958
1459.000000	11.745659
1458.000000	11.772615
1457.000000	11.799688
1456.000000	11.829074
1455.000000	11.829305
1454.000000	11.880673
1453.000000	11.908786
1452.000000	11.947775
1451.000000	11.982483
1450.000000	12.055833
1449.000000	12.087070
1448.000000	12.104193
1447.000000	12.148735
1446.000000	12.213292
1445.000000	12.268246
1444.000000	12.321812
1443.000000	12.368552
1442.000000	12.390881
1441.000000	12.467354
1440.000000	12.526127
1439.000000	12.592650
1438.000000	12.666347
1437.000000	12.731251
1436.000000	12.803906
1435.000000	12.862910
1434.000000	12.916476
1433.000000	12.984851
1432.000000	13.086777
1431.000000	13.176208
1430.000000	13.252797
1429.000000	13.343963
1428.000000	13.453525
1427.000000	13.558343
1426.000000	13.686994
1425.000000	13.782673
1424.000000	13.926133
1423.000000	14.058255
1422.000000	14.214209
1421.000000	14.361487
1420.000000	14.485395
1419.000000	14.621450
1418.000000	14.824029
1417.000000	14.972001
1416.000000	15.161854
1415.000000	15.357145
1414.000000	15.539015
1413.000000	15.789954
1412.000000	16.027935
1411.000000	16.219176
1410.000000	16.448481
1409.000000	16.718509
1408.000000	17.048582
1407.000000	17.351236
1406.000000	17.663609
1405.000000	17.962907
1404.000000	18.339952
1403.000000	18.694784
1402.000000	19.035733
1401.000000	19.369971
1400.000000	19.807292
1399.000000	20.247043
1398.000000	20.617609
1397.000000	20.882662
1396.000000	21.216553
1395.000000	21.696565
1394.000000	22.155637
1393.000000	22.476686
1392.000000	22.830014
1391.000000	23.291515
1390.000000	23.735084
1389.000000	24.143250
1388.000000	24.606024
1387.000000	25.209828
1386.000000	25.768627
1385.000000	26.371158
1384.000000	26.948237
1383.000000	27.589988
1382.000000	28.254763
1381.000000	28.946378
1380.000000	29.520102
1379.000000	29.986230
1378.000000	30.351706
1377.000000	30.652277
1376.000000	30.969856
1375.000000	31.239306
1374.000000	31.525531
1373.000000	31.844614
1372.000000	32.176654
1371.000000	32.544790
1370.000000	33.000275
1369.000000	33.364594
1368.000000	33.718847
1367.000000	34.075299
1366.000000	34.396116
1365.000000	34.642775
1364.000000	34.949594
1363.000000	35.182947
1362.000000	35.388997
1361.000000	35.652316
1360.000000	35.882893
1359.000000	36.060019
1358.000000	36.157202
1357.000000	36.306793
1356.000000	36.474549
1355.000000	36.692399
1354.000000	37.061346
1353.000000	37.446258
1352.000000	37.830244
1351.000000	38.347625
1350.000000	38.860378
1349.000000	39.358901
1348.000000	39.835327
1347.000000	40.305158
1346.000000	40.751387
1345.000000	41.184544
1344.000000	41.582529
1343.000000	42.047154
1342.000000	42.427207
1341.000000	42.846248
1340.000000	43.257191
1339.000000	43.654598
1338.000000	44.064153
1337.000000	44.437495
1336.000000	44.843926
1335.000000	45.256373
1334.000000	45.655747
1333.000000	46.016479
1332.000000	46.428001
1331.000000	46.823325
1330.000000	47.192619
1329.000000	47.544095
1328.000000	47.912116
1327.000000	48.283145
1326.000000	48.627333
1325.000000	48.936813
1324.000000	49.264341
1323.000000	49.562251
1322.000000	49.884226
1321.000000	50.180401
1320.000000	50.461305
1319.000000	50.733416
1318.000000	50.999395
1317.000000	51.275786
1316.000000	51.515850
1315.000000	51.757187
1314.000000	52.005928
1313.000000	52.250272
1312.000000	52.443249
1311.000000	52.655083
1310.000000	52.859745
1309.000000	53.039764
1308.000000	53.227881
1307.000000	53.399339
1306.000000	53.548699
1305.000000	53.696324
1304.000000	53.836429
1303.000000	53.966006
1302.000000	54.077997
1301.000000	54.189872
1300.000000	54.286592
1299.000000	54.362950
1298.000000	54.456199
1297.000000	54.535680
1296.000000	54.590403
1295.000000	54.653456
1294.000000	54.719285
1293.000000	54.756307
1292.000000	54.798998
1291.000000	54.832086
1290.000000	54.864828
1289.000000	54.870497
1288.000000	54.881603
1287.000000	54.871422
1286.000000	54.886347
1285.000000	54.869455
1284.000000	54.840995
1283.000000	54.814385
1282.000000	54.758853
1281.000000	54.709567
1280.000000	54.681338
1279.000000	54.628119
1278.000000	54.571429
1277.000000	54.518904
1276.000000	54.479222
1275.000000	54.440349
1274.000000	54.397542
1273.000000	54.348141
1272.000000	54.305913
1271.000000	54.283931
1270.000000	54.257900
1269.000000	54.218333
1268.000000	54.168006
1267.000000	54.127629
1266.000000	54.090492
1265.000000	54.036463
1264.000000	53.991921
1263.000000	53.937661
1262.000000	53.878079
1261.000000	53.820347
1260.000000	53.763195
1259.000000	53.703034
1258.000000	53.650857
1257.000000	53.585143
1256.000000	53.504042
1255.000000	53.445269
1254.000000	53.355029
1253.000000	53.255069
1252.000000	53.169341
1251.000000	53.097842
1250.000000	52.996379
1249.000000	52.885892
1248.000000	52.783850
1247.000000	52.661099
1246.000000	52.558017
1245.000000	52.429713
1244.000000	52.286137
1243.000000	52.157717
1242.000000	52.018770
1241.000000	51.857377
1240.000000	51.708017
1239.000000	51.559582
1238.000000	51.400504
1237.000000	51.252069
1236.000000	51.092181
1235.000000	50.925235
1234.000000	50.752621
1233.000000	50.565313
1232.000000	50.378121
1231.000000	50.191392
1230.000000	49.987077
1229.000000	49.782994
1228.000000	49.590827
1227.000000	49.383505
1226.000000	49.166001
1225.000000	48.957637
1224.000000	48.731920
1223.000000	48.497640
1222.000000	48.274930
1221.000000	48.057080
1220.000000	47.828585
1219.000000	47.593496
1218.000000	47.383281
1217.000000	47.177116
1216.000000	46.966554
1215.000000	46.760272
1214.000000	46.575857
1213.000000	46.395954
1212.000000	46.208993
1211.000000	46.030710
1210.000000	45.850691
1209.000000	45.690224
1208.000000	45.542599
1207.000000	45.383405
1206.000000	45.263431
1205.000000	45.144614
1204.000000	45.040258
1203.000000	44.955802
1202.000000	44.885923
1201.000000	44.833283
1200.000000	44.777056
1199.000000	44.709028
1198.000000	44.632902
1197.000000	44.543124
1196.000000	44.423612
1195.000000	44.233875
1194.000000	44.044832
1193.000000	43.796323
1192.000000	43.474811
1191.000000	43.106327
1190.000000	42.690409
1189.000000	42.274723
1188.000000	41.880092
1187.000000	41.518088
1186.000000	41.282999
1185.000000	41.157009
1184.000000	41.146480
1183.000000	41.275826
1182.000000	41.550945
1181.000000	41.947426
1180.000000	42.434611
1179.000000	42.959396
1178.000000	43.502346
1177.000000	44.012669
1176.000000	44.492913
1175.000000	44.923755
1174.000000	45.306816
1173.000000	45.690340
1172.000000	46.037304
1171.000000	46.400697
1170.000000	46.774271
1169.000000	47.159415
1168.000000	47.543632
1167.000000	47.937568
1166.000000	48.326067
1165.000000	48.729837
1164.000000	49.167621
1163.000000	49.608529
1162.000000	50.059154
1161.000000	50.514755
1160.000000	50.973364
1159.000000	51.453839
1158.000000	51.919042
1157.000000	52.360181
1156.000000	52.803981
1155.000000	53.207519
1154.000000	53.597522
1153.000000	53.920654
1152.000000	54.204681
1151.000000	54.468346
1150.000000	54.699617
1149.000000	54.899304
1148.000000	55.109982
1147.000000	55.314065
1146.000000	55.544411
1145.000000	55.805762
1144.000000	56.171122
1143.000000	56.567835
1142.000000	57.027485
1141.000000	57.547642
1140.000000	58.068726
1139.000000	58.638863
1138.000000	59.201364
1137.000000	59.801003
1136.000000	60.434540
1135.000000	61.097464
1134.000000	61.816498
1133.000000	62.503139
1132.000000	63.098381
1131.000000	63.641446
1130.000000	64.156166
1129.000000	64.635021
1128.000000	65.032775
1127.000000	65.386450
1126.000000	65.664693
1125.000000	65.897237
1124.000000	66.068463
1123.000000	66.261671
1122.000000	66.409874
1121.000000	66.535864
1120.000000	66.628188
1119.000000	66.710214
1118.000000	66.780440
1117.000000	66.866516
1116.000000	66.877507
1115.000000	66.914297
1114.000000	66.925982
1113.000000	66.942642
1112.000000	66.936858
1111.000000	66.952592
1110.000000	66.943336
1109.000000	66.951551
1108.000000	66.952708
1107.000000	66.940444
1106.000000	66.935816
1105.000000	66.936163
1104.000000	66.948080
1103.000000	66.936858
1102.000000	66.948080
1101.000000	66.932346
1100.000000	66.923900
1099.000000	66.896596
1098.000000	66.914644
1097.000000	66.900067
1096.000000	66.861078
1095.000000	66.852517
1094.000000	66.827643
1093.000000	66.796290
1092.000000	66.746658
1091.000000	66.720164
1090.000000	66.666019
1089.000000	66.594174
1088.000000	66.585612
1087.000000	66.519551
1086.000000	66.474084
1085.000000	66.398652
1084.000000	66.335136
1083.000000	66.287008
1082.000000	66.205559
1081.000000	66.133945
1080.000000	66.061868
1079.000000	66.020797
1078.000000	65.948373
1077.000000	65.898509
1076.000000	65.826548
1075.000000	65.714094
1074.000000	65.664808
1073.000000	65.585790
1072.000000	65.521349
1071.000000	65.436198
1070.000000	65.373377
1069.000000	65.294242
1068.000000	65.207357
1067.000000	65.137362
1066.000000	65.028957
1065.000000	64.937560
1064.000000	64.868259
1063.000000	64.764945
1062.000000	64.658276
1061.000000	64.574861
1060.000000	64.488669
1059.000000	64.395999
1058.000000	64.276719
1057.000000	64.195271
1056.000000	64.100286
1055.000000	63.991997
1054.000000	63.908467
1053.000000	63.787914
1052.000000	63.688533
1051.000000	63.590888
1050.000000	63.489656
1049.000000	63.390276
1048.000000	63.314381
1047.000000	63.222520
1046.000000	63.112033
1045.000000	63.008719
1044.000000	62.922065
1043.000000	62.842699
1042.000000	62.772820
1041.000000	62.675869
1040.000000	62.575910
1039.000000	62.500362
1038.000000	62.381198
1037.000000	62.303915
1036.000000	62.204765
1035.000000	62.111401
1034.000000	62.014103
1033.000000	61.924787
1032.000000	61.810135
1031.000000	61.686459
1030.000000	61.584302
1029.000000	61.485152
1028.000000	61.363906
1027.000000	61.230511
1026.000000	61.140039
1025.000000	61.027932
1024.000000	60.893959
1023.000000	60.779422
1022.000000	60.642326
1021.000000	60.539590
1020.000000	60.440325
1019.000000	60.327524
1018.000000	60.184643
1017.000000	60.096600
1016.000000	59.984493
1015.000000	59.885575
1014.000000	59.810837
1013.000000	59.723951
1012.000000	59.657428
1011.000000	59.601548
1010.000000	59.547866
1009.000000	59.468963
1008.000000	59.421760
1007.000000	59.390870
1006.000000	59.362988
1005.000000	59.333949
1004.000000	59.270433
1003.000000	59.233296
1002.000000	59.209463
1001.000000	59.160177
1000.000000	59.125701
999.000000	59.119800
998.000000	59.080927
997.000000	59.050963
996.000000	59.037311
995.000000	59.018800
994.000000	58.996934
993.000000	58.991381
992.000000	58.961185
991.000000	58.952392
990.000000	58.943831
989.000000	58.924047
988.000000	58.906577
987.000000	58.911205
986.000000	58.922080
985.000000	58.926939
984.000000	58.933650
983.000000	58.943599
982.000000	58.951119
981.000000	58.972175
980.000000	58.988257
979.000000	59.012437
978.000000	59.010586
977.000000	59.031758
976.000000	59.079192
975.000000	59.091108
974.000000	59.098744
973.000000	59.128593
972.000000	59.143865
971.000000	59.169433
970.000000	59.216751
969.000000	59.246485
968.000000	59.274135
967.000000	59.293456
966.000000	59.332098
965.000000	59.396886
964.000000	59.438651
963.000000	59.479607
962.000000	59.523223
961.000000	59.559435
960.000000	59.636256
959.000000	59.693061
958.000000	59.744429
957.000000	59.794177
956.000000	59.844967
955.000000	59.900384
954.000000	59.964362
953.000000	60.021052
952.000000	60.058652
951.000000	60.113144
950.000000	60.173420
949.000000	60.230110
948.000000	60.291428
947.000000	60.336201
946.000000	60.360497
945.000000	60.387684
944.000000	60.395783
943.000000	60.435813
942.000000	60.485445
941.000000	60.494238
940.000000	60.476768
939.000000	60.471562
938.000000	60.470521
937.000000	60.439168
936.000000	60.468438
935.000000	60.492156
934.000000	60.476190
933.000000	60.473529
932.000000	60.457679
931.000000	60.472256
930.000000	60.473645
929.000000	60.426326
928.000000	60.383288
927.000000	60.405501
926.000000	60.393122
925.000000	60.353555
924.000000	60.314103
923.000000	60.253711
922.000000	60.254753
921.000000	60.235201
920.000000	60.181403
919.000000	60.137902
918.000000	60.093592
917.000000	60.034125
916.000000	59.982989
915.000000	59.918548
914.000000	59.860354
913.000000	59.781220
912.000000	59.713423
911.000000	59.651180
910.000000	59.575285
909.000000	59.520100
908.000000	59.470120
907.000000	59.416438
906.000000	59.354542
905.000000	59.307224
904.000000	59.261756
903.000000	59.244402
902.000000	59.194075
901.000000	59.154508
900.000000	59.146988
899.000000	59.132989
898.000000	59.119222
897.000000	59.097356
896.000000	59.067160
895.000000	59.016833
894.000000	58.973217
893.000000	58.949037
892.000000	58.906577
891.000000	58.822931
890.000000	58.753399
889.000000	58.671951
888.000000	58.581016
887.000000	58.505700
886.000000	58.439060
885.000000	58.313070
884.000000	58.199806
883.000000	58.074742
882.000000	57.956503
881.000000	57.807027
880.000000	57.697118
879.000000	57.543246
878.000000	57.400249
877.000000	57.220346
876.000000	57.052590
875.000000	56.840177
874.000000	56.561356
873.000000	56.274783
872.000000	55.965303
871.000000	55.681855
870.000000	55.476614
869.000000	55.447575
868.000000	55.466549
867.000000	55.505306
866.000000	55.539552
865.000000	55.565814
864.000000	55.581780
863.000000	55.607348
862.000000	55.614984
861.000000	55.623082
860.000000	55.643907
859.000000	55.640899
858.000000	55.654667
857.000000	55.003500
856.000000	56.019400
855.000000	55.941100
854.000000	56.145500
853.000000	55.822900
852.000000	55.476100
851.000000	55.847400
850.000000	55.775900
849.000000	55.861600
848.000000	55.758000
847.000000	55.948000
846.000000	56.057900
845.000000	55.697800
844.000000	55.843900
843.000000	55.978700
842.000000	55.909000
841.000000	56.016700
840.000000	55.626400
839.000000	55.407300
838.000000	55.666000
837.000000	55.851000
836.000000	55.787100
835.000000	55.652400
834.000000	55.556900
833.000000	55.624700
832.000000	55.512400
831.000000	55.474100
830.000000	55.430800
829.000000	55.055500
828.000000	55.418900
827.000000	55.404100
826.000000	55.231800
825.000000	55.246300
824.000000	55.084800
823.000000	55.039100
822.000000	54.995000
821.000000	54.945700
820.000000	54.947600
819.000000	54.865800
818.000000	54.777500
817.000000	54.650000
816.000000	54.515900
815.000000	54.399000
814.000000	54.409600
813.000000	54.520000
812.000000	54.382900
811.000000	54.377800
810.000000	54.341700
809.000000	54.171100
808.000000	53.981600
807.000000	53.906400
806.000000	53.966500
805.000000	53.902000
804.000000	53.794700
803.000000	53.854800
802.000000	53.652000
801.000000	53.442800
800.000000	53.339700
799.000000	53.421500
798.000000	53.316100
797.000000	53.161700
796.000000	53.175600
795.000000	52.960000
794.000000	52.796300
793.000000	52.929000
792.000000	52.828900
791.000000	52.758200
790.000000	52.606600
789.000000	52.409900
788.000000	52.378300
787.000000	52.275400
786.000000	52.239900
785.000000	52.118600
784.000000	52.001100
783.000000	51.949000
782.000000	51.891700
781.000000	51.809700
780.000000	51.671500
779.000000	51.511600
778.000000	51.407100
777.000000	51.212400
776.000000	51.066000
775.000000	51.028700
774.000000	50.886000
773.000000	50.679300
772.000000	50.525300
771.000000	50.443700
770.000000	50.329800
769.000000	50.204300
768.000000	50.126400
767.000000	50.050800
766.000000	49.801800
765.000000	49.787000
764.000000	49.637100
763.000000	49.543700
762.000000	49.398200
761.000000	49.240700
760.000000	49.169000
759.000000	48.956800
758.000000	48.807500
757.000000	48.666300
756.000000	48.500700
755.000000	48.355400
754.000000	48.217400
753.000000	47.939800
752.000000	47.778100
751.000000	47.588700
750.000000	47.562200
749.000000	47.449900
748.000000	47.229900
747.000000	47.096300
746.000000	46.967900
745.000000	46.759200
744.000000	46.580500
743.000000	46.423200
742.000000	46.173200
741.000000	46.040500
740.000000	45.802600
739.000000	45.646000
738.000000	45.470300
737.000000	45.200400
736.000000	44.976600
735.000000	44.816300
734.000000	44.622700
733.000000	44.428500
732.000000	44.139000
731.000000	43.978900
730.000000	43.698700
729.000000	43.522500
728.000000	43.280100
727.000000	43.027300
726.000000	42.781900
725.000000	42.535400
724.000000	42.293600
723.000000	42.045100
722.000000	41.787600
721.000000	41.537000
720.000000	41.277100
719.000000	41.032900
718.000000	40.730000
717.000000	40.436100
716.000000	40.227400
715.000000	39.942800
714.000000	39.660100
713.000000	39.387800
712.000000	39.131300
711.000000	38.872800
710.000000	38.625200
709.000000	38.322300
708.000000	38.059100
707.000000	37.807700
706.000000	37.487600
705.000000	37.274100
704.000000	37.017600
703.000000	36.744200
702.000000	36.505800
701.000000	36.258400
700.000000	35.946500
699.000000	35.718600
698.000000	35.478500
697.000000	35.218700
696.000000	34.972000
695.000000	34.737000
694.000000	34.535800
693.000000	34.272800
692.000000	34.015000
691.000000	33.824100
690.000000	33.600000
689.000000	33.393800
688.000000	33.156300
687.000000	32.958900
686.000000	32.783000
685.000000	32.586800
684.000000	32.376200
683.000000	32.183400
682.000000	31.997100
681.000000	31.800700
680.000000	31.602200
679.000000	31.414600
678.000000	31.220700
677.000000	31.038300
676.000000	30.875100
675.000000	30.698200
674.000000	30.557300
673.000000	30.395000
672.000000	30.207000
671.000000	30.038100
670.000000	29.900800
669.000000	29.748600
668.000000	29.572300
667.000000	29.428900
666.000000	29.306900
665.000000	29.178400
664.000000	29.014600
663.000000	28.855600
662.000000	28.726700
661.000000	28.599400
660.000000	28.473000
659.000000	28.347000
658.000000	28.210100
657.000000	28.107200
656.000000	27.997800
655.000000	27.897700
654.000000	27.765700
653.000000	27.663300
652.000000	27.574700
651.000000	27.462500
650.000000	27.365200
649.000000	27.278400
648.000000	27.197800
647.000000	27.099500
646.000000	27.009500
645.000000	26.945600
644.000000	26.891100
643.000000	26.810300
642.000000	26.729800
641.000000	26.674400
640.000000	26.616900
639.000000	26.555700
638.000000	26.524800
637.000000	26.477200
636.000000	26.430700
635.000000	26.415600
634.000000	26.382200
633.000000	26.348000
632.000000	26.330300
631.000000	26.324700
630.000000	26.310700
629.000000	26.304100
628.000000	26.309000
627.000000	26.302100
626.000000	26.313100
625.000000	26.353800
624.000000	26.379700
623.000000	26.401300
622.000000	26.417200
621.000000	26.443200
620.000000	26.487200
619.000000	26.551100
618.000000	26.605400
617.000000	26.651900
616.000000	26.737800
615.000000	26.798800
614.000000	26.865700
613.000000	26.951700
612.000000	27.032300
611.000000	27.114500
610.000000	27.192400
609.000000	27.283900
608.000000	27.383500
607.000000	27.481100
606.000000	27.575100
605.000000	27.662600
604.000000	27.768200
603.000000	27.863300
602.000000	27.978100
601.000000	28.073000
600.000000	28.184000
599.000000	28.292100
598.000000	28.372500
597.000000	28.457400
596.000000	28.548900
595.000000	28.662800
594.000000	28.762500
593.000000	28.856200
592.000000	28.925200
591.000000	29.007500
590.000000	29.095700
589.000000	29.151400
588.000000	29.221000
587.000000	29.295800
586.000000	29.356100
585.000000	29.413300
584.000000	29.466600
583.000000	29.523800
582.000000	29.550400
581.000000	29.599300
580.000000	29.637200
579.000000	29.659600
578.000000	29.688800
577.000000	29.699100
576.000000	29.693600
575.000000	29.682200
574.000000	29.674100
573.000000	29.663400
572.000000	29.648500
571.000000	29.624200
570.000000	29.575400
569.000000	29.545100
568.000000	29.495300
567.000000	29.441900
566.000000	29.382000
565.000000	29.309700
564.000000	29.220000
563.000000	29.125500
562.000000	29.055500
561.000000	28.955900
560.000000	28.833100
559.000000	28.726400
558.000000	28.616800
557.000000	28.492000
556.000000	28.364700
555.000000	28.217500
554.000000	28.086500
553.000000	27.920400
552.000000	27.753200
551.000000	27.602000
550.000000	27.423700
549.000000	27.231400
548.000000	27.030300
547.000000	26.840100
546.000000	26.644000
545.000000	26.447900
544.000000	26.216300
543.000000	25.997100
542.000000	25.752100
541.000000	25.518300
540.000000	25.272900
539.000000	25.012900
538.000000	24.761300
537.000000	24.503000
536.000000	24.228200
535.000000	23.962000
534.000000	23.667200
533.000000	23.404100
532.000000	23.109100
531.000000	22.812200
530.000000	22.519200
529.000000	22.224700
528.000000	21.910200
527.000000	21.607100
526.000000	21.312800
525.000000	21.006300
524.000000	20.707600
523.000000	20.401400
522.000000	20.075300
521.000000	19.782700
520.000000	19.469000
519.000000	19.166500
518.000000	18.863000
517.000000	18.565900
516.000000	18.266600
515.000000	18.002700
514.000000	17.709000
513.000000	17.441400
512.000000	17.173500
511.000000	16.907200
510.000000	16.661200
509.000000	16.392800
508.000000	16.186100
507.000000	15.951000
506.000000	15.694800
505.000000	15.514700
504.000000	15.289800
503.000000	15.106500
502.000000	14.908500
501.000000	14.723700
500.000000	14.565400
499.000000	14.392000
498.000000	14.229500
497.000000	14.061100
496.000000	13.925500
495.000000	13.795500
494.000000	13.664900
493.000000	13.527100
492.000000	13.383400
491.000000	13.290700
490.000000	13.178600
489.000000	13.060700
488.000000	12.970100
487.000000	12.879700
486.000000	12.768700
485.000000	12.704300
484.000000	12.605300
483.000000	12.511100
482.000000	12.405000
481.000000	12.321700
480.000000	12.213800
479.000000	12.123100
478.000000	12.014800
477.000000	11.924700
476.000000	11.852500
475.000000	11.750200
474.000000	11.661500
473.000000	11.582800
472.000000	11.485100
471.000000	11.409500
470.000000	11.350000
469.000000	11.251100
468.000000	11.188000
467.000000	11.110100
466.000000	11.021100
465.000000	10.965400
464.000000	10.890800
463.000000	10.826300
462.000000	10.762700
461.000000	10.697000
460.000000	10.627900
459.000000	10.568200
458.000000	10.523400
457.000000	10.448600
456.000000	10.398100
455.000000	10.339100
454.000000	10.293600
453.000000	10.248300
452.000000	10.178300
451.000000	10.168200
450.000000	10.095600
449.000000	10.034800
448.000000	9.988300
447.000000	9.949500
446.000000	9.901700
445.000000	9.854700
444.000000	9.809400
443.000000	9.738800
442.000000	9.704500
441.000000	9.651600
440.000000	9.585800
439.000000	9.554200
438.000000	9.505000
437.000000	9.449100
436.000000	9.400400
435.000000	9.346800
434.000000	9.290300
433.000000	9.240800
432.000000	9.209900
431.000000	9.161700
430.000000	9.123100
429.000000	9.082400
428.000000	9.016200
427.000000	8.974700
426.000000	8.927300
425.000000	8.868100
424.000000	8.832300
423.000000	8.793000
422.000000	8.756700
421.000000	8.688000
420.000000	8.652300
419.000000	8.585100
418.000000	8.533200
417.000000	8.489900
416.000000	8.438300
415.000000	8.387300
414.000000	8.341100
413.000000	8.265900
412.000000	8.207000
411.000000	8.145000
410.000000	8.078600
409.000000	8.002600
408.000000	7.942100
407.000000	7.894900
406.000000	7.830300
405.000000	7.781100
404.000000	7.675700
403.000000	7.614700
402.000000	7.553500
401.000000	7.484800
400.000000	7.413800
399.000000	7.347400
398.000000	7.274300
397.000000	7.190700
396.000000	7.102400
395.000000	7.023900
394.000000	6.956500
393.000000	6.873100
392.000000	6.781100
391.000000	6.705100
390.000000	6.610100
389.000000	6.547200
388.000000	6.472200
387.000000	6.376600
386.000000	6.303700
385.000000	6.246800
384.000000	6.171000
383.000000	6.101100
382.000000	6.035800
381.000000	5.955200
380.000000	5.886200
379.000000	5.806200
378.000000	5.750800
377.000000	5.690900
376.000000	5.631900
375.000000	5.377500
374.000000	5.112100
373.000000	5.168400
372.000000	5.037700
371.000000	5.121900
370.000000	5.153500
369.000000	5.174800
368.000000	5.126100
367.000000	5.031300
366.000000	5.128700
365.000000	5.174200
364.000000	5.012000
363.000000	4.944700
362.000000	4.856500
361.000000	4.927900
360.000000	4.978400
359.000000	4.787500
358.000000	4.854400
357.000000	5.127700
356.000000	4.971800
355.000000	4.962300
354.000000	5.039600
353.000000	4.864100
352.000000	4.896800
351.000000	4.990200
350.000000	5.207700
349.000000	5.065000
348.000000	4.931900
347.000000	5.017400
346.000000	4.822300
345.000000	4.818300
344.000000	5.051900
343.000000	5.056100
342.000000	4.956300
341.000000	4.991600
340.000000	4.952400
339.000000	4.908900
338.000000	4.974800
337.000000	5.164900
336.000000	5.197700
335.000000	4.913500
334.000000	4.890300
333.000000	4.970800
332.000000	5.100700
331.000000	5.150500
330.000000	5.116200
329.000000	5.311600
328.000000	5.335700
327.000000	5.011000
326.000000	4.899400
325.000000	5.229200
324.000000	5.670500
323.000000	5.534300
322.000000	5.580200
321.000000	5.952700
320.000000	6.166600
319.000000	6.379800
318.000000	5.919900
317.000000	5.619700
316.000000	5.215600
315.000000	4.799600
314.000000	4.814300
313.000000	4.789900
312.000000	4.796600
311.000000	4.864900
310.000000	4.831800
309.000000	4.814400
308.000000	4.835900
307.000000	4.813000
306.000000	4.774400
305.000000	4.830000
304.000000	4.830000
303.000000	4.813900
302.000000	4.787900
301.000000	4.831400
300.000000	4.881400
299.000000	4.839600
298.000000	4.848000
297.000000	4.846500
296.000000	4.887900
295.000000	4.885700
294.000000	4.881100
293.000000	4.851300
292.000000	4.860500
291.000000	4.897400
290.000000	4.890400
289.000000	4.859900
288.000000	4.885700
287.000000	4.851700
286.000000	4.862600
285.000000	4.892300
284.000000	4.913000
283.000000	4.939100
282.000000	4.918700
281.000000	4.951500
280.000000	4.901300
279.000000	4.881600
278.000000	4.920000
277.000000	4.979600
276.000000	4.989000
275.000000	5.024100
274.000000	4.984800
273.000000	4.979300
272.000000	4.997400
271.000000	5.004400
270.000000	5.025800
269.000000	5.039200
268.000000	5.069100
267.000000	5.039400
266.000000	5.078900
265.000000	5.098700
264.000000	5.091300
263.000000	5.107200
262.000000	5.199600
261.000000	5.229600
260.000000	5.219100
259.000000	5.206900
258.000000	5.235000
257.000000	5.246600
256.000000	5.297900
255.000000	5.292400
254.000000	5.291200
253.000000	5.333100
252.000000	5.360200
251.000000	5.367700
250.000000	5.323200
