PE UV       SUBTECH     SPECTRUM    ASCII       PEDS        4.00        
   -1
PELID.001-TX3.ASC
23/11/30
15:17:19.00
23/11/30
15:17:19.00
Vinicio Soto Monge
PELID 1
250,000000
1
Lambda 1050
1050L1511233
PerkinElmer UV WinLab 6.3.2.0749 / 2.02.05 Lambda 900 UV/VIS/NIR, Aug  7 2015 09:38:08

0
0
3350/servo 860,8/2
0
0
UV/VIS
1
1
1
DoubleDePol,CommonBeamDepol,RBeamAtt,SBeamAtt,60mm sphere, WB InGaAs Detector
0
0
0
0
Program
Program
3350/servo 860,8/2
3350/0,4 860,8/0,4
3350/0,4 860,8/0,4
0
20.00
 
 
 
0
 
860,8
319,2
860,8
Front
100
on
S:100 R:100
0
0
0
0
 
0
 
 
 
0
 
 
0
0
0
0
0
 
 
 
 
0
0


0
0
#HDR
-1
-1
#GR
nm
%R
1.0
0.0
2200,000000
-1,000000
1951
8
42,961348
0,210139
#DATA
284.000000	6.042341
285.000000	6.028120
286.000000	6.014040
287.000000	5.998797
288.000000	5.985040
289.000000	5.971962
290.000000	5.960302
291.000000	5.948865
292.000000	5.937656
293.000000	5.929564
294.000000	5.921393
295.000000	5.913037
296.000000	5.906897
297.000000	5.902722
298.000000	5.897106
299.000000	5.890736
300.000000	5.886616
301.000000	5.883174
302.000000	5.881413
303.000000	5.877452
304.000000	5.873435
305.000000	5.867053
306.000000	5.861129
307.000000	5.855973
308.000000	5.851678
309.000000	5.845512
310.000000	5.839840
311.000000	5.835656
312.000000	5.829960
313.000000	5.824657
314.000000	5.817827
315.000000	5.812249
316.000000	5.807333
317.000000	5.798704
318.000000	5.793303
319.000000	5.782106
320.000000	5.765796
321.000000	5.753860
322.000000	5.746086
323.000000	5.734635
324.000000	5.721737
325.000000	5.708405
326.000000	5.696150
327.000000	5.678960
328.000000	5.662301
329.000000	5.644246
330.000000	5.630749
331.000000	5.615102
332.000000	5.594379
333.000000	5.578445
334.000000	5.563270
335.000000	5.544450
336.000000	5.528059
337.000000	5.510517
338.000000	5.494613
339.000000	5.479530
340.000000	5.466789
341.000000	5.454442
342.000000	5.440857
343.000000	5.429216
344.000000	5.418174
345.000000	5.405745
346.000000	5.394972
347.000000	5.383871
348.000000	5.370888
349.000000	5.359782
350.000000	5.349469
351.000000	5.336947
352.000000	5.326550
353.000000	5.314721
354.000000	5.306728
355.000000	5.303758
356.000000	5.296798
357.000000	5.285615
358.000000	5.280555
359.000000	5.277298
360.000000	5.273579
361.000000	5.268421
362.000000	5.266393
363.000000	5.263061
364.000000	5.262547
365.000000	5.257536
366.000000	5.254114
367.000000	5.254415
368.000000	5.251505
369.000000	5.249754
370.000000	5.247989
371.000000	5.244608
372.000000	5.242927
373.000000	5.241659
374.000000	5.238518
375.000000	5.236766
376.000000	5.235022
377.000000	5.234510
378.000000	5.232919
379.000000	5.233007
380.000000	5.232491
381.000000	5.232286
382.000000	5.232363
383.000000	5.233649
384.000000	5.235176
385.000000	5.235657
386.000000	5.237891
387.000000	5.241086
388.000000	5.244767
389.000000	5.249028
390.000000	5.252925
391.000000	5.258103
392.000000	5.265291
393.000000	5.270093
394.000000	5.274810
395.000000	5.281287
396.000000	5.288876
397.000000	5.298234
398.000000	5.308622
399.000000	5.317130
400.000000	5.326966
401.000000	5.337172
402.000000	5.347110
403.000000	5.358438
404.000000	5.370098
405.000000	5.383709
406.000000	5.398457
407.000000	5.412279
408.000000	5.427339
409.000000	5.444962
410.000000	5.461107
411.000000	5.479214
412.000000	5.496882
413.000000	5.515850
414.000000	5.536072
415.000000	5.557213
416.000000	5.579362
417.000000	5.602695
418.000000	5.627196
419.000000	5.652914
420.000000	5.680152
421.000000	5.708839
422.000000	5.738628
423.000000	5.769573
424.000000	5.801559
425.000000	5.835046
426.000000	5.869794
427.000000	5.905380
428.000000	5.941977
429.000000	5.979538
430.000000	6.018187
431.000000	6.058212
432.000000	6.098949
433.000000	6.140481
434.000000	6.183584
435.000000	6.227607
436.000000	6.273201
437.000000	6.319668
438.000000	6.366787
439.000000	6.414292
440.000000	6.462634
441.000000	6.512222
442.000000	6.563091
443.000000	6.614159
444.000000	6.665967
445.000000	6.718956
446.000000	6.772383
447.000000	6.826474
448.000000	6.880574
449.000000	6.935136
450.000000	6.990414
451.000000	7.046019
452.000000	7.102294
453.000000	7.159123
454.000000	7.216405
455.000000	7.273834
456.000000	7.331198
457.000000	7.388738
458.000000	7.446855
459.000000	7.505592
460.000000	7.564493
461.000000	7.623602
462.000000	7.683484
463.000000	7.744152
464.000000	7.805679
465.000000	7.867317
466.000000	7.929404
467.000000	7.992414
468.000000	8.056284
469.000000	8.120688
470.000000	8.185266
471.000000	8.250277
472.000000	8.316049
473.000000	8.382774
474.000000	8.450566
475.000000	8.519001
476.000000	8.587790
477.000000	8.657307
478.000000	8.727988
479.000000	8.798860
480.000000	8.869915
481.000000	8.942487
482.000000	9.015987
483.000000	9.090615
484.000000	9.166140
485.000000	9.242386
486.000000	9.319401
487.000000	9.397234
488.000000	9.475973
489.000000	9.555936
490.000000	9.637298
491.000000	9.720197
492.000000	9.803680
493.000000	9.888249
494.000000	9.974032
495.000000	10.061048
496.000000	10.148756
497.000000	10.237501
498.000000	10.327940
499.000000	10.419210
500.000000	10.511983
501.000000	10.606008
502.000000	10.700861
503.000000	10.796721
504.000000	10.894056
505.000000	10.992443
506.000000	11.092241
507.000000	11.193821
508.000000	11.296618
509.000000	11.400964
510.000000	11.507309
511.000000	11.615170
512.000000	11.724687
513.000000	11.836516
514.000000	11.950525
515.000000	12.067208
516.000000	12.185539
517.000000	12.306361
518.000000	12.429339
519.000000	12.555206
520.000000	12.683521
521.000000	12.814331
522.000000	12.947667
523.000000	13.083564
524.000000	13.221486
525.000000	13.362808
526.000000	13.506970
527.000000	13.654136
528.000000	13.804467
529.000000	13.957484
530.000000	14.114075
531.000000	14.275175
532.000000	14.439595
533.000000	14.607105
534.000000	14.779219
535.000000	14.955807
536.000000	15.137062
537.000000	15.322967
538.000000	15.514082
539.000000	15.709980
540.000000	15.912316
541.000000	16.120746
542.000000	16.334627
543.000000	16.555031
544.000000	16.782132
545.000000	17.015826
546.000000	17.255880
547.000000	17.502563
548.000000	17.755170
549.000000	18.014486
550.000000	18.278762
551.000000	18.548546
552.000000	18.822573
553.000000	19.101695
554.000000	19.383932
555.000000	19.669841
556.000000	19.959670
557.000000	20.252611
558.000000	20.546468
559.000000	20.842883
560.000000	21.138248
561.000000	21.433878
562.000000	21.728737
563.000000	22.022742
564.000000	22.314439
565.000000	22.603169
566.000000	22.888263
567.000000	23.170489
568.000000	23.448097
569.000000	23.719502
570.000000	23.983462
571.000000	24.240727
572.000000	24.491298
573.000000	24.733619
574.000000	24.968141
575.000000	25.192891
576.000000	25.407605
577.000000	25.612640
578.000000	25.807778
579.000000	25.992772
580.000000	26.166683
581.000000	26.329013
582.000000	26.480997
583.000000	26.621987
584.000000	26.751912
585.000000	26.872467
586.000000	26.982974
587.000000	27.084229
588.000000	27.175523
589.000000	27.258391
590.000000	27.334138
591.000000	27.402677
592.000000	27.464289
593.000000	27.520275
594.000000	27.570515
595.000000	27.617018
596.000000	27.658853
597.000000	27.697993
598.000000	27.734001
599.000000	27.768792
600.000000	27.801759
601.000000	27.834583
602.000000	27.865489
603.000000	27.897705
604.000000	27.932343
605.000000	27.969627
606.000000	28.009068
607.000000	28.051017
608.000000	28.095953
609.000000	28.142869
610.000000	28.194878
611.000000	28.250604
612.000000	28.310894
613.000000	28.374373
614.000000	28.441672
615.000000	28.514175
616.000000	28.592285
617.000000	28.674106
618.000000	28.759668
619.000000	28.849182
620.000000	28.943072
621.000000	29.042080
622.000000	29.145182
623.000000	29.252086
624.000000	29.363767
625.000000	29.478959
626.000000	29.597172
627.000000	29.717633
628.000000	29.842339
629.000000	29.969848
630.000000	30.101139
631.000000	30.236219
632.000000	30.371450
633.000000	30.510403
634.000000	30.651562
635.000000	30.796162
636.000000	30.941568
637.000000	31.089326
638.000000	31.238446
639.000000	31.389007
640.000000	31.541720
641.000000	31.696233
642.000000	31.851689
643.000000	32.009543
644.000000	32.169543
645.000000	32.328888
646.000000	32.489636
647.000000	32.651411
648.000000	32.814290
649.000000	32.977038
650.000000	33.139315
651.000000	33.302320
652.000000	33.465559
653.000000	33.630721
654.000000	33.797489
655.000000	33.964779
656.000000	34.130210
657.000000	34.296792
658.000000	34.464935
659.000000	34.633025
660.000000	34.800499
661.000000	34.968975
662.000000	35.138153
663.000000	35.306650
664.000000	35.473912
665.000000	35.640519
666.000000	35.805988
667.000000	35.974398
668.000000	36.141600
669.000000	36.309593
670.000000	36.476741
671.000000	36.643623
672.000000	36.810792
673.000000	36.977587
674.000000	37.143905
675.000000	37.308587
676.000000	37.471911
677.000000	37.636577
678.000000	37.799635
679.000000	37.961198
680.000000	38.123899
681.000000	38.284703
682.000000	38.445738
683.000000	38.606686
684.000000	38.768806
685.000000	38.930836
686.000000	39.091782
687.000000	39.251292
688.000000	39.408794
689.000000	39.566548
690.000000	39.721484
691.000000	39.878068
692.000000	40.033739
693.000000	40.188073
694.000000	40.342245
695.000000	40.495737
696.000000	40.649444
697.000000	40.801267
698.000000	40.952406
699.000000	41.103895
700.000000	41.253736
701.000000	41.403499
702.000000	41.553331
703.000000	41.702071
704.000000	41.847784
705.000000	41.993472
706.000000	42.139377
707.000000	42.283836
708.000000	42.428878
709.000000	42.574331
710.000000	42.719531
711.000000	42.867111
712.000000	43.010796
713.000000	43.150894
714.000000	43.293452
715.000000	43.434465
716.000000	43.575574
717.000000	43.715037
718.000000	43.853715
719.000000	43.989122
720.000000	44.125850
721.000000	44.263762
722.000000	44.400876
723.000000	44.538967
724.000000	44.674416
725.000000	44.808649
726.000000	44.941975
727.000000	45.075777
728.000000	45.210273
729.000000	45.343032
730.000000	45.474927
731.000000	45.603099
732.000000	45.731887
733.000000	45.860135
734.000000	45.987710
735.000000	46.116135
736.000000	46.245097
737.000000	46.372275
738.000000	46.497751
739.000000	46.625035
740.000000	46.752360
741.000000	46.879107
742.000000	47.003875
743.000000	47.126244
744.000000	47.248377
745.000000	47.370925
746.000000	47.492142
747.000000	47.613175
748.000000	47.734439
749.000000	47.854034
750.000000	47.973462
751.000000	48.092655
752.000000	48.211391
753.000000	48.329830
754.000000	48.448524
755.000000	48.563278
756.000000	48.674638
757.000000	48.788903
758.000000	48.903483
759.000000	49.015594
760.000000	49.128923
761.000000	49.243179
762.000000	49.354635
763.000000	49.464874
764.000000	49.574321
765.000000	49.685076
766.000000	49.797207
767.000000	49.908365
768.000000	50.017286
769.000000	50.128001
770.000000	50.236673
771.000000	50.343402
772.000000	50.448515
773.000000	50.556601
774.000000	50.662341
775.000000	50.766190
776.000000	50.868865
777.000000	50.972467
778.000000	51.077895
779.000000	51.183231
780.000000	51.284298
781.000000	51.382623
782.000000	51.483067
783.000000	51.584281
784.000000	51.680454
785.000000	51.778850
786.000000	51.877754
787.000000	51.974270
788.000000	52.070744
789.000000	52.163563
790.000000	52.256022
791.000000	52.351514
792.000000	52.447022
793.000000	52.539897
794.000000	52.634954
795.000000	52.729628
796.000000	52.824643
797.000000	52.918351
798.000000	53.012823
799.000000	53.104480
800.000000	53.192451
801.000000	53.281118
802.000000	53.369573
803.000000	53.461333
804.000000	53.550781
805.000000	53.637851
806.000000	53.725645
807.000000	53.811463
808.000000	53.893713
809.000000	53.979005
810.000000	54.061947
811.000000	54.149497
812.000000	54.238220
813.000000	54.325118
814.000000	54.403169
815.000000	54.481950
816.000000	54.562475
817.000000	54.641947
818.000000	54.721180
819.000000	54.797572
820.000000	54.875656
821.000000	54.952912
822.000000	55.032130
823.000000	55.109922
824.000000	55.186459
825.000000	55.260895
826.000000	55.340817
827.000000	55.420185
828.000000	55.496434
829.000000	55.566904
830.000000	55.638833
831.000000	55.701811
832.000000	55.772697
833.000000	55.840418
834.000000	55.913334
835.000000	55.986864
836.000000	56.049970
837.000000	56.110070
838.000000	56.178036
839.000000	56.241297
840.000000	56.310388
841.000000	56.370758
842.000000	56.429889
843.000000	56.488779
844.000000	56.549685
845.000000	56.620447
846.000000	56.679441
847.000000	56.733875
848.000000	56.792176
849.000000	56.851637
850.000000	56.907437
851.000000	56.965832
852.000000	57.024334
853.000000	57.072668
854.000000	57.134263
855.000000	57.189174
856.000000	57.250935
857.000000	57.288496
858.000000	57.280982
859.000000	57.339239
860.000000	57.425332
861.000000	57.489435
862.000000	57.511911
863.000000	57.564948
864.000000	57.614292
865.000000	57.625953
866.000000	57.640739
867.000000	57.684699
868.000000	57.753259
869.000000	57.789370
870.000000	57.837999
871.000000	57.914526
872.000000	57.960454
873.000000	57.972365
874.000000	58.030190
875.000000	58.080222
876.000000	58.136197
877.000000	58.189713
878.000000	58.229269
879.000000	58.265653
880.000000	58.328907
881.000000	58.397122
882.000000	58.453607
883.000000	58.529268
884.000000	58.577274
885.000000	58.635022
886.000000	58.712034
887.000000	58.747741
888.000000	58.819672
889.000000	58.891422
890.000000	58.953218
891.000000	58.995064
892.000000	59.043800
893.000000	59.175830
894.000000	59.213236
895.000000	59.225788
896.000000	59.279132
897.000000	59.342446
898.000000	59.401416
899.000000	59.464097
900.000000	59.554280
901.000000	59.628070
902.000000	59.637687
903.000000	59.644464
904.000000	59.678687
905.000000	59.686538
906.000000	59.706281
907.000000	59.726170
908.000000	59.782102
909.000000	59.765463
910.000000	59.754054
911.000000	59.763999
912.000000	59.774012
913.000000	59.806978
914.000000	59.866943
915.000000	59.814975
916.000000	59.778069
917.000000	59.789311
918.000000	59.791622
919.000000	59.829094
920.000000	59.846556
921.000000	59.837633
922.000000	59.843844
923.000000	59.845114
924.000000	59.824012
925.000000	59.819401
926.000000	59.847302
927.000000	59.876381
928.000000	59.876543
929.000000	59.892238
930.000000	59.891321
931.000000	59.850903
932.000000	59.848688
933.000000	59.864539
934.000000	59.855219
935.000000	59.807970
936.000000	59.805012
937.000000	59.849472
938.000000	59.862961
939.000000	59.867602
940.000000	59.925747
941.000000	59.927953
942.000000	59.979080
943.000000	59.997613
944.000000	60.026786
945.000000	60.068314
946.000000	60.060650
947.000000	60.093700
948.000000	60.101888
949.000000	60.072396
950.000000	60.120838
951.000000	60.165845
952.000000	60.174844
953.000000	60.171357
954.000000	60.176895
955.000000	60.184774
956.000000	60.211646
957.000000	60.238751
958.000000	60.282544
959.000000	60.334377
960.000000	60.361111
961.000000	60.330576
962.000000	60.340922
963.000000	60.327404
964.000000	60.329565
965.000000	60.365336
966.000000	60.396306
967.000000	60.419612
968.000000	60.414848
969.000000	60.427851
970.000000	60.475220
971.000000	60.454322
972.000000	60.448099
973.000000	60.467844
974.000000	60.477449
975.000000	60.466020
976.000000	60.490403
977.000000	60.470091
978.000000	60.462940
979.000000	60.481542
980.000000	60.490562
981.000000	60.530375
982.000000	60.528146
983.000000	60.518441
984.000000	60.548019
985.000000	60.591553
986.000000	60.596585
987.000000	60.610775
988.000000	60.628209
989.000000	60.630729
990.000000	60.628102
991.000000	60.608168
992.000000	60.636564
993.000000	60.618335
994.000000	60.602436
995.000000	60.575787
996.000000	60.586774
997.000000	60.602857
998.000000	60.633600
999.000000	60.671173
1000.000000	60.649949
1001.000000	60.643563
1002.000000	60.642538
1003.000000	60.626749
1004.000000	60.613509
1005.000000	60.599819
1006.000000	60.650998
1007.000000	60.654958
1008.000000	60.650141
1009.000000	60.664354
1010.000000	60.656288
1011.000000	60.629481
1012.000000	60.641561
1013.000000	60.672162
1014.000000	60.681058
1015.000000	60.671885
1016.000000	60.660363
1017.000000	60.697986
1018.000000	60.758808
1019.000000	60.728938
1020.000000	60.692465
1021.000000	60.706786
1022.000000	60.716744
1023.000000	60.714904
1024.000000	60.702940
1025.000000	60.702923
1026.000000	60.721736
1027.000000	60.743834
1028.000000	60.755187
1029.000000	60.752470
1030.000000	60.779497
1031.000000	60.799718
1032.000000	60.780297
1033.000000	60.772181
1034.000000	60.719655
1035.000000	60.706607
1036.000000	60.711067
1037.000000	60.710838
1038.000000	60.705718
1039.000000	60.695441
1040.000000	60.698653
1041.000000	60.680128
1042.000000	60.675059
1043.000000	60.680538
1044.000000	60.688716
1045.000000	60.675413
1046.000000	60.657823
1047.000000	60.642023
1048.000000	60.611392
1049.000000	60.595400
1050.000000	60.598412
1051.000000	60.588998
1052.000000	60.522015
1053.000000	60.451058
1054.000000	60.457381
1055.000000	60.479503
1056.000000	60.453354
1057.000000	60.434908
1058.000000	60.415472
1059.000000	60.400997
1060.000000	60.385232
1061.000000	60.367743
1062.000000	60.309913
1063.000000	60.283710
1064.000000	60.229765
1065.000000	60.185605
1066.000000	60.180571
1067.000000	60.171413
1068.000000	60.147723
1069.000000	60.192839
1070.000000	60.233075
1071.000000	60.243435
1072.000000	60.240490
1073.000000	60.238494
1074.000000	60.243055
1075.000000	60.265902
1076.000000	60.267617
1077.000000	60.255661
1078.000000	60.216456
1079.000000	60.181634
1080.000000	60.177081
1081.000000	60.204491
1082.000000	60.197340
1083.000000	60.227459
1084.000000	60.259975
1085.000000	60.273253
1086.000000	60.283626
1087.000000	60.295217
1088.000000	60.342667
1089.000000	60.358211
1090.000000	60.325815
1091.000000	60.312120
1092.000000	60.285859
1093.000000	60.232274
1094.000000	60.229395
1095.000000	60.241492
1096.000000	60.207314
1097.000000	60.214353
1098.000000	60.223667
1099.000000	60.249315
1100.000000	60.267108
1101.000000	60.247047
1102.000000	60.252325
1103.000000	60.230671
1104.000000	60.204850
1105.000000	60.150260
1106.000000	60.147824
1107.000000	60.137323
1108.000000	60.141439
1109.000000	60.129874
1110.000000	60.132956
1111.000000	60.147411
1112.000000	60.191309
1113.000000	60.247558
1114.000000	60.275325
1115.000000	60.224221
1116.000000	60.167122
1117.000000	60.142223
1118.000000	60.107296
1119.000000	60.058724
1120.000000	60.062311
1121.000000	60.077064
1122.000000	60.065394
1123.000000	59.988029
1124.000000	59.988560
1125.000000	59.959519
1126.000000	59.974931
1127.000000	60.006253
1128.000000	60.081404
1129.000000	60.078525
1130.000000	60.050923
1131.000000	60.072037
1132.000000	60.044472
1133.000000	60.036471
1134.000000	60.054297
1135.000000	60.038319
1136.000000	60.031400
1137.000000	60.051404
1138.000000	60.090508
1139.000000	60.103746
1140.000000	60.086473
1141.000000	60.036629
1142.000000	60.010797
1143.000000	59.958902
1144.000000	59.939915
1145.000000	59.906540
1146.000000	59.902111
1147.000000	59.856633
1148.000000	59.788397
1149.000000	59.761118
1150.000000	59.809041
1151.000000	59.872305
1152.000000	59.899036
1153.000000	59.902032
1154.000000	59.859473
1155.000000	59.821002
1156.000000	59.751634
1157.000000	59.738887
1158.000000	59.731146
1159.000000	59.673890
1160.000000	59.672253
1161.000000	59.642936
1162.000000	59.563500
1163.000000	59.529882
1164.000000	59.492505
1165.000000	59.488404
1166.000000	59.471425
1167.000000	59.462850
1168.000000	59.384717
1169.000000	59.318018
1170.000000	59.226114
1171.000000	59.203693
1172.000000	59.115095
1173.000000	59.061024
1174.000000	59.002891
1175.000000	59.003103
1176.000000	58.956473
1177.000000	58.962230
1178.000000	58.952360
1179.000000	58.934475
1180.000000	58.914799
1181.000000	58.871529
1182.000000	58.856629
1183.000000	58.833048
1184.000000	58.768149
1185.000000	58.707266
1186.000000	58.640767
1187.000000	58.615434
1188.000000	58.585937
1189.000000	58.583899
1190.000000	58.520212
1191.000000	58.559120
1192.000000	58.575284
1193.000000	58.616431
1194.000000	58.620856
1195.000000	58.635750
1196.000000	58.610954
1197.000000	58.618049
1198.000000	58.580411
1199.000000	58.583828
1200.000000	58.558562
1201.000000	58.541473
1202.000000	58.543157
1203.000000	58.559634
1204.000000	58.551173
1205.000000	58.593822
1206.000000	58.602841
1207.000000	58.629903
1208.000000	58.633317
1209.000000	58.596423
1210.000000	58.545174
1211.000000	58.579673
1212.000000	58.561928
1213.000000	58.565599
1214.000000	58.550716
1215.000000	58.536408
1216.000000	58.508136
1217.000000	58.491979
1218.000000	58.489027
1219.000000	58.510099
1220.000000	58.464952
1221.000000	58.421983
1222.000000	58.397848
1223.000000	58.382434
1224.000000	58.390698
1225.000000	58.439049
1226.000000	58.389830
1227.000000	58.346740
1228.000000	58.311908
1229.000000	58.309951
1230.000000	58.304466
1231.000000	58.313228
1232.000000	58.319736
1233.000000	58.320765
1234.000000	58.316932
1235.000000	58.330112
1236.000000	58.317802
1237.000000	58.299968
1238.000000	58.294774
1239.000000	58.299854
1240.000000	58.331459
1241.000000	58.336997
1242.000000	58.325645
1243.000000	58.287639
1244.000000	58.336022
1245.000000	58.396471
1246.000000	58.420833
1247.000000	58.438010
1248.000000	58.445450
1249.000000	58.479626
1250.000000	58.464733
1251.000000	58.467217
1252.000000	58.462415
1253.000000	58.466786
1254.000000	58.474824
1255.000000	58.539995
1256.000000	58.556115
1257.000000	58.545317
1258.000000	58.559549
1259.000000	58.586713
1260.000000	58.587253
1261.000000	58.599336
1262.000000	58.582932
1263.000000	58.591878
1264.000000	58.613570
1265.000000	58.613494
1266.000000	58.585319
1267.000000	58.565922
1268.000000	58.577832
1269.000000	58.585653
1270.000000	58.570740
1271.000000	58.571684
1272.000000	58.536484
1273.000000	58.516656
1274.000000	58.505597
1275.000000	58.466738
1276.000000	58.455954
1277.000000	58.489936
1278.000000	58.493439
1279.000000	58.436226
1280.000000	58.396139
1281.000000	58.379249
1282.000000	58.364254
1283.000000	58.391652
1284.000000	58.379701
1285.000000	58.410421
1286.000000	58.436204
1287.000000	58.458951
1288.000000	58.516717
1289.000000	58.537262
1290.000000	58.551351
1291.000000	58.560956
1292.000000	58.577045
1293.000000	58.562537
1294.000000	58.507834
1295.000000	58.499175
1296.000000	58.513799
1297.000000	58.556741
1298.000000	58.583165
1299.000000	58.566811
1300.000000	58.552609
1301.000000	58.572610
1302.000000	58.583866
1303.000000	58.577447
1304.000000	58.604194
1305.000000	58.607593
1306.000000	58.617503
1307.000000	58.657865
1308.000000	58.670014
1309.000000	58.680085
1310.000000	58.688455
1311.000000	58.680465
1312.000000	58.667548
1313.000000	58.694483
1314.000000	58.763385
1315.000000	58.799156
1316.000000	58.817520
1317.000000	58.808180
1318.000000	58.771936
1319.000000	58.773349
1320.000000	58.751768
1321.000000	58.752105
1322.000000	58.727274
1323.000000	58.662654
1324.000000	58.616322
1325.000000	58.588592
1326.000000	58.590211
1327.000000	58.586208
1328.000000	58.584997
1329.000000	58.617372
1330.000000	58.579931
1331.000000	58.518799
1332.000000	58.507727
1333.000000	58.489684
1334.000000	58.469948
1335.000000	58.449397
1336.000000	58.423874
1337.000000	58.405295
1338.000000	58.373960
1339.000000	58.327460
1340.000000	58.320627
1341.000000	58.300473
1342.000000	58.272356
1343.000000	58.239011
1344.000000	58.200654
1345.000000	58.183584
1346.000000	58.172192
1347.000000	58.096844
1348.000000	58.059126
1349.000000	57.989881
1350.000000	57.970782
1351.000000	57.916399
1352.000000	57.898942
1353.000000	57.876413
1354.000000	57.820096
1355.000000	57.679937
1356.000000	57.607003
1357.000000	57.575804
1358.000000	57.514486
1359.000000	57.478058
1360.000000	57.401538
1361.000000	57.514063
1362.000000	57.681189
1363.000000	57.675605
1364.000000	57.562944
1365.000000	57.560186
1366.000000	57.534769
1367.000000	57.323882
1368.000000	57.214190
1369.000000	57.177961
1370.000000	57.167569
1371.000000	57.163196
1372.000000	57.201287
1373.000000	57.190935
1374.000000	57.127277
1375.000000	57.084479
1376.000000	57.088308
1377.000000	57.073994
1378.000000	56.906879
1379.000000	56.876499
1380.000000	56.749526
1381.000000	56.597654
1382.000000	56.397340
1383.000000	56.289766
1384.000000	56.304805
1385.000000	56.267988
1386.000000	56.228936
1387.000000	56.207259
1388.000000	56.264767
1389.000000	56.227233
1390.000000	56.319939
1391.000000	56.307903
1392.000000	56.241294
1393.000000	56.210060
1394.000000	56.201073
1395.000000	56.162410
1396.000000	55.946270
1397.000000	55.740675
1398.000000	55.635359
1399.000000	55.591150
1400.000000	55.342717
1401.000000	55.202480
1402.000000	55.321760
1403.000000	55.288314
1404.000000	55.308765
1405.000000	55.233609
1406.000000	55.081295
1407.000000	54.903169
1408.000000	54.742947
1409.000000	54.567633
1410.000000	54.444162
1411.000000	54.290469
1412.000000	54.127517
1413.000000	54.189942
1414.000000	54.074450
1415.000000	54.036924
1416.000000	54.004023
1417.000000	54.026684
1418.000000	54.029223
1419.000000	53.856299
1420.000000	53.664025
1421.000000	53.527711
1422.000000	53.363305
1423.000000	53.139931
1424.000000	52.982979
1425.000000	52.761700
1426.000000	52.615765
1427.000000	52.505355
1428.000000	52.360430
1429.000000	52.213807
1430.000000	52.089975
1431.000000	51.922625
1432.000000	51.668835
1433.000000	51.514274
1434.000000	51.386982
1435.000000	51.385571
1436.000000	51.283288
1437.000000	51.104118
1438.000000	50.977367
1439.000000	50.709630
1440.000000	50.537453
1441.000000	50.434540
1442.000000	50.348216
1443.000000	50.278082
1444.000000	50.228132
1445.000000	50.115352
1446.000000	50.022783
1447.000000	49.937953
1448.000000	49.792311
1449.000000	49.684607
1450.000000	49.600901
1451.000000	49.506383
1452.000000	49.440796
1453.000000	49.278360
1454.000000	49.169941
1455.000000	49.091557
1456.000000	49.046035
1457.000000	48.951541
1458.000000	48.815099
1459.000000	48.765305
1460.000000	48.739764
1461.000000	48.646172
1462.000000	48.537024
1463.000000	48.466497
1464.000000	48.358454
1465.000000	48.283240
1466.000000	48.238381
1467.000000	48.252425
1468.000000	48.211397
1469.000000	48.145797
1470.000000	48.086774
1471.000000	48.088095
1472.000000	48.021277
1473.000000	47.966026
1474.000000	47.931679
1475.000000	47.896222
1476.000000	47.883000
1477.000000	47.837658
1478.000000	47.756496
1479.000000	47.699949
1480.000000	47.633530
1481.000000	47.573222
1482.000000	47.535087
1483.000000	47.458829
1484.000000	47.388541
1485.000000	47.310772
1486.000000	47.267997
1487.000000	47.213402
1488.000000	47.158942
1489.000000	47.149341
1490.000000	47.139232
1491.000000	47.063180
1492.000000	47.016142
1493.000000	47.029241
1494.000000	46.989157
1495.000000	46.934146
1496.000000	46.905200
1497.000000	46.909278
1498.000000	46.882185
1499.000000	46.878312
1500.000000	46.888239
1501.000000	46.925181
1502.000000	46.887658
1503.000000	46.870186
1504.000000	46.886058
1505.000000	46.915232
1506.000000	46.940423
1507.000000	46.953734
1508.000000	46.972672
1509.000000	47.022399
1510.000000	47.029116
1511.000000	47.031714
1512.000000	47.030190
1513.000000	47.053991
1514.000000	47.094821
1515.000000	47.184983
1516.000000	47.241499
1517.000000	47.277670
1518.000000	47.355769
1519.000000	47.426574
1520.000000	47.478491
1521.000000	47.506331
1522.000000	47.577009
1523.000000	47.650374
1524.000000	47.670345
1525.000000	47.676186
1526.000000	47.666997
1527.000000	47.707891
1528.000000	47.729420
1529.000000	47.765016
1530.000000	47.838493
1531.000000	47.905219
1532.000000	47.961892
1533.000000	48.025247
1534.000000	48.049338
1535.000000	48.074167
1536.000000	48.083138
1537.000000	48.137320
1538.000000	48.198467
1539.000000	48.258893
1540.000000	48.306823
1541.000000	48.334466
1542.000000	48.416189
1543.000000	48.460220
1544.000000	48.482463
1545.000000	48.513745
1546.000000	48.529770
1547.000000	48.535655
1548.000000	48.558386
1549.000000	48.600045
1550.000000	48.605094
1551.000000	48.601199
1552.000000	48.615090
1553.000000	48.619260
1554.000000	48.646839
1555.000000	48.697749
1556.000000	48.728845
1557.000000	48.738502
1558.000000	48.765446
1559.000000	48.796971
1560.000000	48.843179
1561.000000	48.929587
1562.000000	49.003956
1563.000000	49.042610
1564.000000	49.100599
1565.000000	49.135336
1566.000000	49.123025
1567.000000	49.138120
1568.000000	49.154759
1569.000000	49.160105
1570.000000	49.204640
1571.000000	49.224257
1572.000000	49.228960
1573.000000	49.216085
1574.000000	49.228151
1575.000000	49.235617
1576.000000	49.237527
1577.000000	49.228428
1578.000000	49.205963
1579.000000	49.188426
1580.000000	49.194545
1581.000000	49.210816
1582.000000	49.257095
1583.000000	49.314439
1584.000000	49.311640
1585.000000	49.297645
1586.000000	49.256879
1587.000000	49.260696
1588.000000	49.281000
1589.000000	49.279911
1590.000000	49.266300
1591.000000	49.256529
1592.000000	49.255883
1593.000000	49.277963
1594.000000	49.315479
1595.000000	49.313010
1596.000000	49.316603
1597.000000	49.296992
1598.000000	49.281569
1599.000000	49.283376
1600.000000	49.314181
1601.000000	49.353797
1602.000000	49.370265
1603.000000	49.402650
1604.000000	49.468554
1605.000000	49.485355
1606.000000	49.504892
1607.000000	49.545653
1608.000000	49.623029
1609.000000	49.691453
1610.000000	49.715022
1611.000000	49.767882
1612.000000	49.790822
1613.000000	49.835829
1614.000000	49.883396
1615.000000	49.889945
1616.000000	49.927202
1617.000000	49.962651
1618.000000	49.960446
1619.000000	50.000810
1620.000000	50.056939
1621.000000	50.137651
1622.000000	50.195233
1623.000000	50.234551
1624.000000	50.270888
1625.000000	50.352715
1626.000000	50.414790
1627.000000	50.479834
1628.000000	50.466073
1629.000000	50.452447
1630.000000	50.494865
1631.000000	50.503253
1632.000000	50.509381
1633.000000	50.560283
1634.000000	50.570416
1635.000000	50.584092
1636.000000	50.629913
1637.000000	50.612794
1638.000000	50.684510
1639.000000	50.703992
1640.000000	50.700807
1641.000000	50.715230
1642.000000	50.725817
1643.000000	50.702350
1644.000000	50.677630
1645.000000	50.682404
1646.000000	50.691518
1647.000000	50.744313
1648.000000	50.777372
1649.000000	50.797196
1650.000000	50.808735
1651.000000	50.859374
1652.000000	50.860968
1653.000000	50.899255
1654.000000	50.947722
1655.000000	50.948410
1656.000000	50.928673
1657.000000	50.888821
1658.000000	50.913905
1659.000000	50.903910
1660.000000	50.858908
1661.000000	50.823580
1662.000000	50.783946
1663.000000	50.810324
1664.000000	50.854067
1665.000000	50.851349
1666.000000	50.901302
1667.000000	50.881638
1668.000000	50.871758
1669.000000	50.835270
1670.000000	50.772662
1671.000000	50.706015
1672.000000	50.702952
1673.000000	50.621495
1674.000000	50.583395
1675.000000	50.555739
1676.000000	50.510830
1677.000000	50.439357
1678.000000	50.379359
1679.000000	50.341924
1680.000000	50.275965
1681.000000	50.193019
1682.000000	50.064597
1683.000000	49.983605
1684.000000	49.889101
1685.000000	49.856175
1686.000000	49.704567
1687.000000	49.657326
1688.000000	49.541924
1689.000000	49.396005
1690.000000	49.349003
1691.000000	49.277143
1692.000000	49.199340
1693.000000	49.119912
1694.000000	49.070643
1695.000000	49.005007
1696.000000	48.979127
1697.000000	48.947861
1698.000000	48.911368
1699.000000	48.815619
1700.000000	48.775403
1701.000000	48.698656
1702.000000	48.700739
1703.000000	48.639979
1704.000000	48.607996
1705.000000	48.603089
1706.000000	48.568023
1707.000000	48.528209
1708.000000	48.463077
1709.000000	48.401216
1710.000000	48.320432
1711.000000	48.286388
1712.000000	48.250458
1713.000000	48.228459
1714.000000	48.169979
1715.000000	48.157447
1716.000000	48.108485
1717.000000	48.089556
1718.000000	48.039833
1719.000000	48.017678
1720.000000	47.981362
1721.000000	47.963967
1722.000000	47.898324
1723.000000	47.892168
1724.000000	47.908342
1725.000000	47.812270
1726.000000	47.735808
1727.000000	47.726457
1728.000000	47.687210
1729.000000	47.634562
1730.000000	47.587487
1731.000000	47.561984
1732.000000	47.505121
1733.000000	47.394352
1734.000000	47.349663
1735.000000	47.305761
1736.000000	47.270186
1737.000000	47.210599
1738.000000	47.148318
1739.000000	47.130457
1740.000000	47.075291
1741.000000	47.041174
1742.000000	47.000878
1743.000000	47.007249
1744.000000	47.031421
1745.000000	47.079241
1746.000000	47.104884
1747.000000	47.106963
1748.000000	47.082583
1749.000000	47.064894
1750.000000	47.024652
1751.000000	47.039598
1752.000000	47.069253
1753.000000	47.091773
1754.000000	47.109017
1755.000000	47.121054
1756.000000	47.142957
1757.000000	47.154435
1758.000000	47.203968
1759.000000	47.207845
1760.000000	47.269631
1761.000000	47.384395
1762.000000	47.435704
1763.000000	47.450585
1764.000000	47.493687
1765.000000	47.552955
1766.000000	47.567163
1767.000000	47.604029
1768.000000	47.661927
1769.000000	47.677746
1770.000000	47.701011
1771.000000	47.697537
1772.000000	47.689701
1773.000000	47.716358
1774.000000	47.746454
1775.000000	47.751219
1776.000000	47.783349
1777.000000	47.837274
1778.000000	47.852042
1779.000000	47.829468
1780.000000	47.828592
1781.000000	47.844184
1782.000000	47.900202
1783.000000	47.945234
1784.000000	47.978246
1785.000000	48.040213
1786.000000	48.054406
1787.000000	48.039633
1788.000000	48.034561
1789.000000	48.016384
1790.000000	48.045770
1791.000000	48.114408
1792.000000	48.148693
1793.000000	48.108986
1794.000000	48.103853
1795.000000	48.088695
1796.000000	48.068370
1797.000000	48.074667
1798.000000	48.110247
1799.000000	48.145780
1800.000000	48.164336
1801.000000	48.145736
1802.000000	48.159287
1803.000000	48.203254
1804.000000	48.241186
1805.000000	48.233759
1806.000000	48.256171
1807.000000	48.302674
1808.000000	48.333559
1809.000000	48.319297
1810.000000	48.356773
1811.000000	48.357718
1812.000000	48.308394
1813.000000	48.259585
1814.000000	48.300311
1815.000000	48.380417
1816.000000	48.312823
1817.000000	48.138300
1818.000000	48.087463
1819.000000	48.110777
1820.000000	48.178554
1821.000000	48.185016
1822.000000	48.183748
1823.000000	48.197531
1824.000000	48.234245
1825.000000	48.156599
1826.000000	48.120337
1827.000000	48.074223
1828.000000	48.055824
1829.000000	48.048171
1830.000000	48.013147
1831.000000	48.004271
1832.000000	48.035649
1833.000000	48.012463
1834.000000	47.946484
1835.000000	47.889158
1836.000000	47.975135
1837.000000	48.018979
1838.000000	47.987458
1839.000000	48.045553
1840.000000	48.143744
1841.000000	48.168189
1842.000000	48.210575
1843.000000	48.204357
1844.000000	48.191449
1845.000000	48.170762
1846.000000	48.176205
1847.000000	48.249893
1848.000000	48.321913
1849.000000	48.325424
1850.000000	48.299612
1851.000000	48.341640
1852.000000	48.446153
1853.000000	48.432509
1854.000000	48.389832
1855.000000	48.365032
1856.000000	48.452200
1857.000000	48.501006
1858.000000	48.555661
1859.000000	48.603295
1860.000000	48.692911
1861.000000	48.688734
1862.000000	48.714672
1863.000000	48.650626
1864.000000	48.556742
1865.000000	48.582859
1866.000000	48.665050
1867.000000	48.693365
1868.000000	48.739391
1869.000000	48.749693
1870.000000	48.633589
1871.000000	48.507368
1872.000000	48.390485
1873.000000	48.394297
1874.000000	48.318116
1875.000000	48.257898
1876.000000	48.129096
1877.000000	48.037097
1878.000000	48.019490
1879.000000	47.982597
1880.000000	47.952748
1881.000000	47.915715
1882.000000	47.808887
1883.000000	47.624518
1884.000000	47.540756
1885.000000	47.385872
1886.000000	47.279582
1887.000000	47.194099
1888.000000	47.117630
1889.000000	46.998038
1890.000000	46.818935
1891.000000	46.583324
1892.000000	46.423349
1893.000000	46.147699
1894.000000	45.912228
1895.000000	45.683240
1896.000000	45.447037
1897.000000	45.198935
1898.000000	45.059982
1899.000000	44.926996
1900.000000	44.648978
1901.000000	44.245518
1902.000000	43.775483
1903.000000	43.424814
1904.000000	43.209151
1905.000000	43.055926
1906.000000	42.716717
1907.000000	42.413910
1908.000000	42.044270
1909.000000	41.676385
1910.000000	41.321368
1911.000000	41.124972
1912.000000	40.819572
1913.000000	40.459356
1914.000000	40.101630
1915.000000	39.768833
1916.000000	39.454218
1917.000000	39.136029
1918.000000	38.875067
1919.000000	38.506477
1920.000000	38.057613
1921.000000	37.690686
1922.000000	37.382425
1923.000000	37.047067
1924.000000	36.726293
1925.000000	36.416836
1926.000000	36.103370
1927.000000	35.810215
1928.000000	35.541412
1929.000000	35.273598
1930.000000	34.951844
1931.000000	34.740552
1932.000000	34.517854
1933.000000	34.259715
1934.000000	34.046151
1935.000000	33.891319
1936.000000	33.737870
1937.000000	33.663113
1938.000000	33.464795
1939.000000	33.205475
1940.000000	33.046419
1941.000000	32.977007
1942.000000	32.888956
1943.000000	32.801773
1944.000000	32.721248
1945.000000	32.583030
1946.000000	32.428557
1947.000000	32.312713
1948.000000	32.258080
1949.000000	32.206763
1950.000000	32.117072
1951.000000	32.030022
1952.000000	31.994174
1953.000000	31.987861
1954.000000	31.990850
1955.000000	32.117549
1956.000000	32.218222
1957.000000	32.218723
1958.000000	32.279521
1959.000000	32.322751
1960.000000	32.335847
1961.000000	32.412719
1962.000000	32.416624
1963.000000	32.485667
1964.000000	32.528237
1965.000000	32.660038
1966.000000	32.721561
1967.000000	32.798381
1968.000000	32.934185
1969.000000	33.018943
1970.000000	33.075168
1971.000000	33.152477
1972.000000	33.228863
1973.000000	33.329849
1974.000000	33.418118
1975.000000	33.511197
1976.000000	33.617371
1977.000000	33.706105
1978.000000	33.796993
1979.000000	33.864143
1980.000000	33.938178
1981.000000	33.990935
1982.000000	34.087561
1983.000000	34.188368
1984.000000	34.322024
1985.000000	34.447499
1986.000000	34.543305
1987.000000	34.636494
1988.000000	34.710740
1989.000000	34.815660
1990.000000	34.888925
1991.000000	34.917940
1992.000000	35.007859
1993.000000	35.077475
1994.000000	35.151640
1995.000000	35.293599
1996.000000	35.388696
1997.000000	35.481904
1998.000000	35.604011
1999.000000	35.665795
2000.000000	35.753114
