PE UV       SUBTECH     SPECTRUM    ASCII       PEDS        4.00        
   -1
C.CHRY.MV84-TX3.ASC
23/11/29
15:25:22.00
23/11/29
15:25:22.00
Vinicio Soto Monge
C. CHRYSARGYREA #84 MV23
250,000000
1
Lambda 1050
1050L1511233
PerkinElmer UV WinLab 6.3.2.0749 / 2.02.05 Lambda 900 UV/VIS/NIR, Aug  7 2015 09:38:08

0
0
3350/servo 860,8/2
0
0
UV/VIS
1
1
1
DoubleDePol,CommonBeamDepol,RBeamAtt,SBeamAtt,60mm sphere, WB InGaAs Detector
0
0
0
0
Program
Program
3350/servo 860,8/2
3350/0,4 860,8/0,4
3350/0,4 860,8/0,4
0
20.00
 
 
 
0
 
860,8
319,2
860,8
Front
100
on
S:100 R:100
0
0
0
0
 
0
 
 
 
0
 
 
0
0
0
0
0
 
 
 
 
0
0


0
0
#HDR
-1
-1
#GR
nm
%R
1.0
0.0
2200,000000
-1,000000
1951
8
82,444112
0,255158
#DATA
284.000000	5.437092
285.000000	5.429787
286.000000	5.422190
287.000000	5.415739
288.000000	5.409522
289.000000	5.403509
290.000000	5.398265
291.000000	5.394992
292.000000	5.391083
293.000000	5.387072
294.000000	5.385134
295.000000	5.384679
296.000000	5.384250
297.000000	5.384062
298.000000	5.384252
299.000000	5.384785
300.000000	5.385032
301.000000	5.385067
302.000000	5.386588
303.000000	5.388002
304.000000	5.388736
305.000000	5.388452
306.000000	5.389230
307.000000	5.392571
308.000000	5.393872
309.000000	5.394309
310.000000	5.395384
311.000000	5.396501
312.000000	5.399426
313.000000	5.401536
314.000000	5.402174
315.000000	5.404494
316.000000	5.405695
317.000000	5.404396
318.000000	5.403672
319.000000	5.400587
320.000000	5.398594
321.000000	5.399024
322.000000	5.400599
323.000000	5.401744
324.000000	5.405818
325.000000	5.409597
326.000000	5.411855
327.000000	5.417269
328.000000	5.424154
329.000000	5.429864
330.000000	5.437344
331.000000	5.448756
332.000000	5.459303
333.000000	5.473498
334.000000	5.490694
335.000000	5.506944
336.000000	5.526091
337.000000	5.547604
338.000000	5.571138
339.000000	5.595235
340.000000	5.622093
341.000000	5.652711
342.000000	5.685726
343.000000	5.722832
344.000000	5.764800
345.000000	5.809583
346.000000	5.857681
347.000000	5.908775
348.000000	5.962257
349.000000	6.022546
350.000000	6.085395
351.000000	6.153375
352.000000	6.230312
353.000000	6.313895
354.000000	6.404632
355.000000	6.503092
356.000000	6.609476
357.000000	6.720462
358.000000	6.842688
359.000000	6.973095
360.000000	7.114161
361.000000	7.265555
362.000000	7.429353
363.000000	7.604041
364.000000	7.793724
365.000000	7.997128
366.000000	8.214869
367.000000	8.450075
368.000000	8.698800
369.000000	8.965030
370.000000	9.251797
371.000000	9.557704
372.000000	9.880129
373.000000	10.222511
374.000000	10.583721
375.000000	10.965195
376.000000	11.366649
377.000000	11.797600
378.000000	12.246104
379.000000	12.713869
380.000000	13.200799
381.000000	13.704819
382.000000	14.225510
383.000000	14.764365
384.000000	15.316279
385.000000	15.883950
386.000000	16.463325
387.000000	17.052073
388.000000	17.649693
389.000000	18.256328
390.000000	18.867202
391.000000	19.481611
392.000000	20.100934
393.000000	20.720312
394.000000	21.339856
395.000000	21.958180
396.000000	22.573065
397.000000	23.180926
398.000000	23.783517
399.000000	24.376949
400.000000	24.960380
401.000000	25.530665
402.000000	26.087621
403.000000	26.631132
404.000000	27.157578
405.000000	27.667402
406.000000	28.157155
407.000000	28.629523
408.000000	29.081407
409.000000	29.515565
410.000000	29.928900
411.000000	30.318293
412.000000	30.674041
413.000000	31.008912
414.000000	31.320576
415.000000	31.608210
416.000000	31.873279
417.000000	32.116217
418.000000	32.336832
419.000000	32.536525
420.000000	32.715381
421.000000	32.874585
422.000000	33.014443
423.000000	33.136185
424.000000	33.239681
425.000000	33.325328
426.000000	33.395834
427.000000	33.451931
428.000000	33.493602
429.000000	33.521566
430.000000	33.538274
431.000000	33.545928
432.000000	33.545421
433.000000	33.538861
434.000000	33.528118
435.000000	33.514044
436.000000	33.499216
437.000000	33.485530
438.000000	33.473744
439.000000	33.464496
440.000000	33.458652
441.000000	33.457887
442.000000	33.461178
443.000000	33.467846
444.000000	33.478597
445.000000	33.493269
446.000000	33.512196
447.000000	33.534267
448.000000	33.558688
449.000000	33.585280
450.000000	33.613159
451.000000	33.641925
452.000000	33.670710
453.000000	33.699327
454.000000	33.725993
455.000000	33.750452
456.000000	33.771659
457.000000	33.790409
458.000000	33.806322
459.000000	33.819088
460.000000	33.828440
461.000000	33.834226
462.000000	33.837558
463.000000	33.839900
464.000000	33.841352
465.000000	33.842473
466.000000	33.843990
467.000000	33.846472
468.000000	33.849791
469.000000	33.855083
470.000000	33.861031
471.000000	33.867376
472.000000	33.875051
473.000000	33.882006
474.000000	33.886972
475.000000	33.889640
476.000000	33.888495
477.000000	33.883713
478.000000	33.874902
479.000000	33.859469
480.000000	33.836367
481.000000	33.805279
482.000000	33.765482
483.000000	33.717882
484.000000	33.663645
485.000000	33.602738
486.000000	33.535511
487.000000	33.463087
488.000000	33.386411
489.000000	33.307111
490.000000	33.227031
491.000000	33.148396
492.000000	33.071801
493.000000	32.998324
494.000000	32.929994
495.000000	32.868868
496.000000	32.814373
497.000000	32.766929
498.000000	32.727384
499.000000	32.695599
500.000000	32.670495
501.000000	32.650020
502.000000	32.632460
503.000000	32.617153
504.000000	32.601803
505.000000	32.585552
506.000000	32.566481
507.000000	32.543340
508.000000	32.516562
509.000000	32.486571
510.000000	32.453136
511.000000	32.417180
512.000000	32.378823
513.000000	32.340006
514.000000	32.303582
515.000000	32.271329
516.000000	32.242782
517.000000	32.221129
518.000000	32.206015
519.000000	32.198880
520.000000	32.202480
521.000000	32.217380
522.000000	32.244724
523.000000	32.285008
524.000000	32.339078
525.000000	32.407282
526.000000	32.489869
527.000000	32.587808
528.000000	32.701598
529.000000	32.830746
530.000000	32.974763
531.000000	33.135392
532.000000	33.311136
533.000000	33.501726
534.000000	33.706814
535.000000	33.927102
536.000000	34.162193
537.000000	34.411307
538.000000	34.674640
539.000000	34.951600
540.000000	35.242005
541.000000	35.544817
542.000000	35.858054
543.000000	36.181680
544.000000	36.514415
545.000000	36.855295
546.000000	37.203636
547.000000	37.558234
548.000000	37.916629
549.000000	38.277074
550.000000	38.638177
551.000000	39.001307
552.000000	39.364623
553.000000	39.728067
554.000000	40.089977
555.000000	40.448693
556.000000	40.804381
557.000000	41.155779
558.000000	41.500926
559.000000	41.840152
560.000000	42.173939
561.000000	42.499315
562.000000	42.814063
563.000000	43.118283
564.000000	43.411358
565.000000	43.691538
566.000000	43.957200
567.000000	44.208977
568.000000	44.444031
569.000000	44.661545
570.000000	44.860438
571.000000	45.039884
572.000000	45.202821
573.000000	45.348519
574.000000	45.477279
575.000000	45.590475
576.000000	45.688697
577.000000	45.774404
578.000000	45.848271
579.000000	45.912850
580.000000	45.968388
581.000000	46.015898
582.000000	46.056819
583.000000	46.093921
584.000000	46.128981
585.000000	46.163585
586.000000	46.198470
587.000000	46.232706
588.000000	46.266893
589.000000	46.301904
590.000000	46.336302
591.000000	46.370049
592.000000	46.402548
593.000000	46.434186
594.000000	46.465101
595.000000	46.491635
596.000000	46.515989
597.000000	46.537118
598.000000	46.553374
599.000000	46.564480
600.000000	46.569083
601.000000	46.567095
602.000000	46.558636
603.000000	46.543754
604.000000	46.523783
605.000000	46.498328
606.000000	46.469386
607.000000	46.434955
608.000000	46.395416
609.000000	46.348784
610.000000	46.296916
611.000000	46.237996
612.000000	46.173250
613.000000	46.100030
614.000000	46.017145
615.000000	45.924131
616.000000	45.820833
617.000000	45.707344
618.000000	45.582592
619.000000	45.447132
620.000000	45.302593
621.000000	45.150046
622.000000	44.992250
623.000000	44.829358
624.000000	44.663107
625.000000	44.496559
626.000000	44.329564
627.000000	44.161031
628.000000	43.990877
629.000000	43.816846
630.000000	43.640225
631.000000	43.460098
632.000000	43.276441
633.000000	43.090109
634.000000	42.899753
635.000000	42.709512
636.000000	42.520662
637.000000	42.330792
638.000000	42.141781
639.000000	41.953104
640.000000	41.765726
641.000000	41.579347
642.000000	41.391806
643.000000	41.204877
644.000000	41.020309
645.000000	40.835739
646.000000	40.654563
647.000000	40.474676
648.000000	40.301394
649.000000	40.134382
650.000000	39.977613
651.000000	39.830895
652.000000	39.695428
653.000000	39.573384
654.000000	39.463840
655.000000	39.363367
656.000000	39.272161
657.000000	39.185856
658.000000	39.102492
659.000000	39.020889
660.000000	38.938253
661.000000	38.853889
662.000000	38.767937
663.000000	38.681122
664.000000	38.595072
665.000000	38.510771
666.000000	38.428953
667.000000	38.353832
668.000000	38.285133
669.000000	38.224818
670.000000	38.169712
671.000000	38.119923
672.000000	38.077011
673.000000	38.040976
674.000000	38.010981
675.000000	37.986605
676.000000	37.966814
677.000000	37.953515
678.000000	37.945547
679.000000	37.943183
680.000000	37.947352
681.000000	37.957014
682.000000	37.973646
683.000000	37.995066
684.000000	38.023616
685.000000	38.057654
686.000000	38.095698
687.000000	38.136764
688.000000	38.179060
689.000000	38.225683
690.000000	38.274015
691.000000	38.322673
692.000000	38.375622
693.000000	38.433250
694.000000	38.494249
695.000000	38.558919
696.000000	38.630175
697.000000	38.706600
698.000000	38.790109
699.000000	38.880568
700.000000	38.978047
701.000000	39.081856
702.000000	39.188701
703.000000	39.299605
704.000000	39.414558
705.000000	39.534544
706.000000	39.659193
707.000000	39.786333
708.000000	39.915085
709.000000	40.045825
710.000000	40.179526
711.000000	40.319267
712.000000	40.459872
713.000000	40.600252
714.000000	40.746435
715.000000	40.896517
716.000000	41.050655
717.000000	41.207148
718.000000	41.364774
719.000000	41.524431
720.000000	41.686057
721.000000	41.850381
722.000000	42.015975
723.000000	42.182181
724.000000	42.346592
725.000000	42.511989
726.000000	42.678336
727.000000	42.844239
728.000000	43.010972
729.000000	43.177990
730.000000	43.347529
731.000000	43.515870
732.000000	43.684772
733.000000	43.852957
734.000000	44.020702
735.000000	44.186144
736.000000	44.351095
737.000000	44.517602
738.000000	44.682407
739.000000	44.844716
740.000000	45.005695
741.000000	45.162891
742.000000	45.318732
743.000000	45.474185
744.000000	45.629889
745.000000	45.783506
746.000000	45.932213
747.000000	46.080255
748.000000	46.230662
749.000000	46.377085
750.000000	46.518980
751.000000	46.657557
752.000000	46.795735
753.000000	46.935244
754.000000	47.069768
755.000000	47.199834
756.000000	47.327942
757.000000	47.450719
758.000000	47.569983
759.000000	47.686013
760.000000	47.800600
761.000000	47.912514
762.000000	48.021871
763.000000	48.127954
764.000000	48.231063
765.000000	48.331254
766.000000	48.430523
767.000000	48.526262
768.000000	48.617840
769.000000	48.707296
770.000000	48.794156
771.000000	48.879681
772.000000	48.963122
773.000000	49.045392
774.000000	49.123477
775.000000	49.196891
776.000000	49.267686
777.000000	49.335925
778.000000	49.404203
779.000000	49.470364
780.000000	49.534049
781.000000	49.596174
782.000000	49.658846
783.000000	49.719584
784.000000	49.778058
785.000000	49.834703
786.000000	49.890441
787.000000	49.944333
788.000000	49.992449
789.000000	50.037218
790.000000	50.082463
791.000000	50.125368
792.000000	50.166529
793.000000	50.205856
794.000000	50.242567
795.000000	50.274580
796.000000	50.306854
797.000000	50.342750
798.000000	50.377176
799.000000	50.411285
800.000000	50.448320
801.000000	50.482928
802.000000	50.517588
803.000000	50.547860
804.000000	50.577628
805.000000	50.604538
806.000000	50.626139
807.000000	50.645068
808.000000	50.663516
809.000000	50.681247
810.000000	50.702222
811.000000	50.725295
812.000000	50.742975
813.000000	50.755856
814.000000	50.764656
815.000000	50.772454
816.000000	50.779378
817.000000	50.785957
818.000000	50.789540
819.000000	50.792409
820.000000	50.797903
821.000000	50.802958
822.000000	50.809098
823.000000	50.816032
824.000000	50.821380
825.000000	50.821688
826.000000	50.815626
827.000000	50.818446
828.000000	50.821109
829.000000	50.821840
830.000000	50.825983
831.000000	50.819560
832.000000	50.818001
833.000000	50.811913
834.000000	50.807903
835.000000	50.792349
836.000000	50.778662
837.000000	50.769541
838.000000	50.770343
839.000000	50.766104
840.000000	50.767172
841.000000	50.759562
842.000000	50.747991
843.000000	50.735773
844.000000	50.731700
845.000000	50.727845
846.000000	50.716289
847.000000	50.709849
848.000000	50.710336
849.000000	50.698424
850.000000	50.690294
851.000000	50.696567
852.000000	50.697310
853.000000	50.692060
854.000000	50.689892
855.000000	50.692887
856.000000	50.696679
857.000000	50.678079
858.000000	50.632421
859.000000	50.639399
860.000000	50.663765
861.000000	50.678799
862.000000	50.676808
863.000000	50.685142
864.000000	50.696371
865.000000	50.694926
866.000000	50.717975
867.000000	50.719559
868.000000	50.761111
869.000000	50.784103
870.000000	50.829636
871.000000	50.862162
872.000000	50.874919
873.000000	50.890168
874.000000	50.906621
875.000000	50.917695
876.000000	50.933391
877.000000	50.944494
878.000000	50.967598
879.000000	50.998356
880.000000	51.015002
881.000000	51.012147
882.000000	51.022432
883.000000	51.037739
884.000000	51.045955
885.000000	51.043942
886.000000	51.075607
887.000000	51.064169
888.000000	51.058267
889.000000	51.052458
890.000000	51.066356
891.000000	51.080986
892.000000	51.074513
893.000000	51.106099
894.000000	51.128950
895.000000	51.116250
896.000000	51.102553
897.000000	51.084624
898.000000	51.099906
899.000000	51.084598
900.000000	51.062787
901.000000	51.005483
902.000000	50.959823
903.000000	50.908882
904.000000	50.847879
905.000000	50.786991
906.000000	50.714610
907.000000	50.664655
908.000000	50.603210
909.000000	50.553809
910.000000	50.495423
911.000000	50.446428
912.000000	50.385144
913.000000	50.331652
914.000000	50.274351
915.000000	50.200006
916.000000	50.140333
917.000000	50.071514
918.000000	49.992330
919.000000	49.899257
920.000000	49.818951
921.000000	49.728859
922.000000	49.658207
923.000000	49.581969
924.000000	49.509719
925.000000	49.383368
926.000000	49.270605
927.000000	49.175607
928.000000	49.075598
929.000000	48.939117
930.000000	48.808656
931.000000	48.685714
932.000000	48.583833
933.000000	48.446920
934.000000	48.327374
935.000000	48.223586
936.000000	48.146751
937.000000	48.029427
938.000000	47.864943
939.000000	47.755107
940.000000	47.611617
941.000000	47.478819
942.000000	47.360458
943.000000	47.232229
944.000000	47.095988
945.000000	46.953109
946.000000	46.781197
947.000000	46.663624
948.000000	46.516728
949.000000	46.317327
950.000000	46.155867
951.000000	45.971318
952.000000	45.770029
953.000000	45.585779
954.000000	45.474468
955.000000	45.311130
956.000000	45.124451
957.000000	44.969531
958.000000	44.808591
959.000000	44.618801
960.000000	44.441397
961.000000	44.230319
962.000000	44.076787
963.000000	43.915293
964.000000	43.725275
965.000000	43.551248
966.000000	43.374219
967.000000	43.179126
968.000000	42.970913
969.000000	42.770714
970.000000	42.563726
971.000000	42.324533
972.000000	42.149888
973.000000	41.965303
974.000000	41.745255
975.000000	41.549838
976.000000	41.365002
977.000000	41.165014
978.000000	40.953358
979.000000	40.733693
980.000000	40.531043
981.000000	40.340395
982.000000	40.100999
983.000000	39.873842
984.000000	39.674184
985.000000	39.491100
986.000000	39.307497
987.000000	39.124024
988.000000	38.927497
989.000000	38.704285
990.000000	38.515775
991.000000	38.314613
992.000000	38.117116
993.000000	37.919196
994.000000	37.736759
995.000000	37.571000
996.000000	37.396684
997.000000	37.181229
998.000000	37.009814
999.000000	36.824813
1000.000000	36.616331
1001.000000	36.425740
1002.000000	36.228660
1003.000000	36.029736
1004.000000	35.856019
1005.000000	35.674848
1006.000000	35.503612
1007.000000	35.295705
1008.000000	35.137677
1009.000000	34.971365
1010.000000	34.767639
1011.000000	34.547367
1012.000000	34.345840
1013.000000	34.185487
1014.000000	33.999250
1015.000000	33.809682
1016.000000	33.670564
1017.000000	33.556228
1018.000000	33.432894
1019.000000	33.293796
1020.000000	33.101026
1021.000000	32.964047
1022.000000	32.841260
1023.000000	32.680016
1024.000000	32.496079
1025.000000	32.340856
1026.000000	32.200587
1027.000000	32.060090
1028.000000	31.914630
1029.000000	31.760735
1030.000000	31.601689
1031.000000	31.467678
1032.000000	31.317746
1033.000000	31.133777
1034.000000	30.990523
1035.000000	30.886799
1036.000000	30.790791
1037.000000	30.696244
1038.000000	30.593238
1039.000000	30.448825
1040.000000	30.316742
1041.000000	30.205018
1042.000000	30.120080
1043.000000	30.032496
1044.000000	29.952836
1045.000000	29.871928
1046.000000	29.794520
1047.000000	29.708978
1048.000000	29.610094
1049.000000	29.515935
1050.000000	29.451604
1051.000000	29.382690
1052.000000	29.261140
1053.000000	29.115429
1054.000000	29.034351
1055.000000	28.989763
1056.000000	28.888163
1057.000000	28.786218
1058.000000	28.711819
1059.000000	28.667567
1060.000000	28.604318
1061.000000	28.511056
1062.000000	28.411414
1063.000000	28.337917
1064.000000	28.277105
1065.000000	28.220675
1066.000000	28.171423
1067.000000	28.162061
1068.000000	28.126269
1069.000000	28.064495
1070.000000	28.003117
1071.000000	27.930582
1072.000000	27.862030
1073.000000	27.795123
1074.000000	27.745451
1075.000000	27.722282
1076.000000	27.683632
1077.000000	27.622022
1078.000000	27.555770
1079.000000	27.467656
1080.000000	27.421688
1081.000000	27.412038
1082.000000	27.354210
1083.000000	27.327007
1084.000000	27.335903
1085.000000	27.288428
1086.000000	27.217212
1087.000000	27.194561
1088.000000	27.191252
1089.000000	27.117829
1090.000000	27.048548
1091.000000	27.016722
1092.000000	26.972697
1093.000000	26.922705
1094.000000	26.893434
1095.000000	26.869450
1096.000000	26.843015
1097.000000	26.844933
1098.000000	26.818030
1099.000000	26.806996
1100.000000	26.761716
1101.000000	26.726167
1102.000000	26.678655
1103.000000	26.636624
1104.000000	26.624297
1105.000000	26.594119
1106.000000	26.561011
1107.000000	26.538158
1108.000000	26.517575
1109.000000	26.522119
1110.000000	26.503188
1111.000000	26.492644
1112.000000	26.487786
1113.000000	26.457197
1114.000000	26.466722
1115.000000	26.419546
1116.000000	26.354325
1117.000000	26.359553
1118.000000	26.342296
1119.000000	26.311277
1120.000000	26.287193
1121.000000	26.241785
1122.000000	26.230222
1123.000000	26.247079
1124.000000	26.286213
1125.000000	26.257700
1126.000000	26.228626
1127.000000	26.261076
1128.000000	26.310614
1129.000000	26.345784
1130.000000	26.311471
1131.000000	26.291990
1132.000000	26.260360
1133.000000	26.255340
1134.000000	26.233242
1135.000000	26.257440
1136.000000	26.292821
1137.000000	26.288329
1138.000000	26.277468
1139.000000	26.265261
1140.000000	26.266735
1141.000000	26.239848
1142.000000	26.208971
1143.000000	26.222241
1144.000000	26.178819
1145.000000	26.164008
1146.000000	26.157938
1147.000000	26.121952
1148.000000	26.130671
1149.000000	26.096295
1150.000000	26.106901
1151.000000	26.113278
1152.000000	26.093295
1153.000000	26.092265
1154.000000	26.059725
1155.000000	26.058447
1156.000000	26.064106
1157.000000	26.046786
1158.000000	26.017412
1159.000000	25.985708
1160.000000	25.984415
1161.000000	26.000160
1162.000000	25.956055
1163.000000	25.928969
1164.000000	25.851933
1165.000000	25.865227
1166.000000	25.854674
1167.000000	25.826888
1168.000000	25.821636
1169.000000	25.776574
1170.000000	25.684534
1171.000000	25.607522
1172.000000	25.560957
1173.000000	25.591783
1174.000000	25.574080
1175.000000	25.497757
1176.000000	25.474758
1177.000000	25.457814
1178.000000	25.412257
1179.000000	25.413180
1180.000000	25.392974
1181.000000	25.368340
1182.000000	25.387968
1183.000000	25.386332
1184.000000	25.401420
1185.000000	25.382337
1186.000000	25.367515
1187.000000	25.358410
1188.000000	25.354633
1189.000000	25.332857
1190.000000	25.308406
1191.000000	25.309521
1192.000000	25.309334
1193.000000	25.298725
1194.000000	25.259032
1195.000000	25.268870
1196.000000	25.274185
1197.000000	25.284999
1198.000000	25.255895
1199.000000	25.253734
1200.000000	25.226427
1201.000000	25.242143
1202.000000	25.250080
1203.000000	25.194227
1204.000000	25.176148
1205.000000	25.224691
1206.000000	25.269912
1207.000000	25.276349
1208.000000	25.227627
1209.000000	25.230804
1210.000000	25.250776
1211.000000	25.275197
1212.000000	25.327476
1213.000000	25.370710
1214.000000	25.359641
1215.000000	25.347428
1216.000000	25.339976
1217.000000	25.320874
1218.000000	25.293329
1219.000000	25.281845
1220.000000	25.268775
1221.000000	25.255913
1222.000000	25.234869
1223.000000	25.199483
1224.000000	25.206296
1225.000000	25.199402
1226.000000	25.179650
1227.000000	25.175907
1228.000000	25.151335
1229.000000	25.161450
1230.000000	25.145231
1231.000000	25.122031
1232.000000	25.109099
1233.000000	25.123557
1234.000000	25.120992
1235.000000	25.123284
1236.000000	25.141443
1237.000000	25.149324
1238.000000	25.178932
1239.000000	25.177612
1240.000000	25.199320
1241.000000	25.183998
1242.000000	25.150530
1243.000000	25.118162
1244.000000	25.093781
1245.000000	25.101995
1246.000000	25.087067
1247.000000	25.047353
1248.000000	25.023677
1249.000000	25.057055
1250.000000	25.076052
1251.000000	25.056218
1252.000000	25.036902
1253.000000	25.012789
1254.000000	25.005918
1255.000000	25.059002
1256.000000	25.101929
1257.000000	25.104810
1258.000000	25.070521
1259.000000	25.056831
1260.000000	25.074856
1261.000000	25.089528
1262.000000	25.061988
1263.000000	25.055184
1264.000000	25.041132
1265.000000	25.038148
1266.000000	25.035741
1267.000000	25.022295
1268.000000	25.018391
1269.000000	25.041957
1270.000000	25.055257
1271.000000	25.015341
1272.000000	25.007266
1273.000000	25.027401
1274.000000	25.073595
1275.000000	25.048646
1276.000000	25.001578
1277.000000	25.044474
1278.000000	25.092110
1279.000000	25.111606
1280.000000	25.125459
1281.000000	25.110305
1282.000000	25.063601
1283.000000	25.045909
1284.000000	25.015031
1285.000000	25.002354
1286.000000	25.025024
1287.000000	25.042574
1288.000000	25.074879
1289.000000	25.079495
1290.000000	25.038003
1291.000000	24.997616
1292.000000	24.974243
1293.000000	24.993563
1294.000000	24.983831
1295.000000	24.943856
1296.000000	24.911368
1297.000000	24.920420
1298.000000	24.923588
1299.000000	24.935431
1300.000000	24.940815
1301.000000	24.943922
1302.000000	24.941534
1303.000000	24.905771
1304.000000	24.885120
1305.000000	24.837006
1306.000000	24.811578
1307.000000	24.792004
1308.000000	24.754722
1309.000000	24.723736
1310.000000	24.699166
1311.000000	24.715700
1312.000000	24.704554
1313.000000	24.663487
1314.000000	24.659207
1315.000000	24.685915
1316.000000	24.703461
1317.000000	24.731899
1318.000000	24.723285
1319.000000	24.691206
1320.000000	24.675963
1321.000000	24.677437
1322.000000	24.648871
1323.000000	24.596656
1324.000000	24.584468
1325.000000	24.615213
1326.000000	24.620072
1327.000000	24.639865
1328.000000	24.631431
1329.000000	24.652563
1330.000000	24.669725
1331.000000	24.684496
1332.000000	24.664660
1333.000000	24.662672
1334.000000	24.660498
1335.000000	24.640035
1336.000000	24.616904
1337.000000	24.603160
1338.000000	24.600869
1339.000000	24.574758
1340.000000	24.583807
1341.000000	24.589104
1342.000000	24.544485
1343.000000	24.490997
1344.000000	24.471638
1345.000000	24.467271
1346.000000	24.444526
1347.000000	24.391517
1348.000000	24.377945
1349.000000	24.361567
1350.000000	24.298125
1351.000000	24.201950
1352.000000	24.190554
1353.000000	24.148629
1354.000000	24.129458
1355.000000	23.989008
1356.000000	23.975373
1357.000000	23.963336
1358.000000	23.964314
1359.000000	23.878573
1360.000000	23.857266
1361.000000	23.799661
1362.000000	23.852869
1363.000000	23.859133
1364.000000	23.647583
1365.000000	23.579039
1366.000000	23.557358
1367.000000	23.506894
1368.000000	23.373832
1369.000000	23.390539
1370.000000	23.469004
1371.000000	23.479892
1372.000000	23.462797
1373.000000	23.396847
1374.000000	23.382649
1375.000000	23.354336
1376.000000	23.348388
1377.000000	23.362173
1378.000000	23.230828
1379.000000	23.114086
1380.000000	22.570753
1381.000000	22.435584
1382.000000	22.216010
1383.000000	22.169662
1384.000000	22.196941
1385.000000	22.210685
1386.000000	22.263876
1387.000000	22.372653
1388.000000	22.478659
1389.000000	22.553077
1390.000000	22.694054
1391.000000	22.592541
1392.000000	22.473403
1393.000000	22.433573
1394.000000	22.499088
1395.000000	22.396811
1396.000000	22.187060
1397.000000	22.057906
1398.000000	21.962325
1399.000000	22.064873
1400.000000	21.976435
1401.000000	21.801294
1402.000000	21.812799
1403.000000	21.859765
1404.000000	21.867011
1405.000000	21.736085
1406.000000	21.693537
1407.000000	21.589740
1408.000000	21.557213
1409.000000	21.422799
1410.000000	21.355496
1411.000000	21.251492
1412.000000	21.175552
1413.000000	21.251881
1414.000000	21.302032
1415.000000	21.772656
1416.000000	21.825772
1417.000000	21.956800
1418.000000	22.033954
1419.000000	21.963415
1420.000000	21.876997
1421.000000	21.803737
1422.000000	21.620465
1423.000000	21.476913
1424.000000	21.368281
1425.000000	21.273527
1426.000000	21.279472
1427.000000	21.325838
1428.000000	21.287755
1429.000000	21.210293
1430.000000	21.211800
1431.000000	21.383902
1432.000000	21.315027
1433.000000	21.291431
1434.000000	21.258513
1435.000000	21.285871
1436.000000	21.335290
1437.000000	21.272200
1438.000000	21.257220
1439.000000	21.102911
1440.000000	21.046204
1441.000000	20.969330
1442.000000	21.011743
1443.000000	21.035849
1444.000000	21.076946
1445.000000	21.124156
1446.000000	21.140692
1447.000000	21.130650
1448.000000	21.119716
1449.000000	21.099114
1450.000000	21.104720
1451.000000	21.063961
1452.000000	21.048265
1453.000000	20.953338
1454.000000	20.860850
1455.000000	20.813034
1456.000000	20.787053
1457.000000	20.734839
1458.000000	20.667597
1459.000000	20.582827
1460.000000	20.531819
1461.000000	20.478772
1462.000000	20.429541
1463.000000	20.384356
1464.000000	20.357042
1465.000000	20.320321
1466.000000	20.287027
1467.000000	20.281049
1468.000000	20.260652
1469.000000	20.283909
1470.000000	20.310388
1471.000000	20.310632
1472.000000	20.248939
1473.000000	20.188191
1474.000000	20.162189
1475.000000	20.170693
1476.000000	20.161842
1477.000000	20.127677
1478.000000	20.041968
1479.000000	20.015727
1480.000000	19.936772
1481.000000	19.903903
1482.000000	19.879274
1483.000000	19.853395
1484.000000	19.798141
1485.000000	19.776336
1486.000000	19.799369
1487.000000	19.823389
1488.000000	19.767971
1489.000000	19.774444
1490.000000	19.764962
1491.000000	19.741937
1492.000000	19.744042
1493.000000	19.749290
1494.000000	19.782567
1495.000000	19.783803
1496.000000	19.775962
1497.000000	19.765711
1498.000000	19.743692
1499.000000	19.705550
1500.000000	19.689015
1501.000000	19.672398
1502.000000	19.671130
1503.000000	19.666448
1504.000000	19.654093
1505.000000	19.636241
1506.000000	19.672976
1507.000000	19.703204
1508.000000	19.745291
1509.000000	19.791022
1510.000000	19.783986
1511.000000	19.774313
1512.000000	19.748669
1513.000000	19.766917
1514.000000	19.763311
1515.000000	19.768869
1516.000000	19.797120
1517.000000	19.825283
1518.000000	19.846276
1519.000000	19.858318
1520.000000	19.823440
1521.000000	19.826899
1522.000000	19.856563
1523.000000	19.901242
1524.000000	19.911060
1525.000000	19.913640
1526.000000	19.917822
1527.000000	19.934282
1528.000000	19.965184
1529.000000	19.965296
1530.000000	19.974365
1531.000000	19.971989
1532.000000	19.993549
1533.000000	20.050610
1534.000000	20.099796
1535.000000	20.104895
1536.000000	20.117206
1537.000000	20.145338
1538.000000	20.154109
1539.000000	20.133006
1540.000000	20.139785
1541.000000	20.136263
1542.000000	20.161874
1543.000000	20.155724
1544.000000	20.146527
1545.000000	20.138995
1546.000000	20.139538
1547.000000	20.150075
1548.000000	20.170945
1549.000000	20.211808
1550.000000	20.231597
1551.000000	20.216626
1552.000000	20.195072
1553.000000	20.183648
1554.000000	20.203351
1555.000000	20.192151
1556.000000	20.159350
1557.000000	20.146674
1558.000000	20.120488
1559.000000	20.097980
1560.000000	20.101790
1561.000000	20.116588
1562.000000	20.097234
1563.000000	20.089772
1564.000000	20.122139
1565.000000	20.124592
1566.000000	20.130679
1567.000000	20.132570
1568.000000	20.101346
1569.000000	20.058207
1570.000000	20.052442
1571.000000	20.047478
1572.000000	20.033278
1573.000000	20.032877
1574.000000	20.039817
1575.000000	20.035255
1576.000000	20.032382
1577.000000	20.011379
1578.000000	19.991380
1579.000000	19.988466
1580.000000	19.980880
1581.000000	19.968622
1582.000000	19.965335
1583.000000	19.968319
1584.000000	19.942853
1585.000000	19.942642
1586.000000	19.944688
1587.000000	19.957149
1588.000000	19.962328
1589.000000	19.966837
1590.000000	19.989799
1591.000000	19.988675
1592.000000	19.955444
1593.000000	19.935410
1594.000000	19.932350
1595.000000	19.922840
1596.000000	19.923059
1597.000000	19.951642
1598.000000	19.969135
1599.000000	19.931970
1600.000000	19.937382
1601.000000	19.941878
1602.000000	19.927381
1603.000000	19.941151
1604.000000	19.994472
1605.000000	20.022518
1606.000000	20.017389
1607.000000	20.036346
1608.000000	20.053179
1609.000000	20.077312
1610.000000	20.061921
1611.000000	20.024777
1612.000000	20.019506
1613.000000	20.030406
1614.000000	20.021163
1615.000000	20.016244
1616.000000	20.030795
1617.000000	20.038897
1618.000000	20.041119
1619.000000	20.020465
1620.000000	19.982839
1621.000000	19.983906
1622.000000	19.982287
1623.000000	19.967549
1624.000000	19.941974
1625.000000	19.955868
1626.000000	19.973165
1627.000000	20.023659
1628.000000	20.019071
1629.000000	20.048029
1630.000000	20.063380
1631.000000	20.056011
1632.000000	20.028451
1633.000000	19.996086
1634.000000	20.019810
1635.000000	20.011696
1636.000000	20.043956
1637.000000	20.054106
1638.000000	20.100184
1639.000000	20.047655
1640.000000	20.028324
1641.000000	20.031618
1642.000000	20.024037
1643.000000	19.985383
1644.000000	19.943030
1645.000000	19.951495
1646.000000	20.002502
1647.000000	20.019023
1648.000000	20.030788
1649.000000	20.057297
1650.000000	20.062451
1651.000000	20.088244
1652.000000	20.053014
1653.000000	20.072263
1654.000000	20.101394
1655.000000	20.129566
1656.000000	20.122024
1657.000000	20.164938
1658.000000	20.178594
1659.000000	20.251023
1660.000000	20.230234
1661.000000	20.228379
1662.000000	20.201576
1663.000000	20.244379
1664.000000	20.255477
1665.000000	20.245596
1666.000000	20.251156
1667.000000	20.300540
1668.000000	20.338319
1669.000000	20.282875
1670.000000	20.276312
1671.000000	20.245936
1672.000000	20.245712
1673.000000	20.183387
1674.000000	20.211184
1675.000000	20.172532
1676.000000	20.156040
1677.000000	20.104850
1678.000000	20.107509
1679.000000	20.143272
1680.000000	20.129832
1681.000000	20.077423
1682.000000	20.007128
1683.000000	19.967023
1684.000000	19.926185
1685.000000	19.924179
1686.000000	19.867641
1687.000000	19.896592
1688.000000	19.863463
1689.000000	19.848185
1690.000000	19.829895
1691.000000	19.786467
1692.000000	19.653569
1693.000000	19.638369
1694.000000	19.561340
1695.000000	19.527996
1696.000000	19.476894
1697.000000	19.417799
1698.000000	19.375709
1699.000000	19.335848
1700.000000	19.328179
1701.000000	19.315893
1702.000000	19.232824
1703.000000	19.176144
1704.000000	19.190884
1705.000000	19.181360
1706.000000	19.190740
1707.000000	19.190647
1708.000000	19.179378
1709.000000	19.113186
1710.000000	19.091731
1711.000000	19.086203
1712.000000	19.094548
1713.000000	19.090738
1714.000000	19.025197
1715.000000	19.032509
1716.000000	19.027556
1717.000000	19.039298
1718.000000	19.027505
1719.000000	18.997172
1720.000000	18.946064
1721.000000	18.943785
1722.000000	18.912530
1723.000000	18.900662
1724.000000	18.913440
1725.000000	18.871293
1726.000000	18.860512
1727.000000	18.878516
1728.000000	18.825010
1729.000000	18.805568
1730.000000	18.772325
1731.000000	18.785675
1732.000000	18.777426
1733.000000	18.747857
1734.000000	18.707554
1735.000000	18.697244
1736.000000	18.688088
1737.000000	18.682116
1738.000000	18.653794
1739.000000	18.663192
1740.000000	18.657196
1741.000000	18.590145
1742.000000	18.537513
1743.000000	18.504037
1744.000000	18.506064
1745.000000	18.538507
1746.000000	18.510664
1747.000000	18.518484
1748.000000	18.513291
1749.000000	18.512010
1750.000000	18.457837
1751.000000	18.440290
1752.000000	18.433358
1753.000000	18.444560
1754.000000	18.466808
1755.000000	18.491614
1756.000000	18.513908
1757.000000	18.514419
1758.000000	18.523823
1759.000000	18.488468
1760.000000	18.488003
1761.000000	18.486270
1762.000000	18.511021
1763.000000	18.529939
1764.000000	18.527690
1765.000000	18.547456
1766.000000	18.545659
1767.000000	18.561732
1768.000000	18.567642
1769.000000	18.554799
1770.000000	18.540765
1771.000000	18.546368
1772.000000	18.559672
1773.000000	18.558065
1774.000000	18.539138
1775.000000	18.516789
1776.000000	18.527899
1777.000000	18.543002
1778.000000	18.555541
1779.000000	18.553602
1780.000000	18.543813
1781.000000	18.579333
1782.000000	18.569778
1783.000000	18.546340
1784.000000	18.547757
1785.000000	18.569881
1786.000000	18.582765
1787.000000	18.602765
1788.000000	18.594916
1789.000000	18.572803
1790.000000	18.570448
1791.000000	18.535837
1792.000000	18.534914
1793.000000	18.499908
1794.000000	18.470011
1795.000000	18.463600
1796.000000	18.466860
1797.000000	18.433113
1798.000000	18.432244
1799.000000	18.433079
1800.000000	18.426229
1801.000000	18.393790
1802.000000	18.394625
1803.000000	18.405340
1804.000000	18.452289
1805.000000	18.462776
1806.000000	18.440315
1807.000000	18.442552
1808.000000	18.436516
1809.000000	18.398727
1810.000000	18.390669
1811.000000	18.364629
1812.000000	18.299690
1813.000000	18.243207
1814.000000	18.263590
1815.000000	18.297764
1816.000000	18.241102
1817.000000	18.225299
1818.000000	18.310899
1819.000000	18.372597
1820.000000	18.448070
1821.000000	18.420406
1822.000000	18.369669
1823.000000	18.343287
1824.000000	18.336546
1825.000000	18.320768
1826.000000	18.351770
1827.000000	18.334944
1828.000000	18.317282
1829.000000	18.297843
1830.000000	18.266900
1831.000000	18.241620
1832.000000	18.238681
1833.000000	18.181789
1834.000000	18.155485
1835.000000	18.234094
1836.000000	18.352540
1837.000000	18.339556
1838.000000	18.279881
1839.000000	18.108314
1840.000000	18.006715
1841.000000	17.951179
1842.000000	17.929344
1843.000000	17.887074
1844.000000	17.841325
1845.000000	17.823924
1846.000000	17.827832
1847.000000	17.876125
1848.000000	17.918683
1849.000000	17.888259
1850.000000	17.864826
1851.000000	17.865617
1852.000000	17.797480
1853.000000	17.632550
1854.000000	17.532814
1855.000000	17.455525
1856.000000	17.568970
1857.000000	17.642384
1858.000000	17.691275
1859.000000	17.740684
1860.000000	17.768665
1861.000000	17.751048
1862.000000	17.761828
1863.000000	17.835576
1864.000000	17.841126
1865.000000	17.820890
1866.000000	17.828095
1867.000000	17.856201
1868.000000	17.918532
1869.000000	17.915700
1870.000000	17.700148
1871.000000	17.504749
1872.000000	17.522339
1873.000000	17.594398
1874.000000	17.699772
1875.000000	17.760947
1876.000000	17.783537
1877.000000	17.774342
1878.000000	17.811812
1879.000000	17.839205
1880.000000	17.835802
1881.000000	17.806437
1882.000000	17.741917
1883.000000	17.668723
1884.000000	17.677871
1885.000000	17.623558
1886.000000	17.565297
1887.000000	17.574723
1888.000000	17.591594
1889.000000	17.595498
1890.000000	17.549084
1891.000000	17.373391
1892.000000	17.286000
1893.000000	17.127799
1894.000000	16.999048
1895.000000	16.908237
1896.000000	16.825218
1897.000000	16.743194
1898.000000	16.637141
1899.000000	16.542322
1900.000000	16.493673
1901.000000	16.390688
1902.000000	16.346404
1903.000000	16.274610
1904.000000	16.233531
1905.000000	16.324487
1906.000000	16.218503
1907.000000	16.073784
1908.000000	15.931200
1909.000000	15.841779
1910.000000	15.758782
1911.000000	15.638285
1912.000000	15.563541
1913.000000	15.431238
1914.000000	15.319640
1915.000000	15.209479
1916.000000	15.131292
1917.000000	15.070059
1918.000000	14.981181
1919.000000	14.824338
1920.000000	14.664376
1921.000000	14.578683
1922.000000	14.507617
1923.000000	14.408564
1924.000000	14.259673
1925.000000	14.146982
1926.000000	14.022749
1927.000000	13.921839
1928.000000	13.863614
1929.000000	13.791663
1930.000000	13.712141
1931.000000	13.620382
1932.000000	13.493799
1933.000000	13.376565
1934.000000	13.309321
1935.000000	13.289296
1936.000000	13.229837
1937.000000	13.081020
1938.000000	12.985123
1939.000000	12.875975
1940.000000	12.746990
1941.000000	12.773756
1942.000000	12.758637
1943.000000	12.717332
1944.000000	12.702962
1945.000000	12.658621
1946.000000	12.644319
1947.000000	12.590111
1948.000000	12.588648
1949.000000	12.583485
1950.000000	12.543214
1951.000000	12.499998
1952.000000	12.471844
1953.000000	12.472250
1954.000000	12.471979
1955.000000	12.489120
1956.000000	12.492863
1957.000000	12.460727
1958.000000	12.484097
1959.000000	12.520994
1960.000000	12.522687
1961.000000	12.580261
1962.000000	12.568516
1963.000000	12.586036
1964.000000	12.596518
1965.000000	12.599980
1966.000000	12.595846
1967.000000	12.681916
1968.000000	12.720473
1969.000000	12.766480
1970.000000	12.742156
1971.000000	12.781747
1972.000000	12.791971
1973.000000	12.803401
1974.000000	12.845488
1975.000000	12.887353
1976.000000	12.911348
1977.000000	12.883521
1978.000000	12.887652
1979.000000	12.872939
1980.000000	12.884310
1981.000000	12.912915
1982.000000	12.917954
1983.000000	12.928788
1984.000000	12.904376
1985.000000	12.926283
1986.000000	12.951897
1987.000000	12.970384
1988.000000	13.016539
1989.000000	13.044978
1990.000000	13.066040
1991.000000	13.077443
1992.000000	13.127283
1993.000000	13.120536
1994.000000	13.134406
1995.000000	13.159739
1996.000000	13.150789
1997.000000	13.173788
1998.000000	13.223781
1999.000000	13.212548
2000.000000	13.230704
