PE UV       SUBTECH     SPECTRUM    ASCII       PEDS        4.00        
   -1
C.OPTI.8.17-TX3.ASC
23/11/29
14:44:53.00
23/11/29
14:44:53.00
Vinicio Soto Monge
C. OPTIMA #81 7
250,000000
1
Lambda 1050
1050L1511233
PerkinElmer UV WinLab 6.3.2.0749 / 2.02.05 Lambda 900 UV/VIS/NIR, Aug  7 2015 09:38:08

0
0
3350/servo 860,8/2
0
0
UV/VIS
1
1
1
DoubleDePol,CommonBeamDepol,RBeamAtt,SBeamAtt,60mm sphere, WB InGaAs Detector
0
0
0
0
Program
Program
3350/servo 860,8/2
3350/0,4 860,8/0,4
3350/0,4 860,8/0,4
0
20.00
 
 
 
0
 
860,8
319,2
860,8
Front
100
on
S:100 R:100
0
0
0
0
 
0
 
 
 
0
 
 
0
0
0
0
0
 
 
 
 
0
0


0
0
#HDR
-1
-1
#GR
nm
%R
1.0
0.0
2200,000000
-1,000000
1951
8
42,632739
0,179440
#DATA
284.000000	5.726401
285.000000	5.712782
286.000000	5.699762
287.000000	5.689468
288.000000	5.679143
289.000000	5.668677
290.000000	5.660809
291.000000	5.652883
292.000000	5.645045
293.000000	5.636887
294.000000	5.631377
295.000000	5.626576
296.000000	5.620757
297.000000	5.614142
298.000000	5.609399
299.000000	5.603994
300.000000	5.600087
301.000000	5.597298
302.000000	5.593980
303.000000	5.589586
304.000000	5.586624
305.000000	5.582526
306.000000	5.577918
307.000000	5.574110
308.000000	5.568893
309.000000	5.564325
310.000000	5.559773
311.000000	5.555925
312.000000	5.552140
313.000000	5.546730
314.000000	5.541182
315.000000	5.535150
316.000000	5.530246
317.000000	5.517249
318.000000	5.505538
319.000000	5.495622
320.000000	5.489003
321.000000	5.478022
322.000000	5.470141
323.000000	5.461102
324.000000	5.452512
325.000000	5.444449
326.000000	5.434611
327.000000	5.427821
328.000000	5.422123
329.000000	5.414658
330.000000	5.406761
331.000000	5.400379
332.000000	5.397254
333.000000	5.391863
334.000000	5.388880
335.000000	5.385742
336.000000	5.382475
337.000000	5.382631
338.000000	5.384288
339.000000	5.386011
340.000000	5.387970
341.000000	5.393914
342.000000	5.401477
343.000000	5.412411
344.000000	5.422815
345.000000	5.435795
346.000000	5.453601
347.000000	5.473185
348.000000	5.496683
349.000000	5.523020
350.000000	5.554049
351.000000	5.590622
352.000000	5.637123
353.000000	5.687798
354.000000	5.742225
355.000000	5.800085
356.000000	5.869945
357.000000	5.944038
358.000000	6.028617
359.000000	6.122251
360.000000	6.224939
361.000000	6.339778
362.000000	6.464748
363.000000	6.600979
364.000000	6.751767
365.000000	6.916980
366.000000	7.096104
367.000000	7.286203
368.000000	7.493914
369.000000	7.717926
370.000000	7.958259
371.000000	8.216117
372.000000	8.489756
373.000000	8.782702
374.000000	9.093579
375.000000	9.421281
376.000000	9.768978
377.000000	10.145935
378.000000	10.540718
379.000000	10.955322
380.000000	11.387495
381.000000	11.835011
382.000000	12.301456
383.000000	12.784210
384.000000	13.283184
385.000000	13.795978
386.000000	14.321321
387.000000	14.858535
388.000000	15.408388
389.000000	15.967450
390.000000	16.533552
391.000000	17.105080
392.000000	17.681428
393.000000	18.260053
394.000000	18.840549
395.000000	19.420263
396.000000	19.997063
397.000000	20.568634
398.000000	21.135973
399.000000	21.696566
400.000000	22.249622
401.000000	22.793097
402.000000	23.326875
403.000000	23.848841
404.000000	24.358896
405.000000	24.853864
406.000000	25.334019
407.000000	25.797855
408.000000	26.242762
409.000000	26.670473
410.000000	27.081135
411.000000	27.468740
412.000000	27.824137
413.000000	28.157857
414.000000	28.470005
415.000000	28.759076
416.000000	29.024409
417.000000	29.266228
418.000000	29.484335
419.000000	29.678343
420.000000	29.849314
421.000000	29.997015
422.000000	30.120785
423.000000	30.221387
424.000000	30.299086
425.000000	30.354514
426.000000	30.388171
427.000000	30.399787
428.000000	30.390430
429.000000	30.361145
430.000000	30.313316
431.000000	30.248575
432.000000	30.167515
433.000000	30.071715
434.000000	29.962177
435.000000	29.841221
436.000000	29.712320
437.000000	29.577208
438.000000	29.437303
439.000000	29.294346
440.000000	29.152692
441.000000	29.014421
442.000000	28.880750
443.000000	28.752821
444.000000	28.632519
445.000000	28.522659
446.000000	28.423018
447.000000	28.334551
448.000000	28.256940
449.000000	28.190448
450.000000	28.135624
451.000000	28.092655
452.000000	28.061397
453.000000	28.041808
454.000000	28.033412
455.000000	28.035650
456.000000	28.048484
457.000000	28.072842
458.000000	28.108149
459.000000	28.153821
460.000000	28.210242
461.000000	28.277150
462.000000	28.354546
463.000000	28.441809
464.000000	28.537562
465.000000	28.641326
466.000000	28.751929
467.000000	28.868597
468.000000	28.989980
469.000000	29.114721
470.000000	29.241124
471.000000	29.366613
472.000000	29.489949
473.000000	29.609697
474.000000	29.724880
475.000000	29.833895
476.000000	29.935581
477.000000	30.029747
478.000000	30.116902
479.000000	30.196173
480.000000	30.265792
481.000000	30.327178
482.000000	30.381181
483.000000	30.429239
484.000000	30.472386
485.000000	30.510720
486.000000	30.545492
487.000000	30.577545
488.000000	30.607017
489.000000	30.635296
490.000000	30.662813
491.000000	30.689481
492.000000	30.714881
493.000000	30.739319
494.000000	30.764076
495.000000	30.787701
496.000000	30.809723
497.000000	30.830333
498.000000	30.850939
499.000000	30.872080
500.000000	30.893356
501.000000	30.915197
502.000000	30.938723
503.000000	30.964338
504.000000	30.993453
505.000000	31.027183
506.000000	31.065889
507.000000	31.110650
508.000000	31.162649
509.000000	31.223136
510.000000	31.291936
511.000000	31.369231
512.000000	31.456344
513.000000	31.552589
514.000000	31.658395
515.000000	31.775360
516.000000	31.902437
517.000000	32.039559
518.000000	32.185709
519.000000	32.341588
520.000000	32.507775
521.000000	32.684234
522.000000	32.870405
523.000000	33.067720
524.000000	33.274963
525.000000	33.492333
526.000000	33.719984
527.000000	33.958599
528.000000	34.208920
529.000000	34.469297
530.000000	34.740864
531.000000	35.023569
532.000000	35.317032
533.000000	35.619525
534.000000	35.930914
535.000000	36.250710
536.000000	36.579240
537.000000	36.913536
538.000000	37.253433
539.000000	37.597431
540.000000	37.944614
541.000000	38.293910
542.000000	38.643053
543.000000	38.991620
544.000000	39.337623
545.000000	39.680990
546.000000	40.020392
547.000000	40.354507
548.000000	40.682108
549.000000	41.001778
550.000000	41.311770
551.000000	41.614118
552.000000	41.906405
553.000000	42.189890
554.000000	42.463002
555.000000	42.725237
556.000000	42.975908
557.000000	43.215210
558.000000	43.441980
559.000000	43.656891
560.000000	43.862551
561.000000	44.055844
562.000000	44.236527
563.000000	44.405991
564.000000	44.564804
565.000000	44.712321
566.000000	44.850574
567.000000	44.979871
568.000000	45.100268
569.000000	45.212739
570.000000	45.317894
571.000000	45.416312
572.000000	45.510533
573.000000	45.600054
574.000000	45.687507
575.000000	45.771549
576.000000	45.853256
577.000000	45.934335
578.000000	46.013866
579.000000	46.092626
580.000000	46.170376
581.000000	46.244831
582.000000	46.317663
583.000000	46.388476
584.000000	46.458247
585.000000	46.527593
586.000000	46.594982
587.000000	46.658585
588.000000	46.717751
589.000000	46.771854
590.000000	46.820437
591.000000	46.863617
592.000000	46.899696
593.000000	46.928552
594.000000	46.950931
595.000000	46.962795
596.000000	46.967743
597.000000	46.967131
598.000000	46.958318
599.000000	46.942294
600.000000	46.917391
601.000000	46.885431
602.000000	46.844884
603.000000	46.797847
604.000000	46.744135
605.000000	46.683205
606.000000	46.614972
607.000000	46.539643
608.000000	46.458137
609.000000	46.367850
610.000000	46.270070
611.000000	46.164128
612.000000	46.051115
613.000000	45.930059
614.000000	45.801434
615.000000	45.664790
616.000000	45.523963
617.000000	45.377164
618.000000	45.224989
619.000000	45.067454
620.000000	44.905484
621.000000	44.739573
622.000000	44.571271
623.000000	44.400918
624.000000	44.229506
625.000000	44.058241
626.000000	43.887220
627.000000	43.717988
628.000000	43.551400
629.000000	43.387840
630.000000	43.228399
631.000000	43.074117
632.000000	42.922884
633.000000	42.776827
634.000000	42.634632
635.000000	42.499426
636.000000	42.369641
637.000000	42.247125
638.000000	42.130415
639.000000	42.020921
640.000000	41.918992
641.000000	41.825921
642.000000	41.740486
643.000000	41.663309
644.000000	41.594584
645.000000	41.534626
646.000000	41.484069
647.000000	41.441155
648.000000	41.407329
649.000000	41.381721
650.000000	41.365775
651.000000	41.357362
652.000000	41.356386
653.000000	41.363661
654.000000	41.379057
655.000000	41.402145
656.000000	41.431141
657.000000	41.467457
658.000000	41.511859
659.000000	41.564154
660.000000	41.624180
661.000000	41.691275
662.000000	41.765037
663.000000	41.846611
664.000000	41.934417
665.000000	42.028287
666.000000	42.128440
667.000000	42.236621
668.000000	42.351573
669.000000	42.475465
670.000000	42.608169
671.000000	42.747778
672.000000	42.894733
673.000000	43.051495
674.000000	43.215346
675.000000	43.387651
676.000000	43.566138
677.000000	43.751620
678.000000	43.942990
679.000000	44.140851
680.000000	44.345449
681.000000	44.555502
682.000000	44.772009
683.000000	44.994035
684.000000	45.222182
685.000000	45.454888
686.000000	45.692200
687.000000	45.933930
688.000000	46.178139
689.000000	46.427074
690.000000	46.678674
691.000000	46.934533
692.000000	47.193958
693.000000	47.453720
694.000000	47.713880
695.000000	47.973535
696.000000	48.233622
697.000000	48.492152
698.000000	48.748480
699.000000	49.004743
700.000000	49.260765
701.000000	49.514919
702.000000	49.766260
703.000000	50.014888
704.000000	50.261053
705.000000	50.505395
706.000000	50.747214
707.000000	50.985991
708.000000	51.220803
709.000000	51.451108
710.000000	51.676959
711.000000	51.900872
712.000000	52.119922
713.000000	52.333122
714.000000	52.541989
715.000000	52.745224
716.000000	52.943972
717.000000	53.136898
718.000000	53.324002
719.000000	53.504230
720.000000	53.680310
721.000000	53.851543
722.000000	54.016779
723.000000	54.178572
724.000000	54.333311
725.000000	54.483405
726.000000	54.627787
727.000000	54.768379
728.000000	54.905810
729.000000	55.037986
730.000000	55.167889
731.000000	55.293910
732.000000	55.419339
733.000000	55.543454
734.000000	55.663818
735.000000	55.781554
736.000000	55.897522
737.000000	56.013214
738.000000	56.126453
739.000000	56.235353
740.000000	56.340401
741.000000	56.443455
742.000000	56.543157
743.000000	56.638846
744.000000	56.732768
745.000000	56.823852
746.000000	56.909553
747.000000	56.992545
748.000000	57.075696
749.000000	57.157127
750.000000	57.235494
751.000000	57.312086
752.000000	57.389981
753.000000	57.470371
754.000000	57.550003
755.000000	57.628212
756.000000	57.707581
757.000000	57.786059
758.000000	57.862803
759.000000	57.937891
760.000000	58.011261
761.000000	58.085253
762.000000	58.158764
763.000000	58.231415
764.000000	58.305024
765.000000	58.377497
766.000000	58.452034
767.000000	58.523609
768.000000	58.590294
769.000000	58.656825
770.000000	58.723837
771.000000	58.792015
772.000000	58.859072
773.000000	58.924617
774.000000	58.990195
775.000000	59.057886
776.000000	59.123891
777.000000	59.191740
778.000000	59.258775
779.000000	59.324484
780.000000	59.391526
781.000000	59.461126
782.000000	59.530770
783.000000	59.598816
784.000000	59.665430
785.000000	59.733243
786.000000	59.806078
787.000000	59.873465
788.000000	59.935066
789.000000	59.995447
790.000000	60.059191
791.000000	60.124341
792.000000	60.187569
793.000000	60.251741
794.000000	60.315547
795.000000	60.380864
796.000000	60.445258
797.000000	60.510887
798.000000	60.576762
799.000000	60.645438
800.000000	60.715053
801.000000	60.781208
802.000000	60.849410
803.000000	60.920623
804.000000	60.993680
805.000000	61.064453
806.000000	61.133174
807.000000	61.203354
808.000000	61.275395
809.000000	61.348339
810.000000	61.419034
811.000000	61.492279
812.000000	61.561432
813.000000	61.633330
814.000000	61.705112
815.000000	61.775375
816.000000	61.848649
817.000000	61.921612
818.000000	61.994264
819.000000	62.066690
820.000000	62.141976
821.000000	62.214316
822.000000	62.290040
823.000000	62.369891
824.000000	62.448961
825.000000	62.521741
826.000000	62.588945
827.000000	62.663779
828.000000	62.740170
829.000000	62.817361
830.000000	62.890707
831.000000	62.958444
832.000000	63.028955
833.000000	63.101584
834.000000	63.169981
835.000000	63.235992
836.000000	63.296645
837.000000	63.363599
838.000000	63.437378
839.000000	63.503315
840.000000	63.568117
841.000000	63.632531
842.000000	63.694270
843.000000	63.755660
844.000000	63.821089
845.000000	63.881351
846.000000	63.938728
847.000000	64.004812
848.000000	64.058129
849.000000	64.110434
850.000000	64.154396
851.000000	64.212195
852.000000	64.261754
853.000000	64.309624
854.000000	64.357316
855.000000	64.411986
856.000000	64.461654
857.000000	64.493231
858.000000	64.516893
859.000000	64.583119
860.000000	64.653714
861.000000	64.718819
862.000000	64.778085
863.000000	64.811903
864.000000	64.856460
865.000000	64.930838
866.000000	64.955901
867.000000	64.995815
868.000000	65.042554
869.000000	65.083421
870.000000	65.130147
871.000000	65.174900
872.000000	65.218266
873.000000	65.264011
874.000000	65.288729
875.000000	65.290295
876.000000	65.295145
877.000000	65.334695
878.000000	65.382447
879.000000	65.434223
880.000000	65.460544
881.000000	65.495743
882.000000	65.517223
883.000000	65.541095
884.000000	65.576697
885.000000	65.598156
886.000000	65.586908
887.000000	65.608702
888.000000	65.648837
889.000000	65.661371
890.000000	65.688823
891.000000	65.691212
892.000000	65.682140
893.000000	65.677215
894.000000	65.657195
895.000000	65.607663
896.000000	65.604388
897.000000	65.547886
898.000000	65.523382
899.000000	65.502669
900.000000	65.426990
901.000000	65.406100
902.000000	65.361099
903.000000	65.281058
904.000000	65.230830
905.000000	65.182250
906.000000	65.095959
907.000000	65.019833
908.000000	64.918615
909.000000	64.880649
910.000000	64.846694
911.000000	64.798148
912.000000	64.646720
913.000000	64.518941
914.000000	64.412765
915.000000	64.307151
916.000000	64.180316
917.000000	64.085990
918.000000	63.958327
919.000000	63.799658
920.000000	63.685335
921.000000	63.564225
922.000000	63.414909
923.000000	63.270664
924.000000	63.150314
925.000000	63.004342
926.000000	62.859020
927.000000	62.748007
928.000000	62.646283
929.000000	62.474061
930.000000	62.331279
931.000000	62.159171
932.000000	62.027399
933.000000	61.912737
934.000000	61.777865
935.000000	61.630084
936.000000	61.496858
937.000000	61.338665
938.000000	61.204607
939.000000	61.067785
940.000000	60.917174
941.000000	60.797556
942.000000	60.658190
943.000000	60.534736
944.000000	60.393279
945.000000	60.254042
946.000000	60.101027
947.000000	60.062042
948.000000	59.946320
949.000000	59.777581
950.000000	59.644730
951.000000	59.503597
952.000000	59.358152
953.000000	59.264372
954.000000	59.193589
955.000000	59.088671
956.000000	59.012858
957.000000	58.932094
958.000000	58.826984
959.000000	58.703535
960.000000	58.583708
961.000000	58.452420
962.000000	58.357832
963.000000	58.233809
964.000000	58.173384
965.000000	58.111625
966.000000	58.018994
967.000000	57.949073
968.000000	57.844224
969.000000	57.742217
970.000000	57.666439
971.000000	57.567977
972.000000	57.531164
973.000000	57.470544
974.000000	57.393068
975.000000	57.298835
976.000000	57.216509
977.000000	57.162721
978.000000	57.083085
979.000000	56.978891
980.000000	56.935183
981.000000	56.902119
982.000000	56.829792
983.000000	56.785399
984.000000	56.755621
985.000000	56.747665
986.000000	56.738775
987.000000	56.705255
988.000000	56.656747
989.000000	56.614932
990.000000	56.561033
991.000000	56.483965
992.000000	56.448872
993.000000	56.410665
994.000000	56.391062
995.000000	56.376745
996.000000	56.378828
997.000000	56.334037
998.000000	56.333484
999.000000	56.318832
1000.000000	56.301675
1001.000000	56.286316
1002.000000	56.239615
1003.000000	56.203992
1004.000000	56.168627
1005.000000	56.144235
1006.000000	56.125301
1007.000000	56.083458
1008.000000	56.088578
1009.000000	56.082220
1010.000000	56.085715
1011.000000	56.088562
1012.000000	56.066923
1013.000000	56.063517
1014.000000	56.062641
1015.000000	56.038835
1016.000000	56.028256
1017.000000	56.005701
1018.000000	55.998376
1019.000000	56.000000
1020.000000	55.965756
1021.000000	55.960542
1022.000000	55.940673
1023.000000	55.925661
1024.000000	55.908800
1025.000000	55.902816
1026.000000	55.907765
1027.000000	55.911429
1028.000000	55.910636
1029.000000	55.889180
1030.000000	55.868811
1031.000000	55.875045
1032.000000	55.871816
1033.000000	55.861844
1034.000000	55.842897
1035.000000	55.827585
1036.000000	55.854386
1037.000000	55.881399
1038.000000	55.898894
1039.000000	55.938230
1040.000000	55.968482
1041.000000	55.979402
1042.000000	55.987138
1043.000000	56.003717
1044.000000	56.018647
1045.000000	56.021511
1046.000000	56.015197
1047.000000	56.050704
1048.000000	56.065602
1049.000000	56.068520
1050.000000	56.067520
1051.000000	56.064632
1052.000000	56.068436
1053.000000	56.062356
1054.000000	56.046551
1055.000000	56.058531
1056.000000	56.058868
1057.000000	56.068297
1058.000000	56.088617
1059.000000	56.116262
1060.000000	56.155264
1061.000000	56.193131
1062.000000	56.171666
1063.000000	56.167992
1064.000000	56.206639
1065.000000	56.222741
1066.000000	56.251585
1067.000000	56.291184
1068.000000	56.311517
1069.000000	56.343773
1070.000000	56.373390
1071.000000	56.362642
1072.000000	56.369051
1073.000000	56.353590
1074.000000	56.334822
1075.000000	56.319293
1076.000000	56.326774
1077.000000	56.322493
1078.000000	56.272296
1079.000000	56.236319
1080.000000	56.247750
1081.000000	56.285820
1082.000000	56.236376
1083.000000	56.237116
1084.000000	56.269412
1085.000000	56.271771
1086.000000	56.299436
1087.000000	56.323542
1088.000000	56.319162
1089.000000	56.323558
1090.000000	56.318120
1091.000000	56.313139
1092.000000	56.314296
1093.000000	56.306899
1094.000000	56.287452
1095.000000	56.292695
1096.000000	56.296009
1097.000000	56.312171
1098.000000	56.308155
1099.000000	56.294328
1100.000000	56.282128
1101.000000	56.251640
1102.000000	56.242394
1103.000000	56.220422
1104.000000	56.202241
1105.000000	56.172807
1106.000000	56.153269
1107.000000	56.152030
1108.000000	56.163660
1109.000000	56.172250
1110.000000	56.193348
1111.000000	56.213760
1112.000000	56.239740
1113.000000	56.314346
1114.000000	56.341242
1115.000000	56.332761
1116.000000	56.310325
1117.000000	56.370481
1118.000000	56.371524
1119.000000	56.375625
1120.000000	56.366863
1121.000000	56.313725
1122.000000	56.313565
1123.000000	56.344092
1124.000000	56.374238
1125.000000	56.391899
1126.000000	56.362145
1127.000000	56.382732
1128.000000	56.395113
1129.000000	56.408323
1130.000000	56.369128
1131.000000	56.333132
1132.000000	56.344938
1133.000000	56.369183
1134.000000	56.395383
1135.000000	56.406009
1136.000000	56.414051
1137.000000	56.392801
1138.000000	56.396592
1139.000000	56.390388
1140.000000	56.400071
1141.000000	56.362896
1142.000000	56.348454
1143.000000	56.327882
1144.000000	56.297449
1145.000000	56.262610
1146.000000	56.211174
1147.000000	56.184153
1148.000000	56.091559
1149.000000	56.104864
1150.000000	56.088543
1151.000000	56.066241
1152.000000	56.015524
1153.000000	56.017707
1154.000000	55.970509
1155.000000	55.942833
1156.000000	55.943500
1157.000000	55.885904
1158.000000	55.843010
1159.000000	55.779633
1160.000000	55.735400
1161.000000	55.733204
1162.000000	55.669264
1163.000000	55.642826
1164.000000	55.580571
1165.000000	55.572062
1166.000000	55.533169
1167.000000	55.490269
1168.000000	55.440645
1169.000000	55.353620
1170.000000	55.273208
1171.000000	55.230325
1172.000000	55.195815
1173.000000	55.168945
1174.000000	55.132364
1175.000000	55.055511
1176.000000	55.053718
1177.000000	55.020165
1178.000000	54.990187
1179.000000	54.995945
1180.000000	54.979228
1181.000000	54.984269
1182.000000	54.966123
1183.000000	54.977081
1184.000000	54.897407
1185.000000	54.845775
1186.000000	54.816167
1187.000000	54.769587
1188.000000	54.735366
1189.000000	54.722171
1190.000000	54.720001
1191.000000	54.688534
1192.000000	54.673053
1193.000000	54.656046
1194.000000	54.632845
1195.000000	54.614696
1196.000000	54.591956
1197.000000	54.584900
1198.000000	54.548554
1199.000000	54.565080
1200.000000	54.545463
1201.000000	54.561633
1202.000000	54.554746
1203.000000	54.527996
1204.000000	54.522845
1205.000000	54.536052
1206.000000	54.554869
1207.000000	54.554217
1208.000000	54.527786
1209.000000	54.514089
1210.000000	54.541726
1211.000000	54.555086
1212.000000	54.567968
1213.000000	54.592891
1214.000000	54.564505
1215.000000	54.579019
1216.000000	54.572146
1217.000000	54.554141
1218.000000	54.526143
1219.000000	54.542109
1220.000000	54.546604
1221.000000	54.544389
1222.000000	54.584412
1223.000000	54.572297
1224.000000	54.560027
1225.000000	54.538734
1226.000000	54.551270
1227.000000	54.551479
1228.000000	54.572640
1229.000000	54.591957
1230.000000	54.562220
1231.000000	54.573744
1232.000000	54.589857
1233.000000	54.610150
1234.000000	54.603690
1235.000000	54.595354
1236.000000	54.581161
1237.000000	54.569306
1238.000000	54.571890
1239.000000	54.556874
1240.000000	54.558958
1241.000000	54.545444
1242.000000	54.550685
1243.000000	54.572133
1244.000000	54.602759
1245.000000	54.591701
1246.000000	54.600195
1247.000000	54.595046
1248.000000	54.586087
1249.000000	54.614574
1250.000000	54.603479
1251.000000	54.581029
1252.000000	54.561603
1253.000000	54.563758
1254.000000	54.575218
1255.000000	54.626447
1256.000000	54.660467
1257.000000	54.616722
1258.000000	54.600472
1259.000000	54.620694
1260.000000	54.643183
1261.000000	54.637715
1262.000000	54.636893
1263.000000	54.597815
1264.000000	54.579678
1265.000000	54.582752
1266.000000	54.571173
1267.000000	54.545749
1268.000000	54.509086
1269.000000	54.503267
1270.000000	54.511442
1271.000000	54.504984
1272.000000	54.480968
1273.000000	54.482865
1274.000000	54.516157
1275.000000	54.523281
1276.000000	54.492769
1277.000000	54.477903
1278.000000	54.446128
1279.000000	54.408553
1280.000000	54.419940
1281.000000	54.421870
1282.000000	54.416171
1283.000000	54.415335
1284.000000	54.382361
1285.000000	54.380751
1286.000000	54.414026
1287.000000	54.429387
1288.000000	54.441215
1289.000000	54.437502
1290.000000	54.404199
1291.000000	54.363494
1292.000000	54.365795
1293.000000	54.383906
1294.000000	54.377993
1295.000000	54.375949
1296.000000	54.376578
1297.000000	54.370486
1298.000000	54.378226
1299.000000	54.403157
1300.000000	54.423457
1301.000000	54.427051
1302.000000	54.434351
1303.000000	54.422173
1304.000000	54.429103
1305.000000	54.419325
1306.000000	54.419580
1307.000000	54.409585
1308.000000	54.399121
1309.000000	54.380157
1310.000000	54.382507
1311.000000	54.412703
1312.000000	54.426467
1313.000000	54.440934
1314.000000	54.429952
1315.000000	54.400406
1316.000000	54.361991
1317.000000	54.331970
1318.000000	54.315407
1319.000000	54.299659
1320.000000	54.285654
1321.000000	54.259279
1322.000000	54.260916
1323.000000	54.227529
1324.000000	54.187472
1325.000000	54.175271
1326.000000	54.155157
1327.000000	54.159428
1328.000000	54.157969
1329.000000	54.137548
1330.000000	54.087925
1331.000000	54.057507
1332.000000	54.031981
1333.000000	54.013716
1334.000000	53.998525
1335.000000	53.977876
1336.000000	53.934670
1337.000000	53.890949
1338.000000	53.893484
1339.000000	53.837813
1340.000000	53.783622
1341.000000	53.760190
1342.000000	53.738730
1343.000000	53.725497
1344.000000	53.694015
1345.000000	53.653136
1346.000000	53.619303
1347.000000	53.555348
1348.000000	53.503244
1349.000000	53.430384
1350.000000	53.359556
1351.000000	53.289602
1352.000000	53.264779
1353.000000	53.182107
1354.000000	53.135276
1355.000000	53.078480
1356.000000	53.111439
1357.000000	53.109139
1358.000000	53.113052
1359.000000	53.067518
1360.000000	53.074091
1361.000000	53.093741
1362.000000	53.093250
1363.000000	53.026364
1364.000000	52.978354
1365.000000	52.919388
1366.000000	52.936275
1367.000000	52.968729
1368.000000	52.886849
1369.000000	52.907445
1370.000000	53.020651
1371.000000	52.984398
1372.000000	52.912286
1373.000000	52.811327
1374.000000	52.813336
1375.000000	52.827233
1376.000000	52.853705
1377.000000	52.798434
1378.000000	52.762786
1379.000000	52.664908
1380.000000	52.513974
1381.000000	52.374932
1382.000000	52.460962
1383.000000	52.482770
1384.000000	52.602354
1385.000000	52.656134
1386.000000	52.678079
1387.000000	52.749864
1388.000000	52.755617
1389.000000	52.819794
1390.000000	52.821878
1391.000000	52.630555
1392.000000	52.391092
1393.000000	52.274343
1394.000000	52.272983
1395.000000	52.148580
1396.000000	51.922713
1397.000000	51.735243
1398.000000	51.611114
1399.000000	51.568305
1400.000000	51.580099
1401.000000	51.421104
1402.000000	51.295283
1403.000000	51.219531
1404.000000	51.126380
1405.000000	50.841498
1406.000000	50.771829
1407.000000	50.697461
1408.000000	50.608078
1409.000000	50.468191
1410.000000	50.298488
1411.000000	50.092579
1412.000000	50.009281
1413.000000	49.871895
1414.000000	49.844961
1415.000000	49.844861
1416.000000	49.826341
1417.000000	49.571648
1418.000000	49.454616
1419.000000	49.190687
1420.000000	49.026659
1421.000000	48.853125
1422.000000	48.594941
1423.000000	48.469168
1424.000000	48.222784
1425.000000	48.030267
1426.000000	47.947802
1427.000000	47.932896
1428.000000	47.854497
1429.000000	47.726607
1430.000000	47.634185
1431.000000	47.654419
1432.000000	47.609127
1433.000000	47.543474
1434.000000	47.380410
1435.000000	47.241782
1436.000000	47.149171
1437.000000	47.014972
1438.000000	46.937455
1439.000000	46.783634
1440.000000	46.725293
1441.000000	46.611246
1442.000000	46.538402
1443.000000	46.470975
1444.000000	46.393754
1445.000000	46.395244
1446.000000	46.287829
1447.000000	46.234926
1448.000000	46.169667
1449.000000	46.069122
1450.000000	46.010164
1451.000000	45.880666
1452.000000	45.822655
1453.000000	45.713952
1454.000000	45.652871
1455.000000	45.526251
1456.000000	45.478222
1457.000000	45.415910
1458.000000	45.337530
1459.000000	45.271752
1460.000000	45.218933
1461.000000	45.162569
1462.000000	45.122731
1463.000000	45.038720
1464.000000	44.950543
1465.000000	44.860163
1466.000000	44.783953
1467.000000	44.729448
1468.000000	44.671092
1469.000000	44.655416
1470.000000	44.587616
1471.000000	44.559029
1472.000000	44.501652
1473.000000	44.437132
1474.000000	44.348893
1475.000000	44.274672
1476.000000	44.197307
1477.000000	44.120120
1478.000000	44.057702
1479.000000	43.977075
1480.000000	43.854212
1481.000000	43.836381
1482.000000	43.723016
1483.000000	43.669290
1484.000000	43.586738
1485.000000	43.487208
1486.000000	43.470737
1487.000000	43.418650
1488.000000	43.323917
1489.000000	43.285950
1490.000000	43.298952
1491.000000	43.258885
1492.000000	43.221250
1493.000000	43.166324
1494.000000	43.136033
1495.000000	43.104515
1496.000000	43.087375
1497.000000	43.061794
1498.000000	43.041726
1499.000000	42.999807
1500.000000	42.979454
1501.000000	42.947632
1502.000000	42.898397
1503.000000	42.892352
1504.000000	42.869907
1505.000000	42.845307
1506.000000	42.834161
1507.000000	42.843249
1508.000000	42.875614
1509.000000	42.901346
1510.000000	42.929902
1511.000000	42.967176
1512.000000	42.990265
1513.000000	43.018833
1514.000000	43.040713
1515.000000	43.063614
1516.000000	43.104650
1517.000000	43.163979
1518.000000	43.176855
1519.000000	43.213856
1520.000000	43.269108
1521.000000	43.299745
1522.000000	43.349174
1523.000000	43.408650
1524.000000	43.453204
1525.000000	43.463525
1526.000000	43.476064
1527.000000	43.503824
1528.000000	43.543727
1529.000000	43.580466
1530.000000	43.642195
1531.000000	43.682249
1532.000000	43.706929
1533.000000	43.734483
1534.000000	43.766048
1535.000000	43.801787
1536.000000	43.819718
1537.000000	43.867397
1538.000000	43.898696
1539.000000	43.902446
1540.000000	43.930742
1541.000000	43.955135
1542.000000	43.964809
1543.000000	43.941640
1544.000000	43.958464
1545.000000	43.967251
1546.000000	43.980784
1547.000000	44.025074
1548.000000	44.055695
1549.000000	44.094107
1550.000000	44.138779
1551.000000	44.160179
1552.000000	44.184779
1553.000000	44.210282
1554.000000	44.244418
1555.000000	44.271569
1556.000000	44.289840
1557.000000	44.308815
1558.000000	44.333152
1559.000000	44.337527
1560.000000	44.337701
1561.000000	44.360629
1562.000000	44.384351
1563.000000	44.400630
1564.000000	44.433068
1565.000000	44.419173
1566.000000	44.396057
1567.000000	44.409415
1568.000000	44.431250
1569.000000	44.440655
1570.000000	44.455007
1571.000000	44.493133
1572.000000	44.532368
1573.000000	44.539945
1574.000000	44.552234
1575.000000	44.534007
1576.000000	44.514354
1577.000000	44.538182
1578.000000	44.566764
1579.000000	44.577649
1580.000000	44.568724
1581.000000	44.566017
1582.000000	44.555919
1583.000000	44.563029
1584.000000	44.553369
1585.000000	44.536686
1586.000000	44.523988
1587.000000	44.525120
1588.000000	44.524753
1589.000000	44.543908
1590.000000	44.527448
1591.000000	44.495965
1592.000000	44.467172
1593.000000	44.451381
1594.000000	44.439416
1595.000000	44.448323
1596.000000	44.439896
1597.000000	44.447704
1598.000000	44.486932
1599.000000	44.493685
1600.000000	44.498000
1601.000000	44.529026
1602.000000	44.539737
1603.000000	44.545039
1604.000000	44.571356
1605.000000	44.607626
1606.000000	44.624183
1607.000000	44.615561
1608.000000	44.629802
1609.000000	44.642981
1610.000000	44.669656
1611.000000	44.687064
1612.000000	44.704089
1613.000000	44.734818
1614.000000	44.747236
1615.000000	44.789607
1616.000000	44.822923
1617.000000	44.860430
1618.000000	44.884895
1619.000000	44.918911
1620.000000	44.943377
1621.000000	44.977902
1622.000000	45.003434
1623.000000	45.019701
1624.000000	45.004386
1625.000000	45.046190
1626.000000	45.087305
1627.000000	45.133284
1628.000000	45.138076
1629.000000	45.147029
1630.000000	45.182044
1631.000000	45.219348
1632.000000	45.232494
1633.000000	45.205561
1634.000000	45.233951
1635.000000	45.281608
1636.000000	45.342313
1637.000000	45.379869
1638.000000	45.395536
1639.000000	45.401309
1640.000000	45.381632
1641.000000	45.364669
1642.000000	45.378954
1643.000000	45.390956
1644.000000	45.382158
1645.000000	45.433799
1646.000000	45.486085
1647.000000	45.527094
1648.000000	45.516130
1649.000000	45.517636
1650.000000	45.493803
1651.000000	45.530614
1652.000000	45.503087
1653.000000	45.519148
1654.000000	45.488092
1655.000000	45.457047
1656.000000	45.479905
1657.000000	45.467122
1658.000000	45.483006
1659.000000	45.489792
1660.000000	45.481350
1661.000000	45.497210
1662.000000	45.482853
1663.000000	45.464731
1664.000000	45.498670
1665.000000	45.477159
1666.000000	45.454187
1667.000000	45.452951
1668.000000	45.449735
1669.000000	45.372612
1670.000000	45.302548
1671.000000	45.212576
1672.000000	45.199180
1673.000000	45.167183
1674.000000	45.149234
1675.000000	45.094804
1676.000000	45.024656
1677.000000	44.982923
1678.000000	44.920145
1679.000000	44.912737
1680.000000	44.813654
1681.000000	44.718402
1682.000000	44.628483
1683.000000	44.559470
1684.000000	44.512015
1685.000000	44.490652
1686.000000	44.384183
1687.000000	44.343454
1688.000000	44.266755
1689.000000	44.224789
1690.000000	44.179048
1691.000000	44.080536
1692.000000	44.006371
1693.000000	43.965041
1694.000000	43.880487
1695.000000	43.789886
1696.000000	43.696846
1697.000000	43.632630
1698.000000	43.667566
1699.000000	43.642886
1700.000000	43.623555
1701.000000	43.601689
1702.000000	43.544043
1703.000000	43.534637
1704.000000	43.568127
1705.000000	43.565998
1706.000000	43.550497
1707.000000	43.502961
1708.000000	43.467709
1709.000000	43.424068
1710.000000	43.400247
1711.000000	43.448167
1712.000000	43.422301
1713.000000	43.419199
1714.000000	43.371399
1715.000000	43.389333
1716.000000	43.353875
1717.000000	43.317809
1718.000000	43.318752
1719.000000	43.259676
1720.000000	43.197967
1721.000000	43.157756
1722.000000	43.118123
1723.000000	43.076998
1724.000000	43.052311
1725.000000	43.018015
1726.000000	42.976154
1727.000000	42.951065
1728.000000	42.866043
1729.000000	42.846175
1730.000000	42.838230
1731.000000	42.840599
1732.000000	42.808139
1733.000000	42.701325
1734.000000	42.612653
1735.000000	42.557145
1736.000000	42.516841
1737.000000	42.462350
1738.000000	42.376468
1739.000000	42.309216
1740.000000	42.269527
1741.000000	42.204041
1742.000000	42.150494
1743.000000	42.131766
1744.000000	42.085731
1745.000000	42.109541
1746.000000	42.057920
1747.000000	42.040027
1748.000000	42.010449
1749.000000	41.995868
1750.000000	41.949944
1751.000000	41.994375
1752.000000	42.012167
1753.000000	42.006248
1754.000000	42.027771
1755.000000	42.029786
1756.000000	42.066767
1757.000000	42.076690
1758.000000	42.086958
1759.000000	42.073643
1760.000000	42.100622
1761.000000	42.118476
1762.000000	42.100353
1763.000000	42.109990
1764.000000	42.141309
1765.000000	42.153206
1766.000000	42.151751
1767.000000	42.155475
1768.000000	42.184061
1769.000000	42.190723
1770.000000	42.199368
1771.000000	42.180123
1772.000000	42.175052
1773.000000	42.180198
1774.000000	42.194065
1775.000000	42.179359
1776.000000	42.193594
1777.000000	42.195704
1778.000000	42.178484
1779.000000	42.169829
1780.000000	42.140344
1781.000000	42.145407
1782.000000	42.141735
1783.000000	42.165478
1784.000000	42.175615
1785.000000	42.198310
1786.000000	42.177622
1787.000000	42.143251
1788.000000	42.148211
1789.000000	42.147068
1790.000000	42.166104
1791.000000	42.152127
1792.000000	42.155295
1793.000000	42.141327
1794.000000	42.153344
1795.000000	42.137772
1796.000000	42.146360
1797.000000	42.197213
1798.000000	42.222885
1799.000000	42.206891
1800.000000	42.204972
1801.000000	42.216847
1802.000000	42.229145
1803.000000	42.225525
1804.000000	42.251322
1805.000000	42.283976
1806.000000	42.326478
1807.000000	42.336383
1808.000000	42.335895
1809.000000	42.327035
1810.000000	42.363606
1811.000000	42.351400
1812.000000	42.284021
1813.000000	42.242952
1814.000000	42.247246
1815.000000	42.249073
1816.000000	42.256176
1817.000000	42.289677
1818.000000	42.344554
1819.000000	42.411368
1820.000000	42.436812
1821.000000	42.377280
1822.000000	42.357161
1823.000000	42.343880
1824.000000	42.340954
1825.000000	42.434552
1826.000000	42.514579
1827.000000	42.506828
1828.000000	42.507304
1829.000000	42.520240
1830.000000	42.604840
1831.000000	42.612364
1832.000000	42.572345
1833.000000	42.536320
1834.000000	42.519071
1835.000000	42.584728
1836.000000	42.614618
1837.000000	42.563012
1838.000000	42.502312
1839.000000	42.449038
1840.000000	42.356448
1841.000000	42.332217
1842.000000	42.355981
1843.000000	42.339100
1844.000000	42.274893
1845.000000	42.208564
1846.000000	42.289108
1847.000000	42.421790
1848.000000	42.443612
1849.000000	42.408366
1850.000000	42.378596
1851.000000	42.297107
1852.000000	42.212604
1853.000000	42.107698
1854.000000	42.004775
1855.000000	41.954114
1856.000000	41.971819
1857.000000	41.940269
1858.000000	41.901768
1859.000000	41.879378
1860.000000	41.740027
1861.000000	41.626416
1862.000000	41.626440
1863.000000	41.661936
1864.000000	41.593214
1865.000000	41.443919
1866.000000	41.415315
1867.000000	41.476648
1868.000000	41.502173
1869.000000	41.502521
1870.000000	41.435251
1871.000000	41.300033
1872.000000	41.363485
1873.000000	41.377740
1874.000000	41.355421
1875.000000	41.372851
1876.000000	41.401977
1877.000000	41.366715
1878.000000	41.346032
1879.000000	41.324957
1880.000000	41.345094
1881.000000	41.211324
1882.000000	41.048201
1883.000000	41.005357
1884.000000	40.946906
1885.000000	40.883128
1886.000000	40.837781
1887.000000	40.772875
1888.000000	40.666422
1889.000000	40.602266
1890.000000	40.454230
1891.000000	40.342413
1892.000000	40.253140
1893.000000	40.102054
1894.000000	39.928375
1895.000000	39.780449
1896.000000	39.596516
1897.000000	39.398816
1898.000000	39.187427
1899.000000	38.996039
1900.000000	38.809146
1901.000000	38.552530
1902.000000	38.371974
1903.000000	38.137666
1904.000000	37.926336
1905.000000	37.633698
1906.000000	37.396599
1907.000000	37.041891
1908.000000	36.764468
1909.000000	36.501513
1910.000000	36.222845
1911.000000	35.831342
1912.000000	35.532433
1913.000000	35.255369
1914.000000	34.979676
1915.000000	34.623635
1916.000000	34.319547
1917.000000	34.030482
1918.000000	33.720864
1919.000000	33.456509
1920.000000	33.170865
1921.000000	32.848660
1922.000000	32.548752
1923.000000	32.280914
1924.000000	31.959614
1925.000000	31.708140
1926.000000	31.446242
1927.000000	31.159383
1928.000000	30.918048
1929.000000	30.728397
1930.000000	30.473282
1931.000000	30.277180
1932.000000	30.071234
1933.000000	29.885073
1934.000000	29.703505
1935.000000	29.553399
1936.000000	29.395994
1937.000000	29.124988
1938.000000	28.943783
1939.000000	28.747691
1940.000000	28.624066
1941.000000	28.537399
1942.000000	28.446342
1943.000000	28.356190
1944.000000	28.256283
1945.000000	28.157089
1946.000000	28.122782
1947.000000	28.037672
1948.000000	27.960068
1949.000000	27.913673
1950.000000	27.877333
1951.000000	27.894088
1952.000000	27.909331
1953.000000	27.894856
1954.000000	27.867976
1955.000000	27.861399
1956.000000	27.925035
1957.000000	27.944327
1958.000000	27.968248
1959.000000	27.997093
1960.000000	28.013061
1961.000000	28.043561
1962.000000	28.113605
1963.000000	28.172241
1964.000000	28.197805
1965.000000	28.264798
1966.000000	28.311011
1967.000000	28.380306
1968.000000	28.396414
1969.000000	28.496897
1970.000000	28.550859
1971.000000	28.614563
1972.000000	28.648342
1973.000000	28.695065
1974.000000	28.789297
1975.000000	28.809334
1976.000000	28.882982
1977.000000	28.992689
1978.000000	29.058072
1979.000000	29.162420
1980.000000	29.262608
1981.000000	29.330789
1982.000000	29.398426
1983.000000	29.473931
1984.000000	29.524580
1985.000000	29.598578
1986.000000	29.661637
1987.000000	29.712531
1988.000000	29.786872
1989.000000	29.861654
1990.000000	29.914293
1991.000000	29.940684
1992.000000	30.027044
1993.000000	30.081054
1994.000000	30.145443
1995.000000	30.222372
1996.000000	30.281748
1997.000000	30.349542
1998.000000	30.419250
1999.000000	30.461127
2000.000000	30.563627
