PE UV       SUBTECH     SPECTRUM    ASCII       PEDS        4.00        
   -1
C.CUPR.MV23-TX3.ASC
23/11/29
12:57:02.00
23/11/29
12:57:02.00
Vinicio Soto Monge
C. CUPREOMARGINATA MV 23-15
250,000000
1
Lambda 1050
1050L1511233
PerkinElmer UV WinLab 6.3.2.0749 / 2.02.05 Lambda 900 UV/VIS/NIR, Aug  7 2015 09:38:08

0
0
3350/servo 860,8/2
0
0
UV/VIS
1
1
1
DoubleDePol,CommonBeamDepol,RBeamAtt,SBeamAtt,60mm sphere, WB InGaAs Detector
0
0
0
0
Program
Program
3350/servo 860,8/2
3350/0,4 860,8/0,4
3350/0,4 860,8/0,4
0
20.00
 
 
 
0
 
860,8
319,2
860,8
Front
100
on
S:100 R:100
0
0
0
0
 
0
 
 
 
0
 
 
0
0
0
0
0
 
 
 
 
0
0


0
0
#HDR
-1
-1
#GR
nm
%R
1.0
0.0
2200,000000
-1,000000
1951
8
84,599875
0,293470
#DATA
284.000000	6.299151
285.000000	6.281825
286.000000	6.266644
287.000000	6.251455
288.000000	6.236319
289.000000	6.222920
290.000000	6.210768
291.000000	6.198791
292.000000	6.188266
293.000000	6.178111
294.000000	6.168858
295.000000	6.158934
296.000000	6.150542
297.000000	6.139652
298.000000	6.132011
299.000000	6.123919
300.000000	6.115378
301.000000	6.107074
302.000000	6.100300
303.000000	6.093433
304.000000	6.087274
305.000000	6.080976
306.000000	6.075299
307.000000	6.067822
308.000000	6.062179
309.000000	6.055022
310.000000	6.049253
311.000000	6.044890
312.000000	6.037268
313.000000	6.028953
314.000000	6.020885
315.000000	6.013644
316.000000	6.005213
317.000000	5.991446
318.000000	5.975873
319.000000	5.962014
320.000000	5.946853
321.000000	5.931501
322.000000	5.919464
323.000000	5.903513
324.000000	5.887651
325.000000	5.873322
326.000000	5.855600
327.000000	5.839406
328.000000	5.822167
329.000000	5.805188
330.000000	5.785574
331.000000	5.769329
332.000000	5.752287
333.000000	5.734227
334.000000	5.718126
335.000000	5.701795
336.000000	5.687489
337.000000	5.671402
338.000000	5.655910
339.000000	5.641012
340.000000	5.624958
341.000000	5.609434
342.000000	5.595509
343.000000	5.581986
344.000000	5.567746
345.000000	5.555021
346.000000	5.544481
347.000000	5.534599
348.000000	5.525720
349.000000	5.516471
350.000000	5.507702
351.000000	5.500241
352.000000	5.497907
353.000000	5.499318
354.000000	5.500017
355.000000	5.503592
356.000000	5.509675
357.000000	5.514916
358.000000	5.526165
359.000000	5.537396
360.000000	5.549676
361.000000	5.566406
362.000000	5.583819
363.000000	5.604967
364.000000	5.627311
365.000000	5.655369
366.000000	5.683777
367.000000	5.717352
368.000000	5.754067
369.000000	5.792835
370.000000	5.834102
371.000000	5.877361
372.000000	5.927557
373.000000	5.982076
374.000000	6.039623
375.000000	6.101923
376.000000	6.171035
377.000000	6.250358
378.000000	6.334007
379.000000	6.424097
380.000000	6.518019
381.000000	6.614745
382.000000	6.718145
383.000000	6.826166
384.000000	6.940426
385.000000	7.060120
386.000000	7.183980
387.000000	7.312399
388.000000	7.444497
389.000000	7.582117
390.000000	7.723298
391.000000	7.867461
392.000000	8.014204
393.000000	8.164084
394.000000	8.317688
395.000000	8.473394
396.000000	8.631406
397.000000	8.790785
398.000000	8.951168
399.000000	9.112860
400.000000	9.274938
401.000000	9.436913
402.000000	9.597240
403.000000	9.756733
404.000000	9.915211
405.000000	10.073333
406.000000	10.228810
407.000000	10.381630
408.000000	10.530905
409.000000	10.677175
410.000000	10.821007
411.000000	10.958684
412.000000	11.086455
413.000000	11.209202
414.000000	11.326634
415.000000	11.439260
416.000000	11.546368
417.000000	11.647909
418.000000	11.744278
419.000000	11.835528
420.000000	11.922296
421.000000	12.004354
422.000000	12.082001
423.000000	12.155944
424.000000	12.226243
425.000000	12.293133
426.000000	12.356759
427.000000	12.417575
428.000000	12.476114
429.000000	12.533051
430.000000	12.588974
431.000000	12.644782
432.000000	12.700392
433.000000	12.756539
434.000000	12.813833
435.000000	12.872787
436.000000	12.934189
437.000000	12.998324
438.000000	13.065518
439.000000	13.135931
440.000000	13.210524
441.000000	13.290540
442.000000	13.375069
443.000000	13.464375
444.000000	13.559046
445.000000	13.659959
446.000000	13.766933
447.000000	13.879112
448.000000	13.996927
449.000000	14.120730
450.000000	14.249912
451.000000	14.384745
452.000000	14.525457
453.000000	14.671435
454.000000	14.822544
455.000000	14.977984
456.000000	15.137633
457.000000	15.301906
458.000000	15.469943
459.000000	15.641625
460.000000	15.816580
461.000000	15.995068
462.000000	16.176863
463.000000	16.361209
464.000000	16.547786
465.000000	16.736371
466.000000	16.926565
467.000000	17.118701
468.000000	17.311937
469.000000	17.505790
470.000000	17.700263
471.000000	17.895027
472.000000	18.090051
473.000000	18.285429
474.000000	18.481086
475.000000	18.676544
476.000000	18.871476
477.000000	19.066816
478.000000	19.263287
479.000000	19.460552
480.000000	19.658256
481.000000	19.857395
482.000000	20.058736
483.000000	20.263911
484.000000	20.473932
485.000000	20.689526
486.000000	20.911261
487.000000	21.139331
488.000000	21.373719
489.000000	21.615985
490.000000	21.866150
491.000000	22.126035
492.000000	22.395691
493.000000	22.676152
494.000000	22.968248
495.000000	23.272845
496.000000	23.589716
497.000000	23.920094
498.000000	24.265331
499.000000	24.625680
500.000000	25.002842
501.000000	25.397118
502.000000	25.809378
503.000000	26.240809
504.000000	26.692170
505.000000	27.164021
506.000000	27.657138
507.000000	28.171814
508.000000	28.707967
509.000000	29.265794
510.000000	29.845845
511.000000	30.448007
512.000000	31.072994
513.000000	31.720122
514.000000	32.388632
515.000000	33.077399
516.000000	33.785381
517.000000	34.512158
518.000000	35.254833
519.000000	36.011893
520.000000	36.781906
521.000000	37.563132
522.000000	38.354222
523.000000	39.155095
524.000000	39.962233
525.000000	40.774187
526.000000	41.589014
527.000000	42.405092
528.000000	43.220798
529.000000	44.034367
530.000000	44.844810
531.000000	45.650655
532.000000	46.449920
533.000000	47.240974
534.000000	48.022561
535.000000	48.792162
536.000000	49.547951
537.000000	50.287241
538.000000	51.009271
539.000000	51.711720
540.000000	52.392920
541.000000	53.051728
542.000000	53.685869
543.000000	54.294316
544.000000	54.876885
545.000000	55.431511
546.000000	55.959889
547.000000	56.460594
548.000000	56.933079
549.000000	57.377182
550.000000	57.794643
551.000000	58.187118
552.000000	58.554822
553.000000	58.899477
554.000000	59.221798
555.000000	59.521372
556.000000	59.799327
557.000000	60.057540
558.000000	60.293511
559.000000	60.510667
560.000000	60.711449
561.000000	60.893368
562.000000	61.057025
563.000000	61.203342
564.000000	61.331577
565.000000	61.441263
566.000000	61.534079
567.000000	61.611475
568.000000	61.673318
569.000000	61.719937
570.000000	61.751406
571.000000	61.769304
572.000000	61.776244
573.000000	61.770849
574.000000	61.756125
575.000000	61.732161
576.000000	61.697653
577.000000	61.655404
578.000000	61.606291
579.000000	61.548803
580.000000	61.482890
581.000000	61.406174
582.000000	61.318547
583.000000	61.219342
584.000000	61.109765
585.000000	60.988067
586.000000	60.853947
587.000000	60.705221
588.000000	60.540823
589.000000	60.361286
590.000000	60.166524
591.000000	59.956578
592.000000	59.731801
593.000000	59.493987
594.000000	59.242148
595.000000	58.974357
596.000000	58.693880
597.000000	58.400970
598.000000	58.096961
599.000000	57.782562
600.000000	57.458420
601.000000	57.125620
602.000000	56.783417
603.000000	56.433415
604.000000	56.076485
605.000000	55.713054
606.000000	55.344762
607.000000	54.971217
608.000000	54.593927
609.000000	54.210943
610.000000	53.825670
611.000000	53.438079
612.000000	53.051210
613.000000	52.664497
614.000000	52.280100
615.000000	51.900112
616.000000	51.525354
617.000000	51.157115
618.000000	50.795852
619.000000	50.441930
620.000000	50.098176
621.000000	49.764845
622.000000	49.443826
623.000000	49.134968
624.000000	48.838625
625.000000	48.557416
626.000000	48.292103
627.000000	48.040509
628.000000	47.803199
629.000000	47.581382
630.000000	47.376032
631.000000	47.187400
632.000000	47.015271
633.000000	46.861320
634.000000	46.724514
635.000000	46.604004
636.000000	46.501554
637.000000	46.416271
638.000000	46.346267
639.000000	46.292331
640.000000	46.253812
641.000000	46.230663
642.000000	46.221989
643.000000	46.227236
644.000000	46.247382
645.000000	46.279554
646.000000	46.326370
647.000000	46.384222
648.000000	46.452975
649.000000	46.531258
650.000000	46.619499
651.000000	46.715676
652.000000	46.818695
653.000000	46.930411
654.000000	47.050217
655.000000	47.174974
656.000000	47.302572
657.000000	47.433410
658.000000	47.567943
659.000000	47.706077
660.000000	47.847694
661.000000	47.989703
662.000000	48.132230
663.000000	48.275621
664.000000	48.418726
665.000000	48.561293
666.000000	48.701360
667.000000	48.840018
668.000000	48.971558
669.000000	49.100576
670.000000	49.227099
671.000000	49.345884
672.000000	49.459623
673.000000	49.571086
674.000000	49.677714
675.000000	49.778674
676.000000	49.874547
677.000000	49.966349
678.000000	50.051635
679.000000	50.130423
680.000000	50.204897
681.000000	50.272409
682.000000	50.334535
683.000000	50.391690
684.000000	50.445337
685.000000	50.494824
686.000000	50.540749
687.000000	50.584402
688.000000	50.622925
689.000000	50.659825
690.000000	50.695182
691.000000	50.731162
692.000000	50.766091
693.000000	50.799522
694.000000	50.832906
695.000000	50.863965
696.000000	50.894632
697.000000	50.925993
698.000000	50.958034
699.000000	50.991040
700.000000	51.026073
701.000000	51.063681
702.000000	51.101194
703.000000	51.141463
704.000000	51.183848
705.000000	51.229603
706.000000	51.279875
707.000000	51.331706
708.000000	51.385164
709.000000	51.441022
710.000000	51.499542
711.000000	51.561014
712.000000	51.622986
713.000000	51.685901
714.000000	51.751648
715.000000	51.817150
716.000000	51.885330
717.000000	51.952041
718.000000	52.016236
719.000000	52.078441
720.000000	52.140854
721.000000	52.204148
722.000000	52.263842
723.000000	52.322642
724.000000	52.379227
725.000000	52.434385
726.000000	52.485664
727.000000	52.535416
728.000000	52.583983
729.000000	52.627865
730.000000	52.668965
731.000000	52.707587
732.000000	52.742801
733.000000	52.774578
734.000000	52.802619
735.000000	52.824554
736.000000	52.842452
737.000000	52.860179
738.000000	52.876143
739.000000	52.887853
740.000000	52.895244
741.000000	52.897500
742.000000	52.898355
743.000000	52.897765
744.000000	52.895763
745.000000	52.891997
746.000000	52.884218
747.000000	52.874609
748.000000	52.867328
749.000000	52.857057
750.000000	52.844594
751.000000	52.832126
752.000000	52.821391
753.000000	52.815386
754.000000	52.809659
755.000000	52.800518
756.000000	52.792261
757.000000	52.787014
758.000000	52.782029
759.000000	52.775460
760.000000	52.768829
761.000000	52.764027
762.000000	52.759937
763.000000	52.757835
764.000000	52.758603
765.000000	52.759740
766.000000	52.761419
767.000000	52.764301
768.000000	52.767805
769.000000	52.770338
770.000000	52.775089
771.000000	52.781450
772.000000	52.788822
773.000000	52.797574
774.000000	52.805492
775.000000	52.814215
776.000000	52.820734
777.000000	52.828031
778.000000	52.835416
779.000000	52.840747
780.000000	52.844511
781.000000	52.848432
782.000000	52.848156
783.000000	52.844264
784.000000	52.836919
785.000000	52.827311
786.000000	52.814567
787.000000	52.799210
788.000000	52.772917
789.000000	52.741456
790.000000	52.708429
791.000000	52.672185
792.000000	52.631577
793.000000	52.588196
794.000000	52.540781
795.000000	52.491317
796.000000	52.436384
797.000000	52.375131
798.000000	52.314046
799.000000	52.249715
800.000000	52.183794
801.000000	52.113519
802.000000	52.037371
803.000000	51.958543
804.000000	51.878016
805.000000	51.795163
806.000000	51.708661
807.000000	51.617573
808.000000	51.524107
809.000000	51.433494
810.000000	51.336513
811.000000	51.243545
812.000000	51.141952
813.000000	51.037172
814.000000	50.932531
815.000000	50.824702
816.000000	50.713291
817.000000	50.605837
818.000000	50.490324
819.000000	50.376328
820.000000	50.268617
821.000000	50.154369
822.000000	50.037647
823.000000	49.921401
824.000000	49.800727
825.000000	49.674511
826.000000	49.544144
827.000000	49.417878
828.000000	49.290262
829.000000	49.154945
830.000000	49.011162
831.000000	48.857386
832.000000	48.708179
833.000000	48.547026
834.000000	48.382184
835.000000	48.206806
836.000000	48.025189
837.000000	47.841033
838.000000	47.657317
839.000000	47.466050
840.000000	47.271332
841.000000	47.075629
842.000000	46.867447
843.000000	46.653710
844.000000	46.424924
845.000000	46.197187
846.000000	45.961945
847.000000	45.728532
848.000000	45.490012
849.000000	45.242238
850.000000	44.996249
851.000000	44.752346
852.000000	44.487714
853.000000	44.237992
854.000000	43.966692
855.000000	43.708673
856.000000	43.445007
857.000000	43.163173
858.000000	42.846646
859.000000	42.621347
860.000000	42.382904
861.000000	42.132800
862.000000	41.839223
863.000000	41.573475
864.000000	41.320819
865.000000	41.059472
866.000000	40.792289
867.000000	40.538166
868.000000	40.296767
869.000000	40.041712
870.000000	39.807419
871.000000	39.585236
872.000000	39.334299
873.000000	39.083633
874.000000	38.867880
875.000000	38.660191
876.000000	38.418965
877.000000	38.179337
878.000000	37.973776
879.000000	37.771096
880.000000	37.562703
881.000000	37.336535
882.000000	37.117153
883.000000	36.919567
884.000000	36.733150
885.000000	36.532140
886.000000	36.332087
887.000000	36.132599
888.000000	35.949752
889.000000	35.753693
890.000000	35.544925
891.000000	35.322453
892.000000	35.115282
893.000000	34.947540
894.000000	34.715092
895.000000	34.473463
896.000000	34.246255
897.000000	34.030812
898.000000	33.826789
899.000000	33.614409
900.000000	33.393035
901.000000	33.178531
902.000000	32.966057
903.000000	32.720701
904.000000	32.493869
905.000000	32.282749
906.000000	32.042899
907.000000	31.826798
908.000000	31.623025
909.000000	31.394653
910.000000	31.160393
911.000000	30.931445
912.000000	30.669999
913.000000	30.431270
914.000000	30.228974
915.000000	30.009285
916.000000	29.813084
917.000000	29.638783
918.000000	29.440678
919.000000	29.209797
920.000000	29.013220
921.000000	28.809354
922.000000	28.614913
923.000000	28.397954
924.000000	28.207161
925.000000	28.043734
926.000000	27.904914
927.000000	27.755812
928.000000	27.598999
929.000000	27.417886
930.000000	27.261671
931.000000	27.121760
932.000000	26.997927
933.000000	26.851933
934.000000	26.721119
935.000000	26.572196
936.000000	26.443046
937.000000	26.291742
938.000000	26.179107
939.000000	26.067069
940.000000	25.920710
941.000000	25.799081
942.000000	25.697126
943.000000	25.567722
944.000000	25.459855
945.000000	25.325447
946.000000	25.218901
947.000000	25.193596
948.000000	25.095705
949.000000	24.953381
950.000000	24.859611
951.000000	24.752149
952.000000	24.614557
953.000000	24.483224
954.000000	24.384249
955.000000	24.264094
956.000000	24.173585
957.000000	24.073945
958.000000	23.993122
959.000000	23.909773
960.000000	23.786264
961.000000	23.627036
962.000000	23.526176
963.000000	23.425820
964.000000	23.345123
965.000000	23.291031
966.000000	23.171734
967.000000	23.065637
968.000000	22.969906
969.000000	22.856489
970.000000	22.798239
971.000000	22.733607
972.000000	22.671807
973.000000	22.583406
974.000000	22.522422
975.000000	22.454736
976.000000	22.394162
977.000000	22.344209
978.000000	22.298581
979.000000	22.219572
980.000000	22.195354
981.000000	22.179807
982.000000	22.123073
983.000000	22.091836
984.000000	22.060054
985.000000	22.026470
986.000000	22.021016
987.000000	22.010194
988.000000	22.012723
989.000000	22.033519
990.000000	22.043557
991.000000	22.027512
992.000000	22.038528
993.000000	22.026159
994.000000	22.014349
995.000000	22.017670
996.000000	22.065653
997.000000	22.067428
998.000000	22.106061
999.000000	22.130660
1000.000000	22.112320
1001.000000	22.140172
1002.000000	22.164444
1003.000000	22.168076
1004.000000	22.184052
1005.000000	22.204240
1006.000000	22.204268
1007.000000	22.208839
1008.000000	22.252166
1009.000000	22.250076
1010.000000	22.260983
1011.000000	22.265793
1012.000000	22.250947
1013.000000	22.266130
1014.000000	22.285523
1015.000000	22.274914
1016.000000	22.255575
1017.000000	22.224264
1018.000000	22.191654
1019.000000	22.178102
1020.000000	22.146988
1021.000000	22.139358
1022.000000	22.133467
1023.000000	22.111374
1024.000000	22.056683
1025.000000	22.001956
1026.000000	21.978377
1027.000000	21.974150
1028.000000	21.946325
1029.000000	21.926147
1030.000000	21.925466
1031.000000	21.899309
1032.000000	21.851166
1033.000000	21.787802
1034.000000	21.736399
1035.000000	21.708844
1036.000000	21.695633
1037.000000	21.674636
1038.000000	21.663280
1039.000000	21.667052
1040.000000	21.646638
1041.000000	21.621241
1042.000000	21.598605
1043.000000	21.566674
1044.000000	21.554714
1045.000000	21.534594
1046.000000	21.504106
1047.000000	21.510350
1048.000000	21.490919
1049.000000	21.452774
1050.000000	21.412314
1051.000000	21.383137
1052.000000	21.378987
1053.000000	21.365040
1054.000000	21.357811
1055.000000	21.373407
1056.000000	21.345480
1057.000000	21.330999
1058.000000	21.339399
1059.000000	21.347721
1060.000000	21.371679
1061.000000	21.368618
1062.000000	21.334229
1063.000000	21.340074
1064.000000	21.369403
1065.000000	21.372095
1066.000000	21.387452
1067.000000	21.433394
1068.000000	21.454051
1069.000000	21.464426
1070.000000	21.488706
1071.000000	21.492950
1072.000000	21.513729
1073.000000	21.487190
1074.000000	21.456087
1075.000000	21.449717
1076.000000	21.471079
1077.000000	21.476280
1078.000000	21.481788
1079.000000	21.467981
1080.000000	21.495224
1081.000000	21.541207
1082.000000	21.523420
1083.000000	21.539463
1084.000000	21.569273
1085.000000	21.607710
1086.000000	21.634211
1087.000000	21.671032
1088.000000	21.701421
1089.000000	21.725096
1090.000000	21.743947
1091.000000	21.762151
1092.000000	21.779426
1093.000000	21.764313
1094.000000	21.766961
1095.000000	21.797268
1096.000000	21.823300
1097.000000	21.833691
1098.000000	21.855920
1099.000000	21.871253
1100.000000	21.866107
1101.000000	21.848089
1102.000000	21.839919
1103.000000	21.844621
1104.000000	21.877663
1105.000000	21.874960
1106.000000	21.902602
1107.000000	21.914496
1108.000000	21.943444
1109.000000	21.961760
1110.000000	21.954885
1111.000000	21.958650
1112.000000	21.955250
1113.000000	21.963665
1114.000000	21.941302
1115.000000	21.931404
1116.000000	21.905445
1117.000000	21.927292
1118.000000	21.922960
1119.000000	21.922777
1120.000000	21.925190
1121.000000	21.891987
1122.000000	21.876329
1123.000000	21.859086
1124.000000	21.874857
1125.000000	21.842527
1126.000000	21.785175
1127.000000	21.773998
1128.000000	21.789829
1129.000000	21.793844
1130.000000	21.754220
1131.000000	21.706481
1132.000000	21.691012
1133.000000	21.688732
1134.000000	21.623444
1135.000000	21.587359
1136.000000	21.577685
1137.000000	21.568381
1138.000000	21.552269
1139.000000	21.492708
1140.000000	21.462804
1141.000000	21.411867
1142.000000	21.356015
1143.000000	21.313921
1144.000000	21.293191
1145.000000	21.262098
1146.000000	21.221968
1147.000000	21.207303
1148.000000	21.151602
1149.000000	21.157199
1150.000000	21.127721
1151.000000	21.110424
1152.000000	21.055156
1153.000000	21.045061
1154.000000	20.999286
1155.000000	20.991919
1156.000000	21.016278
1157.000000	20.972277
1158.000000	20.954561
1159.000000	20.912358
1160.000000	20.894763
1161.000000	20.909764
1162.000000	20.875761
1163.000000	20.850250
1164.000000	20.814252
1165.000000	20.811998
1166.000000	20.775960
1167.000000	20.794374
1168.000000	20.796352
1169.000000	20.805221
1170.000000	20.781331
1171.000000	20.777787
1172.000000	20.762776
1173.000000	20.769985
1174.000000	20.792465
1175.000000	20.774716
1176.000000	20.792299
1177.000000	20.807888
1178.000000	20.823812
1179.000000	20.835615
1180.000000	20.862167
1181.000000	20.903501
1182.000000	20.913419
1183.000000	20.947589
1184.000000	20.962324
1185.000000	20.929328
1186.000000	20.933818
1187.000000	20.964542
1188.000000	20.978385
1189.000000	21.014270
1190.000000	21.003960
1191.000000	21.008246
1192.000000	21.060471
1193.000000	21.113818
1194.000000	21.104997
1195.000000	21.116342
1196.000000	21.138456
1197.000000	21.153401
1198.000000	21.114055
1199.000000	21.139799
1200.000000	21.157914
1201.000000	21.216929
1202.000000	21.213456
1203.000000	21.183241
1204.000000	21.185836
1205.000000	21.201889
1206.000000	21.227898
1207.000000	21.241605
1208.000000	21.250252
1209.000000	21.231314
1210.000000	21.256358
1211.000000	21.257064
1212.000000	21.262227
1213.000000	21.272537
1214.000000	21.251510
1215.000000	21.258432
1216.000000	21.225260
1217.000000	21.221372
1218.000000	21.218806
1219.000000	21.218049
1220.000000	21.255798
1221.000000	21.232303
1222.000000	21.232107
1223.000000	21.196918
1224.000000	21.181061
1225.000000	21.176689
1226.000000	21.148851
1227.000000	21.143710
1228.000000	21.135117
1229.000000	21.146896
1230.000000	21.134046
1231.000000	21.126705
1232.000000	21.126999
1233.000000	21.162928
1234.000000	21.139482
1235.000000	21.108046
1236.000000	21.084302
1237.000000	21.054581
1238.000000	21.034894
1239.000000	21.004549
1240.000000	21.000623
1241.000000	20.972353
1242.000000	20.928147
1243.000000	20.868155
1244.000000	20.855137
1245.000000	20.813632
1246.000000	20.767112
1247.000000	20.740609
1248.000000	20.725655
1249.000000	20.732068
1250.000000	20.728596
1251.000000	20.724050
1252.000000	20.696497
1253.000000	20.660649
1254.000000	20.666808
1255.000000	20.663100
1256.000000	20.651249
1257.000000	20.598408
1258.000000	20.563756
1259.000000	20.533034
1260.000000	20.509295
1261.000000	20.501578
1262.000000	20.458881
1263.000000	20.400252
1264.000000	20.369618
1265.000000	20.350866
1266.000000	20.337273
1267.000000	20.315589
1268.000000	20.265104
1269.000000	20.252347
1270.000000	20.235104
1271.000000	20.205285
1272.000000	20.179370
1273.000000	20.168243
1274.000000	20.191184
1275.000000	20.169347
1276.000000	20.123763
1277.000000	20.151620
1278.000000	20.181774
1279.000000	20.174251
1280.000000	20.193232
1281.000000	20.212287
1282.000000	20.201227
1283.000000	20.185459
1284.000000	20.152192
1285.000000	20.108238
1286.000000	20.093345
1287.000000	20.116940
1288.000000	20.140433
1289.000000	20.107142
1290.000000	20.085720
1291.000000	20.088328
1292.000000	20.091206
1293.000000	20.110664
1294.000000	20.125375
1295.000000	20.135522
1296.000000	20.149733
1297.000000	20.159595
1298.000000	20.179692
1299.000000	20.184011
1300.000000	20.204283
1301.000000	20.200623
1302.000000	20.172956
1303.000000	20.165436
1304.000000	20.168050
1305.000000	20.167503
1306.000000	20.189234
1307.000000	20.191519
1308.000000	20.187026
1309.000000	20.181754
1310.000000	20.190829
1311.000000	20.234330
1312.000000	20.226660
1313.000000	20.215916
1314.000000	20.224908
1315.000000	20.213601
1316.000000	20.195261
1317.000000	20.198216
1318.000000	20.209076
1319.000000	20.227940
1320.000000	20.266528
1321.000000	20.319576
1322.000000	20.328217
1323.000000	20.306739
1324.000000	20.314432
1325.000000	20.343479
1326.000000	20.371285
1327.000000	20.413633
1328.000000	20.393716
1329.000000	20.393900
1330.000000	20.359612
1331.000000	20.345729
1332.000000	20.338063
1333.000000	20.327048
1334.000000	20.346754
1335.000000	20.314442
1336.000000	20.290392
1337.000000	20.307151
1338.000000	20.334461
1339.000000	20.328090
1340.000000	20.313225
1341.000000	20.306760
1342.000000	20.312817
1343.000000	20.291140
1344.000000	20.280407
1345.000000	20.304486
1346.000000	20.299413
1347.000000	20.292312
1348.000000	20.274719
1349.000000	20.275253
1350.000000	20.292554
1351.000000	20.307055
1352.000000	20.284655
1353.000000	20.234257
1354.000000	20.147624
1355.000000	20.048742
1356.000000	19.922942
1357.000000	19.899420
1358.000000	19.960026
1359.000000	19.967394
1360.000000	19.899915
1361.000000	19.851983
1362.000000	19.903710
1363.000000	19.936705
1364.000000	20.017820
1365.000000	20.117267
1366.000000	20.115128
1367.000000	20.146612
1368.000000	20.173653
1369.000000	20.137345
1370.000000	20.083099
1371.000000	20.029544
1372.000000	20.026035
1373.000000	20.005747
1374.000000	19.921443
1375.000000	19.876311
1376.000000	19.862600
1377.000000	19.872911
1378.000000	19.824304
1379.000000	19.745315
1380.000000	19.546762
1381.000000	19.516299
1382.000000	19.471020
1383.000000	19.443198
1384.000000	19.376523
1385.000000	19.307733
1386.000000	19.265882
1387.000000	19.196618
1388.000000	19.184021
1389.000000	19.195145
1390.000000	19.247831
1391.000000	19.381957
1392.000000	19.459964
1393.000000	19.367174
1394.000000	19.216263
1395.000000	19.236861
1396.000000	19.209901
1397.000000	19.115738
1398.000000	19.060693
1399.000000	18.917534
1400.000000	18.789387
1401.000000	18.705099
1402.000000	18.596893
1403.000000	18.490477
1404.000000	18.391434
1405.000000	18.368933
1406.000000	18.333042
1407.000000	18.267187
1408.000000	18.186906
1409.000000	18.180613
1410.000000	18.151298
1411.000000	18.081581
1412.000000	17.992772
1413.000000	17.979726
1414.000000	17.991077
1415.000000	18.132775
1416.000000	18.052677
1417.000000	17.992501
1418.000000	17.943765
1419.000000	17.929367
1420.000000	17.921200
1421.000000	17.866004
1422.000000	17.843420
1423.000000	17.798125
1424.000000	17.783526
1425.000000	17.722497
1426.000000	17.580314
1427.000000	17.422131
1428.000000	17.387512
1429.000000	17.440394
1430.000000	17.357282
1431.000000	17.316195
1432.000000	17.231839
1433.000000	17.181117
1434.000000	17.178798
1435.000000	17.125589
1436.000000	17.106727
1437.000000	17.047573
1438.000000	17.037907
1439.000000	17.072476
1440.000000	17.080913
1441.000000	17.098924
1442.000000	17.088644
1443.000000	17.103515
1444.000000	17.096274
1445.000000	17.100523
1446.000000	17.049884
1447.000000	17.045145
1448.000000	17.029566
1449.000000	16.996759
1450.000000	16.925665
1451.000000	16.932342
1452.000000	16.941917
1453.000000	16.960033
1454.000000	16.939884
1455.000000	16.898518
1456.000000	16.908315
1457.000000	16.940745
1458.000000	16.924746
1459.000000	16.885165
1460.000000	16.903177
1461.000000	16.881306
1462.000000	16.857154
1463.000000	16.814187
1464.000000	16.807280
1465.000000	16.839760
1466.000000	16.819404
1467.000000	16.799130
1468.000000	16.773451
1469.000000	16.730561
1470.000000	16.715196
1471.000000	16.715366
1472.000000	16.723634
1473.000000	16.669702
1474.000000	16.625935
1475.000000	16.594474
1476.000000	16.580949
1477.000000	16.560174
1478.000000	16.534855
1479.000000	16.516768
1480.000000	16.471388
1481.000000	16.476928
1482.000000	16.462298
1483.000000	16.439364
1484.000000	16.411789
1485.000000	16.415576
1486.000000	16.407413
1487.000000	16.377748
1488.000000	16.325225
1489.000000	16.312476
1490.000000	16.298300
1491.000000	16.242712
1492.000000	16.210048
1493.000000	16.205363
1494.000000	16.196291
1495.000000	16.135523
1496.000000	16.108956
1497.000000	16.093072
1498.000000	16.098513
1499.000000	16.083638
1500.000000	16.018282
1501.000000	15.994867
1502.000000	15.977621
1503.000000	15.962408
1504.000000	15.950688
1505.000000	15.948488
1506.000000	15.934887
1507.000000	15.948693
1508.000000	15.991529
1509.000000	16.011363
1510.000000	16.018699
1511.000000	15.999159
1512.000000	16.001224
1513.000000	16.007444
1514.000000	16.007615
1515.000000	16.020822
1516.000000	16.030535
1517.000000	16.009868
1518.000000	16.010085
1519.000000	16.027024
1520.000000	16.014907
1521.000000	15.994266
1522.000000	15.992754
1523.000000	16.008837
1524.000000	15.993022
1525.000000	15.973205
1526.000000	15.965692
1527.000000	15.971472
1528.000000	15.965796
1529.000000	15.953523
1530.000000	15.943068
1531.000000	15.947897
1532.000000	15.935507
1533.000000	15.898034
1534.000000	15.881355
1535.000000	15.905735
1536.000000	15.918444
1537.000000	15.926131
1538.000000	15.931131
1539.000000	15.912303
1540.000000	15.903054
1541.000000	15.900938
1542.000000	15.884535
1543.000000	15.844039
1544.000000	15.829561
1545.000000	15.820731
1546.000000	15.811690
1547.000000	15.809050
1548.000000	15.796265
1549.000000	15.783330
1550.000000	15.781900
1551.000000	15.777315
1552.000000	15.800810
1553.000000	15.807274
1554.000000	15.790985
1555.000000	15.783995
1556.000000	15.785708
1557.000000	15.776868
1558.000000	15.750003
1559.000000	15.747236
1560.000000	15.750894
1561.000000	15.755182
1562.000000	15.770552
1563.000000	15.777470
1564.000000	15.809162
1565.000000	15.819749
1566.000000	15.801644
1567.000000	15.808777
1568.000000	15.827776
1569.000000	15.810909
1570.000000	15.786467
1571.000000	15.800681
1572.000000	15.830231
1573.000000	15.829726
1574.000000	15.837765
1575.000000	15.840195
1576.000000	15.806262
1577.000000	15.791034
1578.000000	15.799111
1579.000000	15.824752
1580.000000	15.811000
1581.000000	15.787126
1582.000000	15.741638
1583.000000	15.711214
1584.000000	15.693801
1585.000000	15.669684
1586.000000	15.661629
1587.000000	15.644743
1588.000000	15.635315
1589.000000	15.654381
1590.000000	15.660259
1591.000000	15.637656
1592.000000	15.636378
1593.000000	15.637162
1594.000000	15.644339
1595.000000	15.646123
1596.000000	15.627904
1597.000000	15.620790
1598.000000	15.639610
1599.000000	15.638971
1600.000000	15.667680
1601.000000	15.710630
1602.000000	15.703973
1603.000000	15.724163
1604.000000	15.754918
1605.000000	15.764880
1606.000000	15.767488
1607.000000	15.790047
1608.000000	15.828983
1609.000000	15.851716
1610.000000	15.882669
1611.000000	15.908163
1612.000000	15.918575
1613.000000	15.940510
1614.000000	15.941256
1615.000000	15.995439
1616.000000	16.042542
1617.000000	16.078716
1618.000000	16.124998
1619.000000	16.151849
1620.000000	16.185529
1621.000000	16.216456
1622.000000	16.224509
1623.000000	16.232485
1624.000000	16.200596
1625.000000	16.208109
1626.000000	16.227426
1627.000000	16.266205
1628.000000	16.278704
1629.000000	16.279170
1630.000000	16.308009
1631.000000	16.363407
1632.000000	16.370768
1633.000000	16.325484
1634.000000	16.351179
1635.000000	16.372930
1636.000000	16.415047
1637.000000	16.460605
1638.000000	16.474871
1639.000000	16.469908
1640.000000	16.489117
1641.000000	16.486327
1642.000000	16.472056
1643.000000	16.445422
1644.000000	16.434392
1645.000000	16.441760
1646.000000	16.470498
1647.000000	16.500188
1648.000000	16.514059
1649.000000	16.516644
1650.000000	16.483658
1651.000000	16.515107
1652.000000	16.529913
1653.000000	16.560400
1654.000000	16.563181
1655.000000	16.520503
1656.000000	16.546787
1657.000000	16.560025
1658.000000	16.631123
1659.000000	16.700392
1660.000000	16.729899
1661.000000	16.728906
1662.000000	16.757088
1663.000000	16.767610
1664.000000	16.784288
1665.000000	16.802627
1666.000000	16.811152
1667.000000	16.813062
1668.000000	16.892888
1669.000000	16.850718
1670.000000	16.819462
1671.000000	16.766501
1672.000000	16.751538
1673.000000	16.749601
1674.000000	16.772244
1675.000000	16.731083
1676.000000	16.723933
1677.000000	16.699304
1678.000000	16.711923
1679.000000	16.715923
1680.000000	16.678167
1681.000000	16.680963
1682.000000	16.675156
1683.000000	16.641486
1684.000000	16.628195
1685.000000	16.628593
1686.000000	16.602103
1687.000000	16.596631
1688.000000	16.566802
1689.000000	16.551887
1690.000000	16.611036
1691.000000	16.566698
1692.000000	16.532973
1693.000000	16.451035
1694.000000	16.411357
1695.000000	16.367916
1696.000000	16.347052
1697.000000	16.289991
1698.000000	16.307537
1699.000000	16.280730
1700.000000	16.264382
1701.000000	16.227967
1702.000000	16.175176
1703.000000	16.131298
1704.000000	16.132607
1705.000000	16.137930
1706.000000	16.118900
1707.000000	16.083237
1708.000000	16.039558
1709.000000	16.023190
1710.000000	16.029743
1711.000000	16.011668
1712.000000	16.003303
1713.000000	15.995181
1714.000000	15.981831
1715.000000	15.991796
1716.000000	15.934475
1717.000000	15.921807
1718.000000	15.923655
1719.000000	15.876602
1720.000000	15.852311
1721.000000	15.800233
1722.000000	15.771851
1723.000000	15.740024
1724.000000	15.744286
1725.000000	15.691716
1726.000000	15.630478
1727.000000	15.593108
1728.000000	15.567683
1729.000000	15.530540
1730.000000	15.500245
1731.000000	15.521982
1732.000000	15.506259
1733.000000	15.466104
1734.000000	15.469201
1735.000000	15.443122
1736.000000	15.439853
1737.000000	15.431687
1738.000000	15.389649
1739.000000	15.382330
1740.000000	15.374927
1741.000000	15.359142
1742.000000	15.340864
1743.000000	15.336524
1744.000000	15.284482
1745.000000	15.293976
1746.000000	15.288025
1747.000000	15.284003
1748.000000	15.234198
1749.000000	15.180494
1750.000000	15.131845
1751.000000	15.128269
1752.000000	15.103057
1753.000000	15.096582
1754.000000	15.112984
1755.000000	15.105912
1756.000000	15.132814
1757.000000	15.121433
1758.000000	15.112988
1759.000000	15.092463
1760.000000	15.107288
1761.000000	15.140387
1762.000000	15.158342
1763.000000	15.142390
1764.000000	15.132414
1765.000000	15.146006
1766.000000	15.114450
1767.000000	15.068933
1768.000000	15.049608
1769.000000	15.025386
1770.000000	15.001512
1771.000000	14.966014
1772.000000	14.938718
1773.000000	14.911128
1774.000000	14.877200
1775.000000	14.816453
1776.000000	14.791816
1777.000000	14.793652
1778.000000	14.764472
1779.000000	14.743073
1780.000000	14.713572
1781.000000	14.715989
1782.000000	14.695258
1783.000000	14.694672
1784.000000	14.711810
1785.000000	14.735555
1786.000000	14.747706
1787.000000	14.725857
1788.000000	14.696613
1789.000000	14.674912
1790.000000	14.662585
1791.000000	14.634385
1792.000000	14.626991
1793.000000	14.591903
1794.000000	14.564055
1795.000000	14.517641
1796.000000	14.503624
1797.000000	14.493317
1798.000000	14.497271
1799.000000	14.502914
1800.000000	14.485992
1801.000000	14.470509
1802.000000	14.495894
1803.000000	14.505672
1804.000000	14.532493
1805.000000	14.533969
1806.000000	14.524826
1807.000000	14.541894
1808.000000	14.555250
1809.000000	14.550623
1810.000000	14.555903
1811.000000	14.574868
1812.000000	14.563014
1813.000000	14.574644
1814.000000	14.602131
1815.000000	14.621924
1816.000000	14.621265
1817.000000	14.664259
1818.000000	14.736639
1819.000000	14.725755
1820.000000	14.677888
1821.000000	14.611075
1822.000000	14.588912
1823.000000	14.584242
1824.000000	14.592096
1825.000000	14.585490
1826.000000	14.580132
1827.000000	14.537125
1828.000000	14.542212
1829.000000	14.560225
1830.000000	14.542716
1831.000000	14.499586
1832.000000	14.461709
1833.000000	14.438087
1834.000000	14.411848
1835.000000	14.356367
1836.000000	14.342953
1837.000000	14.361948
1838.000000	14.370469
1839.000000	14.283325
1840.000000	14.226929
1841.000000	14.254276
1842.000000	14.285169
1843.000000	14.265093
1844.000000	14.281134
1845.000000	14.279231
1846.000000	14.254346
1847.000000	14.216424
1848.000000	14.191931
1849.000000	14.146924
1850.000000	14.148122
1851.000000	14.126200
1852.000000	14.055190
1853.000000	13.915653
1854.000000	13.890832
1855.000000	13.919376
1856.000000	13.993634
1857.000000	14.004481
1858.000000	13.988205
1859.000000	14.003462
1860.000000	14.024146
1861.000000	14.017648
1862.000000	14.048628
1863.000000	14.047421
1864.000000	13.951866
1865.000000	13.914404
1866.000000	13.939825
1867.000000	14.024140
1868.000000	14.073329
1869.000000	14.083058
1870.000000	14.022905
1871.000000	14.013328
1872.000000	13.973664
1873.000000	13.929658
1874.000000	13.930784
1875.000000	13.936200
1876.000000	13.888735
1877.000000	13.848511
1878.000000	13.845518
1879.000000	13.804293
1880.000000	13.780857
1881.000000	13.750261
1882.000000	13.739250
1883.000000	13.664456
1884.000000	13.658276
1885.000000	13.586380
1886.000000	13.522769
1887.000000	13.490778
1888.000000	13.514980
1889.000000	13.459799
1890.000000	13.388452
1891.000000	13.282618
1892.000000	13.238298
1893.000000	13.195752
1894.000000	13.107462
1895.000000	13.024832
1896.000000	12.976247
1897.000000	12.910541
1898.000000	12.842856
1899.000000	12.844667
1900.000000	12.845346
1901.000000	12.811178
1902.000000	12.655452
1903.000000	12.573523
1904.000000	12.483127
1905.000000	12.561264
1906.000000	12.478663
1907.000000	12.404878
1908.000000	12.318629
1909.000000	12.261562
1910.000000	12.207103
1911.000000	12.125608
1912.000000	12.046143
1913.000000	11.948589
1914.000000	11.882616
1915.000000	11.758595
1916.000000	11.705077
1917.000000	11.652117
1918.000000	11.616565
1919.000000	11.540800
1920.000000	11.420570
1921.000000	11.331137
1922.000000	11.262527
1923.000000	11.125156
1924.000000	11.061961
1925.000000	10.993612
1926.000000	10.924163
1927.000000	10.836436
1928.000000	10.749016
1929.000000	10.670317
1930.000000	10.599679
1931.000000	10.529563
1932.000000	10.448366
1933.000000	10.381639
1934.000000	10.304154
1935.000000	10.258784
1936.000000	10.157924
1937.000000	10.110451
1938.000000	10.024551
1939.000000	9.975422
1940.000000	9.902098
1941.000000	9.877532
1942.000000	9.800664
1943.000000	9.775223
1944.000000	9.745317
1945.000000	9.700955
1946.000000	9.665160
1947.000000	9.609639
1948.000000	9.570342
1949.000000	9.518816
1950.000000	9.522244
1951.000000	9.453835
1952.000000	9.407422
1953.000000	9.415594
1954.000000	9.381148
1955.000000	9.429827
1956.000000	9.420195
1957.000000	9.375022
1958.000000	9.420016
1959.000000	9.434560
1960.000000	9.422349
1961.000000	9.439976
1962.000000	9.474815
1963.000000	9.499109
1964.000000	9.502686
1965.000000	9.499052
1966.000000	9.444295
1967.000000	9.449190
1968.000000	9.457318
1969.000000	9.500280
1970.000000	9.455772
1971.000000	9.458098
1972.000000	9.463996
1973.000000	9.472625
1974.000000	9.504116
1975.000000	9.474673
1976.000000	9.480778
1977.000000	9.505909
1978.000000	9.511602
1979.000000	9.488477
1980.000000	9.503783
1981.000000	9.543375
1982.000000	9.542043
1983.000000	9.566935
1984.000000	9.583814
1985.000000	9.620602
1986.000000	9.657823
1987.000000	9.670655
1988.000000	9.670948
1989.000000	9.701527
1990.000000	9.672116
1991.000000	9.688855
1992.000000	9.709223
1993.000000	9.706786
1994.000000	9.702201
1995.000000	9.722714
1996.000000	9.732779
1997.000000	9.714617
1998.000000	9.703111
1999.000000	9.703096
2000.000000	9.712630
