PE UV       SUBTECH     SPECTRUM    ASCII       PEDS        4.00        
   -1
NI#0001-TX3.ASC
23/11/30
14:16:12.00
23/11/30
14:16:12.00
Vinicio Soto Monge
NI #001
250,000000
1
Lambda 1050
1050L1511233
PerkinElmer UV WinLab 6.3.2.0749 / 2.02.05 Lambda 900 UV/VIS/NIR, Aug  7 2015 09:38:08

0
0
3350/servo 860,8/2
0
0
UV/VIS
1
1
1
DoubleDePol,CommonBeamDepol,RBeamAtt,SBeamAtt,60mm sphere, WB InGaAs Detector
0
0
0
0
Program
Program
3350/servo 860,8/2
3350/0,4 860,8/0,4
3350/0,4 860,8/0,4
0
20.00
 
 
 
0
 
860,8
319,2
860,8
Front
100
on
S:100 R:100
0
0
0
0
 
0
 
 
 
0
 
 
0
0
0
0
0
 
 
 
 
0
0


0
0
#HDR
-1
-1
#GR
nm
%R
1.0
0.0
2200,000000
-1,000000
1951
8
52,526952
0,335831
#DATA
284.000000	2.372108
285.000000	2.509234
286.000000	2.642237
287.000000	2.771571
288.000000	2.898006
289.000000	3.020800
290.000000	3.139047
291.000000	3.254377
292.000000	3.363124
293.000000	3.467322
294.000000	3.569957
295.000000	3.667639
296.000000	3.763298
297.000000	3.856011
298.000000	3.944923
299.000000	4.031281
300.000000	4.115937
301.000000	4.196547
302.000000	4.276757
303.000000	4.354144
304.000000	4.427750
305.000000	4.499934
306.000000	4.568421
307.000000	4.632555
308.000000	4.698064
309.000000	4.757420
310.000000	4.817455
311.000000	4.874094
312.000000	4.928727
313.000000	4.983598
314.000000	5.035458
315.000000	5.084674
316.000000	5.132801
317.000000	5.187285
318.000000	5.241509
319.000000	5.287446
320.000000	5.336229
321.000000	5.384342
322.000000	5.430589
323.000000	5.470779
324.000000	5.510081
325.000000	5.547164
326.000000	5.583386
327.000000	5.619940
328.000000	5.654883
329.000000	5.685680
330.000000	5.717907
331.000000	5.746952
332.000000	5.773690
333.000000	5.798831
334.000000	5.824150
335.000000	5.843498
336.000000	5.863973
337.000000	5.886562
338.000000	5.905317
339.000000	5.923413
340.000000	5.941141
341.000000	5.957516
342.000000	5.975213
343.000000	5.990548
344.000000	6.008900
345.000000	6.022543
346.000000	6.034448
347.000000	6.045572
348.000000	6.055821
349.000000	6.066616
350.000000	6.077093
351.000000	6.086206
352.000000	6.087088
353.000000	6.088726
354.000000	6.094418
355.000000	6.095682
356.000000	6.094974
357.000000	6.093301
358.000000	6.095714
359.000000	6.097936
360.000000	6.099646
361.000000	6.100090
362.000000	6.098355
363.000000	6.096360
364.000000	6.095963
365.000000	6.094123
366.000000	6.092471
367.000000	6.091663
368.000000	6.092476
369.000000	6.088978
370.000000	6.088604
371.000000	6.087047
372.000000	6.082443
373.000000	6.080465
374.000000	6.077257
375.000000	6.074763
376.000000	6.069308
377.000000	6.060726
378.000000	6.050663
379.000000	6.040309
380.000000	6.030469
381.000000	6.021540
382.000000	6.012275
383.000000	6.002095
384.000000	5.991575
385.000000	5.979959
386.000000	5.967958
387.000000	5.956351
388.000000	5.942955
389.000000	5.930648
390.000000	5.917789
391.000000	5.905170
392.000000	5.893102
393.000000	5.879426
394.000000	5.865287
395.000000	5.852790
396.000000	5.840046
397.000000	5.829209
398.000000	5.817933
399.000000	5.805684
400.000000	5.793513
401.000000	5.781017
402.000000	5.768809
403.000000	5.754938
404.000000	5.744285
405.000000	5.733027
406.000000	5.721510
407.000000	5.708691
408.000000	5.695331
409.000000	5.683528
410.000000	5.670937
411.000000	5.661019
412.000000	5.654228
413.000000	5.647655
414.000000	5.640963
415.000000	5.634497
416.000000	5.628445
417.000000	5.622675
418.000000	5.616909
419.000000	5.611137
420.000000	5.605994
421.000000	5.600880
422.000000	5.595909
423.000000	5.590921
424.000000	5.586154
425.000000	5.581530
426.000000	5.576786
427.000000	5.572263
428.000000	5.567742
429.000000	5.563488
430.000000	5.559233
431.000000	5.555033
432.000000	5.551063
433.000000	5.547154
434.000000	5.543040
435.000000	5.539023
436.000000	5.535176
437.000000	5.531275
438.000000	5.527598
439.000000	5.523916
440.000000	5.520280
441.000000	5.517031
442.000000	5.513854
443.000000	5.510555
444.000000	5.507367
445.000000	5.504009
446.000000	5.500685
447.000000	5.497530
448.000000	5.494653
449.000000	5.491594
450.000000	5.488253
451.000000	5.484952
452.000000	5.482113
453.000000	5.479296
454.000000	5.476335
455.000000	5.473303
456.000000	5.470204
457.000000	5.467152
458.000000	5.464505
459.000000	5.461981
460.000000	5.459404
461.000000	5.456796
462.000000	5.454407
463.000000	5.451991
464.000000	5.449425
465.000000	5.447071
466.000000	5.444737
467.000000	5.442303
468.000000	5.440074
469.000000	5.438208
470.000000	5.436559
471.000000	5.435084
472.000000	5.433971
473.000000	5.433160
474.000000	5.432755
475.000000	5.432287
476.000000	5.431729
477.000000	5.431971
478.000000	5.432960
479.000000	5.434193
480.000000	5.435890
481.000000	5.438165
482.000000	5.441052
483.000000	5.444609
484.000000	5.449006
485.000000	5.454242
486.000000	5.460106
487.000000	5.466610
488.000000	5.474159
489.000000	5.482897
490.000000	5.492483
491.000000	5.502902
492.000000	5.514390
493.000000	5.526541
494.000000	5.539758
495.000000	5.554326
496.000000	5.570464
497.000000	5.588040
498.000000	5.607373
499.000000	5.628538
500.000000	5.651455
501.000000	5.676319
502.000000	5.703665
503.000000	5.733453
504.000000	5.765657
505.000000	5.800607
506.000000	5.838429
507.000000	5.879110
508.000000	5.922300
509.000000	5.968323
510.000000	6.017490
511.000000	6.069950
512.000000	6.125105
513.000000	6.183220
514.000000	6.244614
515.000000	6.309136
516.000000	6.376436
517.000000	6.446347
518.000000	6.519222
519.000000	6.594974
520.000000	6.673435
521.000000	6.754857
522.000000	6.839063
523.000000	6.925947
524.000000	7.015459
525.000000	7.107558
526.000000	7.202249
527.000000	7.299256
528.000000	7.398784
529.000000	7.500550
530.000000	7.604138
531.000000	7.709684
532.000000	7.817021
533.000000	7.925544
534.000000	8.035110
535.000000	8.145453
536.000000	8.256526
537.000000	8.367684
538.000000	8.478128
539.000000	8.588164
540.000000	8.697072
541.000000	8.804483
542.000000	8.910208
543.000000	9.013950
544.000000	9.114967
545.000000	9.213225
546.000000	9.308296
547.000000	9.399991
548.000000	9.487985
549.000000	9.571431
550.000000	9.650529
551.000000	9.725488
552.000000	9.796247
553.000000	9.862615
554.000000	9.924529
555.000000	9.982075
556.000000	10.035224
557.000000	10.084084
558.000000	10.128984
559.000000	10.169998
560.000000	10.207169
561.000000	10.240971
562.000000	10.271428
563.000000	10.298547
564.000000	10.322368
565.000000	10.343058
566.000000	10.360588
567.000000	10.375450
568.000000	10.387540
569.000000	10.397293
570.000000	10.404602
571.000000	10.409035
572.000000	10.411191
573.000000	10.411285
574.000000	10.409274
575.000000	10.405191
576.000000	10.399183
577.000000	10.391283
578.000000	10.381716
579.000000	10.371009
580.000000	10.358408
581.000000	10.343916
582.000000	10.328296
583.000000	10.311397
584.000000	10.294118
585.000000	10.275445
586.000000	10.255951
587.000000	10.235603
588.000000	10.214701
589.000000	10.192797
590.000000	10.169926
591.000000	10.146017
592.000000	10.120923
593.000000	10.094227
594.000000	10.066308
595.000000	10.037130
596.000000	10.006347
597.000000	9.973459
598.000000	9.939227
599.000000	9.903123
600.000000	9.865381
601.000000	9.825406
602.000000	9.784357
603.000000	9.741698
604.000000	9.697477
605.000000	9.651840
606.000000	9.605588
607.000000	9.558458
608.000000	9.510652
609.000000	9.462508
610.000000	9.414081
611.000000	9.365916
612.000000	9.318046
613.000000	9.270715
614.000000	9.224068
615.000000	9.179195
616.000000	9.135656
617.000000	9.093483
618.000000	9.053693
619.000000	9.015211
620.000000	8.978828
621.000000	8.944839
622.000000	8.913270
623.000000	8.884172
624.000000	8.857688
625.000000	8.834132
626.000000	8.813318
627.000000	8.795649
628.000000	8.781323
629.000000	8.769477
630.000000	8.760787
631.000000	8.755583
632.000000	8.753578
633.000000	8.754745
634.000000	8.759199
635.000000	8.766999
636.000000	8.778286
637.000000	8.791967
638.000000	8.808649
639.000000	8.828853
640.000000	8.852077
641.000000	8.877846
642.000000	8.906049
643.000000	8.937755
644.000000	8.971711
645.000000	9.008409
646.000000	9.047291
647.000000	9.088455
648.000000	9.132041
649.000000	9.178323
650.000000	9.226687
651.000000	9.277863
652.000000	9.331224
653.000000	9.386179
654.000000	9.443924
655.000000	9.503745
656.000000	9.565378
657.000000	9.628566
658.000000	9.693296
659.000000	9.759629
660.000000	9.826843
661.000000	9.895962
662.000000	9.965881
663.000000	10.036707
664.000000	10.109522
665.000000	10.183731
666.000000	10.258380
667.000000	10.334708
668.000000	10.412386
669.000000	10.490874
670.000000	10.570058
671.000000	10.650073
672.000000	10.731193
673.000000	10.813491
674.000000	10.895871
675.000000	10.978920
676.000000	11.062925
677.000000	11.147105
678.000000	11.231525
679.000000	11.317161
680.000000	11.403448
681.000000	11.490338
682.000000	11.578135
683.000000	11.666877
684.000000	11.755302
685.000000	11.843305
686.000000	11.931531
687.000000	12.019572
688.000000	12.107722
689.000000	12.196301
690.000000	12.285249
691.000000	12.375339
692.000000	12.465885
693.000000	12.555812
694.000000	12.646840
695.000000	12.738099
696.000000	12.829944
697.000000	12.922333
698.000000	13.014729
699.000000	13.106735
700.000000	13.199281
701.000000	13.292694
702.000000	13.385890
703.000000	13.477833
704.000000	13.570187
705.000000	13.662239
706.000000	13.755575
707.000000	13.849362
708.000000	13.943582
709.000000	14.037684
710.000000	14.131587
711.000000	14.226094
712.000000	14.321524
713.000000	14.416643
714.000000	14.511564
715.000000	14.605947
716.000000	14.700465
717.000000	14.794952
718.000000	14.888973
719.000000	14.983436
720.000000	15.079209
721.000000	15.175021
722.000000	15.270552
723.000000	15.366485
724.000000	15.462806
725.000000	15.558146
726.000000	15.652443
727.000000	15.747581
728.000000	15.843710
729.000000	15.938457
730.000000	16.034270
731.000000	16.129973
732.000000	16.225264
733.000000	16.319824
734.000000	16.413080
735.000000	16.507519
736.000000	16.602528
737.000000	16.696646
738.000000	16.792298
739.000000	16.887576
740.000000	16.982731
741.000000	17.077282
742.000000	17.171037
743.000000	17.264530
744.000000	17.356951
745.000000	17.450260
746.000000	17.543670
747.000000	17.635909
748.000000	17.729931
749.000000	17.824206
750.000000	17.917775
751.000000	18.011349
752.000000	18.106109
753.000000	18.200607
754.000000	18.294070
755.000000	18.386810
756.000000	18.478958
757.000000	18.571925
758.000000	18.664628
759.000000	18.754837
760.000000	18.845514
761.000000	18.937574
762.000000	19.028697
763.000000	19.119651
764.000000	19.210449
765.000000	19.301379
766.000000	19.393298
767.000000	19.484221
768.000000	19.575450
769.000000	19.667775
770.000000	19.757845
771.000000	19.845809
772.000000	19.934221
773.000000	20.022783
774.000000	20.111285
775.000000	20.200934
776.000000	20.289178
777.000000	20.378583
778.000000	20.466707
779.000000	20.554643
780.000000	20.644376
781.000000	20.732161
782.000000	20.819566
783.000000	20.904205
784.000000	20.989480
785.000000	21.076442
786.000000	21.161775
787.000000	21.244643
788.000000	21.326435
789.000000	21.410085
790.000000	21.494355
791.000000	21.579600
792.000000	21.662687
793.000000	21.744478
794.000000	21.827762
795.000000	21.909152
796.000000	21.993337
797.000000	22.076678
798.000000	22.159739
799.000000	22.242978
800.000000	22.325240
801.000000	22.408708
802.000000	22.492537
803.000000	22.576559
804.000000	22.659535
805.000000	22.740806
806.000000	22.824031
807.000000	22.905506
808.000000	22.985660
809.000000	23.067526
810.000000	23.146037
811.000000	23.226637
812.000000	23.304603
813.000000	23.387146
814.000000	23.468635
815.000000	23.547945
816.000000	23.625616
817.000000	23.704017
818.000000	23.783771
819.000000	23.860777
820.000000	23.938193
821.000000	24.017506
822.000000	24.092286
823.000000	24.167909
824.000000	24.240625
825.000000	24.311512
826.000000	24.380549
827.000000	24.454056
828.000000	24.529570
829.000000	24.605370
830.000000	24.686366
831.000000	24.758757
832.000000	24.831116
833.000000	24.902641
834.000000	24.973837
835.000000	25.050363
836.000000	25.117179
837.000000	25.179947
838.000000	25.247776
839.000000	25.317168
840.000000	25.385156
841.000000	25.450330
842.000000	25.514388
843.000000	25.575585
844.000000	25.646975
845.000000	25.722876
846.000000	25.793437
847.000000	25.863093
848.000000	25.927880
849.000000	25.988748
850.000000	26.036576
851.000000	26.104742
852.000000	26.168691
853.000000	26.234649
854.000000	26.292240
855.000000	26.353553
856.000000	26.422643
857.000000	26.486638
858.000000	26.572868
859.000000	26.641634
860.000000	26.723311
861.000000	26.811711
862.000000	26.867785
863.000000	26.900638
864.000000	26.969983
865.000000	27.024218
866.000000	27.043425
867.000000	27.111692
868.000000	27.152773
869.000000	27.201047
870.000000	27.275597
871.000000	27.312358
872.000000	27.350439
873.000000	27.450600
874.000000	27.491150
875.000000	27.547215
876.000000	27.583526
877.000000	27.636135
878.000000	27.689986
879.000000	27.732044
880.000000	27.776376
881.000000	27.836817
882.000000	27.887968
883.000000	27.933056
884.000000	27.991396
885.000000	28.071858
886.000000	28.117117
887.000000	28.161242
888.000000	28.186081
889.000000	28.248508
890.000000	28.297564
891.000000	28.318411
892.000000	28.366329
893.000000	28.401193
894.000000	28.444921
895.000000	28.467303
896.000000	28.522931
897.000000	28.570694
898.000000	28.619862
899.000000	28.637951
900.000000	28.712698
901.000000	28.803224
902.000000	28.855252
903.000000	28.919335
904.000000	28.968593
905.000000	28.988198
906.000000	29.030448
907.000000	29.081355
908.000000	29.084198
909.000000	29.147040
910.000000	29.174745
911.000000	29.239348
912.000000	29.271918
913.000000	29.322262
914.000000	29.396067
915.000000	29.422283
916.000000	29.461552
917.000000	29.499930
918.000000	29.556394
919.000000	29.595017
920.000000	29.626219
921.000000	29.682472
922.000000	29.702362
923.000000	29.757296
924.000000	29.770692
925.000000	29.829172
926.000000	29.891211
927.000000	29.926199
928.000000	29.930851
929.000000	29.935343
930.000000	30.002943
931.000000	30.002158
932.000000	30.012690
933.000000	30.090508
934.000000	30.144344
935.000000	30.158767
936.000000	30.212680
937.000000	30.230430
938.000000	30.242826
939.000000	30.296651
940.000000	30.350883
941.000000	30.426111
942.000000	30.506505
943.000000	30.530690
944.000000	30.582467
945.000000	30.649678
946.000000	30.702094
947.000000	30.763770
948.000000	30.782718
949.000000	30.794283
950.000000	30.848857
951.000000	30.862443
952.000000	30.858932
953.000000	30.879492
954.000000	30.914485
955.000000	30.925985
956.000000	30.939097
957.000000	30.978674
958.000000	31.010266
959.000000	31.058239
960.000000	31.076707
961.000000	31.108477
962.000000	31.148892
963.000000	31.206938
964.000000	31.277377
965.000000	31.294644
966.000000	31.317989
967.000000	31.390076
968.000000	31.392453
969.000000	31.425760
970.000000	31.471982
971.000000	31.469371
972.000000	31.512726
973.000000	31.561297
974.000000	31.558870
975.000000	31.573843
976.000000	31.615754
977.000000	31.637838
978.000000	31.660616
979.000000	31.664379
980.000000	31.685254
981.000000	31.693204
982.000000	31.717922
983.000000	31.764721
984.000000	31.799021
985.000000	31.842248
986.000000	31.905867
987.000000	31.996080
988.000000	32.047841
989.000000	32.080455
990.000000	32.116171
991.000000	32.164946
992.000000	32.244298
993.000000	32.302905
994.000000	32.338244
995.000000	32.377184
996.000000	32.433751
997.000000	32.494581
998.000000	32.550765
999.000000	32.600260
1000.000000	32.641010
1001.000000	32.685732
1002.000000	32.709754
1003.000000	32.744063
1004.000000	32.745273
1005.000000	32.737536
1006.000000	32.757964
1007.000000	32.776214
1008.000000	32.839114
1009.000000	32.905218
1010.000000	32.936748
1011.000000	32.953101
1012.000000	32.954931
1013.000000	32.982760
1014.000000	33.019726
1015.000000	33.038637
1016.000000	33.077183
1017.000000	33.112598
1018.000000	33.142741
1019.000000	33.154552
1020.000000	33.173942
1021.000000	33.188607
1022.000000	33.190964
1023.000000	33.209289
1024.000000	33.246876
1025.000000	33.282854
1026.000000	33.297152
1027.000000	33.307913
1028.000000	33.311360
1029.000000	33.303516
1030.000000	33.315273
1031.000000	33.303805
1032.000000	33.282336
1033.000000	33.263296
1034.000000	33.240874
1035.000000	33.222514
1036.000000	33.249006
1037.000000	33.272026
1038.000000	33.307539
1039.000000	33.382553
1040.000000	33.426549
1041.000000	33.447466
1042.000000	33.472060
1043.000000	33.498261
1044.000000	33.533930
1045.000000	33.575082
1046.000000	33.584028
1047.000000	33.628275
1048.000000	33.691304
1049.000000	33.714120
1050.000000	33.716655
1051.000000	33.717352
1052.000000	33.741002
1053.000000	33.770039
1054.000000	33.786346
1055.000000	33.806583
1056.000000	33.824465
1057.000000	33.847372
1058.000000	33.851670
1059.000000	33.831084
1060.000000	33.839079
1061.000000	33.838696
1062.000000	33.843871
1063.000000	33.846475
1064.000000	33.882179
1065.000000	33.886888
1066.000000	33.915043
1067.000000	33.942525
1068.000000	33.978661
1069.000000	34.039950
1070.000000	34.086446
1071.000000	34.085125
1072.000000	34.083056
1073.000000	34.093561
1074.000000	34.098822
1075.000000	34.132441
1076.000000	34.184116
1077.000000	34.202883
1078.000000	34.179939
1079.000000	34.157759
1080.000000	34.149012
1081.000000	34.152083
1082.000000	34.136051
1083.000000	34.130288
1084.000000	34.149870
1085.000000	34.185551
1086.000000	34.239466
1087.000000	34.221759
1088.000000	34.213797
1089.000000	34.238129
1090.000000	34.252925
1091.000000	34.265109
1092.000000	34.279693
1093.000000	34.304777
1094.000000	34.358235
1095.000000	34.386650
1096.000000	34.412109
1097.000000	34.408161
1098.000000	34.440529
1099.000000	34.467491
1100.000000	34.470864
1101.000000	34.472532
1102.000000	34.514110
1103.000000	34.497173
1104.000000	34.527240
1105.000000	34.515197
1106.000000	34.535040
1107.000000	34.572495
1108.000000	34.581348
1109.000000	34.631192
1110.000000	34.587799
1111.000000	34.570888
1112.000000	34.575275
1113.000000	34.577337
1114.000000	34.590260
1115.000000	34.600015
1116.000000	34.587023
1117.000000	34.597900
1118.000000	34.625896
1119.000000	34.637941
1120.000000	34.662143
1121.000000	34.685194
1122.000000	34.736127
1123.000000	34.781047
1124.000000	34.834466
1125.000000	34.813056
1126.000000	34.812772
1127.000000	34.823341
1128.000000	34.863217
1129.000000	34.890258
1130.000000	34.885707
1131.000000	34.887786
1132.000000	34.890850
1133.000000	34.899706
1134.000000	34.899870
1135.000000	34.945449
1136.000000	35.003662
1137.000000	34.989673
1138.000000	35.043274
1139.000000	34.989994
1140.000000	35.020680
1141.000000	35.022891
1142.000000	35.035036
1143.000000	35.036119
1144.000000	34.982398
1145.000000	35.052032
1146.000000	35.069846
1147.000000	35.065660
1148.000000	35.108285
1149.000000	35.121291
1150.000000	35.138080
1151.000000	35.183394
1152.000000	35.222901
1153.000000	35.207701
1154.000000	35.211513
1155.000000	35.207646
1156.000000	35.201106
1157.000000	35.185069
1158.000000	35.172293
1159.000000	35.103502
1160.000000	35.110526
1161.000000	35.111634
1162.000000	35.134059
1163.000000	35.091301
1164.000000	35.047224
1165.000000	35.060996
1166.000000	35.066135
1167.000000	35.071869
1168.000000	35.013235
1169.000000	34.981125
1170.000000	34.912217
1171.000000	34.893421
1172.000000	34.901485
1173.000000	34.891537
1174.000000	34.953024
1175.000000	34.954740
1176.000000	34.947303
1177.000000	34.939022
1178.000000	34.943446
1179.000000	34.952091
1180.000000	34.949198
1181.000000	34.990423
1182.000000	35.019484
1183.000000	35.019747
1184.000000	35.056818
1185.000000	35.050585
1186.000000	35.024088
1187.000000	34.997060
1188.000000	35.004169
1189.000000	34.982650
1190.000000	34.975091
1191.000000	34.940899
1192.000000	34.931814
1193.000000	34.886495
1194.000000	34.909112
1195.000000	34.938556
1196.000000	34.939891
1197.000000	34.910192
1198.000000	34.930536
1199.000000	34.945459
1200.000000	34.969489
1201.000000	34.991266
1202.000000	35.004223
1203.000000	35.064450
1204.000000	35.083683
1205.000000	35.129560
1206.000000	35.127411
1207.000000	35.106352
1208.000000	35.085860
1209.000000	35.022762
1210.000000	34.999078
1211.000000	35.040166
1212.000000	35.030937
1213.000000	35.040120
1214.000000	35.035942
1215.000000	35.014858
1216.000000	34.983158
1217.000000	34.977535
1218.000000	34.984155
1219.000000	34.945003
1220.000000	34.950769
1221.000000	34.982628
1222.000000	35.001770
1223.000000	35.000349
1224.000000	35.005465
1225.000000	35.001970
1226.000000	35.033002
1227.000000	35.046911
1228.000000	35.087288
1229.000000	35.078928
1230.000000	35.082568
1231.000000	35.113303
1232.000000	35.137463
1233.000000	35.130781
1234.000000	35.139533
1235.000000	35.142787
1236.000000	35.169153
1237.000000	35.199743
1238.000000	35.221218
1239.000000	35.247375
1240.000000	35.278794
1241.000000	35.279871
1242.000000	35.278373
1243.000000	35.300624
1244.000000	35.349381
1245.000000	35.388838
1246.000000	35.391387
1247.000000	35.423596
1248.000000	35.464478
1249.000000	35.494657
1250.000000	35.513029
1251.000000	35.547863
1252.000000	35.565920
1253.000000	35.548951
1254.000000	35.567067
1255.000000	35.582602
1256.000000	35.600596
1257.000000	35.620006
1258.000000	35.635764
1259.000000	35.646678
1260.000000	35.661921
1261.000000	35.615373
1262.000000	35.587185
1263.000000	35.604575
1264.000000	35.624012
1265.000000	35.623938
1266.000000	35.585010
1267.000000	35.553963
1268.000000	35.568818
1269.000000	35.573203
1270.000000	35.562849
1271.000000	35.530156
1272.000000	35.513823
1273.000000	35.509526
1274.000000	35.531048
1275.000000	35.535461
1276.000000	35.524073
1277.000000	35.562154
1278.000000	35.575110
1279.000000	35.568017
1280.000000	35.561393
1281.000000	35.565260
1282.000000	35.563316
1283.000000	35.539961
1284.000000	35.524719
1285.000000	35.531314
1286.000000	35.510406
1287.000000	35.509773
1288.000000	35.524527
1289.000000	35.530620
1290.000000	35.549353
1291.000000	35.536869
1292.000000	35.526658
1293.000000	35.532445
1294.000000	35.523029
1295.000000	35.535585
1296.000000	35.569557
1297.000000	35.604613
1298.000000	35.608031
1299.000000	35.614255
1300.000000	35.618756
1301.000000	35.645975
1302.000000	35.668205
1303.000000	35.664944
1304.000000	35.682122
1305.000000	35.681264
1306.000000	35.711126
1307.000000	35.754236
1308.000000	35.764577
1309.000000	35.776224
1310.000000	35.770263
1311.000000	35.774220
1312.000000	35.792512
1313.000000	35.802633
1314.000000	35.817553
1315.000000	35.825195
1316.000000	35.803768
1317.000000	35.796002
1318.000000	35.790489
1319.000000	35.796314
1320.000000	35.796659
1321.000000	35.821758
1322.000000	35.816533
1323.000000	35.824077
1324.000000	35.838362
1325.000000	35.823476
1326.000000	35.814798
1327.000000	35.823870
1328.000000	35.816203
1329.000000	35.868013
1330.000000	35.878567
1331.000000	35.887208
1332.000000	35.927235
1333.000000	35.971917
1334.000000	35.983124
1335.000000	35.959128
1336.000000	35.974906
1337.000000	36.007351
1338.000000	36.042640
1339.000000	36.026577
1340.000000	36.008817
1341.000000	35.994249
1342.000000	35.988929
1343.000000	35.985227
1344.000000	35.952216
1345.000000	35.932777
1346.000000	35.909571
1347.000000	35.833266
1348.000000	35.794774
1349.000000	35.797648
1350.000000	35.814229
1351.000000	35.798567
1352.000000	35.859709
1353.000000	35.872226
1354.000000	35.822818
1355.000000	35.701802
1356.000000	35.716639
1357.000000	35.676749
1358.000000	35.577573
1359.000000	35.486606
1360.000000	35.459531
1361.000000	35.597128
1362.000000	35.745804
1363.000000	35.762934
1364.000000	35.427069
1365.000000	35.312181
1366.000000	35.290678
1367.000000	35.107208
1368.000000	34.891926
1369.000000	34.914494
1370.000000	35.014281
1371.000000	35.011456
1372.000000	34.924223
1373.000000	34.813896
1374.000000	34.829513
1375.000000	34.774950
1376.000000	34.761189
1377.000000	34.683563
1378.000000	34.482912
1379.000000	34.383636
1380.000000	34.090131
1381.000000	33.908883
1382.000000	33.701560
1383.000000	33.617960
1384.000000	33.699729
1385.000000	33.679897
1386.000000	33.699568
1387.000000	33.697735
1388.000000	33.795682
1389.000000	33.885980
1390.000000	33.996383
1391.000000	33.966073
1392.000000	33.944643
1393.000000	34.054747
1394.000000	34.207062
1395.000000	34.055569
1396.000000	33.747965
1397.000000	33.562595
1398.000000	33.478417
1399.000000	33.647891
1400.000000	33.524502
1401.000000	33.374183
1402.000000	33.494066
1403.000000	33.610685
1404.000000	33.747540
1405.000000	33.678566
1406.000000	33.608242
1407.000000	33.573363
1408.000000	33.610572
1409.000000	33.496818
1410.000000	33.477572
1411.000000	33.419637
1412.000000	33.389248
1413.000000	33.533201
1414.000000	33.606809
1415.000000	33.857215
1416.000000	33.979135
1417.000000	34.166407
1418.000000	34.294937
1419.000000	34.122304
1420.000000	34.027903
1421.000000	33.928000
1422.000000	33.783877
1423.000000	33.646075
1424.000000	33.565690
1425.000000	33.454399
1426.000000	33.359254
1427.000000	33.350527
1428.000000	33.266554
1429.000000	33.142257
1430.000000	33.239366
1431.000000	33.295958
1432.000000	33.164774
1433.000000	33.112588
1434.000000	33.111697
1435.000000	33.268097
1436.000000	33.336606
1437.000000	33.279388
1438.000000	33.275397
1439.000000	33.007804
1440.000000	32.867990
1441.000000	32.772602
1442.000000	32.818668
1443.000000	32.773563
1444.000000	32.750978
1445.000000	32.779708
1446.000000	32.760316
1447.000000	32.726840
1448.000000	32.682997
1449.000000	32.644458
1450.000000	32.587352
1451.000000	32.573924
1452.000000	32.517202
1453.000000	32.385823
1454.000000	32.356590
1455.000000	32.346390
1456.000000	32.361363
1457.000000	32.304767
1458.000000	32.221523
1459.000000	32.137178
1460.000000	32.083759
1461.000000	32.059111
1462.000000	32.012418
1463.000000	31.944129
1464.000000	31.870854
1465.000000	31.829087
1466.000000	31.829100
1467.000000	31.873824
1468.000000	31.884383
1469.000000	31.887962
1470.000000	31.848759
1471.000000	31.843990
1472.000000	31.789196
1473.000000	31.740818
1474.000000	31.719844
1475.000000	31.699196
1476.000000	31.750798
1477.000000	31.695930
1478.000000	31.625998
1479.000000	31.621482
1480.000000	31.570209
1481.000000	31.559006
1482.000000	31.523528
1483.000000	31.485601
1484.000000	31.430310
1485.000000	31.417746
1486.000000	31.389742
1487.000000	31.391960
1488.000000	31.370123
1489.000000	31.364239
1490.000000	31.348255
1491.000000	31.328934
1492.000000	31.351773
1493.000000	31.324406
1494.000000	31.331326
1495.000000	31.364025
1496.000000	31.354488
1497.000000	31.375309
1498.000000	31.382997
1499.000000	31.364935
1500.000000	31.338649
1501.000000	31.335674
1502.000000	31.333685
1503.000000	31.331371
1504.000000	31.384280
1505.000000	31.387692
1506.000000	31.384439
1507.000000	31.420640
1508.000000	31.426141
1509.000000	31.433449
1510.000000	31.452726
1511.000000	31.435759
1512.000000	31.444285
1513.000000	31.485354
1514.000000	31.489857
1515.000000	31.500688
1516.000000	31.501638
1517.000000	31.521645
1518.000000	31.554607
1519.000000	31.614124
1520.000000	31.643292
1521.000000	31.655454
1522.000000	31.675929
1523.000000	31.714788
1524.000000	31.731661
1525.000000	31.751937
1526.000000	31.765998
1527.000000	31.816647
1528.000000	31.891167
1529.000000	31.902270
1530.000000	31.902271
1531.000000	31.906434
1532.000000	31.904085
1533.000000	31.919135
1534.000000	31.947654
1535.000000	31.979472
1536.000000	31.988190
1537.000000	31.981474
1538.000000	31.969493
1539.000000	31.940919
1540.000000	31.927579
1541.000000	31.941874
1542.000000	31.956146
1543.000000	31.942893
1544.000000	31.961762
1545.000000	31.982741
1546.000000	31.991001
1547.000000	32.003887
1548.000000	32.024938
1549.000000	32.031839
1550.000000	32.011445
1551.000000	31.984566
1552.000000	32.001125
1553.000000	32.001898
1554.000000	31.995116
1555.000000	32.006763
1556.000000	32.037771
1557.000000	32.028985
1558.000000	31.996420
1559.000000	31.997237
1560.000000	32.012311
1561.000000	32.015379
1562.000000	31.981765
1563.000000	31.946628
1564.000000	31.946617
1565.000000	31.973621
1566.000000	31.965860
1567.000000	31.962353
1568.000000	31.952849
1569.000000	31.923529
1570.000000	31.887567
1571.000000	31.875592
1572.000000	31.916906
1573.000000	31.968166
1574.000000	32.000888
1575.000000	32.011861
1576.000000	31.990679
1577.000000	31.964117
1578.000000	31.970236
1579.000000	31.980912
1580.000000	32.003312
1581.000000	32.029592
1582.000000	32.032247
1583.000000	32.022707
1584.000000	32.046902
1585.000000	32.062574
1586.000000	32.078492
1587.000000	32.071414
1588.000000	32.046288
1589.000000	32.036340
1590.000000	32.029748
1591.000000	32.008806
1592.000000	32.026559
1593.000000	32.065804
1594.000000	32.063422
1595.000000	32.029435
1596.000000	32.012233
1597.000000	32.013045
1598.000000	32.031615
1599.000000	32.033386
1600.000000	32.044606
1601.000000	32.073203
1602.000000	32.068213
1603.000000	32.103631
1604.000000	32.161216
1605.000000	32.182261
1606.000000	32.193011
1607.000000	32.190827
1608.000000	32.192203
1609.000000	32.184403
1610.000000	32.181675
1611.000000	32.206121
1612.000000	32.199058
1613.000000	32.203663
1614.000000	32.182678
1615.000000	32.199659
1616.000000	32.198046
1617.000000	32.184010
1618.000000	32.192811
1619.000000	32.193960
1620.000000	32.189193
1621.000000	32.187621
1622.000000	32.214780
1623.000000	32.222878
1624.000000	32.192279
1625.000000	32.167320
1626.000000	32.170317
1627.000000	32.162251
1628.000000	32.118071
1629.000000	32.123701
1630.000000	32.164732
1631.000000	32.169738
1632.000000	32.177280
1633.000000	32.165142
1634.000000	32.192021
1635.000000	32.201327
1636.000000	32.222892
1637.000000	32.274175
1638.000000	32.284221
1639.000000	32.258849
1640.000000	32.266296
1641.000000	32.315214
1642.000000	32.307409
1643.000000	32.292512
1644.000000	32.277824
1645.000000	32.276687
1646.000000	32.248244
1647.000000	32.290199
1648.000000	32.306755
1649.000000	32.309021
1650.000000	32.309977
1651.000000	32.313519
1652.000000	32.337799
1653.000000	32.376719
1654.000000	32.400541
1655.000000	32.410229
1656.000000	32.408300
1657.000000	32.374609
1658.000000	32.412908
1659.000000	32.469559
1660.000000	32.482527
1661.000000	32.515384
1662.000000	32.507251
1663.000000	32.564324
1664.000000	32.541911
1665.000000	32.534042
1666.000000	32.542469
1667.000000	32.525217
1668.000000	32.516332
1669.000000	32.472884
1670.000000	32.438857
1671.000000	32.413847
1672.000000	32.328690
1673.000000	32.266102
1674.000000	32.256956
1675.000000	32.251112
1676.000000	32.217233
1677.000000	32.171985
1678.000000	32.153570
1679.000000	32.133922
1680.000000	32.108588
1681.000000	32.086956
1682.000000	32.022220
1683.000000	31.960879
1684.000000	31.935611
1685.000000	31.866727
1686.000000	31.832693
1687.000000	31.768568
1688.000000	31.703182
1689.000000	31.617471
1690.000000	31.594212
1691.000000	31.571131
1692.000000	31.565494
1693.000000	31.512813
1694.000000	31.438880
1695.000000	31.407427
1696.000000	31.356478
1697.000000	31.327535
1698.000000	31.288059
1699.000000	31.268929
1700.000000	31.250787
1701.000000	31.248588
1702.000000	31.205775
1703.000000	31.154400
1704.000000	31.154687
1705.000000	31.126013
1706.000000	31.120032
1707.000000	31.124203
1708.000000	31.104431
1709.000000	31.065598
1710.000000	31.017888
1711.000000	30.983377
1712.000000	30.996378
1713.000000	30.994648
1714.000000	30.972913
1715.000000	30.989087
1716.000000	30.985273
1717.000000	30.983808
1718.000000	30.980301
1719.000000	30.937508
1720.000000	30.923530
1721.000000	30.908715
1722.000000	30.889609
1723.000000	30.893884
1724.000000	30.905406
1725.000000	30.893828
1726.000000	30.879292
1727.000000	30.857771
1728.000000	30.851488
1729.000000	30.850470
1730.000000	30.837483
1731.000000	30.806219
1732.000000	30.769551
1733.000000	30.695822
1734.000000	30.691653
1735.000000	30.636474
1736.000000	30.581043
1737.000000	30.570560
1738.000000	30.605525
1739.000000	30.571287
1740.000000	30.570684
1741.000000	30.480644
1742.000000	30.445670
1743.000000	30.448770
1744.000000	30.462436
1745.000000	30.487351
1746.000000	30.470151
1747.000000	30.471525
1748.000000	30.415580
1749.000000	30.389557
1750.000000	30.338558
1751.000000	30.316314
1752.000000	30.309009
1753.000000	30.282769
1754.000000	30.286757
1755.000000	30.284751
1756.000000	30.265966
1757.000000	30.285824
1758.000000	30.262846
1759.000000	30.265771
1760.000000	30.268874
1761.000000	30.259260
1762.000000	30.257760
1763.000000	30.236251
1764.000000	30.220987
1765.000000	30.243056
1766.000000	30.255465
1767.000000	30.261303
1768.000000	30.319951
1769.000000	30.311060
1770.000000	30.331632
1771.000000	30.353069
1772.000000	30.344367
1773.000000	30.285797
1774.000000	30.325291
1775.000000	30.339799
1776.000000	30.416080
1777.000000	30.449685
1778.000000	30.458816
1779.000000	30.451435
1780.000000	30.448378
1781.000000	30.487065
1782.000000	30.498380
1783.000000	30.534450
1784.000000	30.589844
1785.000000	30.650617
1786.000000	30.681506
1787.000000	30.681633
1788.000000	30.716504
1789.000000	30.725654
1790.000000	30.731847
1791.000000	30.740683
1792.000000	30.725261
1793.000000	30.712678
1794.000000	30.700325
1795.000000	30.683489
1796.000000	30.704970
1797.000000	30.704706
1798.000000	30.729826
1799.000000	30.763947
1800.000000	30.746977
1801.000000	30.721482
1802.000000	30.734587
1803.000000	30.705487
1804.000000	30.708918
1805.000000	30.711769
1806.000000	30.693978
1807.000000	30.735852
1808.000000	30.790514
1809.000000	30.778899
1810.000000	30.769376
1811.000000	30.709000
1812.000000	30.648693
1813.000000	30.557401
1814.000000	30.557337
1815.000000	30.624101
1816.000000	30.521201
1817.000000	30.453982
1818.000000	30.507343
1819.000000	30.541116
1820.000000	30.631716
1821.000000	30.645525
1822.000000	30.613914
1823.000000	30.513836
1824.000000	30.447439
1825.000000	30.398016
1826.000000	30.417349
1827.000000	30.397516
1828.000000	30.346503
1829.000000	30.294722
1830.000000	30.271541
1831.000000	30.310135
1832.000000	30.333210
1833.000000	30.246675
1834.000000	30.149424
1835.000000	30.155823
1836.000000	30.279725
1837.000000	30.344126
1838.000000	30.360164
1839.000000	30.309837
1840.000000	30.265067
1841.000000	30.231362
1842.000000	30.228412
1843.000000	30.176931
1844.000000	30.124893
1845.000000	30.113798
1846.000000	30.102747
1847.000000	30.183252
1848.000000	30.293233
1849.000000	30.333713
1850.000000	30.299480
1851.000000	30.322893
1852.000000	30.284716
1853.000000	30.109216
1854.000000	29.993465
1855.000000	29.950892
1856.000000	30.116374
1857.000000	30.204306
1858.000000	30.326879
1859.000000	30.446334
1860.000000	30.480606
1861.000000	30.424030
1862.000000	30.461828
1863.000000	30.404658
1864.000000	30.298098
1865.000000	30.226955
1866.000000	30.198785
1867.000000	30.198104
1868.000000	30.270507
1869.000000	30.333321
1870.000000	30.163489
1871.000000	29.979301
1872.000000	29.932794
1873.000000	29.930944
1874.000000	29.958862
1875.000000	29.976018
1876.000000	29.918687
1877.000000	29.883318
1878.000000	29.898438
1879.000000	29.917260
1880.000000	29.912765
1881.000000	29.918391
1882.000000	29.831778
1883.000000	29.774023
1884.000000	29.720660
1885.000000	29.614487
1886.000000	29.580614
1887.000000	29.579368
1888.000000	29.632689
1889.000000	29.625878
1890.000000	29.501572
1891.000000	29.283086
1892.000000	29.215014
1893.000000	29.133002
1894.000000	29.042702
1895.000000	28.969333
1896.000000	28.886858
1897.000000	28.758558
1898.000000	28.771680
1899.000000	28.824804
1900.000000	28.822034
1901.000000	28.641795
1902.000000	28.303111
1903.000000	28.120890
1904.000000	28.052513
1905.000000	28.106426
1906.000000	27.980132
1907.000000	27.791207
1908.000000	27.650029
1909.000000	27.515270
1910.000000	27.430441
1911.000000	27.388812
1912.000000	27.299697
1913.000000	27.156152
1914.000000	27.000847
1915.000000	26.880521
1916.000000	26.708673
1917.000000	26.613200
1918.000000	26.439341
1919.000000	26.272233
1920.000000	26.106756
1921.000000	25.989013
1922.000000	25.865710
1923.000000	25.712144
1924.000000	25.619015
1925.000000	25.436522
1926.000000	25.262806
1927.000000	25.070520
1928.000000	24.890391
1929.000000	24.781371
1930.000000	24.671675
1931.000000	24.591625
1932.000000	24.489390
1933.000000	24.398867
1934.000000	24.328792
1935.000000	24.246995
1936.000000	24.172768
1937.000000	24.294101
1938.000000	24.299718
1939.000000	24.167123
1940.000000	24.072420
1941.000000	24.066936
1942.000000	24.037103
1943.000000	23.956031
1944.000000	23.912282
1945.000000	23.814024
1946.000000	23.783266
1947.000000	23.715430
1948.000000	23.703872
1949.000000	23.675685
1950.000000	23.649082
1951.000000	23.652320
1952.000000	23.641561
1953.000000	23.660052
1954.000000	23.614487
1955.000000	23.661906
1956.000000	23.697772
1957.000000	23.679146
1958.000000	23.721529
1959.000000	23.698649
1960.000000	23.770623
1961.000000	23.816577
1962.000000	23.850671
1963.000000	23.883914
1964.000000	23.884130
1965.000000	23.901072
1966.000000	23.926792
1967.000000	23.963434
1968.000000	23.995205
1969.000000	24.017683
1970.000000	24.015726
1971.000000	24.054886
1972.000000	24.070781
1973.000000	24.055028
1974.000000	24.078947
1975.000000	24.109361
1976.000000	24.142306
1977.000000	24.175739
1978.000000	24.213300
1979.000000	24.201299
1980.000000	24.242714
1981.000000	24.244570
1982.000000	24.265024
1983.000000	24.291896
1984.000000	24.329893
1985.000000	24.362566
1986.000000	24.399644
1987.000000	24.420413
1988.000000	24.447598
1989.000000	24.530426
1990.000000	24.555518
1991.000000	24.557332
1992.000000	24.588908
1993.000000	24.582163
1994.000000	24.593813
1995.000000	24.589568
1996.000000	24.602406
1997.000000	24.610482
1998.000000	24.638135
1999.000000	24.623467
2000.000000	24.655074
