PE UV       SUBTECH     SPECTRUM    ASCII       PEDS        4.00        
   -1
C.CHRY.MV73-TX3.ASC
23/11/29
15:04:51.00
23/11/29
15:04:51.00
Vinicio Soto Monge
C. CHRYSARGYREA #73 MV23
250,000000
1
Lambda 1050
1050L1511233
PerkinElmer UV WinLab 6.3.2.0749 / 2.02.05 Lambda 900 UV/VIS/NIR, Aug  7 2015 09:38:08

0
0
3350/servo 860,8/2
0
0
UV/VIS
1
1
1
DoubleDePol,CommonBeamDepol,RBeamAtt,SBeamAtt,60mm sphere, WB InGaAs Detector
0
0
0
0
Program
Program
3350/servo 860,8/2
3350/0,4 860,8/0,4
3350/0,4 860,8/0,4
0
20.00
 
 
 
0
 
860,8
319,2
860,8
Front
100
on
S:100 R:100
0
0
0
0
 
0
 
 
 
0
 
 
0
0
0
0
0
 
 
 
 
0
0


0
0
#HDR
-1
-1
#GR
nm
%R
1.0
0.0
2200,000000
-1,000000
1951
8
71,423533
0,110484
#DATA
284.000000	5.958056
285.000000	5.942990
286.000000	5.930074
287.000000	5.919476
288.000000	5.906618
289.000000	5.893783
290.000000	5.884531
291.000000	5.874385
292.000000	5.866737
293.000000	5.862051
294.000000	5.858026
295.000000	5.853685
296.000000	5.849071
297.000000	5.845334
298.000000	5.841614
299.000000	5.837247
300.000000	5.834266
301.000000	5.832232
302.000000	5.830147
303.000000	5.826948
304.000000	5.823632
305.000000	5.820815
306.000000	5.818082
307.000000	5.816507
308.000000	5.813925
309.000000	5.810788
310.000000	5.810304
311.000000	5.809113
312.000000	5.809028
313.000000	5.807903
314.000000	5.806464
315.000000	5.803477
316.000000	5.798893
317.000000	5.784812
318.000000	5.774688
319.000000	5.768389
320.000000	5.759827
321.000000	5.749767
322.000000	5.742026
323.000000	5.735057
324.000000	5.734661
325.000000	5.734518
326.000000	5.729859
327.000000	5.727998
328.000000	5.724763
329.000000	5.723499
330.000000	5.721864
331.000000	5.720133
332.000000	5.718314
333.000000	5.719390
334.000000	5.725370
335.000000	5.732183
336.000000	5.741394
337.000000	5.752860
338.000000	5.765175
339.000000	5.778201
340.000000	5.794494
341.000000	5.813853
342.000000	5.834579
343.000000	5.857630
344.000000	5.886741
345.000000	5.917166
346.000000	5.954291
347.000000	5.991516
348.000000	6.032141
349.000000	6.079410
350.000000	6.132637
351.000000	6.191901
352.000000	6.266633
353.000000	6.345426
354.000000	6.428093
355.000000	6.522359
356.000000	6.626786
357.000000	6.737948
358.000000	6.860012
359.000000	6.985804
360.000000	7.122385
361.000000	7.277104
362.000000	7.442223
363.000000	7.622350
364.000000	7.816516
365.000000	8.026773
366.000000	8.253919
367.000000	8.499506
368.000000	8.761350
369.000000	9.039139
370.000000	9.333339
371.000000	9.647455
372.000000	9.979624
373.000000	10.332848
374.000000	10.705252
375.000000	11.096092
376.000000	11.514855
377.000000	11.973574
378.000000	12.451975
379.000000	12.947153
380.000000	13.460058
381.000000	13.988905
382.000000	14.537322
383.000000	15.102219
384.000000	15.680318
385.000000	16.271701
386.000000	16.876502
387.000000	17.491095
388.000000	18.114505
389.000000	18.745815
390.000000	19.381538
391.000000	20.021719
392.000000	20.666897
393.000000	21.314160
394.000000	21.962922
395.000000	22.609546
396.000000	23.251713
397.000000	23.889017
398.000000	24.520352
399.000000	25.144282
400.000000	25.760440
401.000000	26.366783
402.000000	26.959913
403.000000	27.539299
404.000000	28.104574
405.000000	28.655505
406.000000	29.187951
407.000000	29.703328
408.000000	30.200870
409.000000	30.679744
410.000000	31.138897
411.000000	31.568747
412.000000	31.956297
413.000000	32.321900
414.000000	32.665279
415.000000	32.985907
416.000000	33.282521
417.000000	33.555392
418.000000	33.805532
419.000000	34.033893
420.000000	34.239920
421.000000	34.423683
422.000000	34.586654
423.000000	34.728367
424.000000	34.849573
425.000000	34.952461
426.000000	35.036189
427.000000	35.101485
428.000000	35.150023
429.000000	35.183487
430.000000	35.204437
431.000000	35.214241
432.000000	35.213510
433.000000	35.204336
434.000000	35.187712
435.000000	35.165976
436.000000	35.142109
437.000000	35.116603
438.000000	35.090078
439.000000	35.062560
440.000000	35.037121
441.000000	35.013928
442.000000	34.992702
443.000000	34.973481
444.000000	34.956190
445.000000	34.941460
446.000000	34.929012
447.000000	34.917934
448.000000	34.908315
449.000000	34.900135
450.000000	34.892336
451.000000	34.885587
452.000000	34.879717
453.000000	34.873690
454.000000	34.866593
455.000000	34.858597
456.000000	34.848316
457.000000	34.836261
458.000000	34.822090
459.000000	34.806261
460.000000	34.787565
461.000000	34.765089
462.000000	34.739515
463.000000	34.710508
464.000000	34.677379
465.000000	34.639746
466.000000	34.597653
467.000000	34.551101
468.000000	34.499795
469.000000	34.444492
470.000000	34.384957
471.000000	34.320194
472.000000	34.251162
473.000000	34.179772
474.000000	34.106629
475.000000	34.031013
476.000000	33.953775
477.000000	33.875286
478.000000	33.796397
479.000000	33.717643
480.000000	33.637225
481.000000	33.555909
482.000000	33.474101
483.000000	33.391452
484.000000	33.307770
485.000000	33.223427
486.000000	33.137870
487.000000	33.050439
488.000000	32.961022
489.000000	32.870755
490.000000	32.778270
491.000000	32.684939
492.000000	32.591190
493.000000	32.496985
494.000000	32.402670
495.000000	32.309213
496.000000	32.217936
497.000000	32.128623
498.000000	32.043517
499.000000	31.963753
500.000000	31.889849
501.000000	31.822723
502.000000	31.763824
503.000000	31.713976
504.000000	31.673354
505.000000	31.642092
506.000000	31.620405
507.000000	31.608159
508.000000	31.605113
509.000000	31.610647
510.000000	31.623769
511.000000	31.643057
512.000000	31.668635
513.000000	31.699606
514.000000	31.735611
515.000000	31.777280
516.000000	31.822507
517.000000	31.873587
518.000000	31.929989
519.000000	31.992716
520.000000	32.062787
521.000000	32.142268
522.000000	32.231961
523.000000	32.333116
524.000000	32.446666
525.000000	32.576320
526.000000	32.722844
527.000000	32.888539
528.000000	33.076812
529.000000	33.289185
530.000000	33.527883
531.000000	33.794130
532.000000	34.088936
533.000000	34.411031
534.000000	34.760308
535.000000	35.135058
536.000000	35.532131
537.000000	35.947068
538.000000	36.375924
539.000000	36.813648
540.000000	37.256138
541.000000	37.699824
542.000000	38.141626
543.000000	38.578391
544.000000	39.008549
545.000000	39.431325
546.000000	39.846491
547.000000	40.254140
548.000000	40.652890
549.000000	41.044028
550.000000	41.427210
551.000000	41.805418
552.000000	42.177568
553.000000	42.546104
554.000000	42.910085
555.000000	43.270134
556.000000	43.625559
557.000000	43.976912
558.000000	44.323686
559.000000	44.665021
560.000000	45.000944
561.000000	45.329620
562.000000	45.646213
563.000000	45.950319
564.000000	46.239661
565.000000	46.511566
566.000000	46.763277
567.000000	46.993193
568.000000	47.200394
569.000000	47.383569
570.000000	47.543147
571.000000	47.680255
572.000000	47.797872
573.000000	47.898394
574.000000	47.984980
575.000000	48.060451
576.000000	48.127004
577.000000	48.187635
578.000000	48.243681
579.000000	48.296484
580.000000	48.347510
581.000000	48.395781
582.000000	48.442969
583.000000	48.490775
584.000000	48.539615
585.000000	48.590394
586.000000	48.641344
587.000000	48.692428
588.000000	48.741328
589.000000	48.789630
590.000000	48.834724
591.000000	48.876904
592.000000	48.916731
593.000000	48.952257
594.000000	48.982777
595.000000	49.006325
596.000000	49.023762
597.000000	49.035969
598.000000	49.042603
599.000000	49.041581
600.000000	49.032025
601.000000	49.015975
602.000000	48.991792
603.000000	48.959667
604.000000	48.918654
605.000000	48.869089
606.000000	48.810640
607.000000	48.742336
608.000000	48.663759
609.000000	48.572976
610.000000	48.470937
611.000000	48.357786
612.000000	48.234809
613.000000	48.101957
614.000000	47.961118
615.000000	47.814216
616.000000	47.664297
617.000000	47.511045
618.000000	47.356462
619.000000	47.198849
620.000000	47.040894
621.000000	46.881706
622.000000	46.720821
623.000000	46.557916
624.000000	46.391160
625.000000	46.222610
626.000000	46.051361
627.000000	45.876164
628.000000	45.698109
629.000000	45.520044
630.000000	45.342219
631.000000	45.164652
632.000000	44.987239
633.000000	44.811150
634.000000	44.635848
635.000000	44.463619
636.000000	44.294564
637.000000	44.131526
638.000000	43.972177
639.000000	43.819948
640.000000	43.675064
641.000000	43.538549
642.000000	43.411264
643.000000	43.296068
644.000000	43.192764
645.000000	43.101323
646.000000	43.022709
647.000000	42.954427
648.000000	42.896204
649.000000	42.844383
650.000000	42.797451
651.000000	42.751448
652.000000	42.704579
653.000000	42.656476
654.000000	42.609163
655.000000	42.559550
656.000000	42.509476
657.000000	42.459760
658.000000	42.413666
659.000000	42.372468
660.000000	42.337180
661.000000	42.308102
662.000000	42.284138
663.000000	42.268286
664.000000	42.256241
665.000000	42.249595
666.000000	42.247513
667.000000	42.251873
668.000000	42.259277
669.000000	42.274150
670.000000	42.296865
671.000000	42.324140
672.000000	42.356430
673.000000	42.395919
674.000000	42.439475
675.000000	42.487357
676.000000	42.539589
677.000000	42.595551
678.000000	42.652588
679.000000	42.711432
680.000000	42.772648
681.000000	42.834663
682.000000	42.897932
683.000000	42.963967
684.000000	43.034623
685.000000	43.109368
686.000000	43.190593
687.000000	43.278988
688.000000	43.371721
689.000000	43.470079
690.000000	43.573834
691.000000	43.684223
692.000000	43.799776
693.000000	43.918897
694.000000	44.040833
695.000000	44.164350
696.000000	44.290576
697.000000	44.419824
698.000000	44.552830
699.000000	44.692430
700.000000	44.836118
701.000000	44.984230
702.000000	45.134869
703.000000	45.288643
704.000000	45.445358
705.000000	45.603961
706.000000	45.765078
707.000000	45.926509
708.000000	46.088935
709.000000	46.252824
710.000000	46.418236
711.000000	46.586178
712.000000	46.754036
713.000000	46.921731
714.000000	47.094704
715.000000	47.269364
716.000000	47.445366
717.000000	47.623335
718.000000	47.802986
719.000000	47.981716
720.000000	48.161936
721.000000	48.342776
722.000000	48.523159
723.000000	48.705638
724.000000	48.886447
725.000000	49.066878
726.000000	49.247299
727.000000	49.426754
728.000000	49.605709
729.000000	49.784209
730.000000	49.964418
731.000000	50.145431
732.000000	50.327947
733.000000	50.509083
734.000000	50.687146
735.000000	50.862103
736.000000	51.037547
737.000000	51.212414
738.000000	51.385315
739.000000	51.555234
740.000000	51.722301
741.000000	51.886833
742.000000	52.049072
743.000000	52.210454
744.000000	52.370753
745.000000	52.528388
746.000000	52.683636
747.000000	52.837609
748.000000	52.991847
749.000000	53.141151
750.000000	53.287045
751.000000	53.433857
752.000000	53.580821
753.000000	53.727888
754.000000	53.874023
755.000000	54.016312
756.000000	54.155824
757.000000	54.292079
758.000000	54.423885
759.000000	54.551344
760.000000	54.676106
761.000000	54.797754
762.000000	54.918378
763.000000	55.036183
764.000000	55.152878
765.000000	55.266418
766.000000	55.377834
767.000000	55.484051
768.000000	55.587459
769.000000	55.689619
770.000000	55.790073
771.000000	55.887631
772.000000	55.984934
773.000000	56.082132
774.000000	56.175791
775.000000	56.266306
776.000000	56.352524
777.000000	56.438425
778.000000	56.520516
779.000000	56.601357
780.000000	56.681304
781.000000	56.757527
782.000000	56.832380
783.000000	56.905495
784.000000	56.977080
785.000000	57.046753
786.000000	57.113309
787.000000	57.178192
788.000000	57.237530
789.000000	57.292980
790.000000	57.351137
791.000000	57.410942
792.000000	57.469900
793.000000	57.528168
794.000000	57.585133
795.000000	57.641352
796.000000	57.696844
797.000000	57.751493
798.000000	57.805180
799.000000	57.857918
800.000000	57.913136
801.000000	57.962296
802.000000	58.013868
803.000000	58.064400
804.000000	58.112957
805.000000	58.162627
806.000000	58.209795
807.000000	58.255854
808.000000	58.302770
809.000000	58.354663
810.000000	58.402760
811.000000	58.458310
812.000000	58.509536
813.000000	58.565594
814.000000	58.617068
815.000000	58.665794
816.000000	58.713428
817.000000	58.763614
818.000000	58.809939
819.000000	58.852813
820.000000	58.898444
821.000000	58.944417
822.000000	58.987090
823.000000	59.028967
824.000000	59.072548
825.000000	59.109630
826.000000	59.146061
827.000000	59.184702
828.000000	59.230030
829.000000	59.276278
830.000000	59.317026
831.000000	59.352138
832.000000	59.391012
833.000000	59.432233
834.000000	59.474213
835.000000	59.510607
836.000000	59.543692
837.000000	59.568142
838.000000	59.597877
839.000000	59.622259
840.000000	59.651532
841.000000	59.676487
842.000000	59.697547
843.000000	59.713049
844.000000	59.730004
845.000000	59.752016
846.000000	59.762195
847.000000	59.783631
848.000000	59.794214
849.000000	59.805562
850.000000	59.815426
851.000000	59.834415
852.000000	59.845606
853.000000	59.857330
854.000000	59.873361
855.000000	59.888163
856.000000	59.911391
857.000000	59.899882
858.000000	59.841668
859.000000	59.859241
860.000000	59.887030
861.000000	59.908819
862.000000	59.905301
863.000000	59.924387
864.000000	59.926861
865.000000	59.951546
866.000000	59.959604
867.000000	59.976194
868.000000	59.980051
869.000000	59.992125
870.000000	59.998542
871.000000	60.016424
872.000000	60.013434
873.000000	60.013958
874.000000	60.016228
875.000000	60.016814
876.000000	60.001087
877.000000	59.987056
878.000000	60.010417
879.000000	60.030887
880.000000	60.021662
881.000000	59.997681
882.000000	59.982207
883.000000	59.970162
884.000000	59.963794
885.000000	59.937279
886.000000	59.919911
887.000000	59.883722
888.000000	59.853566
889.000000	59.835948
890.000000	59.813995
891.000000	59.758980
892.000000	59.703441
893.000000	59.689174
894.000000	59.630525
895.000000	59.543450
896.000000	59.453941
897.000000	59.346807
898.000000	59.226244
899.000000	59.125610
900.000000	58.999176
901.000000	58.905887
902.000000	58.765197
903.000000	58.624628
904.000000	58.466245
905.000000	58.326272
906.000000	58.160453
907.000000	58.031451
908.000000	57.901069
909.000000	57.760228
910.000000	57.566934
911.000000	57.397465
912.000000	57.196336
913.000000	56.974538
914.000000	56.751805
915.000000	56.552109
916.000000	56.368441
917.000000	56.163260
918.000000	55.936349
919.000000	55.683865
920.000000	55.461682
921.000000	55.216681
922.000000	54.988321
923.000000	54.750513
924.000000	54.487770
925.000000	54.214299
926.000000	53.951547
927.000000	53.713367
928.000000	53.477341
929.000000	53.203849
930.000000	52.924658
931.000000	52.653790
932.000000	52.418100
933.000000	52.152279
934.000000	51.900151
935.000000	51.608774
936.000000	51.315322
937.000000	51.045337
938.000000	50.756405
939.000000	50.453660
940.000000	50.170582
941.000000	49.891023
942.000000	49.612651
943.000000	49.325592
944.000000	49.037793
945.000000	48.772313
946.000000	48.520952
947.000000	48.306986
948.000000	48.046426
949.000000	47.738333
950.000000	47.457839
951.000000	47.179437
952.000000	46.897864
953.000000	46.651044
954.000000	46.421616
955.000000	46.179237
956.000000	45.946852
957.000000	45.702939
958.000000	45.443689
959.000000	45.198031
960.000000	44.966692
961.000000	44.706909
962.000000	44.484506
963.000000	44.251352
964.000000	44.039391
965.000000	43.832034
966.000000	43.600018
967.000000	43.382556
968.000000	43.176826
969.000000	42.947742
970.000000	42.769600
971.000000	42.582667
972.000000	42.411821
973.000000	42.269214
974.000000	42.146754
975.000000	41.967732
976.000000	41.793051
977.000000	41.606770
978.000000	41.413422
979.000000	41.238978
980.000000	41.104620
981.000000	40.949061
982.000000	40.770291
983.000000	40.627806
984.000000	40.531636
985.000000	40.416397
986.000000	40.304222
987.000000	40.193140
988.000000	40.065989
989.000000	39.966963
990.000000	39.858266
991.000000	39.727139
992.000000	39.641483
993.000000	39.573676
994.000000	39.490018
995.000000	39.395843
996.000000	39.329295
997.000000	39.245464
998.000000	39.203141
999.000000	39.141853
1000.000000	39.083009
1001.000000	39.048782
1002.000000	39.002141
1003.000000	38.947151
1004.000000	38.902529
1005.000000	38.860674
1006.000000	38.802967
1007.000000	38.717309
1008.000000	38.664625
1009.000000	38.608437
1010.000000	38.556485
1011.000000	38.522036
1012.000000	38.491535
1013.000000	38.460278
1014.000000	38.422513
1015.000000	38.387200
1016.000000	38.345809
1017.000000	38.330776
1018.000000	38.328007
1019.000000	38.310982
1020.000000	38.274010
1021.000000	38.258941
1022.000000	38.238002
1023.000000	38.194373
1024.000000	38.134189
1025.000000	38.086721
1026.000000	38.060744
1027.000000	38.038732
1028.000000	38.003629
1029.000000	37.954767
1030.000000	37.916474
1031.000000	37.898031
1032.000000	37.865251
1033.000000	37.809073
1034.000000	37.755661
1035.000000	37.733133
1036.000000	37.716004
1037.000000	37.681795
1038.000000	37.666008
1039.000000	37.660855
1040.000000	37.640768
1041.000000	37.640972
1042.000000	37.660097
1043.000000	37.647173
1044.000000	37.652164
1045.000000	37.658461
1046.000000	37.651185
1047.000000	37.658018
1048.000000	37.662375
1049.000000	37.638305
1050.000000	37.606402
1051.000000	37.615900
1052.000000	37.601570
1053.000000	37.556767
1054.000000	37.538165
1055.000000	37.519651
1056.000000	37.470741
1057.000000	37.437446
1058.000000	37.447316
1059.000000	37.447626
1060.000000	37.454362
1061.000000	37.446340
1062.000000	37.404111
1063.000000	37.390648
1064.000000	37.406679
1065.000000	37.411042
1066.000000	37.415995
1067.000000	37.450149
1068.000000	37.437799
1069.000000	37.435911
1070.000000	37.437398
1071.000000	37.437981
1072.000000	37.467822
1073.000000	37.458560
1074.000000	37.433256
1075.000000	37.424041
1076.000000	37.403363
1077.000000	37.378482
1078.000000	37.368092
1079.000000	37.321422
1080.000000	37.288345
1081.000000	37.293869
1082.000000	37.237857
1083.000000	37.251905
1084.000000	37.302954
1085.000000	37.314801
1086.000000	37.287583
1087.000000	37.292509
1088.000000	37.284964
1089.000000	37.273933
1090.000000	37.288921
1091.000000	37.300276
1092.000000	37.280049
1093.000000	37.257838
1094.000000	37.267543
1095.000000	37.290692
1096.000000	37.275699
1097.000000	37.287387
1098.000000	37.271454
1099.000000	37.250552
1100.000000	37.237793
1101.000000	37.243078
1102.000000	37.214294
1103.000000	37.227128
1104.000000	37.218899
1105.000000	37.185231
1106.000000	37.151113
1107.000000	37.115301
1108.000000	37.100165
1109.000000	37.080285
1110.000000	37.071057
1111.000000	37.053509
1112.000000	37.077258
1113.000000	37.084071
1114.000000	37.101302
1115.000000	37.118629
1116.000000	37.089333
1117.000000	37.119705
1118.000000	37.082813
1119.000000	37.041628
1120.000000	37.044059
1121.000000	37.050876
1122.000000	37.051690
1123.000000	37.062153
1124.000000	37.071728
1125.000000	37.039472
1126.000000	37.005903
1127.000000	37.067149
1128.000000	37.109880
1129.000000	37.094179
1130.000000	37.024841
1131.000000	37.008162
1132.000000	36.990691
1133.000000	37.007925
1134.000000	37.041815
1135.000000	37.019740
1136.000000	36.994769
1137.000000	36.978899
1138.000000	36.977181
1139.000000	36.976529
1140.000000	36.986647
1141.000000	36.953009
1142.000000	36.937686
1143.000000	36.942904
1144.000000	36.951003
1145.000000	36.917203
1146.000000	36.940496
1147.000000	36.908700
1148.000000	36.858993
1149.000000	36.837151
1150.000000	36.804114
1151.000000	36.790339
1152.000000	36.768120
1153.000000	36.737412
1154.000000	36.708789
1155.000000	36.674240
1156.000000	36.646356
1157.000000	36.612783
1158.000000	36.591906
1159.000000	36.510106
1160.000000	36.488908
1161.000000	36.490918
1162.000000	36.404129
1163.000000	36.344181
1164.000000	36.311997
1165.000000	36.337489
1166.000000	36.330779
1167.000000	36.308571
1168.000000	36.279416
1169.000000	36.213303
1170.000000	36.178863
1171.000000	36.159561
1172.000000	36.137350
1173.000000	36.103016
1174.000000	36.080688
1175.000000	36.030257
1176.000000	36.026022
1177.000000	35.999706
1178.000000	35.946186
1179.000000	35.936189
1180.000000	35.930598
1181.000000	35.888597
1182.000000	35.891673
1183.000000	35.917172
1184.000000	35.898320
1185.000000	35.879028
1186.000000	35.857813
1187.000000	35.817856
1188.000000	35.822918
1189.000000	35.800014
1190.000000	35.761510
1191.000000	35.702118
1192.000000	35.676876
1193.000000	35.673294
1194.000000	35.668921
1195.000000	35.658931
1196.000000	35.623727
1197.000000	35.651826
1198.000000	35.666251
1199.000000	35.668351
1200.000000	35.639668
1201.000000	35.638333
1202.000000	35.642562
1203.000000	35.633313
1204.000000	35.625943
1205.000000	35.658196
1206.000000	35.666822
1207.000000	35.651515
1208.000000	35.628686
1209.000000	35.606286
1210.000000	35.639803
1211.000000	35.656152
1212.000000	35.684660
1213.000000	35.743970
1214.000000	35.731415
1215.000000	35.737089
1216.000000	35.715556
1217.000000	35.676175
1218.000000	35.621556
1219.000000	35.592706
1220.000000	35.599190
1221.000000	35.592980
1222.000000	35.598557
1223.000000	35.573766
1224.000000	35.576962
1225.000000	35.585697
1226.000000	35.614107
1227.000000	35.618339
1228.000000	35.618665
1229.000000	35.650636
1230.000000	35.619506
1231.000000	35.610959
1232.000000	35.565007
1233.000000	35.542745
1234.000000	35.540100
1235.000000	35.550378
1236.000000	35.538722
1237.000000	35.501455
1238.000000	35.478018
1239.000000	35.445772
1240.000000	35.435637
1241.000000	35.418231
1242.000000	35.408012
1243.000000	35.407221
1244.000000	35.405726
1245.000000	35.363343
1246.000000	35.349686
1247.000000	35.318631
1248.000000	35.290975
1249.000000	35.292295
1250.000000	35.280950
1251.000000	35.275088
1252.000000	35.269267
1253.000000	35.290190
1254.000000	35.316181
1255.000000	35.329573
1256.000000	35.332308
1257.000000	35.323265
1258.000000	35.325567
1259.000000	35.321375
1260.000000	35.324421
1261.000000	35.344583
1262.000000	35.319816
1263.000000	35.268003
1264.000000	35.250531
1265.000000	35.271983
1266.000000	35.294214
1267.000000	35.299589
1268.000000	35.261303
1269.000000	35.233565
1270.000000	35.205632
1271.000000	35.203491
1272.000000	35.226897
1273.000000	35.244626
1274.000000	35.276635
1275.000000	35.262720
1276.000000	35.231737
1277.000000	35.225154
1278.000000	35.194317
1279.000000	35.175212
1280.000000	35.185453
1281.000000	35.173832
1282.000000	35.149308
1283.000000	35.123762
1284.000000	35.114746
1285.000000	35.126413
1286.000000	35.147589
1287.000000	35.163132
1288.000000	35.160074
1289.000000	35.143910
1290.000000	35.115356
1291.000000	35.121556
1292.000000	35.128921
1293.000000	35.109266
1294.000000	35.090903
1295.000000	35.083229
1296.000000	35.050045
1297.000000	35.033313
1298.000000	35.026032
1299.000000	35.029896
1300.000000	35.031696
1301.000000	35.025000
1302.000000	35.024674
1303.000000	35.017499
1304.000000	35.025031
1305.000000	35.010345
1306.000000	35.011877
1307.000000	34.989587
1308.000000	34.954565
1309.000000	34.930396
1310.000000	34.924202
1311.000000	34.950355
1312.000000	34.978401
1313.000000	35.012077
1314.000000	35.013221
1315.000000	34.988126
1316.000000	34.965705
1317.000000	34.957490
1318.000000	34.951065
1319.000000	34.913015
1320.000000	34.860270
1321.000000	34.826779
1322.000000	34.795224
1323.000000	34.755468
1324.000000	34.728101
1325.000000	34.727279
1326.000000	34.706341
1327.000000	34.699825
1328.000000	34.704891
1329.000000	34.728789
1330.000000	34.710761
1331.000000	34.712521
1332.000000	34.721112
1333.000000	34.729930
1334.000000	34.729670
1335.000000	34.722838
1336.000000	34.696270
1337.000000	34.673349
1338.000000	34.675774
1339.000000	34.670198
1340.000000	34.658712
1341.000000	34.629949
1342.000000	34.612271
1343.000000	34.598171
1344.000000	34.589990
1345.000000	34.597466
1346.000000	34.593645
1347.000000	34.537299
1348.000000	34.518799
1349.000000	34.514877
1350.000000	34.508875
1351.000000	34.460030
1352.000000	34.470170
1353.000000	34.391531
1354.000000	34.340543
1355.000000	34.287662
1356.000000	34.340433
1357.000000	34.327374
1358.000000	34.325485
1359.000000	34.273881
1360.000000	34.282701
1361.000000	34.241562
1362.000000	34.231916
1363.000000	34.200445
1364.000000	34.107614
1365.000000	34.065741
1366.000000	34.077572
1367.000000	34.059813
1368.000000	33.982458
1369.000000	33.993875
1370.000000	34.092980
1371.000000	34.112543
1372.000000	34.065266
1373.000000	34.000670
1374.000000	33.996358
1375.000000	33.998215
1376.000000	34.002007
1377.000000	33.933304
1378.000000	33.863459
1379.000000	33.757725
1380.000000	33.432558
1381.000000	33.255852
1382.000000	33.244457
1383.000000	33.184212
1384.000000	33.253358
1385.000000	33.214635
1386.000000	33.236295
1387.000000	33.319761
1388.000000	33.391405
1389.000000	33.435443
1390.000000	33.477894
1391.000000	33.353054
1392.000000	33.215931
1393.000000	33.150825
1394.000000	33.218994
1395.000000	33.098427
1396.000000	32.972504
1397.000000	32.913414
1398.000000	32.868221
1399.000000	32.900523
1400.000000	32.888609
1401.000000	32.738141
1402.000000	32.711477
1403.000000	32.725482
1404.000000	32.723135
1405.000000	32.521124
1406.000000	32.451742
1407.000000	32.393217
1408.000000	32.357782
1409.000000	32.270497
1410.000000	32.188752
1411.000000	32.069641
1412.000000	32.026410
1413.000000	31.993849
1414.000000	32.036687
1415.000000	32.258974
1416.000000	32.308582
1417.000000	32.237670
1418.000000	32.252383
1419.000000	32.108639
1420.000000	32.076193
1421.000000	32.003878
1422.000000	31.800283
1423.000000	31.711884
1424.000000	31.622098
1425.000000	31.529392
1426.000000	31.501796
1427.000000	31.543397
1428.000000	31.526350
1429.000000	31.433784
1430.000000	31.430850
1431.000000	31.526124
1432.000000	31.477319
1433.000000	31.436815
1434.000000	31.350734
1435.000000	31.280013
1436.000000	31.273858
1437.000000	31.234612
1438.000000	31.196369
1439.000000	31.056775
1440.000000	31.038591
1441.000000	30.974030
1442.000000	30.983549
1443.000000	30.980873
1444.000000	30.940654
1445.000000	30.976320
1446.000000	30.949549
1447.000000	30.966135
1448.000000	30.967537
1449.000000	30.933558
1450.000000	30.931507
1451.000000	30.909707
1452.000000	30.898937
1453.000000	30.820368
1454.000000	30.790347
1455.000000	30.744258
1456.000000	30.738946
1457.000000	30.756913
1458.000000	30.713045
1459.000000	30.690115
1460.000000	30.678469
1461.000000	30.631405
1462.000000	30.594056
1463.000000	30.551590
1464.000000	30.511078
1465.000000	30.479181
1466.000000	30.397358
1467.000000	30.374427
1468.000000	30.377854
1469.000000	30.405577
1470.000000	30.406005
1471.000000	30.408101
1472.000000	30.359590
1473.000000	30.317209
1474.000000	30.298489
1475.000000	30.299995
1476.000000	30.299046
1477.000000	30.268290
1478.000000	30.242165
1479.000000	30.233635
1480.000000	30.158592
1481.000000	30.207996
1482.000000	30.183348
1483.000000	30.153804
1484.000000	30.096717
1485.000000	30.039228
1486.000000	30.051868
1487.000000	30.012553
1488.000000	29.967216
1489.000000	29.931281
1490.000000	29.916006
1491.000000	29.870199
1492.000000	29.820404
1493.000000	29.802012
1494.000000	29.794423
1495.000000	29.792917
1496.000000	29.804080
1497.000000	29.805499
1498.000000	29.769501
1499.000000	29.728293
1500.000000	29.703859
1501.000000	29.708584
1502.000000	29.683650
1503.000000	29.652575
1504.000000	29.604858
1505.000000	29.597835
1506.000000	29.608033
1507.000000	29.606667
1508.000000	29.639900
1509.000000	29.648313
1510.000000	29.623584
1511.000000	29.607496
1512.000000	29.606570
1513.000000	29.609245
1514.000000	29.602723
1515.000000	29.600298
1516.000000	29.565158
1517.000000	29.560819
1518.000000	29.594366
1519.000000	29.625470
1520.000000	29.638526
1521.000000	29.621058
1522.000000	29.640796
1523.000000	29.682065
1524.000000	29.694411
1525.000000	29.693156
1526.000000	29.681603
1527.000000	29.678867
1528.000000	29.693879
1529.000000	29.706382
1530.000000	29.703453
1531.000000	29.690556
1532.000000	29.695054
1533.000000	29.737792
1534.000000	29.773098
1535.000000	29.782476
1536.000000	29.775731
1537.000000	29.807748
1538.000000	29.815471
1539.000000	29.809629
1540.000000	29.808600
1541.000000	29.810395
1542.000000	29.824563
1543.000000	29.785240
1544.000000	29.771741
1545.000000	29.776999
1546.000000	29.771429
1547.000000	29.783140
1548.000000	29.797493
1549.000000	29.799810
1550.000000	29.827948
1551.000000	29.861923
1552.000000	29.866369
1553.000000	29.826777
1554.000000	29.827047
1555.000000	29.834792
1556.000000	29.834482
1557.000000	29.841980
1558.000000	29.825994
1559.000000	29.813826
1560.000000	29.803648
1561.000000	29.822580
1562.000000	29.855119
1563.000000	29.850416
1564.000000	29.837091
1565.000000	29.857524
1566.000000	29.865484
1567.000000	29.861850
1568.000000	29.866173
1569.000000	29.845796
1570.000000	29.830873
1571.000000	29.849848
1572.000000	29.860443
1573.000000	29.859578
1574.000000	29.883218
1575.000000	29.893207
1576.000000	29.866146
1577.000000	29.810989
1578.000000	29.805395
1579.000000	29.814074
1580.000000	29.820767
1581.000000	29.827566
1582.000000	29.799489
1583.000000	29.782093
1584.000000	29.778827
1585.000000	29.753385
1586.000000	29.723366
1587.000000	29.721235
1588.000000	29.734691
1589.000000	29.762409
1590.000000	29.770383
1591.000000	29.774171
1592.000000	29.762413
1593.000000	29.762490
1594.000000	29.786919
1595.000000	29.795642
1596.000000	29.795266
1597.000000	29.791222
1598.000000	29.821272
1599.000000	29.818083
1600.000000	29.825845
1601.000000	29.850080
1602.000000	29.844750
1603.000000	29.846809
1604.000000	29.874728
1605.000000	29.920611
1606.000000	29.927644
1607.000000	29.933282
1608.000000	29.956450
1609.000000	29.981300
1610.000000	29.993918
1611.000000	30.007151
1612.000000	30.044872
1613.000000	30.081845
1614.000000	30.067519
1615.000000	30.066056
1616.000000	30.064443
1617.000000	30.092771
1618.000000	30.101876
1619.000000	30.089319
1620.000000	30.115346
1621.000000	30.147830
1622.000000	30.171092
1623.000000	30.165801
1624.000000	30.130837
1625.000000	30.149399
1626.000000	30.119002
1627.000000	30.142277
1628.000000	30.132290
1629.000000	30.109744
1630.000000	30.103569
1631.000000	30.130144
1632.000000	30.103996
1633.000000	30.069652
1634.000000	30.070783
1635.000000	30.040640
1636.000000	30.037038
1637.000000	30.040712
1638.000000	30.027468
1639.000000	30.002952
1640.000000	29.994615
1641.000000	29.975827
1642.000000	29.969684
1643.000000	29.918806
1644.000000	29.868298
1645.000000	29.854870
1646.000000	29.842767
1647.000000	29.853149
1648.000000	29.839550
1649.000000	29.859743
1650.000000	29.856046
1651.000000	29.893467
1652.000000	29.878140
1653.000000	29.890131
1654.000000	29.886979
1655.000000	29.827262
1656.000000	29.819394
1657.000000	29.804277
1658.000000	29.841747
1659.000000	29.865301
1660.000000	29.835837
1661.000000	29.864453
1662.000000	29.837550
1663.000000	29.838978
1664.000000	29.848665
1665.000000	29.871233
1666.000000	29.862040
1667.000000	29.847064
1668.000000	29.855929
1669.000000	29.831567
1670.000000	29.830596
1671.000000	29.830318
1672.000000	29.830773
1673.000000	29.839531
1674.000000	29.823253
1675.000000	29.740101
1676.000000	29.739799
1677.000000	29.687653
1678.000000	29.701119
1679.000000	29.713703
1680.000000	29.672029
1681.000000	29.635245
1682.000000	29.589799
1683.000000	29.554981
1684.000000	29.519498
1685.000000	29.517640
1686.000000	29.476296
1687.000000	29.471748
1688.000000	29.431697
1689.000000	29.427192
1690.000000	29.446569
1691.000000	29.391920
1692.000000	29.319660
1693.000000	29.256745
1694.000000	29.210775
1695.000000	29.160632
1696.000000	29.089081
1697.000000	29.040457
1698.000000	29.048358
1699.000000	29.057135
1700.000000	29.033392
1701.000000	29.001075
1702.000000	28.995680
1703.000000	28.989528
1704.000000	28.995065
1705.000000	28.996077
1706.000000	28.955187
1707.000000	28.952950
1708.000000	28.908390
1709.000000	28.908800
1710.000000	28.930811
1711.000000	28.914547
1712.000000	28.900504
1713.000000	28.908473
1714.000000	28.879719
1715.000000	28.916749
1716.000000	28.933154
1717.000000	28.914621
1718.000000	28.921634
1719.000000	28.891488
1720.000000	28.833088
1721.000000	28.803302
1722.000000	28.763130
1723.000000	28.745686
1724.000000	28.727720
1725.000000	28.667585
1726.000000	28.624332
1727.000000	28.633398
1728.000000	28.620375
1729.000000	28.591429
1730.000000	28.596257
1731.000000	28.643505
1732.000000	28.657191
1733.000000	28.613541
1734.000000	28.565646
1735.000000	28.519455
1736.000000	28.506003
1737.000000	28.487224
1738.000000	28.430692
1739.000000	28.409042
1740.000000	28.378672
1741.000000	28.347729
1742.000000	28.306133
1743.000000	28.298334
1744.000000	28.292864
1745.000000	28.311263
1746.000000	28.297671
1747.000000	28.330644
1748.000000	28.296811
1749.000000	28.280266
1750.000000	28.220235
1751.000000	28.195585
1752.000000	28.193502
1753.000000	28.179243
1754.000000	28.205153
1755.000000	28.216103
1756.000000	28.217726
1757.000000	28.228838
1758.000000	28.226570
1759.000000	28.238846
1760.000000	28.277714
1761.000000	28.327809
1762.000000	28.326105
1763.000000	28.303566
1764.000000	28.313179
1765.000000	28.313352
1766.000000	28.272230
1767.000000	28.257007
1768.000000	28.249948
1769.000000	28.220015
1770.000000	28.228298
1771.000000	28.227431
1772.000000	28.215788
1773.000000	28.199750
1774.000000	28.184906
1775.000000	28.173147
1776.000000	28.185132
1777.000000	28.175413
1778.000000	28.187035
1779.000000	28.154921
1780.000000	28.118996
1781.000000	28.116367
1782.000000	28.100912
1783.000000	28.124126
1784.000000	28.140692
1785.000000	28.159430
1786.000000	28.161020
1787.000000	28.158110
1788.000000	28.137695
1789.000000	28.110270
1790.000000	28.113231
1791.000000	28.117528
1792.000000	28.125834
1793.000000	28.112468
1794.000000	28.075565
1795.000000	28.049445
1796.000000	28.020174
1797.000000	28.023271
1798.000000	28.026008
1799.000000	28.031480
1800.000000	28.027441
1801.000000	28.033038
1802.000000	28.041915
1803.000000	28.044292
1804.000000	28.061019
1805.000000	28.093199
1806.000000	28.135460
1807.000000	28.170240
1808.000000	28.185677
1809.000000	28.195528
1810.000000	28.190933
1811.000000	28.168004
1812.000000	28.144394
1813.000000	28.078851
1814.000000	28.092600
1815.000000	28.151087
1816.000000	28.169488
1817.000000	28.166701
1818.000000	28.164526
1819.000000	28.179616
1820.000000	28.179674
1821.000000	28.116183
1822.000000	28.074571
1823.000000	28.083902
1824.000000	28.094407
1825.000000	28.141897
1826.000000	28.193670
1827.000000	28.169034
1828.000000	28.175652
1829.000000	28.179750
1830.000000	28.197815
1831.000000	28.201206
1832.000000	28.193938
1833.000000	28.164781
1834.000000	28.088107
1835.000000	28.105057
1836.000000	28.150344
1837.000000	28.098503
1838.000000	28.018957
1839.000000	27.885525
1840.000000	27.755255
1841.000000	27.663988
1842.000000	27.620519
1843.000000	27.565995
1844.000000	27.538717
1845.000000	27.503738
1846.000000	27.524947
1847.000000	27.586229
1848.000000	27.620284
1849.000000	27.613484
1850.000000	27.573010
1851.000000	27.491572
1852.000000	27.397574
1853.000000	27.279979
1854.000000	27.196116
1855.000000	27.151589
1856.000000	27.165521
1857.000000	27.159793
1858.000000	27.117585
1859.000000	27.092173
1860.000000	27.020391
1861.000000	26.926647
1862.000000	26.908503
1863.000000	26.926152
1864.000000	26.886642
1865.000000	26.789847
1866.000000	26.742778
1867.000000	26.783687
1868.000000	26.822813
1869.000000	26.857398
1870.000000	26.755421
1871.000000	26.602546
1872.000000	26.693019
1873.000000	26.764139
1874.000000	26.842844
1875.000000	26.903643
1876.000000	26.953625
1877.000000	26.939000
1878.000000	26.960410
1879.000000	26.951133
1880.000000	26.954580
1881.000000	26.890459
1882.000000	26.800160
1883.000000	26.776224
1884.000000	26.729660
1885.000000	26.669850
1886.000000	26.631342
1887.000000	26.618660
1888.000000	26.646925
1889.000000	26.646959
1890.000000	26.604016
1891.000000	26.574041
1892.000000	26.542340
1893.000000	26.474892
1894.000000	26.395184
1895.000000	26.318864
1896.000000	26.264918
1897.000000	26.215460
1898.000000	26.120683
1899.000000	26.075797
1900.000000	26.031585
1901.000000	25.978122
1902.000000	26.042689
1903.000000	25.945366
1904.000000	25.881199
1905.000000	25.849972
1906.000000	25.813427
1907.000000	25.648934
1908.000000	25.542874
1909.000000	25.443827
1910.000000	25.336595
1911.000000	25.154976
1912.000000	25.053873
1913.000000	24.910681
1914.000000	24.789340
1915.000000	24.641813
1916.000000	24.536632
1917.000000	24.448773
1918.000000	24.273464
1919.000000	24.154350
1920.000000	23.986149
1921.000000	23.871539
1922.000000	23.787670
1923.000000	23.689078
1924.000000	23.549743
1925.000000	23.444978
1926.000000	23.349074
1927.000000	23.270451
1928.000000	23.166878
1929.000000	23.072073
1930.000000	22.969918
1931.000000	22.864559
1932.000000	22.760878
1933.000000	22.663922
1934.000000	22.545717
1935.000000	22.502745
1936.000000	22.382210
1937.000000	22.081550
1938.000000	21.989230
1939.000000	21.894984
1940.000000	21.811708
1941.000000	21.759646
1942.000000	21.682232
1943.000000	21.627835
1944.000000	21.585523
1945.000000	21.541433
1946.000000	21.512046
1947.000000	21.453585
1948.000000	21.446290
1949.000000	21.416296
1950.000000	21.415671
1951.000000	21.409651
1952.000000	21.408951
1953.000000	21.454662
1954.000000	21.419004
1955.000000	21.470692
1956.000000	21.492829
1957.000000	21.457382
1958.000000	21.434434
1959.000000	21.446021
1960.000000	21.420732
1961.000000	21.413969
1962.000000	21.436012
1963.000000	21.457607
1964.000000	21.468935
1965.000000	21.476099
1966.000000	21.489768
1967.000000	21.524008
1968.000000	21.514154
1969.000000	21.553092
1970.000000	21.539368
1971.000000	21.552824
1972.000000	21.571275
1973.000000	21.590306
1974.000000	21.605847
1975.000000	21.594364
1976.000000	21.600270
1977.000000	21.650379
1978.000000	21.659580
1979.000000	21.647667
1980.000000	21.675312
1981.000000	21.723823
1982.000000	21.745060
1983.000000	21.748942
1984.000000	21.776787
1985.000000	21.765834
1986.000000	21.768463
1987.000000	21.734443
1988.000000	21.741608
1989.000000	21.777871
1990.000000	21.756385
1991.000000	21.770139
1992.000000	21.789915
1993.000000	21.795004
1994.000000	21.801847
1995.000000	21.867772
1996.000000	21.883907
1997.000000	21.855354
1998.000000	21.886053
1999.000000	21.889139
2000.000000	21.907379
