PE UV       SUBTECH     SPECTRUM    ASCII       PEDS        4.00        
   -1
C.RESP.MV23-TX3.ASC
23/11/29
12:37:13.00
23/11/29
12:37:13.00
Vinicio Soto Monge
C. RESPLENDENS
250,000000
1
Lambda 1050
1050L1511233
PerkinElmer UV WinLab 6.3.2.0749 / 2.02.05 Lambda 900 UV/VIS/NIR, Aug  7 2015 09:38:08

0
0
3350/servo 860,8/2
0
0
UV/VIS
1
1
1
DoubleDePol,CommonBeamDepol,RBeamAtt,SBeamAtt,60mm sphere, WB InGaAs Detector
0
0
0
0
Program
Program
3350/servo 860,8/2
3350/0,4 860,8/0,4
3350/0,4 860,8/0,4
0
20.00
 
 
 
0
 
860,8
319,2
860,8
Front
100
on
S:100 R:100
0
0
0
0
 
0
 
 
 
0
 
 
0
0
0
0
0
 
 
 
 
0
0


0
0
#HDR
-1
-1
#GR
nm
%R
1.0
0.0
2200,000000
-1,000000
1951
8
73,589983
0,239045
#DATA
284.000000	6.686712
285.000000	6.674540
286.000000	6.661835
287.000000	6.651822
288.000000	6.641055
289.000000	6.630290
290.000000	6.622914
291.000000	6.613512
292.000000	6.605641
293.000000	6.598839
294.000000	6.590356
295.000000	6.584731
296.000000	6.579593
297.000000	6.571192
298.000000	6.565381
299.000000	6.559799
300.000000	6.554686
301.000000	6.549652
302.000000	6.546080
303.000000	6.538793
304.000000	6.532853
305.000000	6.525864
306.000000	6.521256
307.000000	6.516597
308.000000	6.508132
309.000000	6.501674
310.000000	6.494178
311.000000	6.483538
312.000000	6.473188
313.000000	6.463301
314.000000	6.453548
315.000000	6.443821
316.000000	6.431752
317.000000	6.407190
318.000000	6.381646
319.000000	6.357122
320.000000	6.333752
321.000000	6.312671
322.000000	6.293200
323.000000	6.271311
324.000000	6.249298
325.000000	6.230634
326.000000	6.211575
327.000000	6.193104
328.000000	6.174373
329.000000	6.153161
330.000000	6.130315
331.000000	6.110355
332.000000	6.090325
333.000000	6.069620
334.000000	6.049583
335.000000	6.032952
336.000000	6.017767
337.000000	6.001181
338.000000	5.986961
339.000000	5.970308
340.000000	5.954945
341.000000	5.941403
342.000000	5.927368
343.000000	5.916714
344.000000	5.904868
345.000000	5.895255
346.000000	5.887677
347.000000	5.878693
348.000000	5.870966
349.000000	5.866179
350.000000	5.861736
351.000000	5.861202
352.000000	5.873879
353.000000	5.889586
354.000000	5.904417
355.000000	5.920415
356.000000	5.936543
357.000000	5.952092
358.000000	5.974992
359.000000	5.997632
360.000000	6.020722
361.000000	6.047744
362.000000	6.076217
363.000000	6.107589
364.000000	6.144546
365.000000	6.186686
366.000000	6.229836
367.000000	6.278451
368.000000	6.332169
369.000000	6.388436
370.000000	6.445854
371.000000	6.507880
372.000000	6.577480
373.000000	6.652601
374.000000	6.735192
375.000000	6.824495
376.000000	6.921329
377.000000	7.034583
378.000000	7.153948
379.000000	7.281716
380.000000	7.417250
381.000000	7.561991
382.000000	7.715711
383.000000	7.877679
384.000000	8.046475
385.000000	8.224067
386.000000	8.410662
387.000000	8.605571
388.000000	8.808170
389.000000	9.018597
390.000000	9.236858
391.000000	9.462492
392.000000	9.696462
393.000000	9.936957
394.000000	10.186555
395.000000	10.442236
396.000000	10.703912
397.000000	10.971994
398.000000	11.245623
399.000000	11.526412
400.000000	11.811857
401.000000	12.102043
402.000000	12.397403
403.000000	12.696481
404.000000	12.999447
405.000000	13.307328
406.000000	13.617467
407.000000	13.927498
408.000000	14.239752
409.000000	14.553807
410.000000	14.867191
411.000000	15.176962
412.000000	15.476817
413.000000	15.775172
414.000000	16.071509
415.000000	16.364857
416.000000	16.653712
417.000000	16.937717
418.000000	17.217073
419.000000	17.490682
420.000000	17.757070
421.000000	18.016196
422.000000	18.267720
423.000000	18.510117
424.000000	18.742822
425.000000	18.965874
426.000000	19.178351
427.000000	19.380077
428.000000	19.570655
429.000000	19.750035
430.000000	19.919118
431.000000	20.077983
432.000000	20.226471
433.000000	20.364858
434.000000	20.494244
435.000000	20.616084
436.000000	20.731079
437.000000	20.839061
438.000000	20.941501
439.000000	21.040078
440.000000	21.135481
441.000000	21.228802
442.000000	21.320501
443.000000	21.411256
444.000000	21.501853
445.000000	21.593943
446.000000	21.688127
447.000000	21.784762
448.000000	21.883922
449.000000	21.985494
450.000000	22.090019
451.000000	22.198059
452.000000	22.308927
453.000000	22.422505
454.000000	22.539214
455.000000	22.658979
456.000000	22.780507
457.000000	22.904585
458.000000	23.032309
459.000000	23.164208
460.000000	23.299631
461.000000	23.438886
462.000000	23.582618
463.000000	23.731997
464.000000	23.886662
465.000000	24.046682
466.000000	24.211932
467.000000	24.383072
468.000000	24.560989
469.000000	24.744602
470.000000	24.933751
471.000000	25.128504
472.000000	25.329044
473.000000	25.536078
474.000000	25.748604
475.000000	25.967250
476.000000	26.192680
477.000000	26.424648
478.000000	26.664263
479.000000	26.912109
480.000000	27.166343
481.000000	27.428627
482.000000	27.700240
483.000000	27.982912
484.000000	28.278204
485.000000	28.586335
486.000000	28.908553
487.000000	29.244864
488.000000	29.595864
489.000000	29.961729
490.000000	30.343486
491.000000	30.741449
492.000000	31.156024
493.000000	31.586759
494.000000	32.032130
495.000000	32.493085
496.000000	32.967118
497.000000	33.453278
498.000000	33.952868
499.000000	34.465304
500.000000	34.987654
501.000000	35.520025
502.000000	36.063654
503.000000	36.616714
504.000000	37.178535
505.000000	37.748162
506.000000	38.325061
507.000000	38.909149
508.000000	39.499676
509.000000	40.095864
510.000000	40.697252
511.000000	41.304121
512.000000	41.917250
513.000000	42.534502
514.000000	43.155750
515.000000	43.783204
516.000000	44.414348
517.000000	45.048863
518.000000	45.685456
519.000000	46.322945
520.000000	46.963116
521.000000	47.605153
522.000000	48.249508
523.000000	48.896676
524.000000	49.546395
525.000000	50.198785
526.000000	50.852435
527.000000	51.506153
528.000000	52.161387
529.000000	52.817091
530.000000	53.471273
531.000000	54.126782
532.000000	54.783165
533.000000	55.436090
534.000000	56.085656
535.000000	56.734539
536.000000	57.381860
537.000000	58.025097
538.000000	58.666548
539.000000	59.305547
540.000000	59.940287
541.000000	60.571603
542.000000	61.199037
543.000000	61.820328
544.000000	62.435993
545.000000	63.045525
546.000000	63.647499
547.000000	64.240664
548.000000	64.823420
549.000000	65.395975
550.000000	65.956496
551.000000	66.505355
552.000000	67.039083
553.000000	67.557949
554.000000	68.064090
555.000000	68.551993
556.000000	69.022752
557.000000	69.474369
558.000000	69.906746
559.000000	70.320732
560.000000	70.715039
561.000000	71.091219
562.000000	71.449236
563.000000	71.787167
564.000000	72.106502
565.000000	72.409249
566.000000	72.695463
567.000000	72.965876
568.000000	73.224962
569.000000	73.470590
570.000000	73.702607
571.000000	73.920592
572.000000	74.126979
573.000000	74.321637
574.000000	74.503489
575.000000	74.672427
576.000000	74.828800
577.000000	74.972594
578.000000	75.104752
579.000000	75.222506
580.000000	75.324504
581.000000	75.413380
582.000000	75.484920
583.000000	75.539199
584.000000	75.574746
585.000000	75.593624
586.000000	75.594599
587.000000	75.576849
588.000000	75.539300
589.000000	75.480057
590.000000	75.401131
591.000000	75.302019
592.000000	75.184401
593.000000	75.046932
594.000000	74.889270
595.000000	74.713879
596.000000	74.519993
597.000000	74.308272
598.000000	74.081390
599.000000	73.840326
600.000000	73.583606
601.000000	73.314076
602.000000	73.032621
603.000000	72.739285
604.000000	72.437651
605.000000	72.126367
606.000000	71.808861
607.000000	71.485148
608.000000	71.154600
609.000000	70.820647
610.000000	70.483748
611.000000	70.145630
612.000000	69.806695
613.000000	69.468311
614.000000	69.132643
615.000000	68.801995
616.000000	68.473259
617.000000	68.151132
618.000000	67.836984
619.000000	67.529179
620.000000	67.227556
621.000000	66.931582
622.000000	66.642443
623.000000	66.358683
624.000000	66.079042
625.000000	65.804045
626.000000	65.531554
627.000000	65.261239
628.000000	64.993643
629.000000	64.726259
630.000000	64.457389
631.000000	64.189643
632.000000	63.922744
633.000000	63.654849
634.000000	63.387021
635.000000	63.122833
636.000000	62.862590
637.000000	62.610464
638.000000	62.363699
639.000000	62.124132
640.000000	61.893631
641.000000	61.672819
642.000000	61.464125
643.000000	61.268782
644.000000	61.086099
645.000000	60.919737
646.000000	60.768836
647.000000	60.632950
648.000000	60.511866
649.000000	60.408037
650.000000	60.321328
651.000000	60.251159
652.000000	60.196844
653.000000	60.160369
654.000000	60.143303
655.000000	60.143033
656.000000	60.159450
657.000000	60.195255
658.000000	60.253760
659.000000	60.335412
660.000000	60.440773
661.000000	60.571205
662.000000	60.726705
663.000000	60.906389
664.000000	61.110105
665.000000	61.340172
666.000000	61.594919
667.000000	61.874155
668.000000	62.175247
669.000000	62.498622
670.000000	62.842885
671.000000	63.201954
672.000000	63.571938
673.000000	63.952665
674.000000	64.340507
675.000000	64.732951
676.000000	65.129278
677.000000	65.527688
678.000000	65.923993
679.000000	66.316702
680.000000	66.703730
681.000000	67.084256
682.000000	67.458098
683.000000	67.824585
684.000000	68.181484
685.000000	68.528547
686.000000	68.865598
687.000000	69.192710
688.000000	69.508844
689.000000	69.813686
690.000000	70.107466
691.000000	70.393158
692.000000	70.668785
693.000000	70.931558
694.000000	71.182508
695.000000	71.425068
696.000000	71.657991
697.000000	71.880522
698.000000	72.096838
699.000000	72.310502
700.000000	72.517115
701.000000	72.716964
702.000000	72.911002
703.000000	73.101985
704.000000	73.289652
705.000000	73.475075
706.000000	73.660052
707.000000	73.840723
708.000000	74.019833
709.000000	74.200662
710.000000	74.383367
711.000000	74.567859
712.000000	74.750619
713.000000	74.932049
714.000000	75.114170
715.000000	75.295380
716.000000	75.474739
717.000000	75.654976
718.000000	75.834945
719.000000	76.012698
720.000000	76.187248
721.000000	76.359181
722.000000	76.530810
723.000000	76.702761
724.000000	76.872956
725.000000	77.042545
726.000000	77.210078
727.000000	77.378301
728.000000	77.548286
729.000000	77.717243
730.000000	77.882525
731.000000	78.044329
732.000000	78.206078
733.000000	78.364328
734.000000	78.517664
735.000000	78.667099
736.000000	78.811180
737.000000	78.951070
738.000000	79.086682
739.000000	79.215222
740.000000	79.336040
741.000000	79.449636
742.000000	79.560080
743.000000	79.664278
744.000000	79.756881
745.000000	79.842180
746.000000	79.918378
747.000000	79.985731
748.000000	80.044973
749.000000	80.094326
750.000000	80.134811
751.000000	80.169289
752.000000	80.195629
753.000000	80.213374
754.000000	80.224568
755.000000	80.225793
756.000000	80.219944
757.000000	80.204261
758.000000	80.178212
759.000000	80.146264
760.000000	80.104554
761.000000	80.056359
762.000000	79.999617
763.000000	79.932418
764.000000	79.856027
765.000000	79.773057
766.000000	79.686823
767.000000	79.592381
768.000000	79.488893
769.000000	79.379263
770.000000	79.265320
771.000000	79.146814
772.000000	79.023955
773.000000	78.895412
774.000000	78.761535
775.000000	78.624311
776.000000	78.479576
777.000000	78.328989
778.000000	78.176207
779.000000	78.023015
780.000000	77.861839
781.000000	77.695926
782.000000	77.525024
783.000000	77.350430
784.000000	77.173452
785.000000	76.994949
786.000000	76.812486
787.000000	76.624419
788.000000	76.432776
789.000000	76.235360
790.000000	76.041006
791.000000	75.847962
792.000000	75.652664
793.000000	75.456372
794.000000	75.258539
795.000000	75.060014
796.000000	74.858423
797.000000	74.656594
798.000000	74.456038
799.000000	74.257731
800.000000	74.065373
801.000000	73.868892
802.000000	73.671549
803.000000	73.473543
804.000000	73.270950
805.000000	73.071720
806.000000	72.872957
807.000000	72.675223
808.000000	72.474971
809.000000	72.271915
810.000000	72.069240
811.000000	71.863816
812.000000	71.652614
813.000000	71.437703
814.000000	71.217622
815.000000	71.000220
816.000000	70.780562
817.000000	70.560031
818.000000	70.329118
819.000000	70.094059
820.000000	69.857733
821.000000	69.614967
822.000000	69.372537
823.000000	69.118180
824.000000	68.861057
825.000000	68.598815
826.000000	68.319998
827.000000	68.044832
828.000000	67.763593
829.000000	67.477648
830.000000	67.185061
831.000000	66.895918
832.000000	66.604313
833.000000	66.309918
834.000000	66.018519
835.000000	65.714402
836.000000	65.412043
837.000000	65.108392
838.000000	64.811613
839.000000	64.514434
840.000000	64.223879
841.000000	63.929693
842.000000	63.644170
843.000000	63.359845
844.000000	63.089153
845.000000	62.819547
846.000000	62.559866
847.000000	62.306007
848.000000	62.067549
849.000000	61.830650
850.000000	61.604508
851.000000	61.391975
852.000000	61.172361
853.000000	60.968055
854.000000	60.752861
855.000000	60.564162
856.000000	60.401713
857.000000	60.207244
858.000000	60.042376
859.000000	59.918717
860.000000	59.787983
861.000000	59.693437
862.000000	59.576533
863.000000	59.504410
864.000000	59.451074
865.000000	59.358012
866.000000	59.291885
867.000000	59.224658
868.000000	59.157010
869.000000	59.069774
870.000000	59.043364
871.000000	58.972524
872.000000	58.865299
873.000000	58.794446
874.000000	58.717521
875.000000	58.649905
876.000000	58.607944
877.000000	58.508916
878.000000	58.393407
879.000000	58.276007
880.000000	58.171675
881.000000	58.079455
882.000000	58.002498
883.000000	57.848401
884.000000	57.709461
885.000000	57.558066
886.000000	57.444051
887.000000	57.290407
888.000000	57.151694
889.000000	57.017300
890.000000	56.893464
891.000000	56.752729
892.000000	56.612890
893.000000	56.507799
894.000000	56.353749
895.000000	56.161024
896.000000	55.975660
897.000000	55.776571
898.000000	55.584267
899.000000	55.362838
900.000000	55.184295
901.000000	54.966935
902.000000	54.758098
903.000000	54.566573
904.000000	54.419257
905.000000	54.225192
906.000000	54.034248
907.000000	53.879047
908.000000	53.689887
909.000000	53.519561
910.000000	53.319423
911.000000	53.087166
912.000000	52.894061
913.000000	52.737491
914.000000	52.600117
915.000000	52.426104
916.000000	52.213016
917.000000	52.034893
918.000000	51.931252
919.000000	51.813757
920.000000	51.674589
921.000000	51.484509
922.000000	51.290683
923.000000	51.127720
924.000000	50.978788
925.000000	50.793045
926.000000	50.622732
927.000000	50.440436
928.000000	50.199085
929.000000	49.998690
930.000000	49.825614
931.000000	49.610010
932.000000	49.426969
933.000000	49.232963
934.000000	49.100055
935.000000	48.938181
936.000000	48.772555
937.000000	48.582145
938.000000	48.402721
939.000000	48.201500
940.000000	47.979755
941.000000	47.834730
942.000000	47.684024
943.000000	47.485148
944.000000	47.284073
945.000000	47.079661
946.000000	46.918722
947.000000	46.802064
948.000000	46.637828
949.000000	46.451255
950.000000	46.280942
951.000000	46.115750
952.000000	45.912080
953.000000	45.671134
954.000000	45.437193
955.000000	45.237635
956.000000	45.077413
957.000000	44.973325
958.000000	44.813092
959.000000	44.632294
960.000000	44.435976
961.000000	44.226355
962.000000	44.063570
963.000000	43.928541
964.000000	43.769674
965.000000	43.614361
966.000000	43.453435
967.000000	43.288879
968.000000	43.125588
969.000000	42.917095
970.000000	42.732856
971.000000	42.564811
972.000000	42.446575
973.000000	42.307339
974.000000	42.170632
975.000000	42.032399
976.000000	41.862133
977.000000	41.699046
978.000000	41.552707
979.000000	41.387226
980.000000	41.240178
981.000000	41.081590
982.000000	40.907241
983.000000	40.761984
984.000000	40.612178
985.000000	40.468864
986.000000	40.333756
987.000000	40.208144
988.000000	40.112496
989.000000	40.001470
990.000000	39.880380
991.000000	39.718601
992.000000	39.574365
993.000000	39.441025
994.000000	39.299339
995.000000	39.187159
996.000000	39.084416
997.000000	38.968591
998.000000	38.875314
999.000000	38.782626
1000.000000	38.695281
1001.000000	38.652296
1002.000000	38.573729
1003.000000	38.451310
1004.000000	38.346862
1005.000000	38.252075
1006.000000	38.168564
1007.000000	38.050590
1008.000000	37.931122
1009.000000	37.812166
1010.000000	37.719896
1011.000000	37.620428
1012.000000	37.511123
1013.000000	37.436824
1014.000000	37.383527
1015.000000	37.346386
1016.000000	37.286741
1017.000000	37.190062
1018.000000	37.118551
1019.000000	37.072240
1020.000000	36.977199
1021.000000	36.898712
1022.000000	36.809067
1023.000000	36.729022
1024.000000	36.678889
1025.000000	36.601554
1026.000000	36.535348
1027.000000	36.485373
1028.000000	36.425502
1029.000000	36.378463
1030.000000	36.338735
1031.000000	36.305818
1032.000000	36.275625
1033.000000	36.211742
1034.000000	36.144930
1035.000000	36.107520
1036.000000	36.054418
1037.000000	36.023220
1038.000000	35.990262
1039.000000	35.970611
1040.000000	35.928780
1041.000000	35.897716
1042.000000	35.897511
1043.000000	35.879933
1044.000000	35.847336
1045.000000	35.791246
1046.000000	35.728631
1047.000000	35.712630
1048.000000	35.708934
1049.000000	35.678160
1050.000000	35.639706
1051.000000	35.611685
1052.000000	35.582332
1053.000000	35.541294
1054.000000	35.518031
1055.000000	35.528205
1056.000000	35.508456
1057.000000	35.503266
1058.000000	35.491238
1059.000000	35.427230
1060.000000	35.417980
1061.000000	35.419938
1062.000000	35.385334
1063.000000	35.355373
1064.000000	35.362279
1065.000000	35.334441
1066.000000	35.290008
1067.000000	35.280751
1068.000000	35.244342
1069.000000	35.248908
1070.000000	35.221091
1071.000000	35.199058
1072.000000	35.212605
1073.000000	35.178363
1074.000000	35.110235
1075.000000	35.067949
1076.000000	35.004527
1077.000000	34.971498
1078.000000	34.939422
1079.000000	34.920940
1080.000000	34.902687
1081.000000	34.901767
1082.000000	34.869513
1083.000000	34.867074
1084.000000	34.835728
1085.000000	34.803269
1086.000000	34.768483
1087.000000	34.773040
1088.000000	34.756740
1089.000000	34.673509
1090.000000	34.645283
1091.000000	34.601919
1092.000000	34.566631
1093.000000	34.534084
1094.000000	34.525923
1095.000000	34.532486
1096.000000	34.499085
1097.000000	34.470099
1098.000000	34.476320
1099.000000	34.473652
1100.000000	34.442877
1101.000000	34.470719
1102.000000	34.473334
1103.000000	34.462976
1104.000000	34.427892
1105.000000	34.427724
1106.000000	34.402592
1107.000000	34.374953
1108.000000	34.388084
1109.000000	34.408602
1110.000000	34.446065
1111.000000	34.505709
1112.000000	34.497335
1113.000000	34.525177
1114.000000	34.488599
1115.000000	34.452540
1116.000000	34.434914
1117.000000	34.455447
1118.000000	34.430426
1119.000000	34.451331
1120.000000	34.458695
1121.000000	34.456330
1122.000000	34.441278
1123.000000	34.417401
1124.000000	34.440549
1125.000000	34.421894
1126.000000	34.459584
1127.000000	34.502881
1128.000000	34.494828
1129.000000	34.514580
1130.000000	34.470576
1131.000000	34.467912
1132.000000	34.505652
1133.000000	34.502093
1134.000000	34.429298
1135.000000	34.445808
1136.000000	34.389038
1137.000000	34.368755
1138.000000	34.358821
1139.000000	34.359354
1140.000000	34.287774
1141.000000	34.261410
1142.000000	34.193381
1143.000000	34.136024
1144.000000	34.194657
1145.000000	34.166155
1146.000000	34.100838
1147.000000	34.067784
1148.000000	34.056553
1149.000000	34.068135
1150.000000	34.056791
1151.000000	34.109403
1152.000000	34.072449
1153.000000	34.048094
1154.000000	34.037784
1155.000000	34.050027
1156.000000	34.035959
1157.000000	34.036479
1158.000000	34.048155
1159.000000	34.035082
1160.000000	34.015988
1161.000000	33.965268
1162.000000	33.932652
1163.000000	33.909881
1164.000000	33.883146
1165.000000	33.881389
1166.000000	33.852249
1167.000000	33.841785
1168.000000	33.824025
1169.000000	33.864549
1170.000000	33.835651
1171.000000	33.796919
1172.000000	33.797481
1173.000000	33.785111
1174.000000	33.752324
1175.000000	33.748303
1176.000000	33.724438
1177.000000	33.728442
1178.000000	33.732286
1179.000000	33.684207
1180.000000	33.675818
1181.000000	33.682524
1182.000000	33.677025
1183.000000	33.613817
1184.000000	33.558359
1185.000000	33.541562
1186.000000	33.455901
1187.000000	33.428130
1188.000000	33.431228
1189.000000	33.393821
1190.000000	33.357484
1191.000000	33.331974
1192.000000	33.316628
1193.000000	33.319982
1194.000000	33.305276
1195.000000	33.293294
1196.000000	33.308522
1197.000000	33.322428
1198.000000	33.334854
1199.000000	33.366915
1200.000000	33.368142
1201.000000	33.411049
1202.000000	33.404502
1203.000000	33.369766
1204.000000	33.303509
1205.000000	33.336765
1206.000000	33.369698
1207.000000	33.338291
1208.000000	33.324322
1209.000000	33.322026
1210.000000	33.374987
1211.000000	33.413747
1212.000000	33.469566
1213.000000	33.520525
1214.000000	33.476250
1215.000000	33.489640
1216.000000	33.518447
1217.000000	33.528471
1218.000000	33.543023
1219.000000	33.608989
1220.000000	33.635855
1221.000000	33.649194
1222.000000	33.677770
1223.000000	33.658245
1224.000000	33.669246
1225.000000	33.640698
1226.000000	33.642024
1227.000000	33.663020
1228.000000	33.649984
1229.000000	33.618192
1230.000000	33.635870
1231.000000	33.631639
1232.000000	33.578875
1233.000000	33.587761
1234.000000	33.589494
1235.000000	33.617035
1236.000000	33.568761
1237.000000	33.501650
1238.000000	33.509215
1239.000000	33.536824
1240.000000	33.493033
1241.000000	33.499835
1242.000000	33.496942
1243.000000	33.482252
1244.000000	33.451779
1245.000000	33.407517
1246.000000	33.401381
1247.000000	33.379482
1248.000000	33.364975
1249.000000	33.388699
1250.000000	33.391154
1251.000000	33.357746
1252.000000	33.308581
1253.000000	33.268976
1254.000000	33.241867
1255.000000	33.240744
1256.000000	33.218512
1257.000000	33.192929
1258.000000	33.198169
1259.000000	33.197356
1260.000000	33.237949
1261.000000	33.291352
1262.000000	33.270074
1263.000000	33.265765
1264.000000	33.301145
1265.000000	33.281758
1266.000000	33.276925
1267.000000	33.271947
1268.000000	33.239428
1269.000000	33.173460
1270.000000	33.126138
1271.000000	33.144198
1272.000000	33.161337
1273.000000	33.159353
1274.000000	33.185917
1275.000000	33.194488
1276.000000	33.195313
1277.000000	33.225322
1278.000000	33.273900
1279.000000	33.299947
1280.000000	33.301678
1281.000000	33.272470
1282.000000	33.246669
1283.000000	33.218807
1284.000000	33.209438
1285.000000	33.222883
1286.000000	33.253775
1287.000000	33.307737
1288.000000	33.374246
1289.000000	33.412955
1290.000000	33.458239
1291.000000	33.467159
1292.000000	33.467930
1293.000000	33.469901
1294.000000	33.484644
1295.000000	33.496719
1296.000000	33.462887
1297.000000	33.440987
1298.000000	33.456591
1299.000000	33.470716
1300.000000	33.493981
1301.000000	33.514324
1302.000000	33.506008
1303.000000	33.500238
1304.000000	33.498947
1305.000000	33.466496
1306.000000	33.429726
1307.000000	33.434465
1308.000000	33.436114
1309.000000	33.414481
1310.000000	33.425173
1311.000000	33.439306
1312.000000	33.423941
1313.000000	33.396397
1314.000000	33.402829
1315.000000	33.438575
1316.000000	33.440162
1317.000000	33.415652
1318.000000	33.412071
1319.000000	33.397336
1320.000000	33.344170
1321.000000	33.309803
1322.000000	33.285586
1323.000000	33.223597
1324.000000	33.190962
1325.000000	33.148758
1326.000000	33.158042
1327.000000	33.138622
1328.000000	33.069398
1329.000000	33.037438
1330.000000	33.007699
1331.000000	32.976528
1332.000000	32.982217
1333.000000	32.946957
1334.000000	32.892119
1335.000000	32.852000
1336.000000	32.787225
1337.000000	32.762372
1338.000000	32.749583
1339.000000	32.729859
1340.000000	32.766419
1341.000000	32.808539
1342.000000	32.790054
1343.000000	32.718906
1344.000000	32.684025
1345.000000	32.655733
1346.000000	32.607109
1347.000000	32.544198
1348.000000	32.535401
1349.000000	32.480636
1350.000000	32.426456
1351.000000	32.470537
1352.000000	32.488770
1353.000000	32.487332
1354.000000	32.456323
1355.000000	32.419621
1356.000000	32.420340
1357.000000	32.455419
1358.000000	32.516257
1359.000000	32.528383
1360.000000	32.508192
1361.000000	32.575805
1362.000000	32.709712
1363.000000	32.763631
1364.000000	32.786459
1365.000000	32.842228
1366.000000	32.878284
1367.000000	32.867491
1368.000000	32.935779
1369.000000	32.928152
1370.000000	32.915073
1371.000000	32.892603
1372.000000	32.940175
1373.000000	32.998068
1374.000000	33.023463
1375.000000	33.031316
1376.000000	32.907843
1377.000000	32.882983
1378.000000	32.936223
1379.000000	32.950173
1380.000000	33.204045
1381.000000	33.183945
1382.000000	33.274518
1383.000000	33.213870
1384.000000	33.282415
1385.000000	33.293938
1386.000000	33.230236
1387.000000	33.185981
1388.000000	33.133665
1389.000000	33.128344
1390.000000	33.180773
1391.000000	33.218773
1392.000000	33.217987
1393.000000	33.095531
1394.000000	32.941445
1395.000000	32.934044
1396.000000	32.898843
1397.000000	32.757014
1398.000000	32.682192
1399.000000	32.537608
1400.000000	32.428652
1401.000000	32.337140
1402.000000	32.292657
1403.000000	32.201852
1404.000000	32.194360
1405.000000	32.108255
1406.000000	32.026334
1407.000000	31.943358
1408.000000	31.748571
1409.000000	31.654263
1410.000000	31.512251
1411.000000	31.511492
1412.000000	31.410842
1413.000000	31.339076
1414.000000	31.269745
1415.000000	30.944494
1416.000000	30.858840
1417.000000	30.620546
1418.000000	30.573445
1419.000000	30.373874
1420.000000	30.297964
1421.000000	30.172185
1422.000000	30.084112
1423.000000	30.012494
1424.000000	29.910508
1425.000000	29.742199
1426.000000	29.574481
1427.000000	29.406853
1428.000000	29.335944
1429.000000	29.309089
1430.000000	29.189786
1431.000000	29.015305
1432.000000	28.892219
1433.000000	28.825466
1434.000000	28.821959
1435.000000	28.702365
1436.000000	28.590323
1437.000000	28.417527
1438.000000	28.320825
1439.000000	28.186286
1440.000000	28.139064
1441.000000	28.090677
1442.000000	27.968024
1443.000000	27.933019
1444.000000	27.819828
1445.000000	27.722107
1446.000000	27.657424
1447.000000	27.616582
1448.000000	27.502883
1449.000000	27.417968
1450.000000	27.315789
1451.000000	27.286568
1452.000000	27.356856
1453.000000	27.319328
1454.000000	27.314448
1455.000000	27.207470
1456.000000	27.195538
1457.000000	27.176849
1458.000000	27.101209
1459.000000	27.064676
1460.000000	27.089862
1461.000000	27.063886
1462.000000	27.018041
1463.000000	27.000427
1464.000000	26.986742
1465.000000	26.949350
1466.000000	26.922445
1467.000000	26.892367
1468.000000	26.843281
1469.000000	26.753111
1470.000000	26.692972
1471.000000	26.695815
1472.000000	26.705888
1473.000000	26.613133
1474.000000	26.585071
1475.000000	26.572629
1476.000000	26.591609
1477.000000	26.582498
1478.000000	26.564084
1479.000000	26.559467
1480.000000	26.558361
1481.000000	26.508250
1482.000000	26.494122
1483.000000	26.473304
1484.000000	26.424763
1485.000000	26.406669
1486.000000	26.375177
1487.000000	26.287287
1488.000000	26.210641
1489.000000	26.164357
1490.000000	26.137684
1491.000000	26.089673
1492.000000	26.026260
1493.000000	25.994577
1494.000000	25.969633
1495.000000	25.892021
1496.000000	25.822949
1497.000000	25.780497
1498.000000	25.742191
1499.000000	25.703711
1500.000000	25.642711
1501.000000	25.620797
1502.000000	25.614112
1503.000000	25.595365
1504.000000	25.592500
1505.000000	25.591600
1506.000000	25.564581
1507.000000	25.568077
1508.000000	25.571340
1509.000000	25.531062
1510.000000	25.506556
1511.000000	25.506199
1512.000000	25.521179
1513.000000	25.521586
1514.000000	25.542690
1515.000000	25.570030
1516.000000	25.597289
1517.000000	25.603878
1518.000000	25.629623
1519.000000	25.651408
1520.000000	25.643156
1521.000000	25.616761
1522.000000	25.602124
1523.000000	25.608140
1524.000000	25.587655
1525.000000	25.589229
1526.000000	25.593246
1527.000000	25.594371
1528.000000	25.623219
1529.000000	25.615198
1530.000000	25.622885
1531.000000	25.637740
1532.000000	25.632103
1533.000000	25.625568
1534.000000	25.621830
1535.000000	25.644835
1536.000000	25.606225
1537.000000	25.593261
1538.000000	25.601846
1539.000000	25.596084
1540.000000	25.589653
1541.000000	25.598235
1542.000000	25.598568
1543.000000	25.584229
1544.000000	25.601191
1545.000000	25.563745
1546.000000	25.516277
1547.000000	25.482081
1548.000000	25.478553
1549.000000	25.488104
1550.000000	25.523434
1551.000000	25.539480
1552.000000	25.517460
1553.000000	25.489183
1554.000000	25.482487
1555.000000	25.511030
1556.000000	25.541938
1557.000000	25.541261
1558.000000	25.544313
1559.000000	25.588724
1560.000000	25.605935
1561.000000	25.623066
1562.000000	25.668911
1563.000000	25.688931
1564.000000	25.728189
1565.000000	25.783521
1566.000000	25.788161
1567.000000	25.811157
1568.000000	25.827068
1569.000000	25.850395
1570.000000	25.888622
1571.000000	25.958156
1572.000000	25.996121
1573.000000	25.992893
1574.000000	26.025102
1575.000000	26.018579
1576.000000	25.983158
1577.000000	26.020506
1578.000000	26.054359
1579.000000	26.108752
1580.000000	26.147665
1581.000000	26.145737
1582.000000	26.113813
1583.000000	26.129775
1584.000000	26.125294
1585.000000	26.077499
1586.000000	26.055100
1587.000000	26.062365
1588.000000	26.067052
1589.000000	26.083994
1590.000000	26.083797
1591.000000	26.032272
1592.000000	26.057686
1593.000000	26.052854
1594.000000	26.044730
1595.000000	26.015875
1596.000000	25.958474
1597.000000	25.916581
1598.000000	25.905915
1599.000000	25.844431
1600.000000	25.805721
1601.000000	25.802197
1602.000000	25.792966
1603.000000	25.833977
1604.000000	25.829494
1605.000000	25.747943
1606.000000	25.684903
1607.000000	25.650680
1608.000000	25.664577
1609.000000	25.621383
1610.000000	25.627503
1611.000000	25.625058
1612.000000	25.590286
1613.000000	25.576971
1614.000000	25.558046
1615.000000	25.555298
1616.000000	25.550697
1617.000000	25.577260
1618.000000	25.584365
1619.000000	25.572140
1620.000000	25.596720
1621.000000	25.603873
1622.000000	25.571050
1623.000000	25.531267
1624.000000	25.462995
1625.000000	25.442607
1626.000000	25.467666
1627.000000	25.436081
1628.000000	25.454732
1629.000000	25.437492
1630.000000	25.441576
1631.000000	25.474405
1632.000000	25.453012
1633.000000	25.406760
1634.000000	25.403021
1635.000000	25.420576
1636.000000	25.433702
1637.000000	25.447267
1638.000000	25.393452
1639.000000	25.429821
1640.000000	25.488965
1641.000000	25.490307
1642.000000	25.491847
1643.000000	25.439523
1644.000000	25.487892
1645.000000	25.516323
1646.000000	25.515367
1647.000000	25.542958
1648.000000	25.512372
1649.000000	25.453110
1650.000000	25.446660
1651.000000	25.499552
1652.000000	25.545222
1653.000000	25.520766
1654.000000	25.525295
1655.000000	25.478204
1656.000000	25.501594
1657.000000	25.551236
1658.000000	25.604491
1659.000000	25.704617
1660.000000	25.721789
1661.000000	25.720134
1662.000000	25.744141
1663.000000	25.706053
1664.000000	25.723900
1665.000000	25.742990
1666.000000	25.708765
1667.000000	25.736537
1668.000000	25.824680
1669.000000	25.831554
1670.000000	25.785862
1671.000000	25.719549
1672.000000	25.704334
1673.000000	25.714926
1674.000000	25.631376
1675.000000	25.601452
1676.000000	25.622827
1677.000000	25.619458
1678.000000	25.615288
1679.000000	25.571320
1680.000000	25.579744
1681.000000	25.609203
1682.000000	25.571807
1683.000000	25.607361
1684.000000	25.612867
1685.000000	25.596480
1686.000000	25.575354
1687.000000	25.540441
1688.000000	25.558689
1689.000000	25.525928
1690.000000	25.515426
1691.000000	25.476329
1692.000000	25.420829
1693.000000	25.396390
1694.000000	25.319182
1695.000000	25.277356
1696.000000	25.233273
1697.000000	25.180448
1698.000000	25.191643
1699.000000	25.168001
1700.000000	25.158422
1701.000000	25.134321
1702.000000	25.098682
1703.000000	25.080420
1704.000000	25.119057
1705.000000	25.188582
1706.000000	25.188299
1707.000000	25.198704
1708.000000	25.180540
1709.000000	25.185321
1710.000000	25.167433
1711.000000	25.147031
1712.000000	25.101785
1713.000000	25.083755
1714.000000	25.102550
1715.000000	25.059227
1716.000000	25.008956
1717.000000	24.970969
1718.000000	24.962428
1719.000000	24.957390
1720.000000	24.913967
1721.000000	24.834690
1722.000000	24.781982
1723.000000	24.746287
1724.000000	24.745139
1725.000000	24.746226
1726.000000	24.674650
1727.000000	24.670194
1728.000000	24.618390
1729.000000	24.588395
1730.000000	24.566258
1731.000000	24.584807
1732.000000	24.583369
1733.000000	24.536275
1734.000000	24.488420
1735.000000	24.433414
1736.000000	24.432079
1737.000000	24.411816
1738.000000	24.342705
1739.000000	24.280669
1740.000000	24.197082
1741.000000	24.169188
1742.000000	24.077754
1743.000000	24.007841
1744.000000	23.958540
1745.000000	23.953118
1746.000000	23.912975
1747.000000	23.900571
1748.000000	23.903138
1749.000000	23.883588
1750.000000	23.830665
1751.000000	23.819036
1752.000000	23.805135
1753.000000	23.748767
1754.000000	23.720884
1755.000000	23.740056
1756.000000	23.792173
1757.000000	23.781452
1758.000000	23.718756
1759.000000	23.682032
1760.000000	23.678660
1761.000000	23.704578
1762.000000	23.677738
1763.000000	23.677277
1764.000000	23.664529
1765.000000	23.655603
1766.000000	23.606201
1767.000000	23.574443
1768.000000	23.599973
1769.000000	23.580891
1770.000000	23.547188
1771.000000	23.514726
1772.000000	23.491077
1773.000000	23.476725
1774.000000	23.460352
1775.000000	23.403278
1776.000000	23.378527
1777.000000	23.389584
1778.000000	23.416957
1779.000000	23.439794
1780.000000	23.441653
1781.000000	23.452237
1782.000000	23.454818
1783.000000	23.433237
1784.000000	23.377819
1785.000000	23.400170
1786.000000	23.409546
1787.000000	23.407484
1788.000000	23.416718
1789.000000	23.440570
1790.000000	23.415892
1791.000000	23.400964
1792.000000	23.430401
1793.000000	23.441446
1794.000000	23.445891
1795.000000	23.435150
1796.000000	23.437172
1797.000000	23.478961
1798.000000	23.510743
1799.000000	23.511711
1800.000000	23.486647
1801.000000	23.488380
1802.000000	23.505534
1803.000000	23.499192
1804.000000	23.554335
1805.000000	23.591642
1806.000000	23.618323
1807.000000	23.646083
1808.000000	23.657600
1809.000000	23.692005
1810.000000	23.726350
1811.000000	23.734697
1812.000000	23.714478
1813.000000	23.708393
1814.000000	23.720896
1815.000000	23.739744
1816.000000	23.728436
1817.000000	23.693720
1818.000000	23.700492
1819.000000	23.679504
1820.000000	23.615323
1821.000000	23.574713
1822.000000	23.569163
1823.000000	23.578191
1824.000000	23.582517
1825.000000	23.570443
1826.000000	23.545395
1827.000000	23.545069
1828.000000	23.584594
1829.000000	23.564579
1830.000000	23.516673
1831.000000	23.489364
1832.000000	23.482758
1833.000000	23.464491
1834.000000	23.441398
1835.000000	23.423402
1836.000000	23.474908
1837.000000	23.558939
1838.000000	23.634612
1839.000000	23.698768
1840.000000	23.752815
1841.000000	23.751980
1842.000000	23.778445
1843.000000	23.808701
1844.000000	23.829491
1845.000000	23.864265
1846.000000	23.908875
1847.000000	23.982419
1848.000000	23.994271
1849.000000	23.996964
1850.000000	23.995545
1851.000000	23.998982
1852.000000	23.999846
1853.000000	23.962064
1854.000000	24.003410
1855.000000	24.094038
1856.000000	24.129813
1857.000000	24.100591
1858.000000	24.116048
1859.000000	24.206473
1860.000000	24.273848
1861.000000	24.279773
1862.000000	24.273480
1863.000000	24.201799
1864.000000	24.114669
1865.000000	24.104860
1866.000000	24.141257
1867.000000	24.190597
1868.000000	24.232539
1869.000000	24.274808
1870.000000	24.295394
1871.000000	24.245568
1872.000000	24.172642
1873.000000	24.058443
1874.000000	23.950564
1875.000000	23.854144
1876.000000	23.837378
1877.000000	23.765060
1878.000000	23.687278
1879.000000	23.610905
1880.000000	23.563999
1881.000000	23.511456
1882.000000	23.443489
1883.000000	23.330660
1884.000000	23.234816
1885.000000	23.142829
1886.000000	23.052425
1887.000000	23.011624
1888.000000	23.000298
1889.000000	22.890653
1890.000000	22.763715
1891.000000	22.613116
1892.000000	22.580279
1893.000000	22.408625
1894.000000	22.202221
1895.000000	22.053261
1896.000000	21.919770
1897.000000	21.782716
1898.000000	21.685316
1899.000000	21.661080
1900.000000	21.527395
1901.000000	21.346593
1902.000000	20.976032
1903.000000	20.739817
1904.000000	20.598823
1905.000000	20.483099
1906.000000	20.239899
1907.000000	19.999263
1908.000000	19.824175
1909.000000	19.673987
1910.000000	19.535293
1911.000000	19.299534
1912.000000	19.102317
1913.000000	18.908824
1914.000000	18.706173
1915.000000	18.473413
1916.000000	18.253010
1917.000000	18.045595
1918.000000	17.897195
1919.000000	17.687787
1920.000000	17.449219
1921.000000	17.257911
1922.000000	17.068401
1923.000000	16.787582
1924.000000	16.642677
1925.000000	16.495613
1926.000000	16.374532
1927.000000	16.138837
1928.000000	15.986285
1929.000000	15.747936
1930.000000	15.541632
1931.000000	15.383567
1932.000000	15.293270
1933.000000	15.158597
1934.000000	14.979077
1935.000000	14.892182
1936.000000	14.782015
1937.000000	14.748219
1938.000000	14.615497
1939.000000	14.440550
1940.000000	14.292327
1941.000000	14.278803
1942.000000	14.177062
1943.000000	14.101744
1944.000000	13.944719
1945.000000	13.825649
1946.000000	13.814193
1947.000000	13.778785
1948.000000	13.682735
1949.000000	13.624566
1950.000000	13.575840
1951.000000	13.559051
1952.000000	13.481168
1953.000000	13.470156
1954.000000	13.414084
1955.000000	13.434538
1956.000000	13.434320
1957.000000	13.428510
1958.000000	13.504718
1959.000000	13.491071
1960.000000	13.454354
1961.000000	13.449923
1962.000000	13.508077
1963.000000	13.515443
1964.000000	13.606689
1965.000000	13.657101
1966.000000	13.658730
1967.000000	13.625156
1968.000000	13.644394
1969.000000	13.681384
1970.000000	13.714571
1971.000000	13.726718
1972.000000	13.777081
1973.000000	13.840810
1974.000000	13.876207
1975.000000	13.886938
1976.000000	13.892047
1977.000000	13.950329
1978.000000	13.970218
1979.000000	14.032981
1980.000000	14.068613
1981.000000	14.109931
1982.000000	14.165066
1983.000000	14.225049
1984.000000	14.264709
1985.000000	14.301142
1986.000000	14.349820
1987.000000	14.402912
1988.000000	14.413909
1989.000000	14.491537
1990.000000	14.520025
1991.000000	14.564753
1992.000000	14.587994
1993.000000	14.613485
1994.000000	14.664514
1995.000000	14.717545
1996.000000	14.771121
1997.000000	14.844056
1998.000000	14.915941
1999.000000	14.952284
2000.000000	15.015543
