PE UV       SUBTECH     SPECTRUM    ASCII       PEDS        4.00        
   -1
S.SIGN.PREG-TX3.ASC
23/11/30
12:52:28.00
23/11/30
12:52:28.00
Vinicio Soto Monge
STRIGIDIA 2
250,000000
1
Lambda 1050
1050L1511233
PerkinElmer UV WinLab 6.3.2.0749 / 2.02.05 Lambda 900 UV/VIS/NIR, Aug  7 2015 09:38:08

0
0
3350/servo 860,8/2
0
0
UV/VIS
1
1
1
DoubleDePol,CommonBeamDepol,RBeamAtt,SBeamAtt,60mm sphere, WB InGaAs Detector
0
0
0
0
Program
Program
3350/servo 860,8/2
3350/0,4 860,8/0,4
3350/0,4 860,8/0,4
0
20.00
 
 
 
0
 
860,8
319,2
860,8
Front
100
on
S:100 R:100
0
0
0
0
 
0
 
 
 
0
 
 
0
0
0
0
0
 
 
 
 
0
0


0
0
#HDR
-1
-1
#GR
nm
%R
1.0
0.0
2200,000000
-1,000000
1951
8
76,413974
0,594114
#DATA
284.000000	7.146263
285.000000	7.139752
286.000000	7.132908
287.000000	7.128198
288.000000	7.124944
289.000000	7.121763
290.000000	7.119397
291.000000	7.117084
292.000000	7.115338
293.000000	7.113663
294.000000	7.114060
295.000000	7.114160
296.000000	7.115599
297.000000	7.117675
298.000000	7.122370
299.000000	7.127341
300.000000	7.132198
301.000000	7.137794
302.000000	7.144992
303.000000	7.153801
304.000000	7.162128
305.000000	7.168778
306.000000	7.176930
307.000000	7.184010
308.000000	7.191734
309.000000	7.197529
310.000000	7.207134
311.000000	7.215464
312.000000	7.221597
313.000000	7.228772
314.000000	7.236067
315.000000	7.242686
316.000000	7.250513
317.000000	7.260049
318.000000	7.269470
319.000000	7.276565
320.000000	7.286661
321.000000	7.295195
322.000000	7.303823
323.000000	7.309607
324.000000	7.317109
325.000000	7.321254
326.000000	7.326012
327.000000	7.329929
328.000000	7.333619
329.000000	7.333780
330.000000	7.337404
331.000000	7.336472
332.000000	7.334368
333.000000	7.333565
334.000000	7.330102
335.000000	7.325797
336.000000	7.322541
337.000000	7.320776
338.000000	7.319787
339.000000	7.315903
340.000000	7.312338
341.000000	7.307996
342.000000	7.306041
343.000000	7.302770
344.000000	7.302664
345.000000	7.298704
346.000000	7.296699
347.000000	7.296113
348.000000	7.292639
349.000000	7.289367
350.000000	7.287703
351.000000	7.285787
352.000000	7.278905
353.000000	7.272191
354.000000	7.268498
355.000000	7.260725
356.000000	7.255658
357.000000	7.248484
358.000000	7.245566
359.000000	7.243327
360.000000	7.241556
361.000000	7.237745
362.000000	7.233933
363.000000	7.232034
364.000000	7.231744
365.000000	7.228305
366.000000	7.228242
367.000000	7.228565
368.000000	7.226213
369.000000	7.223303
370.000000	7.219962
371.000000	7.216303
372.000000	7.211489
373.000000	7.204850
374.000000	7.202175
375.000000	7.198803
376.000000	7.193761
377.000000	7.187940
378.000000	7.182840
379.000000	7.176815
380.000000	7.171822
381.000000	7.165660
382.000000	7.159684
383.000000	7.154544
384.000000	7.148476
385.000000	7.141254
386.000000	7.134145
387.000000	7.129300
388.000000	7.124343
389.000000	7.118140
390.000000	7.111873
391.000000	7.105867
392.000000	7.101014
393.000000	7.094875
394.000000	7.086666
395.000000	7.080324
396.000000	7.075785
397.000000	7.072228
398.000000	7.067048
399.000000	7.061335
400.000000	7.055820
401.000000	7.051142
402.000000	7.046561
403.000000	7.042038
404.000000	7.040053
405.000000	7.039662
406.000000	7.037707
407.000000	7.035788
408.000000	7.033607
409.000000	7.030497
410.000000	7.029155
411.000000	7.029010
412.000000	7.027316
413.000000	7.025734
414.000000	7.024515
415.000000	7.023321
416.000000	7.021958
417.000000	7.020692
418.000000	7.019732
419.000000	7.019476
420.000000	7.019569
421.000000	7.019890
422.000000	7.020003
423.000000	7.020251
424.000000	7.020913
425.000000	7.021846
426.000000	7.022752
427.000000	7.023433
428.000000	7.024628
429.000000	7.026412
430.000000	7.027720
431.000000	7.028940
432.000000	7.030441
433.000000	7.032332
434.000000	7.034298
435.000000	7.036542
436.000000	7.038493
437.000000	7.040325
438.000000	7.042581
439.000000	7.045174
440.000000	7.047911
441.000000	7.050712
442.000000	7.053195
443.000000	7.055794
444.000000	7.058761
445.000000	7.061774
446.000000	7.065152
447.000000	7.068951
448.000000	7.073080
449.000000	7.077136
450.000000	7.081047
451.000000	7.085350
452.000000	7.090137
453.000000	7.094930
454.000000	7.099733
455.000000	7.104080
456.000000	7.108485
457.000000	7.113235
458.000000	7.118344
459.000000	7.123646
460.000000	7.128956
461.000000	7.134487
462.000000	7.140491
463.000000	7.146530
464.000000	7.152398
465.000000	7.158831
466.000000	7.165550
467.000000	7.172473
468.000000	7.179405
469.000000	7.186904
470.000000	7.194894
471.000000	7.203078
472.000000	7.211737
473.000000	7.220597
474.000000	7.229810
475.000000	7.239412
476.000000	7.249853
477.000000	7.261300
478.000000	7.273425
479.000000	7.286186
480.000000	7.298906
481.000000	7.311020
482.000000	7.322902
483.000000	7.335301
484.000000	7.348451
485.000000	7.362555
486.000000	7.377833
487.000000	7.394273
488.000000	7.412090
489.000000	7.431345
490.000000	7.452646
491.000000	7.475562
492.000000	7.500464
493.000000	7.527484
494.000000	7.556696
495.000000	7.588123
496.000000	7.621980
497.000000	7.657986
498.000000	7.696253
499.000000	7.736786
500.000000	7.779248
501.000000	7.823710
502.000000	7.870317
503.000000	7.919402
504.000000	7.970606
505.000000	8.023995
506.000000	8.080056
507.000000	8.138444
508.000000	8.199551
509.000000	8.263565
510.000000	8.330584
511.000000	8.400846
512.000000	8.474328
513.000000	8.551493
514.000000	8.633016
515.000000	8.719676
516.000000	8.812597
517.000000	8.911979
518.000000	9.017805
519.000000	9.130335
520.000000	9.249927
521.000000	9.377532
522.000000	9.513566
523.000000	9.657768
524.000000	9.809846
525.000000	9.969630
526.000000	10.137041
527.000000	10.311452
528.000000	10.492222
529.000000	10.678743
530.000000	10.869961
531.000000	11.065507
532.000000	11.264493
533.000000	11.465452
534.000000	11.668019
535.000000	11.871127
536.000000	12.074496
537.000000	12.277127
538.000000	12.477688
539.000000	12.676338
540.000000	12.872349
541.000000	13.065255
542.000000	13.255339
543.000000	13.441456
544.000000	13.622536
545.000000	13.799239
546.000000	13.971174
547.000000	14.138160
548.000000	14.299942
549.000000	14.454733
550.000000	14.602764
551.000000	14.743373
552.000000	14.876498
553.000000	15.001220
554.000000	15.117355
555.000000	15.224101
556.000000	15.320858
557.000000	15.407045
558.000000	15.482575
559.000000	15.548517
560.000000	15.605544
561.000000	15.652937
562.000000	15.690948
563.000000	15.720339
564.000000	15.741003
565.000000	15.754882
566.000000	15.762640
567.000000	15.764822
568.000000	15.763198
569.000000	15.757236
570.000000	15.749623
571.000000	15.740024
572.000000	15.729264
573.000000	15.718481
574.000000	15.708481
575.000000	15.699449
576.000000	15.691433
577.000000	15.684185
578.000000	15.679066
579.000000	15.676812
580.000000	15.676423
581.000000	15.677781
582.000000	15.680974
583.000000	15.686083
584.000000	15.693789
585.000000	15.704170
586.000000	15.716984
587.000000	15.731892
588.000000	15.748949
589.000000	15.768447
590.000000	15.790070
591.000000	15.813567
592.000000	15.838742
593.000000	15.866277
594.000000	15.894712
595.000000	15.922875
596.000000	15.952100
597.000000	15.982776
598.000000	16.013907
599.000000	16.045693
600.000000	16.078521
601.000000	16.111551
602.000000	16.145633
603.000000	16.179076
604.000000	16.214281
605.000000	16.249075
606.000000	16.284916
607.000000	16.321070
608.000000	16.357630
609.000000	16.393457
610.000000	16.428977
611.000000	16.464939
612.000000	16.501631
613.000000	16.538187
614.000000	16.574241
615.000000	16.610755
616.000000	16.646643
617.000000	16.682550
618.000000	16.717893
619.000000	16.753117
620.000000	16.787919
621.000000	16.822411
622.000000	16.857780
623.000000	16.893260
624.000000	16.928310
625.000000	16.962732
626.000000	16.997660
627.000000	17.033003
628.000000	17.067251
629.000000	17.101882
630.000000	17.137929
631.000000	17.175216
632.000000	17.211994
633.000000	17.249510
634.000000	17.288695
635.000000	17.327415
636.000000	17.367439
637.000000	17.407544
638.000000	17.448788
639.000000	17.489184
640.000000	17.530916
641.000000	17.572980
642.000000	17.615199
643.000000	17.658184
644.000000	17.701708
645.000000	17.745566
646.000000	17.789074
647.000000	17.833740
648.000000	17.879241
649.000000	17.925681
650.000000	17.971560
651.000000	18.019294
652.000000	18.069031
653.000000	18.120060
654.000000	18.172644
655.000000	18.226369
656.000000	18.280532
657.000000	18.333763
658.000000	18.387728
659.000000	18.443162
660.000000	18.500606
661.000000	18.557633
662.000000	18.614639
663.000000	18.673278
664.000000	18.732634
665.000000	18.792088
666.000000	18.851057
667.000000	18.910276
668.000000	18.971054
669.000000	19.031806
670.000000	19.093975
671.000000	19.155034
672.000000	19.217293
673.000000	19.279913
674.000000	19.343670
675.000000	19.406464
676.000000	19.469046
677.000000	19.532492
678.000000	19.595663
679.000000	19.659072
680.000000	19.724461
681.000000	19.790798
682.000000	19.856093
683.000000	19.919638
684.000000	19.983515
685.000000	20.048634
686.000000	20.112348
687.000000	20.175431
688.000000	20.238401
689.000000	20.302058
690.000000	20.365849
691.000000	20.428871
692.000000	20.493522
693.000000	20.557546
694.000000	20.619812
695.000000	20.681619
696.000000	20.745356
697.000000	20.809645
698.000000	20.873212
699.000000	20.936813
700.000000	20.999213
701.000000	21.061328
702.000000	21.124721
703.000000	21.186172
704.000000	21.248133
705.000000	21.310138
706.000000	21.371999
707.000000	21.433273
708.000000	21.496385
709.000000	21.559420
710.000000	21.623035
711.000000	21.687049
712.000000	21.750940
713.000000	21.814030
714.000000	21.878662
715.000000	21.942623
716.000000	22.006390
717.000000	22.070208
718.000000	22.134534
719.000000	22.197893
720.000000	22.261959
721.000000	22.326220
722.000000	22.389214
723.000000	22.453244
724.000000	22.516152
725.000000	22.577899
726.000000	22.641999
727.000000	22.705319
728.000000	22.769179
729.000000	22.832834
730.000000	22.898411
731.000000	22.964291
732.000000	23.027051
733.000000	23.089647
734.000000	23.152676
735.000000	23.217189
736.000000	23.283919
737.000000	23.348700
738.000000	23.413885
739.000000	23.478306
740.000000	23.542122
741.000000	23.607326
742.000000	23.672849
743.000000	23.737055
744.000000	23.800314
745.000000	23.863413
746.000000	23.926137
747.000000	23.987168
748.000000	24.051824
749.000000	24.115188
750.000000	24.177032
751.000000	24.239543
752.000000	24.299767
753.000000	24.360323
754.000000	24.422379
755.000000	24.487353
756.000000	24.553894
757.000000	24.619128
758.000000	24.683076
759.000000	24.745260
760.000000	24.806900
761.000000	24.869017
762.000000	24.931948
763.000000	24.996152
764.000000	25.062270
765.000000	25.126554
766.000000	25.186992
767.000000	25.247922
768.000000	25.309427
769.000000	25.372411
770.000000	25.432983
771.000000	25.492757
772.000000	25.554942
773.000000	25.616670
774.000000	25.678785
775.000000	25.740684
776.000000	25.802896
777.000000	25.866381
778.000000	25.926150
779.000000	25.984153
780.000000	26.044163
781.000000	26.101630
782.000000	26.162693
783.000000	26.219527
784.000000	26.277327
785.000000	26.340948
786.000000	26.403940
787.000000	26.467094
788.000000	26.526966
789.000000	26.589965
790.000000	26.648351
791.000000	26.706774
792.000000	26.765238
793.000000	26.822672
794.000000	26.883007
795.000000	26.941807
796.000000	27.004493
797.000000	27.066644
798.000000	27.122885
799.000000	27.179706
800.000000	27.233766
801.000000	27.289660
802.000000	27.350474
803.000000	27.411688
804.000000	27.470242
805.000000	27.532129
806.000000	27.588897
807.000000	27.646932
808.000000	27.705483
809.000000	27.765566
810.000000	27.823933
811.000000	27.882644
812.000000	27.938234
813.000000	27.997836
814.000000	28.061955
815.000000	28.121280
816.000000	28.178121
817.000000	28.231765
818.000000	28.293269
819.000000	28.347174
820.000000	28.401094
821.000000	28.457557
822.000000	28.513122
823.000000	28.572411
824.000000	28.624487
825.000000	28.674743
826.000000	28.724146
827.000000	28.779073
828.000000	28.834401
829.000000	28.891344
830.000000	28.947554
831.000000	28.996957
832.000000	29.044824
833.000000	29.103075
834.000000	29.154595
835.000000	29.216743
836.000000	29.268870
837.000000	29.317810
838.000000	29.374504
839.000000	29.429235
840.000000	29.472490
841.000000	29.528689
842.000000	29.577642
843.000000	29.623334
844.000000	29.667248
845.000000	29.716931
846.000000	29.764781
847.000000	29.815334
848.000000	29.860035
849.000000	29.898690
850.000000	29.935067
851.000000	29.985867
852.000000	30.044494
853.000000	30.090857
854.000000	30.132584
855.000000	30.169097
856.000000	30.214282
857.000000	30.252387
858.000000	30.295945
859.000000	30.365168
860.000000	30.416116
861.000000	30.474797
862.000000	30.523311
863.000000	30.542455
864.000000	30.587339
865.000000	30.633196
866.000000	30.658492
867.000000	30.683428
868.000000	30.747398
869.000000	30.773191
870.000000	30.814204
871.000000	30.858795
872.000000	30.924549
873.000000	30.952680
874.000000	30.955298
875.000000	30.974032
876.000000	30.995252
877.000000	31.053364
878.000000	31.124908
879.000000	31.162458
880.000000	31.218475
881.000000	31.301352
882.000000	31.331960
883.000000	31.357670
884.000000	31.428407
885.000000	31.486387
886.000000	31.542066
887.000000	31.578239
888.000000	31.621770
889.000000	31.673367
890.000000	31.710048
891.000000	31.725365
892.000000	31.758679
893.000000	31.779863
894.000000	31.811767
895.000000	31.839397
896.000000	31.887577
897.000000	31.904033
898.000000	31.976202
899.000000	32.014097
900.000000	32.097253
901.000000	32.167529
902.000000	32.239391
903.000000	32.274352
904.000000	32.362117
905.000000	32.385949
906.000000	32.384337
907.000000	32.397635
908.000000	32.450677
909.000000	32.538695
910.000000	32.580925
911.000000	32.616825
912.000000	32.613450
913.000000	32.628830
914.000000	32.673992
915.000000	32.694109
916.000000	32.695275
917.000000	32.717203
918.000000	32.767733
919.000000	32.792713
920.000000	32.802240
921.000000	32.839748
922.000000	32.839725
923.000000	32.870267
924.000000	32.883242
925.000000	32.934237
926.000000	32.972443
927.000000	32.997443
928.000000	33.068434
929.000000	33.058423
930.000000	33.085041
931.000000	33.087754
932.000000	33.107652
933.000000	33.122065
934.000000	33.182501
935.000000	33.164242
936.000000	33.148137
937.000000	33.155848
938.000000	33.126520
939.000000	33.101144
940.000000	33.113405
941.000000	33.194792
942.000000	33.240093
943.000000	33.262320
944.000000	33.280035
945.000000	33.321603
946.000000	33.344133
947.000000	33.377007
948.000000	33.376788
949.000000	33.398523
950.000000	33.423188
951.000000	33.412881
952.000000	33.420152
953.000000	33.437108
954.000000	33.422865
955.000000	33.420221
956.000000	33.406429
957.000000	33.443191
958.000000	33.444627
959.000000	33.477682
960.000000	33.489765
961.000000	33.498881
962.000000	33.518002
963.000000	33.513831
964.000000	33.544450
965.000000	33.583132
966.000000	33.616940
967.000000	33.633436
968.000000	33.609383
969.000000	33.552194
970.000000	33.542983
971.000000	33.584359
972.000000	33.582788
973.000000	33.597479
974.000000	33.621696
975.000000	33.663607
976.000000	33.646025
977.000000	33.646452
978.000000	33.650645
979.000000	33.632412
980.000000	33.644108
981.000000	33.654883
982.000000	33.697892
983.000000	33.739337
984.000000	33.747404
985.000000	33.773892
986.000000	33.807893
987.000000	33.846771
988.000000	33.850409
989.000000	33.865793
990.000000	33.901292
991.000000	33.905083
992.000000	33.918310
993.000000	33.946468
994.000000	33.957127
995.000000	33.962049
996.000000	34.007172
997.000000	34.065008
998.000000	34.077203
999.000000	34.097994
1000.000000	34.099953
1001.000000	34.095074
1002.000000	34.120202
1003.000000	34.153487
1004.000000	34.186619
1005.000000	34.215036
1006.000000	34.215132
1007.000000	34.221655
1008.000000	34.256332
1009.000000	34.294960
1010.000000	34.327845
1011.000000	34.367030
1012.000000	34.373396
1013.000000	34.382389
1014.000000	34.417889
1015.000000	34.449282
1016.000000	34.475650
1017.000000	34.458923
1018.000000	34.443430
1019.000000	34.441056
1020.000000	34.438454
1021.000000	34.443632
1022.000000	34.454416
1023.000000	34.477834
1024.000000	34.507293
1025.000000	34.503107
1026.000000	34.501896
1027.000000	34.541679
1028.000000	34.542830
1029.000000	34.528722
1030.000000	34.536416
1031.000000	34.526848
1032.000000	34.495720
1033.000000	34.468745
1034.000000	34.442227
1035.000000	34.417903
1036.000000	34.412617
1037.000000	34.419883
1038.000000	34.437019
1039.000000	34.447051
1040.000000	34.429053
1041.000000	34.415979
1042.000000	34.416770
1043.000000	34.426868
1044.000000	34.419912
1045.000000	34.388455
1046.000000	34.355271
1047.000000	34.369578
1048.000000	34.386548
1049.000000	34.360382
1050.000000	34.333316
1051.000000	34.324949
1052.000000	34.334204
1053.000000	34.346175
1054.000000	34.346416
1055.000000	34.343606
1056.000000	34.344280
1057.000000	34.318454
1058.000000	34.293464
1059.000000	34.277728
1060.000000	34.315899
1061.000000	34.333620
1062.000000	34.281429
1063.000000	34.250403
1064.000000	34.239526
1065.000000	34.228074
1066.000000	34.226162
1067.000000	34.239044
1068.000000	34.243315
1069.000000	34.281656
1070.000000	34.324168
1071.000000	34.355989
1072.000000	34.322405
1073.000000	34.312168
1074.000000	34.296259
1075.000000	34.293369
1076.000000	34.286493
1077.000000	34.322512
1078.000000	34.314030
1079.000000	34.293498
1080.000000	34.287158
1081.000000	34.305562
1082.000000	34.279961
1083.000000	34.272592
1084.000000	34.283580
1085.000000	34.289473
1086.000000	34.301381
1087.000000	34.274318
1088.000000	34.254597
1089.000000	34.247462
1090.000000	34.240434
1091.000000	34.237366
1092.000000	34.267604
1093.000000	34.276744
1094.000000	34.295396
1095.000000	34.273401
1096.000000	34.268582
1097.000000	34.278573
1098.000000	34.282282
1099.000000	34.319887
1100.000000	34.285310
1101.000000	34.279697
1102.000000	34.271045
1103.000000	34.284610
1104.000000	34.296284
1105.000000	34.256439
1106.000000	34.225551
1107.000000	34.247628
1108.000000	34.261443
1109.000000	34.296075
1110.000000	34.294990
1111.000000	34.323475
1112.000000	34.295701
1113.000000	34.267630
1114.000000	34.270395
1115.000000	34.238765
1116.000000	34.187901
1117.000000	34.177127
1118.000000	34.166122
1119.000000	34.148169
1120.000000	34.130295
1121.000000	34.152919
1122.000000	34.189216
1123.000000	34.236479
1124.000000	34.250992
1125.000000	34.213760
1126.000000	34.194639
1127.000000	34.185990
1128.000000	34.203837
1129.000000	34.195607
1130.000000	34.173963
1131.000000	34.189870
1132.000000	34.194984
1133.000000	34.199784
1134.000000	34.211592
1135.000000	34.242971
1136.000000	34.266990
1137.000000	34.249295
1138.000000	34.263623
1139.000000	34.224849
1140.000000	34.230304
1141.000000	34.192209
1142.000000	34.211930
1143.000000	34.184406
1144.000000	34.165511
1145.000000	34.175919
1146.000000	34.148404
1147.000000	34.127539
1148.000000	34.141033
1149.000000	34.116779
1150.000000	34.130732
1151.000000	34.164490
1152.000000	34.171328
1153.000000	34.145816
1154.000000	34.140088
1155.000000	34.178200
1156.000000	34.142519
1157.000000	34.127665
1158.000000	34.075167
1159.000000	34.045024
1160.000000	34.083474
1161.000000	34.091187
1162.000000	34.058136
1163.000000	34.040677
1164.000000	34.014648
1165.000000	34.014147
1166.000000	33.973939
1167.000000	33.975796
1168.000000	33.964479
1169.000000	33.873178
1170.000000	33.831561
1171.000000	33.777898
1172.000000	33.741950
1173.000000	33.723254
1174.000000	33.709112
1175.000000	33.668872
1176.000000	33.657705
1177.000000	33.605242
1178.000000	33.601836
1179.000000	33.607134
1180.000000	33.610901
1181.000000	33.615193
1182.000000	33.610220
1183.000000	33.597995
1184.000000	33.601272
1185.000000	33.619860
1186.000000	33.566186
1187.000000	33.554844
1188.000000	33.558048
1189.000000	33.531021
1190.000000	33.495704
1191.000000	33.492068
1192.000000	33.487532
1193.000000	33.477300
1194.000000	33.465919
1195.000000	33.425638
1196.000000	33.386371
1197.000000	33.397479
1198.000000	33.379700
1199.000000	33.355668
1200.000000	33.356769
1201.000000	33.328218
1202.000000	33.296825
1203.000000	33.294458
1204.000000	33.298537
1205.000000	33.298919
1206.000000	33.339449
1207.000000	33.328734
1208.000000	33.272823
1209.000000	33.293540
1210.000000	33.322621
1211.000000	33.347058
1212.000000	33.344017
1213.000000	33.336615
1214.000000	33.293917
1215.000000	33.290823
1216.000000	33.291302
1217.000000	33.283451
1218.000000	33.267586
1219.000000	33.295489
1220.000000	33.275002
1221.000000	33.326289
1222.000000	33.343779
1223.000000	33.323693
1224.000000	33.327387
1225.000000	33.300350
1226.000000	33.278637
1227.000000	33.251117
1228.000000	33.241875
1229.000000	33.233853
1230.000000	33.226621
1231.000000	33.265987
1232.000000	33.263451
1233.000000	33.262039
1234.000000	33.257455
1235.000000	33.228432
1236.000000	33.261883
1237.000000	33.268143
1238.000000	33.270383
1239.000000	33.291830
1240.000000	33.298072
1241.000000	33.271877
1242.000000	33.310150
1243.000000	33.347520
1244.000000	33.310011
1245.000000	33.290322
1246.000000	33.308428
1247.000000	33.331118
1248.000000	33.339929
1249.000000	33.347199
1250.000000	33.322896
1251.000000	33.323976
1252.000000	33.331138
1253.000000	33.313490
1254.000000	33.278849
1255.000000	33.290273
1256.000000	33.275769
1257.000000	33.223744
1258.000000	33.221841
1259.000000	33.237948
1260.000000	33.246041
1261.000000	33.243090
1262.000000	33.231109
1263.000000	33.210820
1264.000000	33.168565
1265.000000	33.139300
1266.000000	33.096957
1267.000000	33.054287
1268.000000	33.012506
1269.000000	33.012858
1270.000000	33.039396
1271.000000	33.013084
1272.000000	32.986374
1273.000000	32.980266
1274.000000	32.973018
1275.000000	32.988295
1276.000000	32.977318
1277.000000	32.960644
1278.000000	32.936902
1279.000000	32.936407
1280.000000	32.936287
1281.000000	32.916445
1282.000000	32.891444
1283.000000	32.885798
1284.000000	32.891489
1285.000000	32.889830
1286.000000	32.865149
1287.000000	32.877210
1288.000000	32.907623
1289.000000	32.899036
1290.000000	32.875896
1291.000000	32.855272
1292.000000	32.873931
1293.000000	32.880943
1294.000000	32.866349
1295.000000	32.862685
1296.000000	32.856599
1297.000000	32.856774
1298.000000	32.884542
1299.000000	32.944146
1300.000000	32.977359
1301.000000	32.985237
1302.000000	33.033342
1303.000000	33.057963
1304.000000	33.072559
1305.000000	33.045293
1306.000000	33.046511
1307.000000	33.068485
1308.000000	33.054613
1309.000000	33.029427
1310.000000	32.988866
1311.000000	32.968011
1312.000000	32.969719
1313.000000	32.978550
1314.000000	32.989101
1315.000000	32.993371
1316.000000	32.975286
1317.000000	32.973152
1318.000000	32.954106
1319.000000	32.921408
1320.000000	32.926181
1321.000000	32.931034
1322.000000	32.913450
1323.000000	32.903116
1324.000000	32.907079
1325.000000	32.895814
1326.000000	32.898540
1327.000000	32.905111
1328.000000	32.880091
1329.000000	32.856615
1330.000000	32.847341
1331.000000	32.836886
1332.000000	32.836800
1333.000000	32.808880
1334.000000	32.779445
1335.000000	32.757156
1336.000000	32.738337
1337.000000	32.699813
1338.000000	32.711793
1339.000000	32.701359
1340.000000	32.683561
1341.000000	32.673394
1342.000000	32.639462
1343.000000	32.654752
1344.000000	32.674015
1345.000000	32.688326
1346.000000	32.673033
1347.000000	32.591483
1348.000000	32.565152
1349.000000	32.557943
1350.000000	32.506985
1351.000000	32.398413
1352.000000	32.399680
1353.000000	32.360897
1354.000000	32.351967
1355.000000	32.226456
1356.000000	32.259784
1357.000000	32.271754
1358.000000	32.238389
1359.000000	32.137929
1360.000000	32.156093
1361.000000	32.218914
1362.000000	32.309950
1363.000000	32.288605
1364.000000	32.114595
1365.000000	31.993798
1366.000000	32.010249
1367.000000	31.946343
1368.000000	31.798849
1369.000000	31.869436
1370.000000	32.026538
1371.000000	32.063607
1372.000000	32.069384
1373.000000	31.970954
1374.000000	32.001373
1375.000000	32.031280
1376.000000	32.113698
1377.000000	32.111502
1378.000000	31.946133
1379.000000	31.831512
1380.000000	31.249562
1381.000000	31.079117
1382.000000	30.980091
1383.000000	30.934907
1384.000000	31.033212
1385.000000	31.101661
1386.000000	31.180781
1387.000000	31.364343
1388.000000	31.498978
1389.000000	31.558303
1390.000000	31.710711
1391.000000	31.605522
1392.000000	31.255963
1393.000000	31.226223
1394.000000	31.380890
1395.000000	31.231434
1396.000000	30.805066
1397.000000	30.598756
1398.000000	30.493414
1399.000000	30.602987
1400.000000	30.618634
1401.000000	30.412565
1402.000000	30.453097
1403.000000	30.562525
1404.000000	30.565681
1405.000000	30.358471
1406.000000	30.306074
1407.000000	30.193843
1408.000000	30.182062
1409.000000	29.946903
1410.000000	29.859254
1411.000000	29.710250
1412.000000	29.624642
1413.000000	29.750063
1414.000000	29.856436
1415.000000	30.326098
1416.000000	30.429345
1417.000000	30.534468
1418.000000	30.628607
1419.000000	30.446314
1420.000000	30.334430
1421.000000	30.289295
1422.000000	30.021728
1423.000000	29.913461
1424.000000	29.813513
1425.000000	29.673609
1426.000000	29.655748
1427.000000	29.910014
1428.000000	29.893147
1429.000000	29.774643
1430.000000	29.826422
1431.000000	30.090357
1432.000000	30.065788
1433.000000	30.111891
1434.000000	30.044654
1435.000000	30.062159
1436.000000	30.159879
1437.000000	30.107754
1438.000000	30.095277
1439.000000	29.967621
1440.000000	29.915669
1441.000000	29.841975
1442.000000	29.899181
1443.000000	29.902658
1444.000000	29.980082
1445.000000	30.009155
1446.000000	29.997931
1447.000000	29.963288
1448.000000	29.913470
1449.000000	29.863571
1450.000000	29.919503
1451.000000	29.914682
1452.000000	29.871322
1453.000000	29.734766
1454.000000	29.715440
1455.000000	29.663195
1456.000000	29.646962
1457.000000	29.626006
1458.000000	29.563897
1459.000000	29.521585
1460.000000	29.485803
1461.000000	29.496487
1462.000000	29.477577
1463.000000	29.438677
1464.000000	29.363243
1465.000000	29.297974
1466.000000	29.304200
1467.000000	29.332009
1468.000000	29.330857
1469.000000	29.423651
1470.000000	29.420086
1471.000000	29.421206
1472.000000	29.341466
1473.000000	29.265819
1474.000000	29.212695
1475.000000	29.198750
1476.000000	29.163571
1477.000000	29.107816
1478.000000	29.047210
1479.000000	29.068663
1480.000000	29.019561
1481.000000	29.024939
1482.000000	29.029788
1483.000000	28.991688
1484.000000	28.913676
1485.000000	28.856772
1486.000000	28.844634
1487.000000	28.824945
1488.000000	28.839169
1489.000000	28.832590
1490.000000	28.873061
1491.000000	28.876513
1492.000000	28.895874
1493.000000	28.867328
1494.000000	28.861390
1495.000000	28.893132
1496.000000	28.878314
1497.000000	28.858071
1498.000000	28.872184
1499.000000	28.890913
1500.000000	28.920485
1501.000000	28.880607
1502.000000	28.842591
1503.000000	28.820328
1504.000000	28.782868
1505.000000	28.754876
1506.000000	28.740711
1507.000000	28.759780
1508.000000	28.781926
1509.000000	28.790884
1510.000000	28.778312
1511.000000	28.794660
1512.000000	28.801785
1513.000000	28.839135
1514.000000	28.813987
1515.000000	28.790330
1516.000000	28.772521
1517.000000	28.823902
1518.000000	28.872331
1519.000000	28.927989
1520.000000	28.939856
1521.000000	28.918144
1522.000000	28.929423
1523.000000	28.923799
1524.000000	28.916950
1525.000000	28.889101
1526.000000	28.854772
1527.000000	28.842802
1528.000000	28.852611
1529.000000	28.856186
1530.000000	28.849190
1531.000000	28.839822
1532.000000	28.822248
1533.000000	28.780014
1534.000000	28.784203
1535.000000	28.791804
1536.000000	28.802364
1537.000000	28.820870
1538.000000	28.822788
1539.000000	28.805901
1540.000000	28.806233
1541.000000	28.795772
1542.000000	28.818132
1543.000000	28.833866
1544.000000	28.835713
1545.000000	28.855087
1546.000000	28.845772
1547.000000	28.860074
1548.000000	28.880441
1549.000000	28.893973
1550.000000	28.904785
1551.000000	28.892107
1552.000000	28.859367
1553.000000	28.819187
1554.000000	28.817710
1555.000000	28.827973
1556.000000	28.849864
1557.000000	28.858789
1558.000000	28.832425
1559.000000	28.837528
1560.000000	28.859122
1561.000000	28.857119
1562.000000	28.832791
1563.000000	28.811103
1564.000000	28.803876
1565.000000	28.781837
1566.000000	28.752948
1567.000000	28.782004
1568.000000	28.813946
1569.000000	28.809227
1570.000000	28.811445
1571.000000	28.820845
1572.000000	28.821259
1573.000000	28.828965
1574.000000	28.837124
1575.000000	28.830448
1576.000000	28.809508
1577.000000	28.794666
1578.000000	28.758305
1579.000000	28.750348
1580.000000	28.777750
1581.000000	28.816595
1582.000000	28.790910
1583.000000	28.753570
1584.000000	28.734854
1585.000000	28.739269
1586.000000	28.752075
1587.000000	28.777331
1588.000000	28.766547
1589.000000	28.741088
1590.000000	28.742301
1591.000000	28.744677
1592.000000	28.733113
1593.000000	28.765073
1594.000000	28.761874
1595.000000	28.730388
1596.000000	28.728094
1597.000000	28.729839
1598.000000	28.746127
1599.000000	28.734151
1600.000000	28.753542
1601.000000	28.761425
1602.000000	28.740001
1603.000000	28.735654
1604.000000	28.752001
1605.000000	28.735023
1606.000000	28.751645
1607.000000	28.774141
1608.000000	28.801621
1609.000000	28.814907
1610.000000	28.807692
1611.000000	28.831720
1612.000000	28.843037
1613.000000	28.839800
1614.000000	28.837526
1615.000000	28.836137
1616.000000	28.802033
1617.000000	28.786519
1618.000000	28.793964
1619.000000	28.779424
1620.000000	28.758334
1621.000000	28.748669
1622.000000	28.728237
1623.000000	28.692816
1624.000000	28.651674
1625.000000	28.615014
1626.000000	28.607069
1627.000000	28.605044
1628.000000	28.565484
1629.000000	28.535536
1630.000000	28.536210
1631.000000	28.545019
1632.000000	28.570154
1633.000000	28.534996
1634.000000	28.537676
1635.000000	28.548776
1636.000000	28.570978
1637.000000	28.591543
1638.000000	28.615705
1639.000000	28.556298
1640.000000	28.549497
1641.000000	28.524905
1642.000000	28.486369
1643.000000	28.415385
1644.000000	28.385220
1645.000000	28.349082
1646.000000	28.330214
1647.000000	28.294262
1648.000000	28.312222
1649.000000	28.304488
1650.000000	28.306693
1651.000000	28.326278
1652.000000	28.377224
1653.000000	28.402818
1654.000000	28.465586
1655.000000	28.475592
1656.000000	28.479152
1657.000000	28.463952
1658.000000	28.528101
1659.000000	28.558240
1660.000000	28.582150
1661.000000	28.613762
1662.000000	28.621810
1663.000000	28.644285
1664.000000	28.674631
1665.000000	28.684429
1666.000000	28.679230
1667.000000	28.635737
1668.000000	28.662725
1669.000000	28.667897
1670.000000	28.625827
1671.000000	28.592928
1672.000000	28.533928
1673.000000	28.483007
1674.000000	28.523630
1675.000000	28.479632
1676.000000	28.452062
1677.000000	28.411814
1678.000000	28.436901
1679.000000	28.423550
1680.000000	28.452970
1681.000000	28.476931
1682.000000	28.499330
1683.000000	28.515049
1684.000000	28.505832
1685.000000	28.458667
1686.000000	28.422363
1687.000000	28.373591
1688.000000	28.316882
1689.000000	28.239514
1690.000000	28.196303
1691.000000	28.174020
1692.000000	28.175792
1693.000000	28.129202
1694.000000	28.091481
1695.000000	28.074839
1696.000000	27.998236
1697.000000	27.967540
1698.000000	27.961049
1699.000000	27.910188
1700.000000	27.875729
1701.000000	27.881452
1702.000000	27.879157
1703.000000	27.841159
1704.000000	27.815035
1705.000000	27.793041
1706.000000	27.763455
1707.000000	27.763922
1708.000000	27.740840
1709.000000	27.702068
1710.000000	27.718194
1711.000000	27.696577
1712.000000	27.712796
1713.000000	27.708174
1714.000000	27.703235
1715.000000	27.707227
1716.000000	27.645295
1717.000000	27.607754
1718.000000	27.539453
1719.000000	27.497092
1720.000000	27.464636
1721.000000	27.437691
1722.000000	27.408808
1723.000000	27.394746
1724.000000	27.407616
1725.000000	27.423719
1726.000000	27.402377
1727.000000	27.350609
1728.000000	27.319814
1729.000000	27.324190
1730.000000	27.292358
1731.000000	27.282752
1732.000000	27.239249
1733.000000	27.175879
1734.000000	27.176770
1735.000000	27.165847
1736.000000	27.104100
1737.000000	27.065692
1738.000000	27.030140
1739.000000	26.982844
1740.000000	26.989789
1741.000000	26.949976
1742.000000	26.930789
1743.000000	26.932947
1744.000000	26.904552
1745.000000	26.860370
1746.000000	26.816185
1747.000000	26.792156
1748.000000	26.772412
1749.000000	26.757012
1750.000000	26.720995
1751.000000	26.725842
1752.000000	26.730572
1753.000000	26.727484
1754.000000	26.715826
1755.000000	26.706601
1756.000000	26.714863
1757.000000	26.700421
1758.000000	26.694770
1759.000000	26.653416
1760.000000	26.623181
1761.000000	26.599437
1762.000000	26.581806
1763.000000	26.564927
1764.000000	26.576121
1765.000000	26.579241
1766.000000	26.565229
1767.000000	26.552511
1768.000000	26.535267
1769.000000	26.511236
1770.000000	26.532743
1771.000000	26.534255
1772.000000	26.508991
1773.000000	26.486143
1774.000000	26.517582
1775.000000	26.512769
1776.000000	26.531574
1777.000000	26.550309
1778.000000	26.535852
1779.000000	26.508596
1780.000000	26.520628
1781.000000	26.574379
1782.000000	26.562989
1783.000000	26.536101
1784.000000	26.540082
1785.000000	26.540551
1786.000000	26.515654
1787.000000	26.465266
1788.000000	26.491165
1789.000000	26.512588
1790.000000	26.513309
1791.000000	26.488177
1792.000000	26.467638
1793.000000	26.449659
1794.000000	26.450093
1795.000000	26.462789
1796.000000	26.458945
1797.000000	26.451527
1798.000000	26.457235
1799.000000	26.448621
1800.000000	26.434214
1801.000000	26.407872
1802.000000	26.419766
1803.000000	26.441076
1804.000000	26.443731
1805.000000	26.422650
1806.000000	26.439798
1807.000000	26.473375
1808.000000	26.495242
1809.000000	26.483533
1810.000000	26.475295
1811.000000	26.457336
1812.000000	26.410103
1813.000000	26.345714
1814.000000	26.374165
1815.000000	26.430947
1816.000000	26.371525
1817.000000	26.409955
1818.000000	26.516405
1819.000000	26.576615
1820.000000	26.688401
1821.000000	26.695828
1822.000000	26.715326
1823.000000	26.697671
1824.000000	26.678866
1825.000000	26.719359
1826.000000	26.819038
1827.000000	26.875028
1828.000000	26.876474
1829.000000	26.842690
1830.000000	26.815819
1831.000000	26.831698
1832.000000	26.860221
1833.000000	26.776795
1834.000000	26.683265
1835.000000	26.705247
1836.000000	26.795043
1837.000000	26.779713
1838.000000	26.687319
1839.000000	26.485066
1840.000000	26.370407
1841.000000	26.297473
1842.000000	26.325328
1843.000000	26.339123
1844.000000	26.314462
1845.000000	26.287235
1846.000000	26.276404
1847.000000	26.363356
1848.000000	26.412985
1849.000000	26.361834
1850.000000	26.292919
1851.000000	26.272800
1852.000000	26.197343
1853.000000	26.025974
1854.000000	25.908151
1855.000000	25.815800
1856.000000	25.943892
1857.000000	25.982702
1858.000000	25.971614
1859.000000	25.975191
1860.000000	25.931810
1861.000000	25.822896
1862.000000	25.771354
1863.000000	25.745165
1864.000000	25.696045
1865.000000	25.635268
1866.000000	25.581536
1867.000000	25.504356
1868.000000	25.554626
1869.000000	25.613801
1870.000000	25.529024
1871.000000	25.387239
1872.000000	25.428193
1873.000000	25.512762
1874.000000	25.689874
1875.000000	25.778487
1876.000000	25.863921
1877.000000	25.833511
1878.000000	25.795706
1879.000000	25.773408
1880.000000	25.763627
1881.000000	25.759009
1882.000000	25.657178
1883.000000	25.664771
1884.000000	25.679437
1885.000000	25.644715
1886.000000	25.659805
1887.000000	25.658660
1888.000000	25.663534
1889.000000	25.690974
1890.000000	25.623088
1891.000000	25.491840
1892.000000	25.452718
1893.000000	25.363993
1894.000000	25.305514
1895.000000	25.245166
1896.000000	25.169983
1897.000000	25.093214
1898.000000	25.054811
1899.000000	25.062705
1900.000000	25.050715
1901.000000	24.975590
1902.000000	24.999232
1903.000000	24.943928
1904.000000	24.906796
1905.000000	24.836669
1906.000000	24.759658
1907.000000	24.608512
1908.000000	24.463348
1909.000000	24.365542
1910.000000	24.259168
1911.000000	24.066190
1912.000000	23.931568
1913.000000	23.825576
1914.000000	23.700022
1915.000000	23.597808
1916.000000	23.409014
1917.000000	23.282758
1918.000000	23.073582
1919.000000	22.957567
1920.000000	22.822523
1921.000000	22.737061
1922.000000	22.645489
1923.000000	22.565283
1924.000000	22.439484
1925.000000	22.317465
1926.000000	22.165279
1927.000000	22.025821
1928.000000	21.900368
1929.000000	21.823398
1930.000000	21.734231
1931.000000	21.663842
1932.000000	21.579708
1933.000000	21.528362
1934.000000	21.440694
1935.000000	21.341903
1936.000000	21.250064
1937.000000	21.141594
1938.000000	21.096322
1939.000000	20.976895
1940.000000	20.968279
1941.000000	20.954150
1942.000000	20.927124
1943.000000	20.925948
1944.000000	20.887550
1945.000000	20.854368
1946.000000	20.871027
1947.000000	20.816788
1948.000000	20.772345
1949.000000	20.733901
1950.000000	20.694417
1951.000000	20.754694
1952.000000	20.807610
1953.000000	20.816509
1954.000000	20.778815
1955.000000	20.820772
1956.000000	20.787930
1957.000000	20.755672
1958.000000	20.747554
1959.000000	20.727833
1960.000000	20.726011
1961.000000	20.747173
1962.000000	20.754082
1963.000000	20.807833
1964.000000	20.798669
1965.000000	20.796924
1966.000000	20.784039
1967.000000	20.792273
1968.000000	20.754971
1969.000000	20.772962
1970.000000	20.793983
1971.000000	20.867436
1972.000000	20.836382
1973.000000	20.837542
1974.000000	20.817328
1975.000000	20.804650
1976.000000	20.826162
1977.000000	20.835920
1978.000000	20.839192
1979.000000	20.859041
1980.000000	20.881732
1981.000000	20.876635
1982.000000	20.881318
1983.000000	20.915800
1984.000000	20.995904
1985.000000	21.038883
1986.000000	21.054535
1987.000000	21.038146
1988.000000	21.093793
1989.000000	21.173603
1990.000000	21.179750
1991.000000	21.223989
1992.000000	21.259096
1993.000000	21.265144
1994.000000	21.279920
1995.000000	21.310696
1996.000000	21.309882
1997.000000	21.300352
1998.000000	21.323460
1999.000000	21.313904
2000.000000	21.339538
