PE UV       SUBTECH     SPECTRUM    ASCII       PEDS        4.00        
   -1
CICIMAUCR0098-5.Sample.ASC
24/04/25
11:55:07.00
24/04/25
11:55:07.00
Vinicio Soto Monge
C. cupreomarginata
250,000000
1
Lambda 1050
1050L1511233
PerkinElmer UV WinLab 6.3.2.0749 / 2.02.05 Lambda 900 UV/VIS/NIR, Aug  7 2015 09:38:08

0
0
3350/servo 860,8/2
0
0
UV/VIS
1
1
1
DoubleDePol,CommonBeamDepol,RBeamAtt,SBeamAtt,60mm sphere, WB InGaAs Detector
0
0
0
0
Program
Program
3350/servo 860,8/2
3350/0,2 860,8/0,2
3350/0,2 860,8/0,2
0
15.00
 
 
 
0
 
860,8
319,2
860,8
Front
100
on
S:100 R:100
0
0
0
0
 
0
 
 
 
0
 
 
0
0
0
0
0
 
 
 
 
0
0


0
0
#HDR
-1
-1
#GR
nm
%R
1.0
0.0
2500,000000
-1,000000
2251
8
65,296400
4,773000
#DATA
2482.000000	6.895792
2481.000000	6.976011
2480.000000	6.931207
2479.000000	6.896813
2478.000000	6.942434
2477.000000	6.966928
2476.000000	6.966826
2475.000000	6.917225
2474.000000	6.936412
2473.000000	6.951211
2472.000000	6.962540
2471.000000	6.970398
2470.000000	6.970296
2469.000000	6.995607
2468.000000	6.992851
2467.000000	6.993668
2466.000000	7.061232
2465.000000	7.055822
2464.000000	7.066335
2463.000000	7.068682
2462.000000	7.085828
2461.000000	7.094197
2460.000000	7.137675
2459.000000	7.181867
2458.000000	7.228202
2457.000000	7.227488
2456.000000	7.255758
2455.000000	7.289642
2454.000000	7.335977
2453.000000	7.388028
2452.000000	7.424668
2451.000000	7.459062
2450.000000	7.502233
2449.000000	7.574900
2448.000000	7.625318
2447.000000	7.644607
2446.000000	7.707578
2445.000000	7.751260
2444.000000	7.791676
2443.000000	7.820253
2442.000000	7.889755
2441.000000	7.920986
2440.000000	7.957625
2439.000000	8.008553
2438.000000	8.067442
2437.000000	8.111736
2436.000000	8.136639
2435.000000	8.191649
2434.000000	8.229820
2433.000000	8.266255
2432.000000	8.311672
2431.000000	8.348005
2430.000000	8.378827
2429.000000	8.404342
2428.000000	8.424040
2427.000000	8.468334
2426.000000	8.491808
2425.000000	8.500177
2424.000000	8.527223
2423.000000	8.580396
2422.000000	8.611627
2421.000000	8.624078
2420.000000	8.638570
2419.000000	8.687253
2418.000000	8.712054
2417.000000	8.693887
2416.000000	8.714605
2415.000000	8.741651
2414.000000	8.774106
2413.000000	8.791456
2412.000000	8.805745
2411.000000	8.809725
2410.000000	8.835648
2409.000000	8.856265
2408.000000	8.843711
2407.000000	8.834424
2406.000000	8.856060
2405.000000	8.882392
2404.000000	8.897803
2403.000000	8.896170
2402.000000	8.909744
2401.000000	8.924237
2400.000000	8.936994
2399.000000	8.957202
2398.000000	8.986595
2397.000000	8.988432
2396.000000	8.995883
2395.000000	9.015682
2394.000000	9.019357
2393.000000	9.013029
2392.000000	9.032522
2391.000000	9.044667
2390.000000	9.070285
2389.000000	9.079980
2388.000000	9.063549
2387.000000	9.067019
2386.000000	9.073346
2385.000000	9.070897
2384.000000	9.073857
2383.000000	9.078653
2382.000000	9.079062
2381.000000	9.070897
2380.000000	9.071305
2379.000000	9.050995
2378.000000	9.027113
2377.000000	9.019663
2376.000000	9.016091
2375.000000	8.997618
2374.000000	8.980166
2373.000000	8.968735
2372.000000	8.946894
2371.000000	8.922910
2370.000000	8.909336
2369.000000	8.895456
2368.000000	8.860449
2367.000000	8.823707
2366.000000	8.799111
2365.000000	8.774208
2364.000000	8.733282
2363.000000	8.698276
2362.000000	8.665616
2361.000000	8.615199
2360.000000	8.587642
2359.000000	8.560596
2358.000000	8.520793
2357.000000	8.480377
2356.000000	8.453535
2355.000000	8.428429
2354.000000	8.405465
2353.000000	8.395565
2352.000000	8.386788
2351.000000	8.370969
2350.000000	8.379440
2349.000000	8.393830
2348.000000	8.396892
2347.000000	8.414855
2346.000000	8.430878
2345.000000	8.442309
2344.000000	8.450270
2343.000000	8.469865
2342.000000	8.508546
2341.000000	8.522732
2340.000000	8.534775
2339.000000	8.545798
2338.000000	8.544165
2337.000000	8.554371
2336.000000	8.548553
2335.000000	8.543450
2334.000000	8.534673
2333.000000	8.512118
2332.000000	8.484766
2331.000000	8.452719
2330.000000	8.442003
2329.000000	8.412099
2328.000000	8.378011
2327.000000	8.328716
2326.000000	8.295036
2325.000000	8.257478
2324.000000	8.202161
2323.000000	8.137659
2322.000000	8.081322
2321.000000	8.043764
2320.000000	7.992428
2319.000000	7.932315
2318.000000	7.859342
2317.000000	7.800351
2316.000000	7.739013
2315.000000	7.685635
2314.000000	7.611131
2313.000000	7.572349
2312.000000	7.511010
2311.000000	7.468758
2310.000000	7.441712
2309.000000	7.379761
2308.000000	7.366493
2307.000000	7.342815
2306.000000	7.332507
2305.000000	7.350980
2304.000000	7.361288
2303.000000	7.380884
2302.000000	7.402316
2301.000000	7.433649
2300.000000	7.473554
2299.000000	7.504989
2298.000000	7.564490
2297.000000	7.628073
2296.000000	7.671959
2295.000000	7.726459
2294.000000	7.745545
2293.000000	7.784634
2292.000000	7.810761
2291.000000	7.846074
2290.000000	7.869650
2289.000000	7.892409
2288.000000	7.894348
2287.000000	7.893838
2286.000000	7.865261
2285.000000	7.882101
2284.000000	7.882713
2283.000000	7.849646
2282.000000	7.831071
2281.000000	7.794431
2280.000000	7.782286
2279.000000	7.753505
2278.000000	7.733501
2277.000000	7.703700
2276.000000	7.678491
2275.000000	7.664407
2274.000000	7.635013
2273.000000	7.630217
2272.000000	7.627869
2271.000000	7.641647
2270.000000	7.659100
2269.000000	7.658589
2268.000000	7.694310
2267.000000	7.751668
2266.000000	7.800861
2265.000000	7.858117
2264.000000	7.949869
2263.000000	8.036722
2262.000000	8.127351
2261.000000	8.268807
2260.000000	8.380869
2259.000000	8.525080
2258.000000	8.648164
2257.000000	8.790844
2256.000000	8.947506
2255.000000	9.104577
2254.000000	9.266342
2253.000000	9.421780
2252.000000	9.540169
2251.000000	9.678563
2250.000000	9.827162
2249.000000	9.956983
2248.000000	10.077516
2247.000000	10.177126
2246.000000	10.283881
2245.000000	10.382369
2244.000000	10.476469
2243.000000	10.583632
2242.000000	10.650481
2241.000000	10.721821
2240.000000	10.811838
2239.000000	10.867053
2238.000000	10.908489
2237.000000	10.962683
2236.000000	11.040248
2235.000000	11.090258
2234.000000	11.096279
2233.000000	11.134450
2232.000000	11.174458
2231.000000	11.197421
2230.000000	11.215588
2229.000000	11.250390
2228.000000	11.250798
2227.000000	11.279579
2226.000000	11.270292
2225.000000	11.286009
2224.000000	11.250798
2223.000000	11.254983
2222.000000	11.235796
2221.000000	11.221813
2220.000000	11.223038
2219.000000	11.224977
2218.000000	11.207627
2217.000000	11.203136
2216.000000	11.169457
2215.000000	11.146391
2214.000000	11.119447
2213.000000	11.124958
2212.000000	11.098729
2211.000000	11.080256
2210.000000	11.062396
2209.000000	11.060456
2208.000000	11.039942
2207.000000	11.028614
2206.000000	11.022388
2205.000000	10.997996
2204.000000	10.993913
2203.000000	10.983095
2202.000000	10.972889
2201.000000	10.961662
2200.000000	10.927982
2199.000000	10.937882
2198.000000	10.945639
2197.000000	10.915123
2196.000000	10.913898
2195.000000	10.909816
2194.000000	10.906550
2193.000000	10.868992
2192.000000	10.883178
2191.000000	10.884811
2190.000000	10.875115
2189.000000	10.872564
2188.000000	10.854193
2187.000000	10.857357
2186.000000	10.846845
2185.000000	10.829086
2184.000000	10.822146
2183.000000	10.811838
2182.000000	10.781118
2181.000000	10.791222
2180.000000	10.780710
2179.000000	10.771728
2178.000000	10.771014
2177.000000	10.776525
2176.000000	10.747744
2175.000000	10.770810
2174.000000	10.758665
2173.000000	10.745601
2172.000000	10.762339
2171.000000	10.794386
2170.000000	10.789691
2169.000000	10.793467
2168.000000	10.797448
2167.000000	10.806939
2166.000000	10.824596
2165.000000	10.853274
2164.000000	10.859398
2163.000000	10.880524
2162.000000	10.894303
2161.000000	10.899814
2160.000000	10.925023
2159.000000	10.952171
2158.000000	10.963499
2157.000000	10.978196
2156.000000	10.998608
2155.000000	11.012182
2154.000000	11.038309
2153.000000	11.073010
2152.000000	11.099750
2151.000000	11.116691
2150.000000	11.146595
2149.000000	11.165680
2148.000000	11.192930
2147.000000	11.220997
2146.000000	11.231509
2145.000000	11.265189
2144.000000	11.281723
2143.000000	11.305911
2142.000000	11.323771
2141.000000	11.325200
2140.000000	11.342244
2139.000000	11.379802
2138.000000	11.378476
2137.000000	11.378782
2136.000000	11.375822
2135.000000	11.391846
2134.000000	11.412258
2133.000000	11.405930
2132.000000	11.394091
2131.000000	11.399704
2130.000000	11.394295
2129.000000	11.387151
2128.000000	11.378374
2127.000000	11.368066
2126.000000	11.365310
2125.000000	11.364085
2124.000000	11.349797
2123.000000	11.332344
2122.000000	11.316729
2121.000000	11.285907
2120.000000	11.266005
2119.000000	11.255391
2118.000000	11.239266
2117.000000	11.211505
2116.000000	11.172722
2115.000000	11.141084
2114.000000	11.120876
2113.000000	11.111180
2112.000000	11.090768
2111.000000	11.060150
2110.000000	11.026674
2109.000000	10.998302
2108.000000	10.974522
2107.000000	10.947884
2106.000000	10.920634
2105.000000	10.889302
2104.000000	10.858888
2103.000000	10.838578
2102.000000	10.827555
2101.000000	10.801632
2100.000000	10.767034
2099.000000	10.746622
2098.000000	10.720596
2097.000000	10.695898
2096.000000	10.683344
2095.000000	10.663545
2094.000000	10.642929
2093.000000	10.614148
2092.000000	10.580264
2091.000000	10.568629
2090.000000	10.566792
2089.000000	10.553626
2088.000000	10.525151
2087.000000	10.508720
2086.000000	10.491778
2085.000000	10.473509
2084.000000	10.432174
2083.000000	10.404516
2082.000000	10.406149
2081.000000	10.392473
2080.000000	10.372367
2079.000000	10.350016
2078.000000	10.309294
2077.000000	10.286331
2076.000000	10.272348
2075.000000	10.248568
2074.000000	10.220400
2073.000000	10.178147
2072.000000	10.161001
2071.000000	10.119871
2070.000000	10.086803
2069.000000	10.066697
2068.000000	10.036385
2067.000000	10.015667
2066.000000	9.985253
2065.000000	9.964739
2064.000000	9.954329
2063.000000	9.921262
2062.000000	9.897788
2061.000000	9.882275
2060.000000	9.869415
2059.000000	9.855535
2058.000000	9.851759
2057.000000	9.849513
2056.000000	9.852983
2055.000000	9.867170
2054.000000	9.890031
2053.000000	9.899523
2052.000000	9.933917
2051.000000	9.976170
2050.000000	10.012503
2049.000000	10.049653
2048.000000	10.066391
2047.000000	10.125280
2046.000000	10.202641
2045.000000	10.247650
2044.000000	10.319704
2043.000000	10.366754
2042.000000	10.435849
2041.000000	10.480755
2040.000000	10.543726
2039.000000	10.578427
2038.000000	10.628844
2037.000000	10.686100
2036.000000	10.735701
2035.000000	10.776321
2034.000000	10.817043
2033.000000	10.856132
2032.000000	10.888383
2031.000000	10.923492
2030.000000	10.955232
2029.000000	10.970133
2028.000000	10.993709
2027.000000	11.038105
2026.000000	11.054639
2025.000000	11.069336
2024.000000	11.085053
2023.000000	11.103832
2022.000000	11.116181
2021.000000	11.144758
2020.000000	11.141084
2019.000000	11.135981
2018.000000	11.161190
2017.000000	11.159863
2016.000000	11.175784
2015.000000	11.176295
2014.000000	11.181193
2013.000000	11.189460
2012.000000	11.172110
2011.000000	11.169457
2010.000000	11.156291
2009.000000	11.131490
2008.000000	11.142309
2007.000000	11.112609
2006.000000	11.082910
2005.000000	11.086176
2004.000000	11.070764
2003.000000	11.044229
2002.000000	11.014631
2001.000000	10.976563
2000.000000	10.944822
1999.000000	10.910836
1998.000000	10.874299
1997.000000	10.842966
1996.000000	10.815206
1995.000000	10.793263
1994.000000	10.740906
1993.000000	10.679364
1992.000000	10.665280
1991.000000	10.629661
1990.000000	10.579447
1989.000000	10.539542
1988.000000	10.484327
1987.000000	10.425541
1986.000000	10.411048
1985.000000	10.358793
1984.000000	10.342974
1983.000000	10.281534
1982.000000	10.235811
1981.000000	10.170288
1980.000000	10.139772
1979.000000	10.099152
1978.000000	10.037916
1977.000000	10.005053
1976.000000	9.958309
1975.000000	9.922997
1974.000000	9.885949
1973.000000	9.852371
1972.000000	9.820120
1971.000000	9.768682
1970.000000	9.718366
1969.000000	9.690198
1968.000000	9.666213
1967.000000	9.602732
1966.000000	9.583953
1965.000000	9.543027
1964.000000	9.497610
1963.000000	9.475157
1962.000000	9.434537
1961.000000	9.389222
1960.000000	9.367586
1959.000000	9.320536
1958.000000	9.295531
1957.000000	9.261647
1956.000000	9.233683
1955.000000	9.193369
1954.000000	9.177652
1953.000000	9.127438
1952.000000	9.087329
1951.000000	9.066815
1950.000000	9.026501
1949.000000	9.040381
1948.000000	9.012927
1947.000000	9.000680
1946.000000	8.963428
1945.000000	8.951385
1944.000000	8.917807
1943.000000	8.913214
1942.000000	8.918215
1941.000000	8.914031
1940.000000	8.887393
1939.000000	8.903722
1938.000000	8.908213
1937.000000	8.921991
1936.000000	8.911581
1935.000000	8.920256
1934.000000	8.963326
1933.000000	8.981696
1932.000000	9.003027
1931.000000	9.031910
1930.000000	9.082940
1929.000000	9.135399
1928.000000	9.159383
1927.000000	9.226334
1926.000000	9.263076
1925.000000	9.340846
1924.000000	9.401061
1923.000000	9.478219
1922.000000	9.562827
1921.000000	9.618143
1920.000000	9.718060
1919.000000	9.783889
1918.000000	9.890235
1917.000000	9.987805
1916.000000	10.086089
1915.000000	10.182944
1914.000000	10.302354
1913.000000	10.457894
1912.000000	10.575875
1911.000000	10.685998
1910.000000	10.797448
1909.000000	10.915123
1908.000000	11.061783
1907.000000	11.222018
1906.000000	11.394499
1905.000000	11.573615
1904.000000	11.738442
1903.000000	11.909903
1902.000000	12.084731
1901.000000	12.272828
1900.000000	12.485419
1899.000000	12.688213
1898.000000	12.904376
1897.000000	13.088901
1896.000000	13.260974
1895.000000	13.481118
1894.000000	13.697893
1893.000000	13.966413
1892.000000	14.262286
1891.000000	14.550707
1890.000000	14.808613
1889.000000	15.084176
1888.000000	15.403828
1887.000000	15.722868
1886.000000	16.079466
1885.000000	16.496789
1884.000000	16.968205
1883.000000	17.419515
1882.000000	17.857454
1881.000000	18.318358
1880.000000	18.762421
1879.000000	19.218936
1878.000000	19.670144
1877.000000	20.103389
1876.000000	20.533776
1875.000000	20.945691
1874.000000	21.351992
1873.000000	21.724205
1872.000000	22.068454
1871.000000	22.391168
1870.000000	22.677753
1869.000000	22.932393
1868.000000	23.133553
1867.000000	23.287562
1866.000000	23.415749
1865.000000	23.535568
1864.000000	23.650079
1863.000000	23.754282
1862.000000	23.875020
1861.000000	23.972895
1860.000000	24.062504
1859.000000	24.140172
1858.000000	24.184058
1857.000000	24.215798
1856.000000	24.236312
1855.000000	24.251009
1854.000000	24.239782
1853.000000	24.225188
1852.000000	24.217635
1851.000000	24.184262
1850.000000	24.167932
1849.000000	24.165687
1848.000000	24.141090
1847.000000	24.070363
1846.000000	24.000553
1845.000000	23.947074
1844.000000	23.906148
1843.000000	23.913088
1842.000000	23.900228
1841.000000	23.870733
1840.000000	23.847463
1839.000000	23.814294
1838.000000	23.771327
1837.000000	23.708764
1836.000000	23.642935
1835.000000	23.562920
1834.000000	23.476271
1833.000000	23.403604
1832.000000	23.330223
1831.000000	23.255617
1830.000000	23.178459
1829.000000	23.088953
1828.000000	23.019042
1827.000000	22.943721
1826.000000	22.857378
1825.000000	22.782466
1824.000000	22.718985
1823.000000	22.690918
1822.000000	22.686224
1821.000000	22.663770
1820.000000	22.624681
1819.000000	22.578346
1818.000000	22.540584
1817.000000	22.520784
1816.000000	22.513334
1815.000000	22.504455
1814.000000	22.476286
1813.000000	22.442402
1812.000000	22.421071
1811.000000	22.388208
1810.000000	22.338403
1809.000000	22.285434
1808.000000	22.249406
1807.000000	22.200316
1806.000000	22.147142
1805.000000	22.102848
1804.000000	22.052124
1803.000000	21.988031
1802.000000	21.933530
1801.000000	21.900259
1800.000000	21.839839
1799.000000	21.767172
1798.000000	21.729206
1797.000000	21.682667
1796.000000	21.625003
1795.000000	21.575197
1794.000000	21.524576
1793.000000	21.473444
1792.000000	21.419250
1791.000000	21.357401
1790.000000	21.293716
1789.000000	21.244931
1788.000000	21.192064
1787.000000	21.107660
1786.000000	21.038055
1785.000000	20.969777
1784.000000	20.897416
1783.000000	20.823729
1782.000000	20.750042
1781.000000	20.667985
1780.000000	20.592563
1779.000000	20.516528
1778.000000	20.439779
1777.000000	20.338229
1776.000000	20.240762
1775.000000	20.132680
1774.000000	20.024496
1773.000000	19.925600
1772.000000	19.801597
1771.000000	19.681677
1770.000000	19.567471
1769.000000	19.460410
1768.000000	19.355084
1767.000000	19.275784
1766.000000	19.201892
1765.000000	19.140248
1764.000000	19.099832
1763.000000	19.119019
1762.000000	19.129634
1761.000000	19.166579
1760.000000	19.220977
1759.000000	19.286296
1758.000000	19.356615
1757.000000	19.416933
1756.000000	19.486334
1755.000000	19.527974
1754.000000	19.543691
1753.000000	19.539201
1752.000000	19.540017
1751.000000	19.531240
1750.000000	19.491232
1749.000000	19.434181
1748.000000	19.367842
1747.000000	19.318649
1746.000000	19.231081
1745.000000	19.115141
1744.000000	18.983586
1743.000000	18.818758
1742.000000	18.628416
1741.000000	18.454608
1740.000000	18.249671
1739.000000	18.062391
1738.000000	17.900422
1737.000000	17.759069
1736.000000	17.620063
1735.000000	17.550049
1734.000000	17.537802
1733.000000	17.544640
1732.000000	17.605876
1731.000000	17.682217
1730.000000	17.787849
1729.000000	17.903586
1728.000000	18.031977
1727.000000	18.154041
1726.000000	18.227524
1725.000000	18.306519
1724.000000	18.380410
1723.000000	18.422051
1722.000000	18.432869
1721.000000	18.474408
1720.000000	18.504924
1719.000000	18.532582
1718.000000	18.571875
1717.000000	18.608311
1716.000000	18.664342
1715.000000	18.732722
1714.000000	18.793448
1713.000000	18.824372
1712.000000	18.885302
1711.000000	18.908367
1710.000000	18.911735
1709.000000	18.898672
1708.000000	18.897855
1707.000000	18.868564
1706.000000	18.826821
1705.000000	18.787426
1704.000000	18.716086
1703.000000	18.632295
1702.000000	18.529010
1701.000000	18.379186
1700.000000	18.246712
1699.000000	18.109339
1698.000000	17.959617
1697.000000	17.872457
1696.000000	17.823060
1695.000000	17.835716
1694.000000	17.870314
1693.000000	17.988500
1692.000000	18.132915
1691.000000	18.292128
1690.000000	18.427970
1689.000000	18.539216
1688.000000	18.624334
1687.000000	18.649237
1686.000000	18.684549
1685.000000	18.737417
1684.000000	18.837333
1683.000000	19.044311
1682.000000	19.363147
1681.000000	19.753221
1680.000000	20.246273
1679.000000	20.775557
1678.000000	21.306167
1677.000000	21.771663
1676.000000	22.214706
1675.000000	22.597125
1674.000000	22.945967
1673.000000	23.218059
1672.000000	23.472699
1671.000000	23.709886
1670.000000	23.887981
1669.000000	24.053012
1668.000000	24.203041
1667.000000	24.311122
1666.000000	24.428491
1665.000000	24.516569
1664.000000	24.571171
1663.000000	24.648125
1662.000000	24.714668
1661.000000	24.777537
1660.000000	24.769270
1659.000000	24.798255
1658.000000	24.828465
1657.000000	24.834078
1656.000000	24.815810
1655.000000	24.815707
1654.000000	24.792030
1653.000000	24.794989
1652.000000	24.769372
1651.000000	24.725486
1650.000000	24.696705
1649.000000	24.655881
1648.000000	24.608321
1647.000000	24.551168
1646.000000	24.505445
1645.000000	24.425940
1644.000000	24.342353
1643.000000	24.285097
1642.000000	24.233659
1641.000000	24.183037
1640.000000	24.105880
1639.000000	24.025966
1638.000000	23.941563
1637.000000	23.868998
1636.000000	23.771735
1635.000000	23.689883
1634.000000	23.614154
1633.000000	23.520769
1632.000000	23.458614
1631.000000	23.366250
1630.000000	23.276335
1629.000000	23.183869
1628.000000	23.105180
1627.000000	23.014245
1626.000000	22.912899
1625.000000	22.806961
1624.000000	22.721843
1623.000000	22.640501
1622.000000	22.549055
1621.000000	22.459650
1620.000000	22.379737
1619.000000	22.304417
1618.000000	22.216645
1617.000000	22.138671
1616.000000	22.051002
1615.000000	21.970884
1614.000000	21.898218
1613.000000	21.809936
1612.000000	21.729614
1611.000000	21.671746
1610.000000	21.570094
1609.000000	21.495591
1608.000000	21.429047
1607.000000	21.359340
1606.000000	21.283612
1605.000000	21.200637
1604.000000	21.122357
1603.000000	21.052344
1602.000000	20.999579
1601.000000	20.922625
1600.000000	20.844549
1599.000000	20.779537
1598.000000	20.721363
1597.000000	20.659514
1596.000000	20.578989
1595.000000	20.501831
1594.000000	20.461722
1593.000000	20.413958
1592.000000	20.369153
1591.000000	20.324043
1590.000000	20.266481
1589.000000	20.224942
1588.000000	20.186568
1587.000000	20.144009
1586.000000	20.096041
1585.000000	20.057564
1584.000000	20.020006
1583.000000	20.006126
1582.000000	19.974487
1581.000000	19.948360
1580.000000	19.925804
1579.000000	19.912843
1578.000000	19.912434
1577.000000	19.907331
1576.000000	19.892635
1575.000000	19.874978
1574.000000	19.882735
1573.000000	19.890491
1572.000000	19.893451
1571.000000	19.895799
1570.000000	19.909679
1569.000000	19.929683
1568.000000	19.940195
1567.000000	19.950299
1566.000000	19.975814
1565.000000	19.999798
1564.000000	20.000206
1563.000000	20.018373
1562.000000	20.034600
1561.000000	20.039295
1560.000000	20.057462
1559.000000	20.052563
1558.000000	20.044500
1557.000000	20.058789
1556.000000	20.059197
1555.000000	20.034804
1554.000000	20.025721
1553.000000	20.034804
1552.000000	20.016842
1551.000000	19.994899
1550.000000	19.973773
1549.000000	19.960505
1548.000000	19.949176
1547.000000	19.923457
1546.000000	19.920293
1545.000000	19.909781
1544.000000	19.900595
1543.000000	19.892022
1542.000000	19.883551
1541.000000	19.879265
1540.000000	19.863139
1539.000000	19.858343
1538.000000	19.864670
1537.000000	19.838849
1536.000000	19.817416
1535.000000	19.811701
1534.000000	19.792412
1533.000000	19.781287
1532.000000	19.767407
1531.000000	19.740565
1530.000000	19.710049
1529.000000	19.681166
1528.000000	19.662489
1527.000000	19.642792
1526.000000	19.618399
1525.000000	19.578902
1524.000000	19.539405
1523.000000	19.509093
1522.000000	19.468269
1521.000000	19.438467
1520.000000	19.405502
1519.000000	19.364984
1518.000000	19.331508
1517.000000	19.299870
1516.000000	19.258229
1515.000000	19.220569
1514.000000	19.177704
1513.000000	19.139840
1512.000000	19.090136
1511.000000	19.048394
1510.000000	19.000630
1509.000000	18.964500
1508.000000	18.939598
1507.000000	18.885812
1506.000000	18.838150
1505.000000	18.798857
1504.000000	18.753644
1503.000000	18.710473
1502.000000	18.666689
1501.000000	18.633724
1500.000000	18.593614
1499.000000	18.563200
1498.000000	18.523192
1497.000000	18.510333
1496.000000	18.462875
1495.000000	18.414396
1494.000000	18.395005
1493.000000	18.363060
1492.000000	18.352140
1491.000000	18.332646
1490.000000	18.301212
1489.000000	18.288862
1488.000000	18.265593
1487.000000	18.247120
1486.000000	18.226198
1485.000000	18.213236
1484.000000	18.174147
1483.000000	18.170779
1482.000000	18.174963
1481.000000	18.171595
1480.000000	18.154041
1479.000000	18.152612
1478.000000	18.130975
1477.000000	18.125975
1476.000000	18.136487
1475.000000	18.131180
1474.000000	18.154041
1473.000000	18.141896
1472.000000	18.154347
1471.000000	18.147713
1470.000000	18.148632
1469.000000	18.149142
1468.000000	18.154653
1467.000000	18.171595
1466.000000	18.184863
1465.000000	18.204255
1464.000000	18.227626
1463.000000	18.243854
1462.000000	18.284882
1461.000000	18.322134
1460.000000	18.369082
1459.000000	18.408375
1458.000000	18.455527
1457.000000	18.502474
1456.000000	18.561465
1455.000000	18.642194
1454.000000	18.706492
1453.000000	18.786201
1452.000000	18.869380
1451.000000	18.964500
1450.000000	19.042882
1449.000000	19.106364
1448.000000	19.205974
1447.000000	19.309974
1446.000000	19.430507
1445.000000	19.499703
1444.000000	19.608908
1443.000000	19.756078
1442.000000	19.836808
1441.000000	19.953667
1440.000000	20.075016
1439.000000	20.175647
1438.000000	20.317307
1437.000000	20.417734
1436.000000	20.539492
1435.000000	20.688193
1434.000000	20.809645
1433.000000	20.960694
1432.000000	21.080818
1431.000000	21.231663
1430.000000	21.403226
1429.000000	21.585199
1428.000000	21.757171
1427.000000	21.953228
1426.000000	22.162757
1425.000000	22.378717
1424.000000	22.620089
1423.000000	22.839518
1422.000000	23.055783
1421.000000	23.334305
1420.000000	23.590986
1419.000000	23.855934
1418.000000	24.102818
1417.000000	24.328677
1416.000000	24.628733
1415.000000	24.928790
1414.000000	25.229765
1413.000000	25.488488
1412.000000	25.769969
1411.000000	26.100236
1410.000000	26.473367
1409.000000	26.866401
1408.000000	27.285766
1407.000000	27.687985
1406.000000	28.128170
1405.000000	28.572335
1404.000000	28.980984
1403.000000	29.416576
1402.000000	29.858190
1401.000000	30.347160
1400.000000	30.792142
1399.000000	31.093526
1398.000000	31.377457
1397.000000	31.723441
1396.000000	32.095348
1395.000000	32.437759
1394.000000	32.674233
1393.000000	32.967043
1392.000000	33.315578
1391.000000	33.604714
1390.000000	33.919468
1389.000000	34.327606
1388.000000	34.777487
1387.000000	35.210528
1386.000000	35.689292
1385.000000	36.214697
1384.000000	36.751941
1383.000000	37.273673
1382.000000	37.724166
1381.000000	38.068619
1380.000000	38.286211
1379.000000	38.474206
1378.000000	38.615661
1377.000000	38.782427
1376.000000	38.980219
1375.000000	39.252006
1374.000000	39.544306
1373.000000	39.897331
1372.000000	40.305470
1371.000000	40.689624
1370.000000	41.021319
1369.000000	41.351075
1368.000000	41.671748
1367.000000	41.916692
1366.000000	42.131019
1365.000000	42.355959
1364.000000	42.547526
1363.000000	42.724600
1362.000000	42.927802
1361.000000	43.039354
1360.000000	43.069972
1359.000000	43.198873
1358.000000	43.323081
1357.000000	43.529344
1356.000000	43.844710
1355.000000	44.260196
1354.000000	44.707526
1353.000000	45.154651
1352.000000	45.702408
1351.000000	46.194337
1350.000000	46.656669
1349.000000	47.058072
1348.000000	47.443859
1347.000000	47.810765
1346.000000	48.103167
1345.000000	48.426902
1344.000000	48.735225
1343.000000	49.024872
1342.000000	49.302373
1341.000000	49.582120
1340.000000	49.842475
1339.000000	50.089052
1338.000000	50.317463
1337.000000	50.551895
1336.000000	50.780714
1335.000000	51.004021
1334.000000	51.210489
1333.000000	51.413282
1332.000000	51.601889
1331.000000	51.789782
1330.000000	51.977674
1329.000000	52.140460
1328.000000	52.287019
1327.000000	52.436332
1326.000000	52.587483
1325.000000	52.724448
1324.000000	52.837531
1323.000000	52.956635
1322.000000	53.083189
1321.000000	53.204845
1320.000000	53.314662
1319.000000	53.419477
1318.000000	53.520313
1317.000000	53.605329
1316.000000	53.696775
1315.000000	53.797508
1314.000000	53.891403
1313.000000	53.955599
1312.000000	54.028470
1311.000000	54.091645
1310.000000	54.158801
1309.000000	54.228099
1308.000000	54.280762
1307.000000	54.323219
1306.000000	54.355470
1305.000000	54.398336
1304.000000	54.443854
1303.000000	54.470492
1302.000000	54.491210
1301.000000	54.507846
1300.000000	54.526115
1299.000000	54.526319
1298.000000	54.533157
1297.000000	54.555712
1296.000000	54.564898
1295.000000	54.566633
1294.000000	54.564898
1293.000000	54.563061
1292.000000	54.554590
1291.000000	54.545302
1290.000000	54.521930
1289.000000	54.489067
1288.000000	54.461103
1287.000000	54.441915
1286.000000	54.407827
1285.000000	54.349245
1284.000000	54.307094
1283.000000	54.262494
1282.000000	54.214219
1281.000000	54.169007
1280.000000	54.112159
1279.000000	54.079704
1278.000000	54.037859
1277.000000	53.996729
1276.000000	53.969173
1275.000000	53.940596
1274.000000	53.918449
1273.000000	53.903140
1272.000000	53.872318
1271.000000	53.851600
1270.000000	53.835576
1269.000000	53.819655
1268.000000	53.796896
1267.000000	53.775259
1266.000000	53.739130
1265.000000	53.709022
1264.000000	53.683609
1263.000000	53.665034
1262.000000	53.624006
1261.000000	53.585733
1260.000000	53.556850
1259.000000	53.515006
1258.000000	53.478978
1257.000000	53.419375
1256.000000	53.355588
1255.000000	53.309865
1254.000000	53.251895
1253.000000	53.185045
1252.000000	53.105643
1251.000000	53.039508
1250.000000	52.957962
1249.000000	52.860188
1248.000000	52.770579
1247.000000	52.663212
1246.000000	52.534514
1245.000000	52.434597
1244.000000	52.317841
1243.000000	52.186489
1242.000000	52.065752
1241.000000	51.927461
1240.000000	51.779678
1239.000000	51.652103
1238.000000	51.516159
1237.000000	51.358272
1236.000000	51.201099
1235.000000	51.052091
1234.000000	50.898797
1233.000000	50.742339
1232.000000	50.559141
1231.000000	50.397478
1230.000000	50.222649
1229.000000	50.043738
1228.000000	49.873195
1227.000000	49.698570
1226.000000	49.475671
1225.000000	49.291249
1224.000000	49.109275
1223.000000	48.927404
1222.000000	48.747677
1221.000000	48.564683
1220.000000	48.370054
1219.000000	48.206146
1218.000000	48.040502
1217.000000	47.886085
1216.000000	47.734220
1215.000000	47.549593
1214.000000	47.417119
1213.000000	47.267703
1212.000000	47.115838
1211.000000	46.992957
1210.000000	46.858238
1209.000000	46.726172
1208.000000	46.626358
1207.000000	46.521848
1206.000000	46.439486
1205.000000	46.364675
1204.000000	46.310073
1203.000000	46.258125
1202.000000	46.196276
1201.000000	46.135857
1200.000000	46.053596
1199.000000	45.958782
1198.000000	45.819266
1197.000000	45.654031
1196.000000	45.455116
1195.000000	45.182003
1194.000000	44.844490
1193.000000	44.435536
1192.000000	44.004842
1191.000000	43.548021
1190.000000	43.143863
1189.000000	42.797879
1188.000000	42.534156
1187.000000	42.420665
1186.000000	42.453324
1185.000000	42.579471
1184.000000	42.840132
1183.000000	43.254904
1182.000000	43.715298
1181.000000	44.243458
1180.000000	44.766108
1179.000000	45.242525
1178.000000	45.667707
1177.000000	46.060740
1176.000000	46.394681
1175.000000	46.723008
1174.000000	47.035619
1173.000000	47.363640
1172.000000	47.692579
1171.000000	48.052035
1170.000000	48.398223
1169.000000	48.758189
1168.000000	49.101417
1167.000000	49.448727
1166.000000	49.808489
1165.000000	50.170088
1164.000000	50.536382
1163.000000	50.922475
1162.000000	51.247843
1161.000000	51.596480
1160.000000	51.921541
1159.000000	52.257319
1158.000000	52.520022
1157.000000	52.801606
1156.000000	53.019708
1155.000000	53.210560
1154.000000	53.340891
1153.000000	53.421927
1152.000000	53.496022
1151.000000	53.531539
1150.000000	53.548175
1149.000000	53.598287
1148.000000	53.648500
1147.000000	53.735149
1146.000000	53.887423
1145.000000	54.073580
1144.000000	54.319035
1143.000000	54.578676
1142.000000	54.881896
1141.000000	55.182872
1140.000000	55.483541
1139.000000	55.803907
1138.000000	56.123764
1137.000000	56.472401
1136.000000	56.809097
1135.000000	57.159674
1134.000000	57.421458
1133.000000	57.664565
1132.000000	57.920021
1131.000000	58.155780
1130.000000	58.348367
1129.000000	58.490741
1128.000000	58.609335
1127.000000	58.720989
1126.000000	58.807944
1125.000000	58.868670
1124.000000	58.918781
1123.000000	58.979711
1122.000000	58.999919
1121.000000	59.019719
1120.000000	59.032374
1119.000000	59.039723
1118.000000	59.036457
1117.000000	59.036865
1116.000000	59.031966
1115.000000	59.020535
1114.000000	59.001654
1113.000000	58.963484
1112.000000	58.982161
1111.000000	58.967464
1110.000000	58.942970
1109.000000	58.918067
1108.000000	58.907146
1107.000000	58.893062
1106.000000	58.890511
1105.000000	58.879182
1104.000000	58.857137
1103.000000	58.862954
1102.000000	58.838970
1101.000000	58.820293
1100.000000	58.813353
1099.000000	58.776101
1098.000000	58.764671
1097.000000	58.748647
1096.000000	58.719152
1095.000000	58.690983
1094.000000	58.681696
1093.000000	58.658324
1092.000000	58.625256
1091.000000	58.591985
1090.000000	58.554019
1089.000000	58.534321
1088.000000	58.497885
1087.000000	58.456245
1086.000000	58.412053
1085.000000	58.382251
1084.000000	58.347653
1083.000000	58.311116
1082.000000	58.278252
1081.000000	58.237836
1080.000000	58.199156
1079.000000	58.169456
1078.000000	58.132204
1077.000000	58.087196
1076.000000	58.047903
1075.000000	58.008609
1074.000000	57.965438
1073.000000	57.922675
1072.000000	57.882361
1071.000000	57.838577
1070.000000	57.792854
1069.000000	57.745703
1068.000000	57.696101
1067.000000	57.665177
1066.000000	57.612310
1065.000000	57.555871
1064.000000	57.502800
1063.000000	57.457791
1062.000000	57.400535
1061.000000	57.333074
1060.000000	57.297863
1059.000000	57.238770
1058.000000	57.171717
1057.000000	57.106296
1056.000000	57.041080
1055.000000	56.986580
1054.000000	56.920955
1053.000000	56.854514
1052.000000	56.808485
1051.000000	56.754699
1050.000000	56.697852
1049.000000	56.645189
1048.000000	56.590178
1047.000000	56.535678
1046.000000	56.478422
1045.000000	56.424024
1044.000000	56.378097
1043.000000	56.326353
1042.000000	56.280732
1041.000000	56.236234
1040.000000	56.196022
1039.000000	56.145809
1038.000000	56.096616
1037.000000	56.043646
1036.000000	55.978634
1035.000000	55.934850
1034.000000	55.881779
1033.000000	55.826667
1032.000000	55.763594
1031.000000	55.700622
1030.000000	55.650205
1029.000000	55.585703
1028.000000	55.521915
1027.000000	55.462516
1026.000000	55.396585
1025.000000	55.341575
1024.000000	55.275746
1023.000000	55.214816
1022.000000	55.157255
1021.000000	55.105612
1020.000000	55.064788
1019.000000	55.007941
1018.000000	54.962116
1017.000000	54.927415
1016.000000	54.889959
1015.000000	54.864444
1014.000000	54.854034
1013.000000	54.845053
1012.000000	54.832601
1011.000000	54.833112
1010.000000	54.835459
1009.000000	54.853626
1008.000000	54.864138
1007.000000	54.875262
1006.000000	54.884958
1005.000000	54.904145
1004.000000	54.934355
1003.000000	54.946602
1002.000000	54.970280
1001.000000	54.997530
1000.000000	54.993754
999.000000	55.012839
998.000000	55.048969
997.000000	55.075504
996.000000	55.095610
995.000000	55.130004
994.000000	55.165317
993.000000	55.191445
992.000000	55.223389
991.000000	55.271664
990.000000	55.309324
989.000000	55.348617
988.000000	55.412915
987.000000	55.459148
986.000000	55.500789
985.000000	55.552737
984.000000	55.618668
983.000000	55.674495
982.000000	55.729710
981.000000	55.798192
980.000000	55.864429
979.000000	55.922093
978.000000	55.978838
977.000000	56.040483
976.000000	56.117436
975.000000	56.184081
974.000000	56.251645
973.000000	56.306655
972.000000	56.375546
971.000000	56.439538
970.000000	56.499651
969.000000	56.577625
968.000000	56.648046
967.000000	56.703669
966.000000	56.792665
965.000000	56.883193
964.000000	56.984845
963.000000	57.045060
962.000000	57.129056
961.000000	57.221012
960.000000	57.302251
959.000000	57.409415
958.000000	57.470447
957.000000	57.561790
956.000000	57.649154
955.000000	57.744886
954.000000	57.813981
953.000000	57.897976
952.000000	57.946557
951.000000	58.050148
950.000000	58.118426
949.000000	58.206402
948.000000	58.314177
947.000000	58.379700
946.000000	58.469411
945.000000	58.545343
944.000000	58.641688
943.000000	58.727623
942.000000	58.796513
941.000000	58.863465
940.000000	58.966545
939.000000	59.034926
938.000000	59.125657
937.000000	59.217001
936.000000	59.277420
935.000000	59.342739
934.000000	59.431429
933.000000	59.525631
932.000000	59.634835
931.000000	59.697500
930.000000	59.805684
929.000000	59.888965
928.000000	60.001639
927.000000	60.077572
926.000000	60.183102
925.000000	60.303635
924.000000	60.379465
923.000000	60.472748
922.000000	60.586647
921.000000	60.665029
920.000000	60.749841
919.000000	60.836184
918.000000	60.910382
917.000000	61.024281
916.000000	61.115319
915.000000	61.177065
914.000000	61.247486
913.000000	61.320766
912.000000	61.444871
911.000000	61.506617
910.000000	61.583060
909.000000	61.661544
908.000000	61.771463
907.000000	61.866481
906.000000	62.013141
905.000000	62.101219
904.000000	62.197564
903.000000	62.297889
902.000000	62.414544
901.000000	62.543139
900.000000	62.656426
899.000000	62.750934
898.000000	62.874324
897.000000	62.989346
896.000000	63.043234
895.000000	63.174789
894.000000	63.251028
893.000000	63.352068
892.000000	63.419019
891.000000	63.516282
890.000000	63.568129
889.000000	63.626711
888.000000	63.708768
887.000000	63.778373
886.000000	63.855836
885.000000	63.943404
884.000000	64.030359
883.000000	64.101801
882.000000	64.172427
881.000000	64.279488
880.000000	64.347970
879.000000	64.444621
878.000000	64.517900
877.000000	64.562806
876.000000	64.630881
875.000000	64.678543
874.000000	64.724674
873.000000	64.768866
872.000000	64.754884
871.000000	64.732328
870.000000	64.703649
869.000000	64.681502
868.000000	64.597609
867.000000	64.521370
866.000000	64.463400
865.000000	64.445948
864.000000	64.501775
863.000000	64.565868
862.000000	64.654865
861.000000	64.691402
860.000000	64.738146
859.000000	64.758456
858.000000	65.057900
857.000000	65.296400
856.000000	65.109900
855.000000	64.767400
854.000000	64.817500
853.000000	64.803000
852.000000	64.579000
851.000000	64.686500
850.000000	64.749200
849.000000	64.759700
848.000000	64.621900
847.000000	64.549100
846.000000	64.592700
845.000000	64.590400
844.000000	64.738200
843.000000	64.760700
842.000000	64.736000
841.000000	64.636800
840.000000	64.591700
839.000000	64.555400
838.000000	64.448400
837.000000	64.160200
836.000000	64.007900
835.000000	64.259100
834.000000	64.038800
833.000000	63.793200
832.000000	63.920500
831.000000	63.819200
830.000000	63.457800
829.000000	63.535800
828.000000	63.579600
827.000000	63.526800
826.000000	63.253200
825.000000	63.112700
824.000000	63.158900
823.000000	63.018200
822.000000	63.005400
821.000000	62.949100
820.000000	62.596700
819.000000	62.366300
818.000000	62.457600
817.000000	62.352800
816.000000	62.258800
815.000000	62.121600
814.000000	62.018800
813.000000	61.920900
812.000000	61.738900
811.000000	61.773300
810.000000	61.713300
809.000000	61.526500
808.000000	61.473500
807.000000	61.456100
806.000000	61.363100
805.000000	61.201500
804.000000	61.221600
803.000000	61.251800
802.000000	61.102200
801.000000	60.931200
800.000000	60.893600
799.000000	60.866800
798.000000	60.848500
797.000000	60.790800
796.000000	60.641600
795.000000	60.571400
794.000000	60.566600
793.000000	60.522900
792.000000	60.481600
791.000000	60.339400
790.000000	60.179000
789.000000	60.028900
788.000000	59.931500
787.000000	59.895800
786.000000	59.885000
785.000000	59.829600
784.000000	59.759000
783.000000	59.600000
782.000000	59.563000
781.000000	59.526800
780.000000	59.469800
779.000000	59.434400
778.000000	59.406700
777.000000	59.379200
776.000000	59.285200
775.000000	59.231300
774.000000	59.211100
773.000000	59.086100
772.000000	58.939200
771.000000	58.842400
770.000000	58.870300
769.000000	58.789000
768.000000	58.670900
767.000000	58.596300
766.000000	58.453000
765.000000	58.432800
764.000000	58.400100
763.000000	58.281200
762.000000	58.278600
761.000000	58.246300
760.000000	58.152700
759.000000	58.094800
758.000000	58.046300
757.000000	57.910800
756.000000	57.851200
755.000000	57.865000
754.000000	57.782700
753.000000	57.616600
752.000000	57.532300
751.000000	57.473300
750.000000	57.331200
749.000000	57.212900
748.000000	57.125300
747.000000	57.051500
746.000000	57.011500
745.000000	56.933600
744.000000	56.831300
743.000000	56.741300
742.000000	56.706200
741.000000	56.680800
740.000000	56.595800
739.000000	56.553800
738.000000	56.516300
737.000000	56.393600
736.000000	56.377600
735.000000	56.361600
734.000000	56.245600
733.000000	56.145400
732.000000	56.113500
731.000000	56.090200
730.000000	56.016700
729.000000	55.945700
728.000000	55.866300
727.000000	55.765600
726.000000	55.789000
725.000000	55.767200
724.000000	55.684800
723.000000	55.606800
722.000000	55.568200
721.000000	55.531500
720.000000	55.530400
719.000000	55.450300
718.000000	55.364400
717.000000	55.306500
716.000000	55.250200
715.000000	55.197200
714.000000	55.074700
713.000000	54.970500
712.000000	54.855300
711.000000	54.692500
710.000000	54.560500
709.000000	54.469600
708.000000	54.333300
707.000000	54.154100
706.000000	54.008700
705.000000	53.839900
704.000000	53.659600
703.000000	53.429500
702.000000	53.204900
701.000000	53.030200
700.000000	52.862100
699.000000	52.640600
698.000000	52.470000
697.000000	52.316400
696.000000	52.084200
695.000000	51.843800
694.000000	51.643300
693.000000	51.464100
692.000000	51.244600
691.000000	51.018800
690.000000	50.819200
689.000000	50.596200
688.000000	50.337400
687.000000	50.086300
686.000000	49.852700
685.000000	49.598700
684.000000	49.338000
683.000000	49.175400
682.000000	48.927400
681.000000	48.733900
680.000000	48.542600
679.000000	48.435300
678.000000	48.323500
677.000000	48.261300
676.000000	48.223400
675.000000	48.198300
674.000000	48.213300
673.000000	48.172200
672.000000	48.239200
671.000000	48.276400
670.000000	48.297500
669.000000	48.313500
668.000000	48.332400
667.000000	48.322500
666.000000	48.317600
665.000000	48.294600
664.000000	48.320800
663.000000	48.310200
662.000000	48.273600
661.000000	48.229300
660.000000	48.124400
659.000000	48.059700
658.000000	47.989500
657.000000	47.841500
656.000000	47.768400
655.000000	47.703100
654.000000	47.577300
653.000000	47.430100
652.000000	47.309100
651.000000	47.162800
650.000000	47.017800
649.000000	46.762100
648.000000	46.576700
647.000000	46.289500
646.000000	46.072700
645.000000	45.794400
644.000000	45.485100
643.000000	45.198500
642.000000	44.842900
641.000000	44.526400
640.000000	44.270500
639.000000	43.972500
638.000000	43.689300
637.000000	43.461700
636.000000	43.284400
635.000000	43.154900
634.000000	43.095700
633.000000	43.091200
632.000000	43.197800
631.000000	43.316700
630.000000	43.583400
629.000000	43.884800
628.000000	44.279300
627.000000	44.712400
626.000000	45.210000
625.000000	45.708600
624.000000	46.266400
623.000000	46.845200
622.000000	47.510800
621.000000	48.227000
620.000000	48.978500
619.000000	49.764800
618.000000	50.538000
617.000000	51.372800
616.000000	52.224400
615.000000	53.052000
614.000000	53.815800
613.000000	54.641400
612.000000	55.402300
611.000000	56.034100
610.000000	56.687400
609.000000	57.194500
608.000000	57.625500
607.000000	57.975000
606.000000	58.316100
605.000000	58.594700
604.000000	58.868100
603.000000	59.089300
602.000000	59.398200
601.000000	59.755500
600.000000	60.045800
599.000000	60.373700
598.000000	60.697400
597.000000	61.013900
596.000000	61.451800
595.000000	61.784800
594.000000	62.201800
593.000000	62.599300
592.000000	62.973400
591.000000	63.366100
590.000000	63.708700
589.000000	63.977700
588.000000	64.229400
587.000000	64.337800
586.000000	64.457300
585.000000	64.425000
584.000000	64.359300
583.000000	64.333200
582.000000	64.202500
581.000000	64.089900
580.000000	64.016100
579.000000	63.954400
578.000000	63.940600
577.000000	63.967500
576.000000	63.998100
575.000000	64.163400
574.000000	64.258600
573.000000	64.384100
572.000000	64.487500
571.000000	64.639300
570.000000	64.684500
569.000000	64.742300
568.000000	64.720100
567.000000	64.627600
566.000000	64.481700
565.000000	64.275100
564.000000	64.064000
563.000000	63.805200
562.000000	63.520800
561.000000	63.229700
560.000000	62.945000
559.000000	62.619900
558.000000	62.367300
557.000000	62.106400
556.000000	61.849000
555.000000	61.609800
554.000000	61.295300
553.000000	60.978900
552.000000	60.581600
551.000000	60.080900
550.000000	59.552000
549.000000	58.900300
548.000000	58.194400
547.000000	57.376400
546.000000	56.559300
545.000000	55.707500
544.000000	54.837000
543.000000	53.935500
542.000000	52.981000
541.000000	52.019300
540.000000	50.992800
539.000000	50.002800
538.000000	48.967000
537.000000	47.913500
536.000000	46.791500
535.000000	45.709800
534.000000	44.628400
533.000000	43.549700
532.000000	42.493500
531.000000	41.482900
530.000000	40.515500
529.000000	39.609700
528.000000	38.759900
527.000000	37.949700
526.000000	37.170100
525.000000	36.459000
524.000000	35.781900
523.000000	35.107300
522.000000	34.500200
521.000000	33.905700
520.000000	33.347400
519.000000	32.808400
518.000000	32.272900
517.000000	31.746100
516.000000	31.215800
515.000000	30.689900
514.000000	30.146900
513.000000	29.604200
512.000000	29.038900
511.000000	28.456800
510.000000	27.899000
509.000000	27.332400
508.000000	26.744100
507.000000	26.209800
506.000000	25.681100
505.000000	25.152700
504.000000	24.695100
503.000000	24.231900
502.000000	23.827300
501.000000	23.456800
500.000000	23.105000
499.000000	22.822000
498.000000	22.590200
497.000000	22.385900
496.000000	22.226900
495.000000	22.086300
494.000000	22.000100
493.000000	21.893600
492.000000	21.831500
491.000000	21.776600
490.000000	21.741900
489.000000	21.711500
488.000000	21.674900
487.000000	21.618600
486.000000	21.560100
485.000000	21.491000
484.000000	21.416500
483.000000	21.355200
482.000000	21.298200
481.000000	21.245900
480.000000	21.161500
479.000000	21.060000
478.000000	20.936400
477.000000	20.816100
476.000000	20.695800
475.000000	20.546600
474.000000	20.402900
473.000000	20.273600
472.000000	20.123900
471.000000	19.960000
470.000000	19.796400
469.000000	19.633900
468.000000	19.471000
467.000000	19.305700
466.000000	19.125300
465.000000	18.934900
464.000000	18.746800
463.000000	18.544400
462.000000	18.353600
461.000000	18.161500
460.000000	17.969900
459.000000	17.774900
458.000000	17.552300
457.000000	17.330200
456.000000	17.118800
455.000000	16.911600
454.000000	16.676000
453.000000	16.416400
452.000000	16.157100
451.000000	15.897900
450.000000	15.625600
449.000000	15.345000
448.000000	15.067800
447.000000	14.781100
446.000000	14.484300
445.000000	14.170200
444.000000	13.849900
443.000000	13.559600
442.000000	13.255900
441.000000	12.925100
440.000000	12.592500
439.000000	12.269600
438.000000	11.956700
437.000000	11.622800
436.000000	11.301400
435.000000	11.003800
434.000000	10.684700
433.000000	10.352100
432.000000	10.044500
431.000000	9.755500
430.000000	9.457800
429.000000	9.175300
428.000000	8.897600
427.000000	8.636900
426.000000	8.396800
425.000000	8.152900
424.000000	7.928500
423.000000	7.717200
422.000000	7.521500
421.000000	7.325200
420.000000	7.138800
419.000000	6.964000
418.000000	6.796300
417.000000	6.650100
416.000000	6.508500
415.000000	6.379800
414.000000	6.262600
413.000000	6.159900
412.000000	6.066300
411.000000	5.982400
410.000000	5.904300
409.000000	5.849100
408.000000	5.780000
407.000000	5.714300
406.000000	5.658400
405.000000	5.612500
404.000000	5.563600
403.000000	5.520700
402.000000	5.491400
401.000000	5.449000
400.000000	5.412500
399.000000	5.393000
398.000000	5.378200
397.000000	5.350500
396.000000	5.348000
395.000000	5.339600
394.000000	5.309100
393.000000	5.281300
392.000000	5.268400
391.000000	5.259300
390.000000	5.242800
389.000000	5.226000
388.000000	5.200100
387.000000	5.205100
386.000000	5.190100
385.000000	5.169900
384.000000	5.171600
383.000000	5.161200
382.000000	5.148000
381.000000	5.140200
380.000000	5.123300
379.000000	5.111800
378.000000	5.099400
377.000000	5.066200
376.000000	5.041800
375.000000	4.773000
374.000000	4.831400
373.000000	4.927700
372.000000	4.970600
371.000000	4.807700
370.000000	4.884500
369.000000	4.921900
368.000000	4.953700
367.000000	4.889800
366.000000	4.910000
365.000000	4.875800
364.000000	4.812200
363.000000	4.896800
362.000000	4.906400
361.000000	4.911500
360.000000	4.905100
359.000000	4.972600
358.000000	4.938700
357.000000	4.951100
356.000000	4.948200
355.000000	4.845700
354.000000	4.971600
353.000000	4.913100
352.000000	5.015400
351.000000	5.021600
350.000000	4.951600
349.000000	4.920000
348.000000	4.849400
347.000000	4.926900
346.000000	4.952700
345.000000	4.923000
344.000000	5.052700
343.000000	5.023100
342.000000	5.057200
341.000000	5.153800
340.000000	5.041500
339.000000	5.137900
338.000000	5.024400
337.000000	4.992400
336.000000	4.959000
335.000000	5.008600
334.000000	5.380500
333.000000	5.356600
332.000000	5.193400
331.000000	5.263800
330.000000	5.303500
329.000000	5.318400
328.000000	5.215800
327.000000	5.049200
326.000000	5.112100
325.000000	5.257800
324.000000	5.206400
323.000000	5.066400
322.000000	5.250000
321.000000	5.122300
320.000000	5.016700
319.000000	5.739500
318.000000	5.622400
317.000000	5.188100
316.000000	5.067400
315.000000	5.073700
314.000000	5.048900
313.000000	5.044800
312.000000	5.065100
311.000000	5.075700
310.000000	5.094200
309.000000	5.100300
308.000000	5.099600
307.000000	5.128900
306.000000	5.131300
305.000000	5.107800
304.000000	5.104300
303.000000	5.096900
302.000000	5.058400
301.000000	5.117700
300.000000	5.140800
299.000000	5.130800
298.000000	5.128500
297.000000	5.080900
296.000000	5.162700
295.000000	5.155000
294.000000	5.171800
293.000000	5.198700
292.000000	5.167000
291.000000	5.227800
290.000000	5.177300
289.000000	5.241500
288.000000	5.200300
287.000000	5.265500
286.000000	5.218600
285.000000	5.225400
284.000000	5.218900
283.000000	5.205700
282.000000	5.272200
281.000000	5.265000
280.000000	5.304900
279.000000	5.301000
278.000000	5.345600
277.000000	5.304500
276.000000	5.282600
275.000000	5.323700
274.000000	5.388600
273.000000	5.333800
272.000000	5.413200
271.000000	5.442900
270.000000	5.401600
269.000000	5.457000
268.000000	5.445600
267.000000	5.477000
266.000000	5.483100
265.000000	5.530000
264.000000	5.534400
263.000000	5.581800
262.000000	5.585300
261.000000	5.599500
260.000000	5.633500
259.000000	5.653100
258.000000	5.706600
257.000000	5.678800
256.000000	5.681200
255.000000	5.701100
254.000000	5.681800
253.000000	5.763900
252.000000	5.754500
251.000000	5.796600
250.000000	5.751800
