PE UV       SUBTECH     SPECTRUM    ASCII       PEDS        4.00        
   -1
2-STRIGIDIA BELTI INBIO0004211063.ASC
23/11/17
10:41:59.00
23/11/17
10:41:59.00
Vinicio Soto Monge

250,000000
1
Lambda 1050
1050L1511233
PerkinElmer UV WinLab 6.3.2.0749 / 2.02.05 Lambda 900 UV/VIS/NIR, Aug  7 2015 09:38:08

0
0
3350/servo 860,8/2
0
0
UV/VIS
1
1
1
DoubleDePol,CommonBeamDepol,RBeamAtt,SBeamAtt,60mm sphere, WB InGaAs Detector
0
0
0
0
Program
Program
3350/servo 860,8/2
3350/0,4 860,8/0,4
3350/0,4 860,8/0,4
0
20.00
 
 
 
0
 
860,8
319,2
860,8
Front
100
on
S:100 R:100
0
0
0
0
 
0
 
 
 
0
 
 
0
0
0
0
0
 
 
 
 
0
0


0
0
#HDR
-1
-1
#GR
nm
%R
1.0
0.0
2200,000000
-1,000000
1951
8
108,797053
5,244670
#DATA
250.000000	4.287865
251.000000	4.280625
252.000000	4.208678
253.000000	4.184380
254.000000	4.185047
255.000000	4.123422
256.000000	4.142991
257.000000	4.082203
258.000000	4.096830
259.000000	4.091195
260.000000	4.085498
261.000000	4.047961
262.000000	4.010572
263.000000	4.053890
264.000000	3.993093
265.000000	3.994314
266.000000	4.022997
267.000000	3.950696
268.000000	3.976053
269.000000	3.941312
270.000000	3.942511
271.000000	3.945219
272.000000	3.965785
273.000000	3.956437
274.000000	3.855705
275.000000	3.884725
276.000000	3.872598
277.000000	3.912077
278.000000	3.890628
279.000000	3.904588
280.000000	3.905424
281.000000	3.884219
282.000000	3.891334
283.000000	3.854927
284.000000	3.846477
285.000000	3.848496
286.000000	3.840710
287.000000	3.868103
288.000000	3.816943
289.000000	3.852264
290.000000	3.811236
291.000000	3.842375
292.000000	3.840865
293.000000	3.809229
294.000000	3.802755
295.000000	3.797539
296.000000	3.767954
297.000000	3.788803
298.000000	3.801432
299.000000	3.800039
300.000000	3.843771
301.000000	3.813429
302.000000	3.784967
303.000000	3.783630
304.000000	3.802349
305.000000	3.836765
306.000000	3.766404
307.000000	3.736364
308.000000	3.782278
309.000000	3.794106
310.000000	3.708357
311.000000	3.712394
312.000000	3.687577
313.000000	3.717274
314.000000	3.705327
315.000000	3.657759
316.000000	3.706044
317.000000	3.885823
318.000000	3.942007
319.000000	3.861507
320.000000	3.878617
321.000000	3.781811
322.000000	3.949742
323.000000	3.722796
324.000000	3.869240
325.000000	3.888344
326.000000	3.931741
327.000000	3.814247
328.000000	3.748812
329.000000	3.714961
330.000000	3.797160
331.000000	3.741615
332.000000	3.755723
333.000000	3.698333
334.000000	3.761668
335.000000	3.748873
336.000000	3.774799
337.000000	3.824033
338.000000	3.811336
339.000000	3.749608
340.000000	3.779030
341.000000	3.791528
342.000000	3.763031
343.000000	3.751781
344.000000	3.776535
345.000000	3.764210
346.000000	3.767163
347.000000	3.758286
348.000000	3.772287
349.000000	3.746905
350.000000	3.730775
350.166136	31.306659
350.166136	76.735556
350.601937	31.449238
350.601937	76.974486
351.000000	3.788317
351.037728	31.515551
351.037728	77.112969
351.473509	31.552359
351.473509	77.116594
351.909281	77.172771
351.909281	31.567083
352.000000	3.790064
352.345042	31.591255
352.345042	77.251309
352.780794	77.242482
352.780794	31.575397
353.000000	3.732103
353.216536	77.282935
353.216536	31.597281
353.652267	31.625730
353.652267	77.334036
354.000000	3.740967
354.087989	31.575035
354.087989	77.265609
354.523701	31.565370
354.523701	77.294785
354.959403	31.528994
354.959403	77.178018
355.000000	3.796863
355.395095	77.307542
355.395095	31.595403
355.830777	77.289871
355.830777	31.571219
356.000000	3.759386
356.266449	77.292370
356.266449	31.552765
356.702110	31.504942
356.702110	77.257623
357.000000	3.764123
357.137762	31.520674
357.137762	77.377006
357.573404	77.319357
357.573404	31.507936
358.000000	3.784671
358.009035	31.416460
358.009035	77.095012
358.444656	31.462415
358.444656	77.142787
358.880268	77.203470
358.880268	31.499363
359.000000	3.765024
359.315869	77.278591
359.315869	31.527392
359.751459	31.493238
359.751459	77.223529
360.000000	3.732376
360.187040	77.313700
360.187040	31.539367
360.622610	31.591917
360.622610	77.415837
361.000000	3.744101
361.058170	31.627775
361.058170	77.478501
361.493720	31.598872
361.493720	77.445515
361.929260	77.476816
361.929260	31.609910
362.000000	3.723373
362.364789	77.625468
362.364789	31.639250
362.800308	77.482624
362.800308	31.564299
363.000000	3.752881
363.235816	31.533531
363.235816	77.459358
363.671314	31.588145
363.671314	77.560325
364.000000	3.754945
364.106802	31.614741
364.106802	77.629845
364.542279	31.652701
364.542279	77.705621
364.977746	31.675633
364.977746	77.806215
365.000000	3.722821
365.413203	77.902911
365.413203	31.740386
365.848649	77.814909
365.848649	31.686981
366.000000	3.728405
366.284084	31.643256
366.284084	77.697364
366.719509	31.610697
366.719509	77.653401
367.000000	3.768203
367.154924	31.666830
367.154924	77.720582
367.590328	77.370301
368.000000	3.715785
368.025721	31.667175
368.025721	77.703813
368.461104	31.710571
368.461104	77.828446
368.896477	77.804772
368.896477	31.719298
369.000000	3.723016
369.331838	31.651647
369.331838	77.593044
369.767189	31.659751
369.767189	77.652407
370.000000	3.748752
370.202530	77.640961
370.202530	31.687887
370.637859	31.667458
370.637859	77.581051
371.000000	3.725146
371.073178	31.692226
371.073178	77.662383
371.508486	31.715490
371.508486	77.722028
371.943784	77.618759
371.943784	31.657303
372.000000	3.727223
372.379071	77.489419
372.379071	31.614003
372.814347	77.462545
372.814347	31.617557
373.000000	3.713377
373.249612	77.621384
373.249612	31.671888
373.684866	31.603931
373.684866	77.542303
374.000000	3.720074
374.120110	31.660610
374.120110	77.645344
374.555343	77.717218
374.555343	31.683870
374.990565	77.767860
374.990565	31.711273
375.000000	3.711289
375.425776	77.785592
375.425776	31.719669
375.860976	77.769858
375.860976	31.725231
376.000000	3.631215
376.296165	77.802752
376.296165	31.736670
376.731343	31.757682
376.731343	77.851985
377.000000	3.538453
377.166511	77.743261
377.166511	31.721714
377.601667	77.722568
377.601667	31.692488
378.000000	3.534704
378.036812	31.693098
378.036812	77.714760
378.471946	31.721352
378.471946	77.721744
378.907070	77.642503
378.907070	31.665952
379.000000	3.538035
379.342182	77.557501
379.342182	31.633118
379.777283	77.429288
380.000000	3.533605
380.212373	31.659672
380.212373	77.667961
380.647452	77.566273
380.647452	31.600751
381.000000	3.523025
381.082520	77.547776
381.082520	31.553789
381.517576	31.535990
381.517576	77.431574
381.952622	77.355548
381.952622	31.499842
382.000000	3.519595
382.387656	31.489536
382.387656	77.341281
382.822679	31.566997
382.822679	77.505980
383.000000	3.513709
383.257691	31.544208
383.257691	77.410008
383.692692	77.424583
383.692692	31.535888
384.000000	3.515011
384.127681	31.575063
384.127681	77.475881
384.562659	31.509434
384.562659	77.367355
384.997626	77.262997
384.997626	31.467147
385.000000	3.510639
385.432581	31.453280
385.432581	77.237947
385.867525	31.528929
385.867525	77.401249
386.000000	3.503299
386.302458	31.497919
386.302458	77.368618
386.737379	31.517477
386.737379	77.382200
387.000000	3.503285
387.172289	31.503474
387.172289	77.332883
387.607188	77.146134
387.607188	31.409004
388.000000	3.509129
388.042075	31.361239
388.042075	77.045657
388.476951	77.076825
388.476951	31.351203
388.911815	76.948789
388.911815	31.311892
389.000000	3.513039
389.346668	76.806601
389.346668	31.237567
389.781509	76.882707
389.781509	31.266651
390.000000	3.510523
390.216338	31.275761
390.216338	76.868420
390.651157	76.843071
390.651157	31.277524
391.000000	3.509232
391.085963	31.292271
391.085963	76.828408
391.520758	76.849798
391.520758	31.282634
391.955541	31.240498
391.955541	76.767156
392.000000	3.512607
392.390313	76.627796
392.390313	31.178496
392.825073	31.180909
392.825073	76.607223
393.000000	3.509610
393.259821	31.203680
393.259821	76.607222
393.694558	31.207574
393.694558	76.580578
394.000000	3.501166
394.129283	31.169789
394.129283	76.501822
394.563996	31.236158
394.563996	76.537442
394.998698	76.637298
394.998698	31.265946
395.000000	3.503935
395.433388	76.607158
395.433388	31.248908
395.868066	76.474805
395.868066	31.182868
396.000000	3.511534
396.302732	76.381553
396.302732	31.127814
396.737386	31.077118
396.737386	76.245198
397.000000	3.508543
397.172029	76.049284
397.172029	31.012218
397.606659	30.878080
397.606659	75.718850
398.000000	3.500529
398.041278	30.726420
398.041278	75.295307
398.475885	30.634584
398.475885	75.068744
398.910480	30.469296
398.910480	74.641728
399.000000	3.496637
399.345063	30.151101
399.345063	73.898023
399.779634	29.873063
399.779634	73.209303
400.000000	3.497113
400.214194	72.033116
400.214194	29.395369
400.648741	70.862428
400.648741	28.934192
401.000000	3.500875
401.083276	69.553080
401.083276	28.396506
401.517799	67.725281
401.952310	26.996956
401.952310	66.075965
402.000000	3.499273
402.386809	26.207766
402.386809	64.106525
402.821296	25.346344
402.821296	61.973743
403.000000	3.503101
403.255771	59.709488
403.255771	24.436114
403.690234	57.295882
403.690234	23.441260
404.000000	3.508751
404.124684	22.402056
404.124684	54.787425
404.559123	52.132859
404.559123	21.294207
404.993549	49.535614
404.993549	20.237600
405.000000	3.500589
405.427963	46.913802
405.427963	19.155302
405.862365	44.497649
405.862365	18.148930
406.000000	3.496447
406.296754	17.196435
406.296754	42.179636
406.731131	16.283545
406.731131	39.936210
407.000000	3.509623
407.165496	15.437207
407.165496	37.868679
407.599849	14.664527
407.599849	35.954001
408.000000	3.511204
408.034190	34.143728
408.034190	13.942874
408.468518	32.478098
408.468518	13.282790
408.902833	12.660265
408.902833	30.918016
409.000000	3.512309
409.337137	29.489101
409.337137	12.097950
409.771428	28.149310
409.771428	11.583660
410.000000	3.510585
410.205706	11.090970
410.205706	26.886985
410.639973	25.785473
410.639973	10.669165
411.000000	3.504352
411.074226	10.304545
411.074226	24.817111
411.508467	9.985366
411.508467	23.956269
411.942696	9.695691
411.942696	23.169434
412.000000	3.509488
412.376912	9.443274
412.376912	22.482963
412.811116	9.233419
412.811116	21.891198
413.000000	3.511947
413.245307	9.045223
413.245307	21.348837
413.679486	20.811308
414.000000	3.517451
414.113652	8.728653
414.113652	20.429181
414.547805	8.588968
414.547805	20.012752
414.981946	8.464884
414.981946	19.647137
415.000000	3.515807
415.416074	8.364661
415.416074	19.330267
415.850190	19.059859
415.850190	8.282405
416.000000	3.511820
416.284293	18.802287
416.284293	8.207302
416.718383	18.586779
416.718383	8.148192
417.000000	3.510679
417.152460	8.092871
417.152460	18.390315
417.586525	8.058895
417.586525	18.241032
418.000000	3.511131
418.020577	8.037476
418.020577	18.116990
418.454616	8.012925
418.454616	17.992000
418.888643	17.897955
418.888643	8.001422
419.000000	3.505943
419.322656	7.993593
419.322656	17.810364
419.756657	17.672943
420.000000	3.512063
420.190645	17.648065
420.190645	7.982081
420.624620	17.574894
420.624620	7.980703
421.000000	3.519671
421.058582	7.979724
421.058582	17.509466
421.492531	7.986771
421.492531	17.458549
421.926468	17.419693
421.926468	7.995932
422.000000	3.516006
422.360391	8.015073
422.360391	17.403676
422.794301	8.041475
422.794301	17.412182
423.000000	3.518960
423.228199	17.443268
423.228199	8.077394
423.662083	8.119699
423.662083	17.492424
424.000000	3.520043
424.095955	17.559360
424.095955	8.169285
424.529813	8.217707
424.529813	17.622181
424.963658	8.267362
424.963658	17.695461
425.000000	3.521481
425.397491	17.756595
425.397491	8.313861
425.831310	17.811450
425.831310	8.357768
426.000000	3.527571
426.265116	17.861026
426.265116	8.398644
426.698909	17.910881
426.698909	8.439445
427.000000	3.532307
427.132689	17.970463
427.132689	8.484204
427.566455	8.534165
427.566455	18.043756
428.000000	3.527144
428.000209	18.133696
428.000209	8.591574
428.433949	18.224295
428.433949	8.650058
428.867676	18.323014
428.867676	8.709816
429.000000	3.530840
429.301389	8.769247
429.301389	18.418059
429.735090	18.515884
429.735090	8.828051
430.000000	3.538315
430.168777	18.597301
430.168777	8.880067
430.602451	18.667751
430.602451	8.927937
431.000000	3.539295
431.036111	8.967199
431.036111	18.713948
431.469759	18.766319
431.469759	9.006374
431.903392	9.044066
431.903392	18.814602
432.000000	3.537863
432.337013	18.860023
432.337013	9.080971
432.770620	18.908440
432.770620	9.118749
433.000000	3.537945
433.204213	9.162547
433.204213	18.973188
433.637794	19.058072
433.637794	9.213432
434.000000	3.536522
434.071360	9.266691
434.071360	19.150918
434.504914	19.256517
434.504914	9.326703
434.938453	9.389540
434.938453	19.374853
435.000000	3.539911
435.371979	9.455698
435.371979	19.495551
435.805492	9.522078
435.805492	19.620368
436.000000	3.541118
436.238991	9.585086
436.238991	19.734979
436.672477	19.844256
436.672477	9.643517
437.000000	3.529657
437.105949	19.948640
437.105949	9.699786
437.539407	9.746407
437.539407	20.029104
437.972852	20.102548
437.972852	9.788409
438.000000	3.531857
438.406283	9.832638
438.406283	20.175939
438.839700	9.876591
438.839700	20.253839
439.000000	3.537475
439.273104	9.924932
439.273104	20.341321
439.706494	9.974505
439.706494	20.432731
440.000000	3.536046
440.139871	20.536227
440.139871	10.029145
440.573233	10.082168
440.573233	20.636562
441.000000	3.539185
441.006582	20.733635
441.006582	10.134263
441.439917	20.819063
441.439917	10.179535
441.873238	10.219028
441.873238	20.890597
442.000000	3.539625
442.306546	20.949875
442.306546	10.253020
442.739839	10.279468
442.739839	20.995909
443.000000	3.543833
443.173119	21.028027
443.173119	10.300603
443.606385	21.063186
443.606385	10.322521
444.000000	3.557841
444.039636	10.344268
444.039636	21.097753
444.472874	10.370402
444.472874	21.145318
444.906099	21.196028
444.906099	10.398322
445.000000	3.559260
445.339309	21.263214
445.339309	10.433120
445.772505	21.339631
445.772505	10.472001
446.000000	3.554945
446.205687	21.428687
446.205687	10.516695
446.638855	10.561466
446.638855	21.516345
447.000000	3.566220
447.072009	10.606324
447.072009	21.604654
447.505149	10.653488
447.505149	21.698939
447.938275	10.699346
447.938275	21.790477
448.000000	3.565576
448.371387	10.742094
448.371387	21.875127
448.804485	21.946348
448.804485	10.777876
449.000000	3.560952
449.237569	22.002974
449.237569	10.807367
449.670638	10.833472
449.670638	22.053646
450.000000	3.559700
450.103694	22.087723
450.103694	10.852351
450.536735	22.114792
450.536735	10.868968
450.969762	22.146834
450.969762	10.886133
451.000000	3.565743
451.402774	10.905772
451.402774	22.183806
451.835773	22.222531
451.835773	10.925756
452.000000	3.572635
452.268757	10.952452
452.268757	22.274144
452.701727	10.978850
452.701727	22.325699
453.000000	3.569430
453.134683	22.383831
453.134683	11.008573
453.567624	11.034787
453.567624	22.435506
454.000000	3.565939
454.000551	11.060084
454.000551	22.485912
454.433464	22.467898
454.866362	11.097330
454.866362	22.557541
455.000000	3.564584
455.299246	11.112543
455.299246	22.588217
455.732116	22.609459
455.732116	11.123361
456.000000	3.563719
456.164971	22.629987
456.164971	11.133218
456.597811	11.143805
456.597811	22.652640
457.000000	3.570287
457.030638	22.674807
457.030638	11.154131
457.463449	11.166237
457.463449	22.701815
457.896246	11.176244
457.896246	22.726544
458.000000	3.572865
458.329029	11.187011
458.329029	22.751789
458.761797	11.198170
458.761797	22.777862
459.000000	3.573993
459.194551	22.803831
459.194551	11.209402
459.627290	22.827016
459.627290	11.218923
460.000000	3.576867
460.060014	22.854143
460.060014	11.229982
460.492724	22.884773
460.492724	11.242578
460.925419	22.913283
460.925419	11.253640
461.000000	3.572918
461.358099	11.266031
461.358099	22.945942
461.790765	22.969961
461.790765	11.274050
462.000000	3.575185
462.223416	22.990787
462.223416	11.279647
462.656052	11.283017
462.656052	23.007682
463.000000	3.583762
463.088674	23.020976
463.088674	11.283844
463.521281	23.035369
463.521281	11.284884
463.953873	23.051214
463.953873	11.285909
464.000000	3.586269
464.386450	23.063433
464.386450	11.284152
464.819012	11.285902
464.819012	23.083260
465.000000	3.589211
465.251560	11.289371
465.251560	23.106913
465.684093	23.132118
465.684093	11.293529
466.000000	3.598717
466.116611	23.166151
466.116611	11.301657
466.549114	23.205555
466.549114	11.312592
466.981602	23.247965
466.981602	11.325304
467.000000	3.597495
467.414075	11.336980
467.414075	23.288406
467.846533	11.348490
467.846533	23.329190
468.000000	3.600032
468.278977	23.369657
468.278977	11.359883
468.711405	23.406201
468.711405	11.369445
469.000000	3.604749
469.143818	11.379918
469.143818	23.444716
469.576216	11.387812
469.576216	23.477332
470.000000	3.600524
470.008600	23.504986
470.008600	11.392664
470.440968	23.525228
470.440968	11.394038
470.873321	23.542483
470.873321	11.394054
471.000000	3.603690
471.305659	23.555466
471.305659	11.392199
471.737982	23.572304
471.737982	11.392020
472.000000	3.613053
472.170289	11.389200
472.170289	23.584241
472.602582	23.530775
473.000000	3.616140
473.034859	11.384249
473.034859	23.609430
473.467122	23.629670
473.467122	11.385362
473.899369	23.653793
473.899369	11.389442
474.000000	3.624265
474.331600	11.398305
474.331600	23.685528
474.763817	23.724063
474.763817	11.411179
475.000000	3.630010
475.196018	11.431783
475.196018	23.776810
475.628204	11.460059
475.628204	23.843880
476.000000	3.639070
476.060375	23.920305
476.060375	11.494191
476.492530	11.531232
476.492530	24.001657
476.924670	24.017882
477.000000	3.650856
477.356795	24.162454
477.356795	11.606149
477.788904	24.240585
477.788904	11.642751
478.000000	3.664639
478.220998	24.308495
478.220998	11.673980
478.653076	11.702316
478.653076	24.371473
479.000000	3.676625
479.085139	24.363144
479.517186	11.755517
479.517186	24.489453
479.949219	24.548013
479.949219	11.782281
480.000000	3.686704
480.381235	11.815967
480.381235	24.618424
480.813236	11.857040
480.813236	24.700101
481.000000	3.702232
481.245221	11.906947
481.245221	24.798733
481.677191	11.964135
481.677191	24.909721
482.000000	3.724450
482.109146	25.024001
482.109146	12.024475
482.541084	12.087001
482.541084	25.142019
482.973008	25.259954
482.973008	12.149533
483.000000	3.749555
483.404915	12.211125
483.404915	25.376749
483.836807	25.486290
483.836807	12.268328
484.000000	3.777971
484.268683	12.320538
484.268683	25.589744
484.700544	25.683906
484.700544	12.366982
485.000000	3.806362
485.132388	12.406687
485.132388	25.767538
485.564217	12.441327
485.564217	25.842776
485.996031	25.914389
485.996031	12.472472
486.000000	3.835608
486.427828	12.498880
486.427828	25.979290
486.859610	26.039539
486.859610	12.522525
487.000000	3.866336
487.291376	26.098381
487.291376	12.544437
487.723126	12.568381
487.723126	26.162496
488.000000	3.903519
488.154860	12.594224
488.154860	26.229304
488.586579	26.305143
488.586579	12.624791
489.000000	3.955071
489.018281	12.662794
489.018281	26.392795
489.449968	26.497312
489.449968	12.710276
489.881639	26.623463
489.881639	12.770198
490.000000	4.000066
490.313293	12.840513
490.313293	26.767209
490.744932	12.920799
490.744932	26.927686
491.000000	4.047031
491.176555	13.005355
491.176555	27.095542
491.608162	27.268935
491.608162	13.092749
492.000000	4.104694
492.039753	27.438835
492.039753	13.177503
492.471328	27.594169
492.471328	13.252987
492.902886	13.317549
492.902886	27.731813
493.000000	4.171123
493.334429	27.853900
493.334429	13.371240
493.765956	27.955107
493.765956	13.412189
494.000000	4.235259
494.197466	13.447699
494.197466	28.050081
494.628960	13.478800
494.628960	28.137434
495.000000	4.310518
495.060439	28.231331
495.060439	13.513425
495.491901	28.339020
495.491901	13.555674
495.923347	28.465843
495.923347	13.609709
496.000000	4.387364
496.354776	13.675340
496.354776	28.611845
496.786190	28.782642
496.786190	13.755409
497.000000	4.471569
497.217587	28.972907
497.217587	13.846738
497.648968	29.174720
497.648968	13.945391
498.000000	4.563183
498.080332	14.049904
498.080332	29.388262
498.511681	29.600582
498.511681	14.153909
498.943013	29.812731
498.943013	14.255911
499.000000	4.665338
499.374328	14.351917
499.374328	30.016186
499.805628	30.209830
499.805628	14.440511
500.000000	4.770475
500.236911	30.390962
500.236911	14.519756
500.668177	14.589464
500.668177	30.557366
501.000000	4.884479
501.099427	14.648475
501.099427	30.706840
501.530661	14.699865
501.530661	30.846120
501.961878	14.742540
501.961878	30.971994
502.000000	5.007428
502.393079	14.777730
502.393079	31.086983
502.824264	31.197397
502.824264	14.809017
503.000000	5.137225
503.255431	14.836047
503.255431	31.300325
503.686583	31.403231
503.686583	14.862966
504.000000	5.275129
504.117717	14.895743
504.117717	31.517598
504.548835	14.937758
504.548835	31.647457
504.979937	31.798307
504.979937	14.992189
505.000000	5.426945
505.411022	31.970814
505.411022	15.059441
505.842090	15.144834
505.842090	32.175374
506.000000	5.575069
506.273142	32.405326
506.273142	15.245062
506.704177	32.659534
506.704177	15.359328
507.000000	5.730831
507.135195	15.481113
507.135195	32.928733
507.566197	33.203114
507.566197	15.604851
507.997182	33.474241
507.997182	15.725640
508.000000	5.893354
508.428150	15.836791
508.428150	33.731814
508.859102	33.974980
508.859102	15.936789
509.000000	6.076374
509.290036	16.021575
509.290036	34.194565
509.720954	16.095052
509.720954	34.398720
510.000000	6.256138
510.151855	16.158073
510.151855	34.588256
510.582739	16.215107
510.582739	34.769974
511.000000	6.440885
511.013607	34.958273
511.013607	16.274334
511.444457	16.337931
511.444457	35.154500
511.875291	35.375952
511.875291	16.414376
512.000000	6.627755
512.306107	16.506835
512.306107	35.626140
512.736907	16.615760
512.736907	35.907689
513.000000	6.834544
513.167690	36.222000
513.167690	16.742248
513.598456	36.565271
513.598456	16.884020
514.000000	7.040106
514.029205	36.935508
514.029205	17.038576
514.459936	17.200516
514.459936	37.322162
514.890651	17.364093
514.890651	37.716625
515.000000	7.243175
515.321349	17.524428
515.321349	38.108965
515.752030	38.501215
515.752030	17.681055
516.000000	7.454634
516.182693	17.825952
516.182693	38.876767
516.613340	39.236053
516.613340	17.958565
517.000000	7.657518
517.043969	18.080454
517.043969	39.582440
517.474582	39.908710
517.474582	18.188210
517.905177	40.214324
517.905177	18.282278
518.000000	7.872593
518.335755	40.500081
518.335755	18.363169
518.766315	18.435891
518.766315	40.773910
519.000000	8.085256
519.196859	41.031454
519.196859	18.498732
519.627385	18.555987
519.627385	41.279249
520.000000	8.299196
520.057894	18.609869
520.057894	41.520104
520.488386	41.633806
520.918860	18.731188
520.918860	42.024845
521.000000	8.510143
521.349318	42.306377
521.349318	18.807234
521.779757	18.896541
521.779757	42.613290
522.000000	8.717625
522.210180	42.952814
522.210180	19.002876
522.640585	19.126019
522.640585	43.325047
523.000000	8.908756
523.070973	43.730807
523.070973	19.265667
523.501343	19.417690
523.501343	44.161151
523.931696	19.582403
523.931696	44.617841
524.000000	9.106974
524.362031	19.751815
524.362031	45.083974
524.792349	19.925153
524.792349	45.560924
525.000000	9.281365
525.222650	46.030581
525.222650	20.094796
525.652933	46.483373
525.652933	20.255828
526.000000	9.448132
526.083198	20.407659
526.083198	46.917320
526.513446	20.546327
526.513446	47.323444
526.943677	47.706053
526.943677	20.673949
527.000000	9.610995
527.373890	48.068065
527.373890	20.793699
527.804085	48.422698
527.804085	20.911027
528.000000	9.755704
528.234262	21.026954
528.234262	48.769795
528.664422	21.148784
528.664422	49.127185
529.000000	9.882261
529.094565	49.493377
529.094565	21.276397
529.524689	21.415781
529.524689	49.883548
529.954796	21.568330
529.954796	50.302950
530.000000	10.005044
530.384885	21.731313
530.384885	50.744840
530.814957	51.214908
530.814957	21.906226
531.000000	10.114722
531.245011	51.713838
531.245011	22.093530
531.675047	52.233586
531.675047	22.289409
532.000000	10.192293
532.105065	52.769054
532.105065	22.491388
532.535065	22.697990
532.535065	53.315699
532.965048	53.862973
532.965048	22.904427
533.000000	10.260242
533.395013	54.402169
533.395013	23.107310
533.824959	23.302829
533.824959	54.921957
534.000000	10.305051
534.254888	23.490636
534.254888	55.423112
534.684799	23.667902
534.684799	55.899404
535.000000	10.343417
535.114693	56.353014
535.114693	23.837415
535.544568	56.774306
535.544568	23.995761
535.974425	24.143055
535.974425	57.162139
536.000000	10.357837
536.404264	24.279180
536.404264	57.517391
536.834086	57.845047
536.834086	24.407714
537.000000	10.369495
537.263889	58.146933
537.263889	24.530131
537.693674	24.648475
537.693674	58.430560
538.000000	10.343417
538.123441	24.765466
538.123441	58.703832
538.553190	24.882562
538.553190	58.970905
538.982921	25.004211
538.982921	59.243605
539.000000	10.321278
539.412634	25.129268
539.412634	59.523153
539.842329	59.823361
539.842329	25.263136
540.000000	10.270562
540.272006	60.141241
540.272006	25.402686
540.701664	25.546259
540.701664	60.475268
541.000000	10.193029
541.131304	25.695057
541.131304	60.828164
541.560926	25.848111
541.560926	61.200623
541.990530	26.005010
541.990530	61.587353
542.000000	10.109220
542.420116	61.987022
542.420116	26.165268
542.849683	26.323077
542.849683	62.383241
543.000000	10.011700
543.279232	26.478790
543.279232	62.774340
543.708763	63.154919
543.708763	26.630373
544.000000	9.901533
544.138275	26.776805
544.138275	63.518465
544.567769	26.915827
544.567769	63.858655
544.997245	64.171870
544.997245	27.047088
545.000000	9.791251
545.426702	27.171144
545.426702	64.460403
545.856141	27.288613
545.856141	64.725732
546.000000	9.674009
546.285562	64.978147
546.285562	27.403446
546.714964	65.212454
546.714964	27.512706
547.000000	9.542288
547.144347	27.622896
547.144347	65.447844
547.573713	65.684099
547.573713	27.733683
548.000000	9.403974
548.003059	27.844832
548.003059	65.929911
548.432387	27.960349
548.432387	66.189691
548.861697	66.463005
548.861697	28.078856
549.000000	9.268685
549.290988	66.758546
549.290988	28.201945
549.720260	28.331058
549.720260	67.079692
550.000000	9.131494
550.149514	28.463834
550.149514	67.421582
550.578750	67.783555
550.578750	28.599855
551.000000	8.990824
551.007966	28.739373
551.007966	68.163519
551.437164	28.881345
551.437164	68.553845
551.866344	68.953221
551.866344	29.024873
552.000000	8.838860
552.295504	29.165249
552.295504	69.346187
552.724646	29.304015
552.724646	69.730491
553.000000	8.724677
553.153769	29.438208
553.153769	70.097527
553.582874	70.439889
553.582874	29.566359
554.000000	8.633561
554.011960	70.748705
554.011960	29.685996
554.441027	71.016317
554.441027	29.794673
554.870075	71.243365
554.870075	29.893317
555.000000	8.539809
555.299104	29.980550
555.299104	71.427033
555.728115	71.564140
555.728115	30.055164
556.000000	8.469182
556.157106	30.124697
556.157106	71.673564
556.586079	30.183456
556.586079	71.744454
557.000000	8.395785
557.015033	71.537183
557.443968	71.822021
557.443968	30.286690
557.872884	30.334059
557.872884	71.844227
558.000000	8.369331
558.301781	30.383069
558.301781	71.870979
558.730659	30.430929
558.730659	71.896526
559.000000	8.373542
559.159518	30.480610
559.159518	71.935026
559.588358	30.533289
559.588358	71.989455
560.000000	8.385878
560.017180	72.062467
560.017180	30.589240
560.445982	72.152103
560.445982	30.647372
560.874765	72.260495
560.874765	30.708331
561.000000	8.447310
561.303528	30.772043
561.303528	72.384904
561.732273	30.835535
561.732273	72.517262
562.000000	8.538285
562.160999	72.659923
562.160999	30.900036
562.589705	30.966081
562.589705	72.810993
563.000000	8.653412
563.018393	72.961651
563.018393	31.030526
563.447061	31.096043
563.447061	73.115629
563.875710	73.009017
564.000000	8.791669
564.304340	73.411492
564.304340	31.222552
564.732950	31.281612
564.732950	73.547938
565.000000	8.938434
565.161542	73.673086
565.161542	31.337564
565.590114	73.794931
565.590114	31.393387
566.000000	9.134015
566.018666	31.447102
566.018666	73.908466
566.447200	74.011340
566.447200	31.497524
566.875714	74.111121
566.875714	31.547056
567.000000	9.330249
567.304208	31.596531
567.304208	74.209860
567.732684	74.305710
567.732684	31.644500
568.000000	9.542356
568.161140	74.404817
568.161140	31.692891
568.589576	31.741896
568.589576	74.508840
569.000000	9.760109
569.017993	31.792263
569.017993	74.622088
569.446391	31.840812
569.446391	74.738499
569.874769	31.893983
569.874769	74.874279
570.000000	9.982555
570.303128	75.021747
570.303128	31.947947
570.731467	32.004087
570.731467	75.185461
571.000000	10.218165
571.159787	75.357044
571.159787	32.059850
571.588087	75.275308
572.000000	10.451143
572.016368	75.742402
572.016368	32.177363
572.444629	75.947147
572.444629	32.237172
572.872870	76.152373
572.872870	32.295508
573.000000	10.676201
573.301092	76.357234
573.301092	32.353576
573.729294	76.544707
573.729294	32.406157
574.000000	10.900517
574.157476	32.454775
574.157476	76.715295
574.585639	32.494201
574.585639	76.854031
575.000000	11.095541
575.013782	32.526219
575.013782	76.963317
575.441906	77.039873
575.441906	32.550655
575.870009	32.564508
575.870009	77.074974
576.000000	11.303710
576.298093	32.570176
576.298093	77.075458
576.726157	32.566111
576.726157	77.037524
577.000000	11.495927
577.154202	76.966382
577.154202	32.553822
577.582226	32.537478
577.582226	76.873043
578.000000	11.667015
578.010231	32.516208
578.010231	76.759603
578.438216	76.635654
578.438216	32.493119
578.866181	76.503180
578.866181	32.468021
579.000000	11.824304
579.294126	32.443436
579.294126	76.372313
579.722051	32.422421
579.722051	76.252428
580.000000	12.001448
580.149957	76.143801
580.149957	32.404648
580.577842	76.047969
580.577842	32.389375
581.000000	12.146557
581.005707	32.378215
581.005707	75.968334
581.433553	75.903858
581.433553	32.370846
581.861378	32.367325
581.861378	75.854231
582.000000	12.276814
582.289184	75.816411
582.289184	32.366651
582.716969	75.786903
582.716969	32.367546
583.000000	12.422455
583.144734	32.370156
583.144734	75.765035
583.572479	32.378037
583.572479	75.757566
584.000000	12.563753
584.000205	75.746542
584.000205	32.383995
584.427910	75.743932
584.427910	32.392934
584.855594	32.401002
584.855594	75.740522
585.000000	12.691594
585.283259	32.406519
585.283259	75.732823
585.710904	75.730989
585.710904	32.414237
586.000000	12.829925
586.138528	32.419462
586.138528	75.725966
586.566132	32.422598
586.566132	75.717238
586.993716	32.426837
586.993716	75.714075
587.000000	12.949915
587.421280	75.705813
587.421280	32.427741
587.848823	32.430153
587.848823	75.704089
588.000000	13.113589
588.276346	32.430015
588.276346	75.698861
588.703849	32.425133
588.703849	75.685309
589.000000	13.266091
589.131332	75.668189
589.131332	32.417396
589.558794	75.644156
589.558794	32.406005
589.986236	75.610574
589.986236	32.389099
590.000000	13.446116
590.413657	75.576457
590.413657	32.371454
590.841058	75.528492
590.841058	32.346967
591.000000	13.616573
591.268438	32.320096
591.268438	75.477465
591.695799	75.421983
591.695799	32.289720
592.000000	13.787071
592.123138	32.259122
592.123138	75.370992
592.550458	75.322451
592.550458	32.227618
592.977756	32.195343
592.977756	75.278304
593.000000	13.991576
593.405034	32.162924
593.405034	75.240317
593.832292	32.132411
593.832292	75.213546
594.000000	14.207019
594.259529	32.102848
594.259529	75.195818
594.686746	75.187482
594.686746	32.074928
595.000000	14.442938
595.113942	75.188877
595.113942	32.049087
595.541117	74.930678
595.968272	75.203562
595.968272	31.999889
596.000000	14.671357
596.395406	75.208221
596.395406	31.975583
596.822519	31.947391
596.822519	75.198956
597.000000	14.912495
597.249612	75.182274
597.249612	31.919301
597.676684	75.146467
597.676684	31.886260
598.000000	15.141482
598.103735	31.846934
598.103735	75.085602
598.530766	75.001947
598.530766	31.803265
598.957775	31.750802
598.957775	74.887836
599.000000	15.383184
599.384764	31.691529
599.384764	74.746078
599.811733	74.584917
599.811733	31.627408
600.000000	15.640340
600.238680	74.400201
600.238680	31.557216
600.665606	31.482497
600.665606	74.198027
601.000000	15.910472
601.092512	31.403588
601.092512	73.981212
601.519397	73.756567
601.519397	31.323086
601.946261	73.536091
601.946261	31.244913
602.000000	16.173102
602.373104	73.315194
602.373104	31.166085
602.799926	73.100411
602.799926	31.089349
603.000000	16.429331
603.226727	72.892384
603.226727	31.015271
603.653507	72.688949
603.653507	30.941451
604.000000	16.680807
604.080266	30.870206
604.080266	72.494724
604.507004	30.800535
604.507004	72.305805
604.933721	30.731377
604.933721	72.119833
605.000000	16.915864
605.360417	30.661816
605.360417	71.932893
605.787092	30.588661
605.787092	71.738166
606.000000	17.153486
606.213746	30.512945
606.213746	71.537453
606.640379	71.324546
606.640379	30.432632
607.000000	17.392291
607.066991	71.101637
607.066991	30.348517
607.493581	30.262074
607.493581	70.873158
607.920150	30.172625
607.920150	70.636099
608.000000	17.616343
608.346699	70.387594
608.346699	30.078557
608.773226	70.138742
608.773226	29.983927
609.000000	17.841809
609.199731	29.885324
609.199731	69.882006
609.626216	69.626367
609.626216	29.785558
610.000000	18.063049
610.052679	69.370452
610.052679	29.684459
610.479121	69.119463
610.479121	29.582784
610.905542	68.869080
610.905542	29.480405
611.000000	18.284287
611.331941	68.629729
611.331941	29.380819
611.758319	68.392176
611.758319	29.280071
612.000000	18.463055
612.184676	68.163087
612.184676	29.181572
612.611011	67.937990
612.611011	29.084184
613.000000	18.670024
613.037325	67.710726
613.037325	28.985599
613.463617	28.886760
613.463617	67.484128
613.889888	28.785842
613.889888	67.250124
614.000000	18.850313
614.316138	67.011437
614.316138	28.683736
614.742366	66.767385
614.742366	28.579708
615.000000	19.070179
615.168573	66.514747
615.168573	28.473307
615.594758	66.253982
615.594758	28.364903
616.000000	19.232487
616.020921	28.256276
616.020921	65.991076
616.447063	28.147325
616.447063	65.726784
616.873184	65.463501
616.873184	28.039250
617.000000	19.422182
617.299283	65.200619
617.299283	27.932131
617.725360	27.828922
617.725360	64.946099
618.000000	19.616012
618.151416	64.703009
618.151416	27.731129
618.577450	64.464983
618.577450	27.635349
619.000000	19.818026
619.003462	27.547363
619.003462	64.244953
619.429453	64.037783
619.429453	27.466220
619.855422	63.848984
619.855422	27.393411
620.000000	20.007780
620.281369	27.328333
620.281369	63.675249
620.707295	63.507773
620.707295	27.267345
621.000000	20.210271
621.133199	63.345658
621.133199	27.208639
621.559081	63.188408
621.559081	27.152738
621.984941	63.027642
621.984941	27.096693
622.000000	20.411840
622.410779	27.040396
622.410779	62.865223
622.836596	62.688952
622.836596	26.979163
623.000000	20.645780
623.262391	62.502204
623.262391	26.912861
623.688163	26.839432
623.688163	62.297993
624.000000	20.867428
624.113914	26.760819
624.113914	62.083069
624.539644	61.850175
624.539644	26.673134
624.965351	61.603435
624.965351	26.578858
625.000000	21.083315
625.391036	61.340556
625.391036	26.477334
625.816699	26.370435
625.816699	61.067089
626.000000	21.320185
626.242340	26.259610
626.242340	60.785140
626.667960	60.494217
626.667960	26.144742
627.000000	21.553821
627.093557	60.206210
627.093557	26.030664
627.519132	25.917904
627.519132	59.919466
627.944685	25.805306
627.944685	59.633264
628.000000	21.786780
628.370216	25.694492
628.370216	59.351013
628.795725	25.589823
628.795725	59.080963
629.000000	22.012336
629.221212	25.482543
629.221212	58.804081
629.646677	58.534023
629.646677	25.378708
630.000000	22.256928
630.072119	25.276322
630.072119	58.265381
630.497540	57.996635
630.497540	25.173537
630.922938	57.726069
630.922938	25.069464
631.000000	22.499620
631.348314	57.449981
631.348314	24.962156
631.773668	57.171893
631.773668	24.853894
632.000000	22.735265
632.198999	24.742477
632.198999	56.888504
632.624308	24.627942
632.624308	56.602011
633.000000	22.977576
633.049595	24.510824
633.049595	56.312725
633.474860	56.021413
633.474860	24.391434
633.900102	24.273309
633.900102	55.735375
634.000000	23.226953
634.325322	24.157598
634.325322	55.456065
634.750520	55.187642
634.750520	24.046160
635.000000	23.456461
635.175695	54.935352
635.175695	23.941466
635.600848	54.703183
635.600848	23.846171
636.000000	23.672457
636.025978	54.497047
636.025978	23.762853
636.451086	54.317954
636.451086	23.692211
636.876171	23.635103
636.876171	54.166460
637.000000	23.908926
637.301234	23.589397
637.301234	54.039699
637.726275	53.941954
637.726275	23.558462
638.000000	24.145733
638.151293	53.874394
638.151293	23.541796
638.576288	23.535576
638.576288	53.829807
639.000000	24.378736
639.001261	23.541848
639.001261	53.811889
639.426211	23.558179
639.426211	53.816301
639.851139	23.581766
639.851139	53.837523
640.000000	24.623004
640.276044	23.611355
640.276044	53.874199
640.700927	53.922465
640.700927	23.644475
641.000000	24.840839
641.125787	53.978738
641.125787	23.679425
641.550624	54.040008
641.550624	23.714825
641.975438	23.748245
641.975438	54.103238
642.000000	25.092681
642.400230	54.172056
642.400230	23.781521
642.824999	54.237841
642.824999	23.810686
643.000000	25.337267
643.249745	23.835461
643.249745	54.301833
643.674469	54.371589
643.674469	23.860627
644.000000	25.581488
644.099169	23.882767
644.099169	54.440450
644.523847	23.905705
644.523847	54.515763
644.948502	23.929339
644.948502	54.597440
645.000000	25.815207
645.373135	54.685138
645.373135	23.953157
645.797744	54.779215
645.797744	23.979339
646.000000	26.037695
646.222330	24.007865
646.222330	54.880892
646.646894	24.038596
646.646894	54.989756
647.000000	26.275304
647.071435	55.105795
647.071435	24.072080
647.495953	55.226162
647.495953	24.107387
647.920447	24.144497
647.920447	55.351052
648.000000	26.538688
648.344919	24.180748
648.344919	55.474952
648.769368	55.409806
649.000000	26.787653
649.193794	55.714668
649.193794	24.247306
649.618197	55.821940
649.618197	24.273332
650.000000	27.023173
650.042576	24.295209
650.042576	55.921808
650.466933	56.018591
650.466933	24.315010
650.891267	56.101744
650.891267	24.327889
651.000000	27.286798
651.315577	24.334453
651.315577	56.172632
651.739864	24.337170
651.739864	56.236247
652.000000	27.534309
652.164129	56.286311
652.164129	24.333383
652.588370	56.322653
652.588370	24.323189
653.000000	27.792737
653.012587	24.310050
653.012587	56.351630
653.436782	56.177620
653.860953	24.273996
653.860953	56.383424
654.000000	28.034961
654.285102	56.391635
654.285102	24.253443
654.709226	24.232437
654.709226	56.395803
655.000000	28.290357
655.133328	24.210367
655.133328	56.395036
655.557406	24.189504
655.557406	56.394995
655.981461	24.170646
655.981461	56.396689
656.000000	28.558815
656.405493	24.153675
656.405493	56.400616
656.829501	24.134486
656.829501	56.397619
657.000000	28.804999
657.253486	24.116270
657.253486	56.393675
657.677448	56.380234
657.677448	24.094104
658.000000	29.060427
658.101386	56.365524
658.101386	24.071834
658.525301	56.343325
658.525301	24.047299
658.949192	56.313110
658.949192	24.019310
659.000000	29.319530
659.373060	56.273012
659.373060	23.986532
659.796904	56.224235
659.796904	23.950015
660.000000	29.579081
660.220725	56.165910
660.220725	23.909168
660.644522	56.098627
660.644522	23.863614
661.000000	29.862871
661.068296	56.024029
661.068296	23.815031
661.492046	55.945372
661.492046	23.764492
661.915772	23.714692
661.915772	55.867352
662.000000	30.136249
662.339475	23.665655
662.339475	55.790197
662.763154	23.621511
662.763154	55.721222
663.000000	30.375621
663.186810	23.582879
663.186810	55.662443
663.610442	23.548636
663.610442	55.611784
664.000000	30.628084
664.034050	23.523484
664.034050	55.580244
664.457635	23.508217
664.457635	55.568796
664.881196	55.581806
664.881196	23.505100
665.000000	30.858171
665.304733	23.514038
665.304733	55.619334
665.728247	55.686967
665.728247	23.536971
666.000000	31.077035
666.151736	23.572861
666.151736	55.782384
666.575202	55.708355
666.998644	23.682941
666.998644	56.056497
667.000000	31.314153
667.422062	23.757177
667.422062	56.233835
667.845457	56.430474
667.845457	23.840056
668.000000	31.553071
668.268827	56.648269
668.268827	23.932867
668.692174	56.881211
668.692174	24.033345
669.000000	31.806461
669.115496	24.139308
669.115496	57.125842
669.538795	57.375508
669.538795	24.248144
669.962070	57.633388
669.962070	24.360466
670.000000	32.055273
670.385321	57.889708
670.385321	24.471613
670.808547	24.581864
670.808547	58.143830
671.000000	32.313861
671.231750	24.686595
671.231750	58.385901
671.654929	58.616890
671.654929	24.785670
672.000000	32.583110
672.078084	58.838666
672.078084	24.880200
672.501214	24.966442
672.501214	59.042700
672.924321	25.047657
672.924321	59.235752
673.000000	32.769037
673.347404	59.416081
673.347404	25.122774
673.770462	59.584192
673.770462	25.193042
674.000000	32.978921
674.193496	25.256678
674.193496	59.739053
674.616506	25.316443
674.616506	59.884355
675.000000	33.204709
675.039492	25.370835
675.039492	60.016591
675.462454	60.140875
675.462454	25.422147
675.885391	25.469221
675.885391	60.254374
676.000000	33.414831
676.308305	60.360891
676.308305	25.512732
676.731194	60.466021
676.731194	25.556485
677.000000	33.672739
677.154058	25.598240
677.154058	60.564636
677.576899	60.659607
677.576899	25.639387
677.999715	60.750694
677.999715	25.679511
678.000000	33.885722
678.422507	60.836023
678.422507	25.717621
678.845274	25.754714
678.845274	60.917395
679.000000	34.091271
679.268017	25.792367
679.268017	60.999328
679.690736	25.828275
679.690736	61.073700
680.000000	34.316824
680.113430	25.861453
680.113430	61.141873
680.536100	25.894087
680.536100	61.205668
680.958746	61.269576
680.958746	25.927234
681.000000	34.554270
681.381367	61.327633
681.381367	25.958827
681.803963	25.987557
681.803963	61.379956
682.000000	34.773768
682.226535	26.015503
682.226535	61.429729
682.649083	61.480309
682.649083	26.043984
683.000000	35.017221
683.071605	26.072689
683.071605	61.530735
683.494104	61.579993
683.494104	26.101156
683.916578	61.632611
683.916578	26.130714
684.000000	35.233308
684.339027	61.690481
684.339027	26.162911
684.761451	26.196237
684.761451	61.752012
685.000000	35.458795
685.183851	26.229067
685.183851	61.814201
685.606227	61.883688
685.606227	26.265530
686.000000	35.711293
686.028577	26.299761
686.028577	61.950826
686.450903	26.334596
686.450903	62.021549
686.873204	26.367728
686.873204	62.090291
687.000000	35.900722
687.295481	62.158689
687.295481	26.400470
687.717733	62.221734
687.717733	26.429498
688.000000	36.069979
688.139959	26.454530
688.139959	62.278929
688.562162	62.328798
688.562162	26.475569
688.984339	62.372542
688.984339	26.492967
689.000000	36.298898
689.406492	62.405359
689.406492	26.505173
689.828619	26.509882
689.828619	62.423166
690.000000	36.531239
690.250722	26.509254
690.250722	62.429228
690.672800	26.501659
690.672800	62.420623
691.000000	36.747542
691.094853	26.488393
691.094853	62.398601
691.516881	26.471474
691.516881	62.368586
691.938884	26.450505
691.938884	62.326224
692.000000	36.957261
692.360863	62.268128
692.360863	26.423857
692.782816	62.209772
692.782816	26.397664
693.000000	37.170641
693.204744	26.372140
693.204744	62.148271
693.626647	26.346813
693.626647	62.085710
694.000000	37.371833
694.048526	62.026916
694.048526	26.325532
694.470379	61.977243
694.470379	26.308841
694.892207	61.939367
694.892207	26.298789
695.000000	37.575857
695.314010	61.917512
695.314010	26.296710
695.735788	61.915120
695.735788	26.304057
696.000000	37.771561
696.157540	26.318711
696.157540	61.930019
696.579268	61.970859
696.579268	26.344630
697.000000	37.958741
697.000970	26.380830
697.000970	62.035636
697.422648	62.125203
697.422648	26.426982
697.844300	62.236114
697.844300	26.481397
698.000000	38.167243
698.265926	26.547476
698.265926	62.376216
698.687528	62.541118
698.687528	26.622597
699.000000	38.374393
699.109104	26.705929
699.109104	62.728965
699.530655	26.795207
699.530655	62.931996
699.952181	63.160217
699.952181	26.893837
700.000000	38.586720
700.373681	26.997514
700.373681	63.402657
700.795156	27.106998
700.795156	63.659233
701.000000	38.800075
701.216606	63.927932
701.216606	27.222052
701.638030	27.338576
701.638030	64.203032
702.000000	38.974901
702.059429	27.455520
702.059429	64.479789
702.480803	64.757577
702.480803	27.573528
702.902151	65.029630
702.902151	27.689213
703.000000	39.160044
703.323473	27.801167
703.323473	65.294181
703.744770	27.906523
703.744770	65.543377
704.000000	39.345645
704.166042	28.005177
704.166042	65.778344
704.587288	28.097722
704.587288	65.997371
705.000000	39.539263
705.008509	66.200179
705.008509	28.182894
705.429704	66.389922
705.429704	28.262700
705.850873	28.333010
705.850873	66.558182
706.000000	39.764756
706.272017	28.393384
706.272017	66.704811
706.693135	28.448647
706.693135	66.837356
707.000000	39.954415
707.114228	66.716215
707.535295	67.046205
707.535295	28.533324
707.956336	28.566603
707.956336	67.128541
708.000000	40.129251
708.377352	67.193211
708.377352	28.592489
708.798342	67.243246
708.798342	28.613363
709.000000	40.313655
709.219306	28.628943
709.219306	67.281630
709.640245	67.314673
709.640245	28.642735
710.000000	40.478285
710.061157	28.653092
710.061157	67.337797
710.482044	28.659061
710.482044	67.351016
710.902905	28.666138
710.902905	67.364678
711.000000	40.668349
711.323741	67.374220
711.323741	28.672455
711.744550	28.678807
711.744550	67.382954
712.000000	40.879755
712.165334	67.397165
712.165334	28.690012
712.586092	67.415991
712.586092	28.702542
713.000000	41.099934
713.006823	28.717449
713.006823	67.436503
713.427529	28.736942
713.427529	67.465932
713.848209	28.759715
713.848209	67.501784
714.000000	41.297531
714.268863	28.785866
714.268863	67.545524
714.689492	67.598731
714.689492	28.817188
715.000000	41.463165
715.110094	67.664272
715.110094	28.854201
715.530670	67.740413
715.530670	28.895697
715.951220	67.832575
715.951220	28.944541
716.000000	41.666895
716.371744	67.935428
716.371744	28.998143
716.792242	68.058143
716.792242	29.060312
717.000000	41.836011
717.212714	68.190991
717.212714	29.127931
717.633159	29.201048
717.633159	68.337421
718.000000	41.956247
718.053579	29.280712
718.053579	68.498979
718.473973	68.665916
718.473973	29.362461
718.894340	68.844072
718.894340	29.449881
719.000000	42.110677
719.314681	29.541601
719.314681	69.030023
719.734996	29.632580
719.734996	69.214053
720.000000	42.299253
720.155285	69.399641
720.155285	29.724557
720.575547	29.815207
720.575547	69.580648
720.995784	69.756233
720.995784	29.904449
721.000000	42.477316
721.415994	69.924639
721.415994	29.991622
721.836177	30.073113
721.836177	70.080474
722.000000	42.691720
722.256335	70.223210
722.256335	30.151743
722.676466	70.340153
722.676466	30.220632
723.000000	42.895450
723.096570	30.283819
723.096570	70.440780
723.516649	70.522405
723.516649	30.341537
723.936701	70.583811
723.936701	30.392836
724.000000	43.068139
724.356726	30.432280
724.356726	70.613777
724.776725	30.463930
724.776725	70.619733
725.000000	43.227775
725.196698	70.599266
725.196698	30.485707
725.616644	30.502238
725.616644	70.556818
726.000000	43.398328
726.036564	70.488981
726.036564	30.509706
726.456457	70.401315
726.456457	30.511132
726.876324	70.298692
726.876324	30.507950
727.000000	43.546351
727.296164	70.181014
727.296164	30.500865
727.715977	30.492888
727.715977	70.055630
728.000000	43.711619
728.135764	30.482342
728.135764	69.921855
728.555525	69.785105
728.555525	30.471650
728.975258	30.459471
728.975258	69.644386
729.000000	43.879009
729.394966	69.509566
729.394966	30.449404
729.814646	30.440299
729.814646	69.378880
730.000000	44.039509
730.234300	69.258480
730.234300	30.433489
730.653927	69.148837
730.653927	30.429739
731.000000	44.208222
731.073527	30.426438
731.073527	69.047183
731.493101	68.965025
731.493101	30.427643
731.912648	68.896530
731.912648	30.431261
732.000000	44.397401
732.332168	68.850824
732.332168	30.439854
732.751661	30.452603
732.751661	68.827421
733.000000	44.565952
733.171128	68.825603
733.171128	30.470406
733.590568	68.845696
733.590568	30.492303
734.000000	44.697985
734.009980	30.518288
734.009980	68.887772
734.429366	30.549679
734.429366	68.952434
734.848726	69.036820
734.848726	30.584532
735.000000	44.856959
735.268058	69.140893
735.268058	30.624447
735.687363	69.266726
735.687363	30.669455
736.000000	45.056753
736.106641	30.717572
736.106641	69.407562
736.525893	69.560224
736.525893	30.767350
736.945117	30.818330
736.945117	69.720563
737.000000	45.228751
737.364314	30.875652
737.364314	69.897133
737.783485	70.081867
737.783485	30.935180
738.000000	45.375063
738.202628	30.996497
738.202628	70.271602
738.621744	31.059346
738.621744	70.466269
739.000000	45.548929
739.040834	70.662133
739.040834	31.122699
739.459896	70.857961
739.459896	31.187644
739.878931	71.047154
739.878931	31.251443
740.000000	45.697925
740.297939	71.228684
740.297939	31.312701
740.716919	31.370762
740.716919	71.401187
741.000000	45.822187
741.135873	71.564460
741.135873	31.428190
741.554799	31.480821
741.554799	71.713610
741.973698	31.531755
741.973698	71.852440
742.000000	46.014497
742.392570	31.577263
742.392570	71.973862
742.811415	72.083728
742.811415	31.620842
743.000000	46.201073
743.230232	31.657062
743.230232	72.172274
743.649022	31.690345
743.649022	72.250532
744.000000	46.333271
744.067785	31.719157
744.067785	72.313334
744.486521	72.359701
744.486521	31.744582
744.905229	72.394220
744.905229	31.767043
745.000000	46.519756
745.323909	31.783535
745.323909	72.411861
745.742563	72.419169
745.742563	31.797753
746.000000	46.702666
746.161189	72.418552
746.161189	31.810124
746.579787	31.823161
746.579787	72.414624
746.998358	31.834833
746.998358	72.402886
747.000000	46.840825
747.416902	31.844910
747.416902	72.384651
747.835418	31.856418
747.835418	72.366135
748.000000	47.013909
748.253907	31.869567
748.253907	72.350375
748.672368	31.883016
748.672368	72.333819
749.000000	47.167888
749.090802	72.322045
749.090802	31.899038
749.509208	72.315737
749.509208	31.917800
749.927586	31.940657
749.927586	72.320539
750.000000	47.299235
750.345937	31.966398
750.345937	72.333818
750.764261	72.357158
750.764261	31.995830
751.000000	47.416527
751.182556	32.028951
751.182556	72.393411
751.600824	32.064800
751.600824	72.440249
752.000000	47.566832
752.019065	72.503098
752.019065	32.106648
752.437277	32.151587
752.437277	72.578226
752.855462	32.202479
752.855462	72.672015
753.000000	47.678579
753.273620	72.777395
753.273620	32.256485
753.691749	32.314621
753.691749	72.894452
754.000000	47.854646
754.109851	73.021173
754.109851	32.373442
754.527925	73.158243
754.527925	32.435452
754.945971	32.498021
754.945971	73.301348
755.000000	48.072650
755.363989	32.562763
755.363989	73.452877
755.781980	73.606095
755.781980	32.627587
756.000000	48.173510
756.199943	73.766075
756.199943	32.693747
756.617877	32.756819
756.617877	73.918057
757.000000	48.251198
757.035784	32.820698
757.035784	74.069035
757.453663	32.881613
757.453663	74.215012
757.871514	32.936438
757.871514	74.347184
758.000000	48.393545
758.289337	32.990161
758.289337	74.470016
758.707132	33.035996
758.707132	74.571289
759.000000	48.647729
759.124899	33.074106
759.124899	74.649185
759.542639	74.704531
759.542639	33.105351
759.960350	74.735176
759.960350	33.127653
760.000000	48.780016
760.378033	74.741228
760.378033	33.141554
760.795688	74.711798
760.795688	33.142880
761.000000	48.891279
761.213314	33.135306
761.213314	74.655667
761.630913	33.119704
761.630913	74.573377
762.000000	49.062179
762.048484	74.462375
762.048484	33.095311
762.466026	33.063749
762.466026	74.326869
762.883541	74.160916
762.883541	33.022180
763.000000	49.186111
763.301027	73.966710
763.301027	32.970056
763.718485	73.756037
763.718485	32.913981
764.000000	49.370319
764.135914	32.852015
764.135914	73.524667
764.553316	73.276359
764.553316	32.786172
764.970689	32.718889
764.970689	73.019469
765.000000	49.507198
765.388034	32.646207
765.388034	72.748268
765.805351	72.467464
765.805351	32.571326
766.000000	49.578981
766.222639	72.188033
766.222639	32.497997
766.639899	71.901973
766.639899	32.421913
767.000000	49.733715
767.057131	71.620001
767.057131	32.348571
767.474334	71.345140
767.474334	32.277888
767.891509	71.081652
767.891509	32.211025
768.000000	49.911473
768.308655	32.149430
768.308655	70.833020
768.725773	32.089540
768.725773	70.597293
769.000000	50.165169
769.142863	70.385472
769.142863	32.038642
769.559924	70.191964
769.559924	31.991783
769.976957	70.021568
769.976957	31.950624
770.000000	50.252251
770.393961	69.871230
770.393961	31.914650
770.810936	31.886940
770.810936	69.749472
771.000000	50.395497
771.227883	31.861553
771.227883	69.646673
771.644802	69.574563
771.644802	31.845757
772.000000	50.561143
772.061692	69.530678
772.061692	31.835743
772.478553	69.507456
772.478553	31.829779
772.895386	69.512890
772.895386	31.832021
773.000000	50.687163
773.312190	69.545797
773.312190	31.840443
773.728965	69.617111
773.728965	31.860852
774.000000	50.830178
774.145712	69.711528
774.145712	31.886280
774.562430	69.830533
774.562430	31.918420
774.979119	69.975968
774.979119	31.957071
775.000000	50.939982
775.395780	70.142162
775.395780	32.001288
775.812411	32.054235
775.812411	70.334644
776.000000	51.043953
776.229014	32.114766
776.229014	70.550313
776.645589	70.780567
776.645589	32.179514
777.000000	51.233753
777.062134	71.032637
777.062134	32.253310
777.478651	71.295080
777.478651	32.330378
777.895138	32.408564
777.895138	71.563101
778.000000	51.318930
778.311597	32.493823
778.311597	71.844086
778.728027	32.580416
778.728027	72.127878
779.000000	51.425831
779.144428	32.673004
779.144428	72.420436
779.560800	32.766558
779.560800	72.712786
779.977143	32.860433
779.977143	73.002584
780.000000	51.596243
780.393458	73.283962
780.393458	32.952569
780.809743	73.559435
780.809743	33.044306
781.000000	51.674590
781.225999	33.132780
781.225999	73.819179
781.642226	33.220541
781.642226	74.069136
782.000000	51.816085
782.058425	74.293250
782.058425	33.299748
782.474594	74.496846
782.474594	33.372793
782.890734	74.676072
782.890734	33.437870
783.000000	51.888388
783.306845	74.835012
783.306845	33.497027
783.722926	33.547212
783.722926	74.965354
784.000000	52.022983
784.138979	33.590612
784.138979	75.070563
784.555003	75.145346
784.555003	33.623775
784.970997	33.648979
784.970997	75.192321
785.000000	52.257889
785.386962	33.666018
785.386962	75.215195
785.802898	33.671651
785.802898	75.205442
786.000000	52.297393
786.218805	75.168408
786.218805	33.669065
786.634682	33.656473
786.634682	75.102264
787.000000	52.493033
787.050531	75.013827
787.050531	33.637847
787.466349	33.610975
787.466349	74.903366
787.882139	33.577171
787.882139	74.770224
788.000000	52.674050
788.297899	33.540211
788.297899	74.626085
788.713630	33.499596
788.713630	74.472069
789.000000	52.707845
789.129332	74.307193
789.129332	33.455919
789.545004	33.411831
789.545004	74.139167
789.960647	73.962621
789.960647	33.362567
790.000000	52.808829
790.376260	33.316192
790.376260	73.794898
790.791844	33.270471
790.791844	73.630932
791.000000	52.991831
791.207399	73.469228
791.207399	33.222918
791.622924	73.320807
791.622924	33.179210
792.000000	53.123003
792.038419	73.177092
792.038419	33.134233
792.453885	73.052441
792.453885	33.093443
792.869321	33.055771
792.869321	72.942631
793.000000	53.191723
793.284728	33.022917
793.284728	72.854810
793.700106	72.780764
793.700106	32.991644
794.000000	53.328303
794.115453	32.966122
794.115453	72.730026
794.530771	32.940369
794.530771	72.689516
794.946060	72.674408
794.946060	32.921534
795.000000	53.392135
795.361319	72.672296
795.361319	32.904199
795.776548	72.684630
795.776548	32.890059
796.000000	53.466604
796.191747	32.878093
796.191747	72.707676
796.606917	72.737029
796.606917	32.865413
797.000000	53.643993
797.022057	72.780425
797.022057	32.858584
797.437167	32.849872
797.437167	72.825022
797.852248	72.876362
797.852248	32.844530
798.000000	53.792531
798.267298	32.837958
798.267298	72.925628
798.682319	32.833729
798.682319	72.979251
799.000000	54.020431
799.097310	32.829002
799.097310	73.028780
799.512271	32.820701
799.512271	73.066340
799.927203	73.094293
799.927203	32.808229
800.000000	54.059664
800.342104	32.795365
800.342104	73.115185
800.756976	73.121793
800.756976	32.778436
801.000000	54.183699
801.171818	73.110615
801.171818	32.755760
801.586629	32.729093
801.586629	73.082146
802.000000	54.355841
802.001411	32.697567
802.001411	73.037232
802.416163	72.969827
802.416163	32.658057
802.830885	72.894532
802.830885	32.617706
803.000000	54.561829
803.245577	72.793870
803.245577	32.567737
803.660238	32.513430
803.660238	72.676004
804.000000	54.616374
804.074870	32.455416
804.074870	72.544099
804.489472	72.394678
804.489472	32.390842
804.904043	32.322902
804.904043	72.230390
805.000000	54.665087
805.318585	72.047730
805.318585	32.249855
805.733096	32.174568
805.733096	71.854130
806.000000	54.778067
806.147577	32.095472
806.147577	71.644687
806.562028	32.012859
806.562028	71.422994
806.976449	31.926153
806.976449	71.186777
807.000000	54.917943
807.390840	70.944152
807.390840	31.839590
807.805200	31.750039
807.805200	70.689039
808.000000	54.885305
808.219530	31.662815
808.219530	70.432601
808.633830	31.579104
808.633830	70.175074
809.000000	55.136148
809.048100	69.912377
809.048100	31.493661
809.462339	31.411826
809.462339	69.652710
809.876548	69.394752
809.876548	31.332548
810.000000	55.295937
810.290727	69.146674
810.290727	31.259405
810.704875	68.897362
810.704875	31.186761
811.000000	55.386779
811.118993	68.652596
811.118993	31.116375
811.533080	31.051720
811.533080	68.418282
811.947137	30.989405
811.947137	68.191044
812.000000	55.538090
812.361164	30.933149
812.361164	67.978968
812.775160	30.880351
812.775160	67.774765
813.000000	55.716799
813.189126	30.831589
813.189126	67.583614
813.603061	30.788778
813.603061	67.409061
814.000000	55.742759
814.016966	30.750620
814.016966	67.251198
814.430840	30.714032
814.430840	67.105292
814.844684	30.684430
814.844684	66.980555
815.000000	55.820962
815.258497	30.659261
815.258497	66.875475
815.672280	66.780168
815.672280	30.634889
816.000000	55.972839
816.086032	66.707247
816.086032	30.616613
816.499753	66.655988
816.499753	30.603583
816.913444	66.620738
816.913444	30.592110
817.000000	55.981645
817.327104	66.604861
817.327104	30.586411
817.740733	66.604773
817.740733	30.581903
818.000000	56.139044
818.154331	30.582405
818.154331	66.624997
818.567899	30.584651
818.567899	66.660509
818.981436	30.590271
818.981436	66.713343
819.000000	56.167428
819.394943	66.784810
819.394943	30.601535
819.808418	30.616081
819.808418	66.874422
820.000000	56.405624
820.221863	30.630908
820.221863	66.972540
820.635277	30.651325
820.635277	67.089430
821.000000	56.512649
821.048660	30.673448
821.048660	67.214724
821.462013	67.348401
821.462013	30.694960
821.875334	30.722324
821.875334	67.494732
822.000000	56.444704
822.288625	67.644783
822.288625	30.749429
822.701884	30.778962
822.701884	67.801676
823.000000	56.642812
823.115113	30.808765
823.115113	67.958253
823.528311	68.117635
823.528311	30.838561
823.941478	68.277321
823.941478	30.871728
824.000000	56.687427
824.354614	68.427746
824.354614	30.900321
824.767718	30.930543
824.767718	68.574925
825.000000	56.891803
825.180792	30.953751
825.180792	68.702717
825.593835	68.823285
825.593835	30.976160
826.000000	57.123334
826.006847	68.925103
826.006847	30.994257
826.419827	31.003649
826.419827	69.005275
826.832777	69.064780
826.832777	31.007975
827.000000	57.139441
827.245695	31.005329
827.245695	69.101397
827.658582	30.988844
827.658582	69.103105
828.000000	57.091125
828.071438	30.963370
828.071438	69.075962
828.484263	30.924235
828.484263	69.013319
828.897057	68.920014
828.897057	30.874550
829.000000	57.279255
829.309819	30.810924
829.309819	68.793280
829.722551	68.637416
829.722551	30.737716
830.000000	57.403522
830.135251	68.444669
830.135251	30.648968
830.547919	30.548198
830.547919	68.220006
830.960557	67.965438
830.960557	30.435121
831.000000	57.449741
831.373163	67.687388
831.373163	30.315499
831.785738	67.379673
831.785738	30.183044
832.000000	57.419071
832.198281	30.041901
832.198281	67.052828
832.610793	29.894905
832.610793	66.707123
833.000000	57.713585
833.023274	66.146731
833.435723	29.592041
833.435723	65.987432
833.848141	29.441256
833.848141	65.625842
834.000000	57.621473
834.260528	65.257965
834.260528	29.288898
834.672883	64.892457
834.672883	29.138239
835.000000	57.854669
835.085206	64.537458
835.085206	28.992824
835.497498	64.182239
835.497498	28.845829
835.909758	28.706344
835.909758	63.844606
836.000000	57.851226
836.321987	28.572060
836.321987	63.517144
836.734185	63.211143
836.734185	28.445320
837.000000	58.039615
837.146350	28.325242
837.146350	62.922277
837.558485	62.656717
837.558485	28.212719
837.970587	28.109498
837.970587	62.414420
838.000000	58.083990
838.382658	28.012706
838.382658	62.191859
838.794697	27.922527
838.794697	61.991629
839.000000	58.232428
839.206705	61.623145
839.618681	61.664428
839.618681	27.769203
840.000000	58.202063
840.030625	27.708025
840.030625	61.542212
840.442538	61.442865
840.442538	27.653471
840.854418	27.607470
840.854418	61.366435
841.000000	58.544284
841.266267	27.573010
841.266267	61.319405
841.678084	27.547190
841.678084	61.297421
842.000000	58.612248
842.089870	61.292194
842.089870	27.527561
842.501623	27.516742
842.501623	61.304833
842.913345	61.335170
842.913345	27.512214
843.000000	58.470141
843.325035	61.383562
843.325035	27.515954
843.736693	61.449388
843.736693	27.528171
844.000000	58.624791
844.148319	61.523878
844.148319	27.542813
844.559913	61.613424
844.559913	27.565495
844.971475	27.592098
844.971475	61.706327
845.000000	58.803139
845.383005	27.623903
845.383005	61.808181
845.794504	61.903592
845.794504	27.652905
846.000000	58.832189
846.205970	62.010054
846.205970	27.688718
846.617404	62.102464
846.617404	27.718878
847.000000	59.092321
847.028806	27.749820
847.028806	62.192032
847.440176	27.779957
847.440176	62.277497
847.851514	27.807091
847.851514	62.352176
848.000000	59.004231
848.262820	27.832176
848.262820	62.419926
848.674094	27.848802
848.674094	62.468367
849.000000	59.258409
849.085336	62.503908
849.085336	27.860192
849.496546	62.519764
849.496546	27.863230
849.907723	62.518229
849.907723	27.860363
850.000000	59.632982
850.318868	27.843923
850.318868	62.488903
850.729981	27.818814
850.729981	62.439425
851.000000	59.321321
851.141062	62.378494
851.141062	27.788734
851.552110	27.747760
851.552110	62.292378
851.963127	62.186047
851.963127	27.698744
852.000000	59.119928
852.374111	62.065294
852.374111	27.641377
852.785062	27.567443
852.785062	61.909416
853.000000	59.390279
853.195982	61.739962
853.195982	27.490130
853.606869	61.550108
853.606869	27.402720
854.000000	59.322619
854.017723	27.308329
854.017723	61.346266
854.428546	61.118307
854.428546	27.204453
854.839336	60.878297
854.839336	27.097037
855.000000	59.597068
855.250093	26.981936
855.250093	60.624253
855.660818	26.864900
855.660818	60.362917
856.000000	59.748075
856.071511	60.090576
856.071511	26.744319
856.482171	59.799187
856.482171	26.615033
856.892799	59.500460
856.892799	26.484414
857.000000	59.874486
857.303394	59.197247
857.303394	26.354459
857.713956	26.220276
857.713956	58.884650
858.000000	59.639494
858.124486	26.098719
858.124486	58.570841
858.534984	58.252860
858.534984	25.963314
858.945449	57.927405
858.945449	25.826155
859.000000	59.940387
859.355881	57.598509
859.355881	25.688825
859.766280	25.553945
859.766280	57.274569
860.000000	59.198842
860.176647	25.415070
860.176647	56.941997
860.586982	56.615128
860.586982	25.279743
860.997283	25.145018
860.997283	56.288824
861.000000	60.426546
861.407552	25.012928
861.407552	55.966489
861.817789	55.647959
861.817789	24.881531
862.000000	59.941486
862.227992	55.333277
862.227992	24.751686
862.638163	55.027965
862.638163	24.623360
863.000000	59.520190
863.048301	54.734754
863.048301	24.501817
863.458406	54.446725
863.458406	24.380569
863.868478	24.261003
863.868478	54.164904
864.000000	59.515002
864.278518	53.899600
864.278518	24.147566
864.688524	24.036461
864.688524	53.644614
865.000000	58.963591
865.098498	53.394556
865.098498	23.925881
865.508439	53.164742
865.508439	23.822411
865.918347	52.947001
865.918347	23.721106
866.000000	59.162417
866.328222	52.746260
866.328222	23.626216
866.738064	52.557963
866.738064	23.534350
867.000000	60.137056
867.147873	52.395492
867.147873	23.452165
867.557649	52.242154
867.557649	23.370873
867.967392	23.296559
867.967392	52.109931
868.000000	60.359654
868.377102	23.226940
868.377102	51.990754
868.786779	23.162965
868.786779	51.889520
869.000000	59.943418
869.196423	23.108686
869.196423	51.814889
869.606034	51.754957
869.606034	23.059372
870.000000	60.422465
870.015612	51.709872
870.015612	23.014024
870.425156	22.976775
870.425156	51.684560
870.834668	51.666911
870.834668	22.942404
871.000000	60.234599
871.244146	22.922833
871.244146	51.680076
871.653591	22.905021
871.653591	51.699904
872.000000	59.961162
872.063003	22.892263
872.063003	51.731649
872.472382	22.885397
872.472382	51.774724
872.881728	51.837230
872.881728	22.888400
873.000000	60.496736
873.291040	51.903338
873.291040	22.893572
873.700319	51.973780
873.700319	22.902978
874.000000	59.736801
874.109564	22.919704
874.109564	52.057580
874.518777	52.142549
874.518777	22.939033
874.927956	52.228220
874.927956	22.960329
875.000000	60.750842
875.337102	52.314976
875.337102	22.985128
875.746214	52.392514
875.746214	23.006150
876.000000	60.772257
876.155293	52.477528
876.155293	23.033408
876.564338	23.056204
876.564338	52.549111
876.973350	23.074122
876.973350	52.610418
877.000000	60.916875
877.382329	23.090671
877.382329	52.664755
877.791274	23.105346
877.791274	52.709476
878.000000	60.858596
878.200186	52.741681
878.200186	23.113596
878.609064	23.118035
878.609064	52.762169
879.000000	60.057518
879.017909	52.762486
879.017909	23.111235
879.426720	52.742676
879.426720	23.096540
879.835497	23.071629
879.835497	52.700868
880.000000	59.935771
880.244241	23.040502
880.244241	52.646338
880.652952	52.574609
880.652952	23.000088
881.000000	61.166022
881.061629	52.492209
881.061629	22.953537
881.470272	52.385482
881.470272	22.895400
881.878881	22.829610
881.878881	52.259917
882.000000	61.158803
882.287457	52.120657
882.287457	22.755480
882.695999	51.954341
882.695999	22.668725
883.000000	60.840964
883.104507	22.579811
883.104507	51.782293
883.512982	22.487114
883.512982	51.601345
883.921423	51.403419
883.921423	22.386234
884.000000	61.662493
884.329830	22.282350
884.329830	51.202161
884.738203	22.176836
884.738203	50.993996
885.000000	61.241749
885.146543	50.782992
885.146543	22.069739
885.554849	50.559422
885.554849	21.957976
885.963120	21.848992
885.963120	50.337470
886.000000	61.075177
886.371358	21.743433
886.371358	50.125392
886.779563	49.902784
886.779563	21.634068
887.000000	61.274206
887.187733	49.686122
887.187733	21.528465
887.595869	49.476009
887.595869	21.427785
888.000000	61.020371
888.003971	21.326096
888.003971	49.264510
888.412040	49.069526
888.412040	21.231684
888.820074	21.139719
888.820074	48.876746
889.000000	61.307062
889.228074	21.054562
889.228074	48.701171
889.636041	48.531139
889.636041	20.972969
890.000000	61.306195
890.043973	20.896344
890.043973	48.371712
890.451871	20.826518
890.451871	48.229585
890.859736	48.098461
890.859736	20.763103
891.000000	61.599386
891.267566	47.976234
891.267566	20.702541
891.675362	47.871294
891.675362	20.649133
892.000000	61.205034
892.083124	47.775976
892.083124	20.600986
892.490851	20.557385
892.490851	47.694391
892.898545	47.620597
892.898545	20.516570
893.000000	60.479481
893.306204	20.478949
893.306204	47.551471
893.713829	20.445503
893.713829	47.490503
894.000000	61.158926
894.121420	20.418301
894.121420	47.445128
894.528977	47.404714
894.528977	20.393132
894.936499	20.371156
894.936499	47.372388
895.000000	61.522920
895.343987	20.356889
895.343987	47.356984
895.751441	47.170932
896.000000	61.634799
896.158860	20.324067
896.158860	47.316661
896.566246	47.302125
896.566246	20.311120
896.973596	20.299391
896.973596	47.284396
897.000000	61.975931
897.380913	47.274882
897.380913	20.289983
897.788195	47.253389
897.788195	20.277670
898.000000	61.856167
898.195442	20.270695
898.195442	47.240570
898.602655	20.261430
898.602655	47.222920
899.000000	61.888200
899.009834	20.249376
899.009834	47.193807
899.416978	20.236774
899.416978	47.162621
899.824088	47.124562
899.824088	20.223042
900.000000	62.386138
900.231163	20.206364
900.231163	47.084602
900.638204	47.043114
900.638204	20.192614
901.000000	62.399485
901.045210	46.980923
901.045210	20.170779
901.452181	20.146264
901.452181	46.912065
901.859118	20.115133
901.859118	46.826602
902.000000	62.366349
902.266021	46.746820
902.266021	20.088174
902.672888	20.051843
902.672888	46.648996
903.000000	61.575663
903.079721	20.011106
903.079721	46.539651
903.486520	46.416041
903.486520	19.966185
903.893283	19.917366
903.893283	46.284718
904.000000	61.750221
904.300012	19.865431
904.300012	46.142506
904.706707	45.992921
904.706707	19.808363
905.000000	61.965760
905.113366	19.747552
905.113366	45.831833
905.519991	45.666358
905.519991	19.684744
905.926581	45.495808
905.926581	19.618090
906.000000	62.393912
906.333136	45.308777
906.333136	19.544033
906.739656	19.463928
906.739656	45.111008
907.000000	61.639239
907.146142	44.909062
907.146142	19.381607
907.552592	19.301001
907.552592	44.706671
907.959008	19.214116
907.959008	44.492820
908.000000	61.985123
908.365389	19.128229
908.365389	44.281767
908.771735	44.062346
908.771735	19.039301
909.000000	61.982335
909.178046	43.696620
909.584322	18.858098
909.584322	43.627368
909.990563	18.764137
909.990563	43.398727
910.000000	62.433626
910.396769	18.673961
910.396769	43.181895
910.802940	18.576381
910.802940	42.951441
911.000000	62.314267
911.209076	18.479932
911.209076	42.725264
911.615177	18.383353
911.615177	42.498545
912.000000	62.272457
912.021243	18.287589
912.021243	42.274611
912.427274	18.191928
912.427274	42.053819
912.833270	41.834389
912.833270	18.098795
913.000000	63.114020
913.239231	41.612083
913.239231	18.002024
913.645156	17.909688
913.645156	41.398388
914.000000	63.383134
914.051046	17.816464
914.051046	41.184293
914.456902	40.979668
914.456902	17.727002
914.862721	17.638789
914.862721	40.774624
915.000000	62.366993
915.268506	17.553346
915.268506	40.576029
915.674256	40.380167
915.674256	17.467416
916.000000	62.611117
916.079970	40.192548
916.079970	17.383849
916.485649	40.009581
916.485649	17.302985
916.891292	17.220546
916.891292	39.825042
917.000000	61.791850
917.296901	39.649869
917.296901	17.142437
917.702474	39.473652
917.702474	17.062679
918.000000	62.328694
918.108011	16.991519
918.108011	39.312884
918.513514	39.146769
918.513514	16.917820
918.918980	16.848905
918.918980	38.993583
919.000000	62.605394
919.324412	38.849143
919.324412	16.784409
919.729808	38.706657
919.729808	16.720501
920.000000	62.740309
920.135169	38.567933
920.135169	16.656836
920.540494	38.446170
920.540494	16.601617
920.945783	16.549053
920.945783	38.329733
921.000000	62.853429
921.351037	16.497044
921.351037	38.217157
921.756256	38.113375
921.756256	16.447982
922.000000	62.148534
922.161439	38.014714
922.161439	16.403214
922.566586	16.361755
922.566586	37.928147
922.971698	16.321141
922.971698	37.842982
923.000000	62.233160
923.376775	37.771073
923.376775	16.287543
923.781815	16.255972
923.781815	37.705272
924.000000	62.348921
924.186820	16.227581
924.186820	37.644816
924.591790	37.592277
924.591790	16.201675
924.996723	16.180079
924.996723	37.546443
925.000000	62.931458
925.401621	16.155738
925.401621	37.498752
925.806484	37.466973
925.806484	16.141929
926.000000	63.523301
926.211310	16.128530
926.211310	37.436519
926.616101	16.121180
926.616101	37.419507
927.000000	63.975435
927.020856	16.114134
927.020856	37.400694
927.425575	16.103183
927.425575	37.373732
927.830259	37.360290
927.830259	16.098593
928.000000	62.938564
928.234906	16.096780
928.234906	37.347215
928.639518	37.340199
928.639518	16.097519
929.000000	62.755117
929.044094	37.334152
929.044094	16.099210
929.448634	37.338185
929.448634	16.106990
929.853138	37.332680
929.853138	16.111335
930.000000	63.070807
930.257606	37.334687
930.257606	16.119691
930.662038	16.123377
930.662038	37.328735
931.000000	63.594351
931.066434	16.131675
931.066434	37.328535
931.470795	37.326815
931.470795	16.140354
931.875119	37.330580
931.875119	16.152675
932.000000	63.222027
932.279407	16.166235
932.279407	37.337150
932.683659	16.177421
932.683659	37.336204
933.000000	63.248650
933.087875	16.182958
933.087875	37.322348
933.492055	16.190602
933.492055	37.312856
933.896199	16.196936
933.896199	37.299784
934.000000	63.890942
934.300307	16.196950
934.300307	37.271464
934.704379	37.246298
934.704379	16.196641
935.000000	63.748124
935.108414	16.194059
935.108414	37.211092
935.512414	37.177435
935.512414	16.191383
935.916377	37.131265
935.916377	16.181401
936.000000	63.489898
936.320304	37.073032
936.320304	16.166760
936.724195	37.013453
936.724195	16.150653
937.000000	63.386281
937.128049	16.132472
937.128049	36.947143
937.531867	16.110110
937.531867	36.873508
937.935649	16.089936
937.935649	36.798282
938.000000	63.044743
938.339395	36.710564
938.339395	16.059859
938.743104	16.024621
938.743104	36.614016
939.000000	63.961367
939.146777	36.394372
939.550414	36.406785
939.550414	15.948463
939.954014	36.305524
939.954014	15.909919
940.000000	63.561929
940.357578	36.181574
940.357578	15.860805
940.761105	36.061173
940.761105	15.812550
941.000000	64.204436
941.164596	35.927841
941.164596	15.759186
941.568050	15.702352
941.568050	35.791552
941.971468	15.641148
941.971468	35.646081
942.000000	63.541769
942.374850	35.503439
942.374850	15.580222
942.778195	35.357130
942.778195	15.517103
943.000000	63.114068
943.181503	15.452882
943.181503	35.206185
943.584775	35.063725
943.584775	15.392670
943.988010	15.326392
943.988010	34.909377
944.000000	63.419465
944.391209	34.749333
944.391209	15.257013
944.794371	34.475719
945.000000	64.358930
945.197496	15.123981
945.197496	34.434318
945.600585	15.060755
945.600585	34.283065
946.000000	64.694284
946.003637	14.991999
946.003637	34.122264
946.406653	33.965043
946.406653	14.924991
946.809632	33.812106
946.809632	14.861892
947.000000	64.238187
947.212574	33.659013
947.212574	14.799404
947.615479	33.508351
947.615479	14.736880
948.000000	63.608866
948.018347	14.672978
948.018347	33.351634
948.421179	14.617200
948.421179	33.211961
948.823974	33.077835
948.823974	14.565809
949.000000	64.069460
949.226732	32.938590
949.226732	14.509495
949.629453	14.456549
949.629453	32.803185
950.000000	63.851565
950.032138	32.678484
950.032138	14.407997
950.434785	14.356632
950.434785	32.550472
950.837396	32.427040
950.837396	14.306953
951.000000	63.941523
951.239969	14.262883
951.239969	32.311402
951.642506	14.214011
951.642506	32.188587
952.000000	63.612349
952.045006	32.075063
952.045006	14.170856
952.447469	31.962371
952.447469	14.127479
952.849895	31.858272
952.849895	14.089596
953.000000	63.415090
953.252283	14.051543
953.252283	31.758527
953.654635	14.015391
953.654635	31.662494
954.000000	63.527808
954.056950	31.563983
954.056950	13.978225
954.459227	13.941598
954.459227	31.471240
954.861468	13.907165
954.861468	31.382797
955.000000	63.857047
955.263671	13.878199
955.263671	31.298271
955.665838	31.217256
955.665838	13.846932
956.000000	63.855558
956.067967	31.141230
956.067967	13.818386
956.470059	31.066634
956.470059	13.790944
956.872114	30.989225
956.872114	13.761223
957.000000	63.599272
957.274131	13.732231
957.274131	30.913864
957.676112	30.843518
957.676112	13.704331
958.000000	63.650975
958.078055	30.784328
958.078055	13.679328
958.479961	30.720703
958.479961	13.654623
958.881829	13.630578
958.881829	30.653758
959.000000	63.774990
959.283661	30.592032
959.283661	13.607338
959.685455	30.527321
959.685455	13.580234
960.000000	63.907300
960.087211	13.560491
960.087211	30.476112
960.488931	30.419152
960.488931	13.535818
960.890613	30.354661
960.890613	13.507670
961.000000	63.847660
961.292257	13.479197
961.292257	30.287274
961.693864	13.453984
961.693864	30.232025
962.000000	63.731219
962.095434	30.164510
962.095434	13.423143
962.496966	13.389220
962.496966	30.088206
962.898461	30.025822
962.898461	13.360792
963.000000	64.376872
963.299918	13.328897
963.299918	29.959281
963.701338	29.896911
963.701338	13.299442
964.000000	64.863697
964.102720	13.272326
964.102720	29.834991
964.504065	29.780790
964.504065	13.246019
964.905372	29.713495
964.905372	13.214712
965.000000	64.259305
965.306641	13.183680
965.306641	29.648067
965.707873	13.150420
965.707873	29.577751
966.000000	64.023315
966.109068	29.511089
966.109068	13.117290
966.510224	13.091302
966.510224	29.463609
966.911343	13.063482
966.911343	29.401426
967.000000	63.850937
967.312425	29.342699
967.312425	13.033729
967.713468	13.002078
967.713468	29.283602
968.000000	63.952026
968.114474	12.974383
968.114474	29.220553
968.515442	12.940369
968.515442	29.149676
968.916373	29.092836
968.916373	12.911957
969.000000	64.644137
969.317265	12.888123
969.317265	29.043432
969.718120	12.861712
969.718120	28.987743
970.000000	64.500374
970.118937	12.828786
970.118937	28.925702
970.519716	12.797635
970.519716	28.857592
970.920458	28.801583
970.920458	12.769118
971.000000	64.411736
971.321161	12.740705
971.321161	28.755396
971.721827	28.698897
971.721827	12.710042
972.000000	64.171202
972.122454	12.685229
972.122454	28.649945
972.523044	12.653166
972.523044	28.592203
972.923596	28.553232
972.923596	12.629909
973.000000	63.916033
973.324110	28.513734
973.324110	12.606839
973.724585	12.579213
973.724585	28.468943
974.000000	63.802200
974.125023	12.555349
974.125023	28.421466
974.525423	12.533671
974.525423	28.381948
974.925785	28.355758
974.925785	12.514166
975.000000	63.919910
975.326108	12.498212
975.326108	28.329705
975.726394	12.476842
975.726394	28.285101
976.000000	64.242954
976.126642	28.250406
976.126642	12.458697
976.526851	28.220465
976.526851	12.439652
976.927022	12.418274
976.927022	28.183468
977.000000	64.469850
977.327155	12.408271
977.327155	28.174582
977.727250	12.393690
977.727250	28.152880
978.000000	64.340810
978.127307	28.126199
978.127307	12.375997
978.527325	12.372546
978.527325	28.129166
978.927306	28.092695
978.927306	12.354646
979.000000	64.563792
979.327248	28.086685
979.327248	12.347186
979.727151	12.341694
979.727151	28.072016
980.000000	65.185591
980.127017	28.061730
980.127017	12.331003
980.526844	28.039396
980.526844	12.316339
980.926633	28.029006
980.926633	12.306456
981.000000	65.069342
981.326383	12.295483
981.326383	28.012387
981.726095	12.283770
981.726095	27.999121
982.000000	64.960101
982.125769	27.992052
982.125769	12.274201
982.525404	12.267943
982.525404	27.986291
982.925001	12.259616
982.925001	27.975207
983.000000	65.154440
983.324560	27.967608
983.324560	12.253491
983.724079	12.244282
983.724079	27.945631
984.000000	64.698491
984.123561	27.950814
984.123561	12.242909
984.523004	27.960391
984.523004	12.241789
984.922408	12.238194
984.922408	27.958697
985.000000	64.361664
985.321774	12.232050
985.321774	27.945768
985.721102	27.928615
985.721102	12.223584
986.000000	64.481278
986.120390	12.223835
986.120390	27.928670
986.519641	27.930514
986.519641	12.218985
986.918852	12.215965
986.918852	27.925500
987.000000	64.614002
987.318025	12.226677
987.318025	27.953396
987.717159	12.219425
987.717159	27.936027
988.000000	64.653769
988.116255	12.227529
988.116255	27.972212
988.515312	28.001327
988.515312	12.235026
988.914330	12.236559
988.914330	28.015676
989.000000	64.111359
989.313310	28.030320
989.313310	12.243159
989.712250	12.243407
989.712250	28.035644
990.000000	64.074383
990.111152	12.271231
990.111152	28.105269
990.510015	12.283600
990.510015	28.143988
990.908840	28.176505
990.908840	12.292311
991.000000	64.793846
991.307625	12.311431
991.307625	28.224186
991.706372	12.314853
991.706372	28.246607
992.000000	65.004215
992.105080	28.296399
992.105080	12.327681
992.503749	28.326548
992.503749	12.341333
992.902379	28.391834
992.902379	12.363267
993.000000	65.134210
993.300970	28.479269
993.300970	12.389221
993.699522	12.415706
993.699522	28.559362
994.000000	64.992336
994.098035	12.434634
994.098035	28.616417
994.496510	28.686092
994.496510	12.455526
994.894945	28.757536
994.894945	12.477683
995.000000	65.087648
995.293341	12.490221
995.293341	28.822058
995.691698	12.526980
995.691698	28.928397
996.000000	64.909896
996.090016	12.559593
996.090016	29.035848
996.488296	29.130802
996.488296	12.593432
996.886535	12.632045
996.886535	29.255016
997.000000	64.469165
997.284736	12.656571
997.284736	29.338230
997.682898	12.704618
997.682898	29.461513
998.000000	64.536744
998.081021	29.590705
998.081021	12.748765
998.479104	12.786829
998.479104	29.714717
998.877148	12.841473
998.877148	29.878548
999.000000	65.185425
999.275153	12.915141
999.275153	30.074487
999.673119	12.940539
999.673119	30.154449
1000.000000	64.785096
1000.071046	30.338089
1000.071046	12.998842
1000.468933	30.499346
1000.468933	13.060244
1000.866781	30.624925
1000.866781	13.105718
1001.000000	64.487505
1001.264590	30.807558
1001.264590	13.165644
1001.662359	13.211204
1001.662359	30.936166
1002.000000	64.742995
1002.060089	13.268648
1002.060089	31.122262
1002.457780	31.200632
1002.457780	13.287950
1002.855431	13.356893
1002.855431	31.388857
1003.000000	64.612993
1003.253043	31.497871
1003.253043	13.386490
1003.650615	13.469855
1003.650615	31.741880
1004.000000	64.746042
1004.048148	13.558088
1004.048148	31.967053
1004.445642	13.617724
1004.445642	32.143173
1004.843096	13.699375
1004.843096	32.393798
1005.000000	65.302381
1005.240511	32.670003
1005.240511	13.807727
1005.637886	32.798058
1005.637886	13.862554
1006.000000	65.471382
1006.035221	13.949587
1006.035221	33.049332
1006.432517	14.052365
1006.432517	33.350441
1006.829774	33.649748
1006.829774	14.167702
1007.000000	65.815210
1007.226991	33.918428
1007.226991	14.271042
1007.624168	14.404251
1007.624168	34.246866
1008.000000	65.520037
1008.021306	34.492424
1008.021306	14.499627
1008.418404	34.787429
1008.418404	14.612781
1008.815462	14.733952
1008.815462	35.105310
1009.000000	64.690864
1009.212481	35.345811
1009.212481	14.834074
1009.609460	35.801104
1009.609460	15.028001
1010.000000	65.052501
1010.006399	36.189754
1010.006399	15.180703
1010.403298	15.338879
1010.403298	36.571159
1010.800158	15.538823
1010.800158	37.084438
1011.000000	65.200964
1011.196978	37.450643
1011.196978	15.700672
1011.593758	15.865592
1011.593758	37.849904
1011.990498	16.093037
1011.990498	38.422881
1012.000000	65.120447
1012.387199	38.893518
1012.387199	16.292679
1012.783860	39.339718
1012.783860	16.495921
1013.000000	65.513422
1013.180480	16.736613
1013.180480	39.899884
1013.577061	16.977790
1013.577061	40.384328
1013.973602	17.271413
1013.973602	41.088153
1014.000000	65.448554
1014.370103	17.537631
1014.370103	41.677131
1014.766564	17.731640
1014.766564	42.136165
1015.000000	65.494741
1015.162985	17.907362
1015.162985	42.550762
1015.559366	18.126786
1015.559366	43.019580
1015.955708	43.304764
1015.955708	18.269499
1016.000000	65.101701
1016.352009	43.669114
1016.352009	18.426602
1016.748270	44.161794
1016.748270	18.633693
1017.000000	64.795657
1017.144491	44.551048
1017.144491	18.826995
1017.540671	18.973360
1017.540671	44.864335
1017.936812	19.232243
1017.936812	45.463138
1018.000000	64.808288
1018.332913	45.868957
1018.332913	19.442035
1018.728973	19.638045
1018.728973	46.255144
1019.000000	64.909683
1019.124994	46.640606
1019.124994	19.816126
1019.520974	47.254934
1019.520974	20.077935
1019.916914	47.746400
1019.916914	20.308743
1020.000000	65.353675
1020.312814	48.309921
1020.312814	20.575589
1021.000000	65.641128
1022.000000	65.333831
1023.000000	65.873783
1024.000000	65.894599
1025.000000	65.378738
1026.000000	65.077125
1027.000000	65.125285
1028.000000	64.658991
1029.000000	65.058489
1030.000000	65.063715
1031.000000	64.876039
1032.000000	65.679508
1033.000000	65.575481
1034.000000	65.209194
1035.000000	65.236568
1036.000000	65.377215
1037.000000	65.422004
1038.000000	65.275854
1039.000000	65.622364
1040.000000	65.494337
1041.000000	65.146016
1042.000000	65.899340
1043.000000	65.563573
1044.000000	65.387162
1045.000000	65.897439
1046.000000	65.911095
1047.000000	65.802270
1048.000000	65.352925
1049.000000	65.045069
1050.000000	65.266827
1051.000000	64.935605
1052.000000	64.990706
1053.000000	65.172678
1054.000000	65.537455
1055.000000	65.830960
1056.000000	64.990804
1057.000000	64.876255
1058.000000	65.183180
1059.000000	65.756453
1060.000000	65.761040
1061.000000	65.378662
1062.000000	65.503441
1063.000000	65.044134
1064.000000	65.267416
1065.000000	66.059336
1066.000000	66.468260
1067.000000	65.730105
1068.000000	65.758496
1069.000000	65.737671
1070.000000	66.010292
1071.000000	65.620456
1072.000000	65.319648
1073.000000	65.613239
1074.000000	65.981878
1075.000000	65.454221
1076.000000	65.852255
1077.000000	65.129783
1078.000000	65.780454
1079.000000	66.404751
1080.000000	65.941792
1081.000000	65.591497
1082.000000	65.619957
1083.000000	65.008240
1084.000000	66.098330
1085.000000	65.848472
1086.000000	66.392062
1087.000000	66.247885
1088.000000	65.615489
1089.000000	65.798544
1090.000000	65.748157
1091.000000	65.772994
1092.000000	65.345711
1093.000000	66.440260
1094.000000	65.833892
1095.000000	66.613358
1096.000000	66.136894
1097.000000	66.200850
1098.000000	66.432583
1099.000000	65.696115
1100.000000	65.667502
1101.000000	65.492835
1102.000000	64.854287
1103.000000	65.705268
1104.000000	66.326491
1105.000000	65.246734
1106.000000	65.740961
1107.000000	65.629679
1108.000000	65.376599
1109.000000	66.373976
1110.000000	66.628842
1111.000000	65.719066
1112.000000	66.037629
1113.000000	65.777796
1114.000000	65.917368
1115.000000	66.657299
1116.000000	65.724848
1117.000000	65.941919
1118.000000	66.366521
1119.000000	65.635264
1120.000000	67.051416
1121.000000	65.640214
1122.000000	66.632603
1123.000000	66.357696
1124.000000	65.696619
1125.000000	67.203419
1126.000000	66.211151
1127.000000	66.100126
1128.000000	66.457324
1129.000000	65.871885
1130.000000	66.472437
1131.000000	66.234492
1132.000000	66.310011
1133.000000	65.817111
1134.000000	66.436673
1135.000000	66.093746
1136.000000	65.268454
1137.000000	66.127011
1138.000000	66.500636
1139.000000	65.395745
1140.000000	65.554240
1141.000000	67.127208
1142.000000	66.588410
1143.000000	65.394188
1144.000000	66.463121
1145.000000	64.988689
1146.000000	65.997695
1147.000000	65.141135
1148.000000	65.866834
1149.000000	66.011920
1150.000000	65.235278
1151.000000	66.008045
1152.000000	66.274322
1153.000000	65.165898
1154.000000	66.141394
1155.000000	65.737524
1156.000000	65.994302
1157.000000	65.468982
1158.000000	64.603828
1159.000000	65.560845
1160.000000	65.317216
1161.000000	65.952856
1162.000000	64.982026
1163.000000	64.807043
1164.000000	65.031234
1165.000000	64.292456
1166.000000	64.901891
1167.000000	65.452296
1168.000000	65.932550
1169.000000	65.695804
1170.000000	65.086514
1171.000000	65.345741
1172.000000	65.502615
1173.000000	65.702129
1174.000000	65.667497
1175.000000	65.409865
1176.000000	65.646536
1177.000000	65.718966
1178.000000	65.548127
1179.000000	65.849564
1180.000000	66.246356
1181.000000	65.221057
1182.000000	65.298956
1183.000000	65.100508
1184.000000	65.295223
1185.000000	65.142742
1186.000000	65.032779
1187.000000	65.474679
1188.000000	65.068747
1189.000000	65.207455
1190.000000	65.491304
1191.000000	66.047766
1192.000000	65.914015
1193.000000	64.991851
1194.000000	65.272748
1195.000000	65.395235
1196.000000	65.654070
1197.000000	65.408500
1198.000000	65.668058
1199.000000	65.472155
1200.000000	65.679639
1201.000000	65.633530
1202.000000	65.290715
1203.000000	66.101367
1204.000000	66.100085
1205.000000	65.259019
1206.000000	65.883214
1207.000000	65.609281
1208.000000	64.803729
1209.000000	65.318367
1210.000000	65.225076
1211.000000	65.237752
1212.000000	65.137080
1213.000000	64.969925
1214.000000	65.555891
1215.000000	65.684175
1216.000000	66.529139
1217.000000	65.475932
1218.000000	65.702945
1219.000000	65.772554
1220.000000	65.873227
1221.000000	65.944137
1222.000000	65.743265
1223.000000	65.990932
1224.000000	65.228390
1225.000000	65.578405
1226.000000	66.031493
1227.000000	66.132266
1228.000000	65.858937
1229.000000	65.689263
1230.000000	65.787297
1231.000000	65.959395
1232.000000	65.605603
1233.000000	65.162807
1234.000000	65.432254
1235.000000	65.529038
1236.000000	65.541097
1237.000000	65.585848
1238.000000	65.621008
1239.000000	65.653601
1240.000000	65.545979
1241.000000	65.725957
1242.000000	66.299562
1243.000000	65.900807
1244.000000	65.717911
1245.000000	66.031233
1246.000000	65.646513
1247.000000	65.131238
1248.000000	66.003791
1249.000000	66.301309
1250.000000	66.060227
1251.000000	66.612678
1252.000000	66.423518
1253.000000	66.124692
1254.000000	66.387915
1255.000000	66.399729
1256.000000	65.798442
1257.000000	65.685115
1258.000000	65.862726
1259.000000	65.830109
1260.000000	65.952606
1261.000000	65.388808
1262.000000	65.313088
1263.000000	66.027350
1264.000000	66.196455
1265.000000	65.840947
1266.000000	65.463966
1267.000000	65.329853
1268.000000	65.442548
1269.000000	65.752149
1270.000000	66.129361
1271.000000	65.825168
1272.000000	65.420820
1273.000000	65.428088
1274.000000	65.678827
1275.000000	65.386446
1276.000000	65.453757
1277.000000	65.760755
1278.000000	65.731436
1279.000000	65.448051
1280.000000	65.321269
1281.000000	65.365248
1282.000000	65.831855
1283.000000	66.435784
1284.000000	66.622245
1285.000000	66.212530
1286.000000	65.543230
1287.000000	65.490390
1288.000000	65.420854
1289.000000	65.845739
1290.000000	66.561937
1291.000000	66.454030
1292.000000	66.111465
1293.000000	66.148116
1294.000000	65.791465
1295.000000	65.684640
1296.000000	65.918505
1297.000000	65.679218
1298.000000	66.048499
1299.000000	65.777152
1300.000000	65.233166
1301.000000	65.827829
1302.000000	66.038651
1303.000000	66.088380
1304.000000	66.362678
1305.000000	65.906511
1306.000000	66.024202
1307.000000	66.326099
1308.000000	65.510820
1309.000000	65.401636
1310.000000	65.540344
1311.000000	65.933807
1312.000000	66.151264
1313.000000	66.056193
1314.000000	66.406474
1315.000000	66.571306
1316.000000	65.919889
1317.000000	65.945493
1318.000000	65.975051
1319.000000	65.861218
1320.000000	66.249906
1321.000000	65.913263
1322.000000	65.326836
1323.000000	64.930876
1324.000000	65.405864
1325.000000	65.900268
1326.000000	65.805048
1327.000000	66.229497
1328.000000	65.481247
1329.000000	65.797801
1330.000000	66.138299
1331.000000	65.948569
1332.000000	66.001679
1333.000000	66.924745
1334.000000	66.558231
1335.000000	65.671425
1336.000000	66.054444
1337.000000	65.606224
1338.000000	65.944827
1339.000000	65.768184
1340.000000	65.579036
1341.000000	65.316071
1342.000000	65.926020
1343.000000	66.462695
1344.000000	65.831581
1345.000000	65.568211
1346.000000	65.703212
1347.000000	65.534538
1348.000000	65.313918
1349.000000	64.654410
1350.000000	64.820651
1351.000000	66.291553
1352.000000	64.015440
1353.000000	65.694872
1354.000000	67.546990
1355.000000	70.677387
1356.000000	64.957553
1357.000000	65.684610
1358.000000	64.326295
1359.000000	65.964164
1360.000000	67.036369
1361.000000	66.647113
1362.000000	62.259952
1363.000000	63.801713
1364.000000	67.567598
1365.000000	61.850655
1366.000000	64.362012
1367.000000	69.567452
1368.000000	67.608247
1369.000000	64.749450
1370.000000	64.301050
1371.000000	64.513546
1372.000000	64.727539
1373.000000	64.626451
1374.000000	65.872731
1375.000000	65.472612
1376.000000	65.221316
1377.000000	63.941558
1378.000000	67.733701
1379.000000	64.115214
1380.000000	72.681019
1381.000000	66.869518
1382.000000	71.724036
1383.000000	67.405643
1384.000000	64.444792
1385.000000	65.754740
1386.000000	64.003685
1387.000000	65.114902
1388.000000	62.686535
1389.000000	65.281314
1390.000000	65.796711
1391.000000	65.746186
1392.000000	62.487013
1393.000000	63.903997
1394.000000	64.491072
1395.000000	65.913275
1396.000000	61.162894
1397.000000	63.811842
1398.000000	64.315304
1399.000000	65.794669
1400.000000	69.056591
1401.000000	63.886030
1402.000000	63.408957
1403.000000	63.517585
1404.000000	62.266030
1405.000000	62.450390
1406.000000	63.894165
1407.000000	63.077990
1408.000000	63.067243
1409.000000	65.463825
1410.000000	62.940757
1411.000000	62.045610
1412.000000	62.639690
1413.000000	62.452721
1414.000000	63.481863
1415.000000	62.685743
1416.000000	62.556620
1417.000000	62.752089
1418.000000	61.960141
1419.000000	62.596618
1420.000000	62.576833
1421.000000	61.601196
1422.000000	62.535327
1423.000000	61.946418
1424.000000	61.725562
1425.000000	62.433711
1426.000000	61.473346
1427.000000	61.895060
1428.000000	61.503437
1429.000000	61.648633
1430.000000	61.691776
1431.000000	62.250337
1432.000000	62.631349
1433.000000	61.610148
1434.000000	60.990281
1435.000000	60.851530
1436.000000	60.786431
1437.000000	61.427570
1438.000000	62.619595
1439.000000	63.405114
1440.000000	61.814416
1441.000000	63.163879
1442.000000	60.731670
1443.000000	60.500788
1444.000000	60.965570
1445.000000	60.809978
1446.000000	60.232127
1447.000000	60.456668
1448.000000	61.057472
1449.000000	61.319488
1450.000000	61.772570
1451.000000	61.196118
1452.000000	60.919545
1453.000000	60.480325
1454.000000	60.817617
1455.000000	60.541609
1456.000000	61.530416
1457.000000	60.748984
1458.000000	61.600078
1459.000000	61.007821
1460.000000	60.608740
1461.000000	61.264947
1462.000000	60.962027
1463.000000	60.878813
1464.000000	60.678319
1465.000000	60.398093
1466.000000	59.935297
1467.000000	59.483343
1468.000000	60.523771
1469.000000	61.000985
1470.000000	60.576942
1471.000000	60.692154
1472.000000	60.437803
1473.000000	59.779258
1474.000000	60.831518
1475.000000	60.178254
1476.000000	59.094805
1477.000000	59.387209
1478.000000	59.615831
1479.000000	60.299570
1480.000000	60.654406
1481.000000	60.360458
1482.000000	59.697572
1483.000000	60.443845
1484.000000	59.944109
1485.000000	59.903722
1486.000000	59.988351
1487.000000	60.289874
1488.000000	60.315211
1489.000000	60.499644
1490.000000	60.026918
1491.000000	60.023396
1492.000000	60.254991
1493.000000	59.656087
1494.000000	59.753016
1495.000000	60.487985
1496.000000	60.729694
1497.000000	60.075586
1498.000000	59.395553
1499.000000	60.344265
1500.000000	60.134058
1501.000000	59.505574
1502.000000	59.997182
1503.000000	60.214894
1504.000000	60.189299
1505.000000	60.340918
1506.000000	60.681595
1507.000000	60.098241
1508.000000	59.683050
1509.000000	59.886385
1510.000000	60.357511
1511.000000	59.914120
1512.000000	60.261284
1513.000000	60.499450
1514.000000	60.531349
1515.000000	60.879652
1516.000000	60.830061
1517.000000	60.419126
1518.000000	61.026758
1519.000000	61.152330
1520.000000	61.302393
1521.000000	61.169328
1522.000000	61.206679
1523.000000	61.316965
1524.000000	61.313233
1525.000000	61.161908
1526.000000	61.339806
1527.000000	61.482137
1528.000000	61.090779
1529.000000	61.183720
1530.000000	61.351099
1531.000000	61.355806
1532.000000	60.799147
1533.000000	60.729651
1534.000000	61.434709
1535.000000	61.031573
1536.000000	60.633425
1537.000000	60.785496
1538.000000	60.880495
1539.000000	60.951883
1540.000000	60.822642
1541.000000	61.369796
1542.000000	61.739386
1543.000000	61.723490
1544.000000	61.845803
1545.000000	61.347764
1546.000000	60.872775
1547.000000	61.845482
1548.000000	61.977385
1549.000000	61.608216
1550.000000	61.520801
1551.000000	61.641593
1552.000000	62.166805
1553.000000	61.668713
1554.000000	61.550031
1555.000000	61.778164
1556.000000	61.946123
1557.000000	62.292473
1558.000000	62.008494
1559.000000	62.342625
1560.000000	61.516427
1561.000000	61.336368
1562.000000	61.572090
1563.000000	61.953910
1564.000000	61.971892
1565.000000	61.095672
1566.000000	61.918129
1567.000000	61.949960
1568.000000	61.580133
1569.000000	61.704854
1570.000000	61.509697
1571.000000	61.382874
1572.000000	61.685380
1573.000000	62.056322
1574.000000	61.577108
1575.000000	60.779867
1576.000000	60.719473
1577.000000	60.861088
1578.000000	61.116178
1579.000000	61.660523
1580.000000	61.387434
1581.000000	61.742038
1582.000000	61.996456
1583.000000	62.100225
1584.000000	61.279727
1585.000000	61.733914
1586.000000	62.155265
1587.000000	61.929879
1588.000000	62.131084
1589.000000	61.312912
1590.000000	62.089278
1591.000000	62.440621
1592.000000	61.840722
1593.000000	62.032018
1594.000000	62.196383
1595.000000	62.291503
1596.000000	61.969379
1597.000000	61.953390
1598.000000	62.552686
1599.000000	61.553009
1600.000000	62.179977
1601.000000	62.714893
1602.000000	62.800279
1603.000000	62.254608
1604.000000	61.347212
1605.000000	61.895071
1606.000000	62.207439
1607.000000	61.840917
1608.000000	61.696023
1609.000000	61.486842
1610.000000	62.508241
1611.000000	62.198236
1612.000000	61.868291
1613.000000	62.266447
1614.000000	62.241395
1615.000000	63.043133
1616.000000	61.552343
1617.000000	62.245792
1618.000000	61.780798
1619.000000	62.954844
1620.000000	62.425617
1621.000000	62.458064
1622.000000	62.363393
1623.000000	62.732230
1624.000000	61.787054
1625.000000	61.905735
1626.000000	61.561131
1627.000000	61.671209
1628.000000	61.743646
1629.000000	62.118879
1630.000000	61.552402
1631.000000	61.904856
1632.000000	62.216190
1633.000000	62.164187
1634.000000	62.558878
1635.000000	62.495889
1636.000000	62.752990
1637.000000	62.086522
1638.000000	61.979432
1639.000000	62.269685
1640.000000	61.662897
1641.000000	62.270718
1642.000000	62.962096
1643.000000	62.797755
1644.000000	62.855997
1645.000000	62.530979
1646.000000	62.048244
1647.000000	62.193932
1648.000000	62.867445
1649.000000	62.081155
1650.000000	62.888710
1651.000000	62.270432
1652.000000	63.298148
1653.000000	62.762962
1654.000000	62.807918
1655.000000	62.184998
1656.000000	62.557808
1657.000000	62.189497
1658.000000	63.230577
1659.000000	63.388795
1660.000000	61.640475
1661.000000	62.304844
1662.000000	61.664203
1663.000000	62.277352
1664.000000	61.875482
1665.000000	62.179511
1666.000000	61.896832
1667.000000	61.845024
1668.000000	61.355458
1669.000000	62.031552
1670.000000	62.726885
1671.000000	61.050841
1672.000000	61.554598
1673.000000	62.050798
1674.000000	61.622072
1675.000000	62.232333
1676.000000	62.167423
1677.000000	60.633317
1678.000000	62.261867
1679.000000	61.289322
1680.000000	60.806580
1681.000000	60.592502
1682.000000	60.960854
1683.000000	61.080511
1684.000000	61.433626
1685.000000	61.549217
1686.000000	60.584331
1687.000000	60.083934
1688.000000	60.886524
1689.000000	60.862667
1690.000000	61.752511
1691.000000	61.711082
1692.000000	61.787892
1693.000000	61.105337
1694.000000	60.794880
1695.000000	60.720525
1696.000000	61.253463
1697.000000	61.516015
1698.000000	62.421135
1699.000000	61.007103
1700.000000	60.892836
1701.000000	60.925498
1702.000000	61.598644
1703.000000	61.494453
1704.000000	61.284061
1705.000000	60.879086
1706.000000	61.294353
1707.000000	61.003457
1708.000000	60.494164
1709.000000	61.009393
1710.000000	60.881980
1711.000000	61.026128
1712.000000	60.864204
1713.000000	61.491161
1714.000000	61.126854
1715.000000	61.110640
1716.000000	60.401301
1717.000000	61.058333
1718.000000	60.668491
1719.000000	60.209520
1720.000000	60.134260
1721.000000	60.509203
1722.000000	59.753527
1723.000000	60.701014
1724.000000	60.332173
1725.000000	60.542749
1726.000000	59.882743
1727.000000	59.981025
1728.000000	59.759670
1729.000000	59.954413
1730.000000	60.484092
1731.000000	60.545033
1732.000000	60.139439
1733.000000	60.567414
1734.000000	60.981761
1735.000000	60.579517
1736.000000	60.322641
1737.000000	59.909274
1738.000000	60.643865
1739.000000	60.647866
1740.000000	60.316726
1741.000000	60.097112
1742.000000	60.635968
1743.000000	60.409306
1744.000000	60.208360
1745.000000	59.510389
1746.000000	60.225775
1747.000000	60.430890
1748.000000	60.819023
1749.000000	60.557454
1750.000000	61.324102
1751.000000	60.984700
1752.000000	60.986332
1753.000000	60.890048
1754.000000	60.080585
1755.000000	60.462406
1756.000000	60.636108
1757.000000	61.335023
1758.000000	60.529270
1759.000000	60.736224
1760.000000	61.486049
1761.000000	61.442081
1762.000000	60.647902
1763.000000	60.505317
1764.000000	60.869192
1765.000000	61.177836
1766.000000	60.939137
1767.000000	60.902080
1768.000000	60.537541
1769.000000	60.966709
1770.000000	61.472727
1771.000000	60.526714
1772.000000	60.690145
1773.000000	61.029219
1774.000000	61.628332
1775.000000	61.671974
1776.000000	61.421908
1777.000000	61.086531
1778.000000	61.275078
1779.000000	60.958682
1780.000000	60.717866
1781.000000	60.949975
1782.000000	61.072942
1783.000000	60.934658
1784.000000	61.405008
1785.000000	61.479800
1786.000000	61.219743
1787.000000	61.434159
1788.000000	61.470589
1789.000000	61.072388
1790.000000	61.324387
1791.000000	61.227294
1792.000000	60.567440
1793.000000	59.939356
1794.000000	60.322219
1795.000000	61.174600
1796.000000	61.520861
1797.000000	61.472405
1798.000000	61.410696
1799.000000	61.938352
1800.000000	62.335079
1801.000000	61.915206
1802.000000	61.258411
1803.000000	60.690245
1804.000000	60.972317
1805.000000	61.706406
1806.000000	61.555236
1807.000000	61.071136
1808.000000	61.051137
1809.000000	61.250500
1810.000000	62.098293
1811.000000	62.524811
1812.000000	61.777477
1813.000000	61.316741
1814.000000	61.741253
1815.000000	61.296692
1816.000000	61.746507
1817.000000	63.510298
1818.000000	61.462385
1819.000000	61.981785
1820.000000	61.401359
1821.000000	60.409127
1822.000000	60.858364
1823.000000	61.315788
1824.000000	60.954788
1825.000000	62.685443
1826.000000	62.082185
1827.000000	61.485673
1828.000000	60.903751
1829.000000	61.455559
1830.000000	64.080190
1831.000000	62.559478
1832.000000	60.594284
1833.000000	61.256550
1834.000000	62.203776
1835.000000	61.414466
1836.000000	60.402619
1837.000000	60.361829
1838.000000	60.164059
1839.000000	60.137124
1840.000000	60.705432
1841.000000	62.653889
1842.000000	61.565523
1843.000000	61.096750
1844.000000	62.090005
1845.000000	61.126446
1846.000000	61.856433
1847.000000	63.361403
1848.000000	61.806118
1849.000000	61.365511
1850.000000	60.653930
1851.000000	60.942153
1852.000000	62.078344
1853.000000	63.614791
1854.000000	62.507466
1855.000000	61.760098
1856.000000	59.988379
1857.000000	59.406524
1858.000000	59.966667
1859.000000	61.188298
1860.000000	60.696225
1861.000000	61.123764
1862.000000	61.921000
1863.000000	62.698508
1864.000000	61.750191
1865.000000	62.192386
1866.000000	60.653057
1867.000000	59.715362
1868.000000	60.400997
1869.000000	62.653458
1870.000000	66.852575
1871.000000	62.139593
1872.000000	62.829773
1873.000000	61.140613
1874.000000	61.298506
1875.000000	60.434168
1876.000000	62.388922
1877.000000	61.026252
1878.000000	61.038751
1879.000000	60.442904
1880.000000	60.945870
1881.000000	59.985025
1882.000000	60.325084
1883.000000	61.270078
1884.000000	59.088499
1885.000000	58.178951
1886.000000	60.421844
1887.000000	59.375944
1888.000000	59.081884
1889.000000	59.555813
1890.000000	58.295135
1891.000000	58.443969
1892.000000	58.160084
1893.000000	58.928401
1894.000000	57.936773
1895.000000	56.406700
1896.000000	56.814898
1897.000000	56.630322
1898.000000	56.947076
1899.000000	56.709252
1900.000000	56.029464
1901.000000	55.832106
1902.000000	58.115375
1903.000000	55.294647
1904.000000	54.861548
1905.000000	53.885020
1906.000000	55.745011
1907.000000	53.337140
1908.000000	54.283931
1909.000000	53.131964
1910.000000	52.349258
1911.000000	51.332606
1912.000000	51.971884
1913.000000	53.198707
1914.000000	52.690065
1915.000000	50.959430
1916.000000	49.349530
1917.000000	50.305252
1918.000000	50.628525
1919.000000	53.024305
1920.000000	51.956614
1921.000000	51.300213
1922.000000	51.185839
1923.000000	51.598180
1924.000000	51.286047
1925.000000	50.904136
1926.000000	50.905587
1927.000000	50.201320
1928.000000	51.233275
1929.000000	50.729583
1930.000000	51.500187
1931.000000	51.696442
1932.000000	50.808496
1933.000000	50.994461
1934.000000	50.010426
1935.000000	51.114184
1936.000000	50.973513
1937.000000	51.210157
1938.000000	49.337646
1939.000000	50.351613
1940.000000	49.655890
1941.000000	51.356636
1942.000000	51.277308
1943.000000	51.074824
1944.000000	50.769931
1945.000000	50.729048
1946.000000	51.322120
1947.000000	51.866467
1948.000000	50.854113
1949.000000	51.077983
1950.000000	50.865214
1951.000000	50.331447
1952.000000	50.941542
1953.000000	52.084969
1954.000000	51.301208
1955.000000	51.713796
1956.000000	52.127216
1957.000000	51.580750
1958.000000	52.123180
1959.000000	52.661486
1960.000000	52.782834
1961.000000	52.231337
1962.000000	52.878870
1963.000000	52.150504
1964.000000	51.886930
1965.000000	52.387588
1966.000000	52.014824
1967.000000	53.399817
1968.000000	52.102165
1969.000000	52.982785
1970.000000	52.852411
1971.000000	53.442467
1972.000000	53.449779
1973.000000	53.935139
1974.000000	53.455800
1975.000000	53.759219
1976.000000	52.859276
1977.000000	52.814544
1978.000000	53.347280
1979.000000	53.448260
1980.000000	53.064873
1981.000000	53.312642
1982.000000	53.166561
1983.000000	53.236386
1984.000000	53.885115
1985.000000	54.056768
1986.000000	53.416095
1987.000000	54.681938
1988.000000	54.090463
1989.000000	54.215220
1990.000000	54.370504
1991.000000	54.386252
1992.000000	53.913489
1993.000000	54.449494
1994.000000	54.470232
1995.000000	54.617051
1996.000000	54.298151
1997.000000	54.278954
1998.000000	53.995020
1999.000000	53.872541
