PE UV       SUBTECH     SPECTRUM    ASCII       PEDS        4.00        
   -1
CICIMAUCR0019-1.Sample.ASC
24/04/17
11:27:54.00
24/04/17
11:27:54.00
Vinicio Soto Monge
C. cupreomarginata
250,000000
1
Lambda 1050
1050L1511233
PerkinElmer UV WinLab 6.3.2.0749 / 2.02.05 Lambda 900 UV/VIS/NIR, Aug  7 2015 09:38:08

0
0
3350/servo 860,8/2
0
0
UV/VIS
1
1
1
DoubleDePol,CommonBeamDepol,RBeamAtt,SBeamAtt,60mm sphere, WB InGaAs Detector
0
0
0
0
Program
Program
3350/servo 860,8/2
3350/0,2 860,8/0,2
3350/0,2 860,8/0,2
0
15.00
 
 
 
0
 
860,8
319,2
860,8
Front
100
on
S:100 R:100
0
0
0
0
 
0
 
 
 
0
 
 
0
0
0
0
0
 
 
 
 
0
0


0
0
#HDR
-1
-1
#GR
nm
%R
1.0
0.0
2500,000000
-1,000000
2251
8
46,208200
3,615000
#DATA
2482.000000	6.063598
2481.000000	5.988701
2480.000000	6.018188
2479.000000	6.009696
2478.000000	5.969593
2477.000000	5.955439
2476.000000	5.945060
2475.000000	5.989526
2474.000000	5.896229
2473.000000	5.958860
2472.000000	5.903424
2471.000000	5.916634
2470.000000	5.924183
2469.000000	5.937040
2468.000000	5.956265
2467.000000	5.951311
2466.000000	5.928193
2465.000000	5.954024
2464.000000	5.952491
2463.000000	5.960039
2462.000000	5.954614
2461.000000	5.985280
2460.000000	6.026444
2459.000000	6.024675
2458.000000	6.046731
2457.000000	6.043783
2456.000000	6.073152
2455.000000	6.097331
2454.000000	6.107593
2453.000000	6.152649
2452.000000	6.177536
2451.000000	6.221295
2450.000000	6.285105
2449.000000	6.283571
2448.000000	6.307043
2447.000000	6.331222
2446.000000	6.350684
2445.000000	6.384771
2444.000000	6.414848
2443.000000	6.441858
2442.000000	6.463560
2441.000000	6.493755
2440.000000	6.518996
2439.000000	6.558155
2438.000000	6.571365
2437.000000	6.600262
2436.000000	6.607457
2435.000000	6.654518
2434.000000	6.659118
2433.000000	6.670441
2432.000000	6.704528
2431.000000	6.762795
2430.000000	6.773056
2429.000000	6.768456
2428.000000	6.764328
2427.000000	6.778246
2426.000000	6.794759
2425.000000	6.815753
2424.000000	6.826959
2423.000000	6.822123
2422.000000	6.832030
2421.000000	6.857153
2420.000000	6.909286
2419.000000	6.958825
2418.000000	6.984891
2417.000000	7.012019
2416.000000	7.039147
2415.000000	7.050824
2414.000000	7.060732
2413.000000	7.084204
2412.000000	7.099183
2411.000000	7.141526
2410.000000	7.159219
2409.000000	7.169716
2408.000000	7.171957
2407.000000	7.208757
2406.000000	7.244967
2405.000000	7.260772
2404.000000	7.256880
2403.000000	7.275751
2402.000000	7.300638
2401.000000	7.340741
2400.000000	7.359613
2399.000000	7.368812
2398.000000	7.382377
2397.000000	7.398771
2396.000000	7.429556
2395.000000	7.451022
2394.000000	7.463761
2393.000000	7.482750
2392.000000	7.498202
2391.000000	7.515304
2390.000000	7.536063
2389.000000	7.528986
2388.000000	7.532289
2387.000000	7.552340
2386.000000	7.555878
2385.000000	7.560596
2384.000000	7.563309
2383.000000	7.544437
2382.000000	7.545145
2381.000000	7.550807
2380.000000	7.557058
2379.000000	7.556468
2378.000000	7.528750
2377.000000	7.524504
2376.000000	7.540427
2375.000000	7.543848
2374.000000	7.523678
2373.000000	7.508345
2372.000000	7.502566
2371.000000	7.479802
2370.000000	7.460340
2369.000000	7.440053
2368.000000	7.426725
2367.000000	7.404315
2366.000000	7.362561
2365.000000	7.304177
2364.000000	7.270090
2363.000000	7.258649
2362.000000	7.226095
2361.000000	7.199203
2360.000000	7.170542
2359.000000	7.152731
2358.000000	7.130085
2357.000000	7.109562
2356.000000	7.093403
2355.000000	7.078306
2354.000000	7.099537
2353.000000	7.108973
2352.000000	7.110152
2351.000000	7.122891
2350.000000	7.155562
2349.000000	7.188116
2348.000000	7.216188
2347.000000	7.240367
2346.000000	7.271741
2345.000000	7.292500
2344.000000	7.321161
2343.000000	7.352182
2342.000000	7.381433
2341.000000	7.422951
2340.000000	7.417643
2339.000000	7.404787
2338.000000	7.423894
2337.000000	7.426489
2336.000000	7.421064
2335.000000	7.411982
2334.000000	7.391694
2333.000000	7.373530
2332.000000	7.342392
2331.000000	7.321515
2330.000000	7.300756
2329.000000	7.255818
2328.000000	7.225152
2327.000000	7.189413
2326.000000	7.155798
2325.000000	7.118762
2324.000000	7.058373
2323.000000	7.009896
2322.000000	6.960830
2321.000000	6.904450
2320.000000	6.858805
2319.000000	6.797825
2318.000000	6.726113
2317.000000	6.669380
2316.000000	6.599554
2315.000000	6.535155
2314.000000	6.480309
2313.000000	6.445868
2312.000000	6.414258
2311.000000	6.351038
2310.000000	6.350802
2309.000000	6.355638
2308.000000	6.325679
2307.000000	6.337592
2306.000000	6.340894
2305.000000	6.343253
2304.000000	6.384653
2303.000000	6.434191
2302.000000	6.491160
2301.000000	6.535391
2300.000000	6.578560
2299.000000	6.636944
2298.000000	6.678108
2297.000000	6.703585
2296.000000	6.776949
2295.000000	6.811507
2294.000000	6.836984
2293.000000	6.857979
2292.000000	6.872369
2291.000000	6.903861
2290.000000	6.898907
2289.000000	6.907753
2288.000000	6.880389
2287.000000	6.875907
2286.000000	6.859276
2285.000000	6.854912
2284.000000	6.827902
2283.000000	6.803133
2282.000000	6.792046
2281.000000	6.774590
2280.000000	6.757723
2279.000000	6.708303
2278.000000	6.707595
2277.000000	6.684595
2276.000000	6.656759
2275.000000	6.648739
2274.000000	6.623970
2273.000000	6.646144
2272.000000	6.648267
2271.000000	6.645554
2270.000000	6.698513
2269.000000	6.713256
2268.000000	6.763620
2267.000000	6.815753
2266.000000	6.888410
2265.000000	6.956819
2264.000000	7.064860
2263.000000	7.143531
2262.000000	7.262659
2261.000000	7.363623
2260.000000	7.514478
2259.000000	7.645637
2258.000000	7.798026
2257.000000	7.916092
2256.000000	8.082753
2255.000000	8.197163
2254.000000	8.357926
2253.000000	8.488966
2252.000000	8.617412
2251.000000	8.752581
2250.000000	8.856965
2249.000000	8.957692
2248.000000	9.072102
2247.000000	9.180496
2246.000000	9.273322
2245.000000	9.353409
2244.000000	9.438921
2243.000000	9.547905
2242.000000	9.618438
2241.000000	9.657951
2240.000000	9.739217
2239.000000	9.803499
2238.000000	9.845252
2237.000000	9.895970
2236.000000	9.969924
2235.000000	10.019108
2234.000000	10.039277
2233.000000	10.080559
2232.000000	10.110636
2231.000000	10.110282
2230.000000	10.159466
2229.000000	10.159348
2228.000000	10.190133
2227.000000	10.246984
2226.000000	10.231297
2225.000000	10.220681
2224.000000	10.237784
2223.000000	10.235779
2222.000000	10.206056
2221.000000	10.228820
2220.000000	10.235071
2219.000000	10.228938
2218.000000	10.206882
2217.000000	10.200866
2216.000000	10.187892
2215.000000	10.193318
2214.000000	10.159348
2213.000000	10.159113
2212.000000	10.124318
2211.000000	10.151564
2210.000000	10.113467
2209.000000	10.112051
2208.000000	10.132456
2207.000000	10.132928
2206.000000	10.110990
2205.000000	10.110754
2204.000000	10.108513
2203.000000	10.079262
2202.000000	10.100256
2201.000000	10.096954
2200.000000	10.091646
2199.000000	10.094005
2198.000000	10.067349
2197.000000	10.067821
2196.000000	10.055436
2195.000000	10.058031
2194.000000	10.074898
2193.000000	10.043405
2192.000000	10.044821
2191.000000	10.050482
2190.000000	10.020523
2189.000000	10.006841
2188.000000	10.004129
2187.000000	9.983606
2186.000000	9.977708
2185.000000	9.963790
2184.000000	9.956949
2183.000000	9.944211
2182.000000	9.934185
2181.000000	9.939729
2180.000000	9.934303
2179.000000	9.931708
2178.000000	9.930411
2177.000000	9.913426
2176.000000	9.913191
2175.000000	9.893493
2174.000000	9.911185
2173.000000	9.910124
2172.000000	9.912483
2171.000000	9.906821
2170.000000	9.931708
2169.000000	9.955416
2168.000000	9.952113
2167.000000	9.950698
2166.000000	9.947631
2165.000000	9.969924
2164.000000	9.969570
2163.000000	9.991980
2162.000000	10.029370
2161.000000	10.036682
2160.000000	10.046472
2159.000000	10.066877
2158.000000	10.100020
2157.000000	10.138708
2156.000000	10.156518
2155.000000	10.157343
2154.000000	10.195794
2153.000000	10.238963
2152.000000	10.268686
2151.000000	10.290389
2150.000000	10.300768
2149.000000	10.339101
2148.000000	10.356322
2147.000000	10.367409
2146.000000	10.386753
2145.000000	10.403147
2144.000000	10.429332
2143.000000	10.452214
2142.000000	10.453275
2141.000000	10.479932
2140.000000	10.512957
2139.000000	10.528408
2138.000000	10.542090
2137.000000	10.574762
2136.000000	10.588326
2135.000000	10.590921
2134.000000	10.616516
2133.000000	10.621469
2132.000000	10.637392
2131.000000	10.642110
2130.000000	10.652962
2129.000000	10.658741
2128.000000	10.657090
2127.000000	10.661100
2126.000000	10.676197
2125.000000	10.676551
2124.000000	10.662633
2123.000000	10.660628
2122.000000	10.652018
2121.000000	10.647418
2120.000000	10.668059
2119.000000	10.654731
2118.000000	10.627013
2117.000000	10.615100
2116.000000	10.609910
2115.000000	10.606018
2114.000000	10.604603
2113.000000	10.600239
2112.000000	10.568393
2111.000000	10.559311
2110.000000	10.556362
2109.000000	10.544095
2108.000000	10.518854
2107.000000	10.508357
2106.000000	10.520034
2105.000000	10.496798
2104.000000	10.469316
2103.000000	10.463065
2102.000000	10.457403
2101.000000	10.458819
2100.000000	10.451624
2099.000000	10.449383
2098.000000	10.450327
2097.000000	10.451388
2096.000000	10.450798
2095.000000	10.420840
2094.000000	10.404445
2093.000000	10.420014
2092.000000	10.405624
2091.000000	10.399491
2090.000000	10.403265
2089.000000	10.391235
2088.000000	10.397132
2087.000000	10.412701
2086.000000	10.420132
2085.000000	10.427091
2084.000000	10.428270
2083.000000	10.424732
2082.000000	10.407747
2081.000000	10.408337
2080.000000	10.426501
2079.000000	10.426383
2078.000000	10.422137
2077.000000	10.409752
2076.000000	10.393711
2075.000000	10.387460
2074.000000	10.385455
2073.000000	10.375547
2072.000000	10.374958
2071.000000	10.361865
2070.000000	10.369650
2069.000000	10.387696
2068.000000	10.375194
2067.000000	10.343466
2066.000000	10.338394
2065.000000	10.347948
2064.000000	10.349245
2063.000000	10.341107
2062.000000	10.345707
2061.000000	10.344291
2060.000000	10.344881
2059.000000	10.325302
2058.000000	10.348301
2057.000000	10.391824
2056.000000	10.403147
2055.000000	10.423788
2054.000000	10.448439
2053.000000	10.496090
2052.000000	10.564618
2051.000000	10.623475
2050.000000	10.659921
2049.000000	10.711228
2048.000000	10.785535
2047.000000	10.843566
2046.000000	10.934976
2045.000000	11.013057
2044.000000	11.114729
2043.000000	11.183846
2042.000000	11.264169
2041.000000	11.366902
2040.000000	11.443096
2039.000000	11.517640
2038.000000	11.600203
2037.000000	11.675100
2036.000000	11.752357
2035.000000	11.816874
2034.000000	11.890474
2033.000000	11.951453
2032.000000	12.036612
2031.000000	12.094878
2030.000000	12.151847
2029.000000	12.209760
2028.000000	12.271446
2027.000000	12.318626
2026.000000	12.368046
2025.000000	12.424543
2024.000000	12.483989
2023.000000	12.512415
2022.000000	12.551691
2021.000000	12.603706
2020.000000	12.619983
2019.000000	12.647229
2018.000000	12.705142
2017.000000	12.744655
2016.000000	12.784403
2015.000000	12.785818
2014.000000	12.846916
2013.000000	12.864018
2012.000000	12.877228
2011.000000	12.885013
2010.000000	12.902469
2009.000000	12.896336
2008.000000	12.920751
2007.000000	12.941864
2006.000000	12.922638
2005.000000	12.933490
2004.000000	12.933608
2003.000000	12.918510
2002.000000	12.929008
2001.000000	12.926413
2000.000000	12.913085
1999.000000	12.920044
1998.000000	12.864962
1997.000000	12.865080
1996.000000	12.864962
1995.000000	12.859418
1994.000000	12.826511
1993.000000	12.804336
1992.000000	12.758572
1991.000000	12.719296
1990.000000	12.676481
1989.000000	12.642629
1988.000000	12.619394
1987.000000	12.567378
1986.000000	12.534117
1985.000000	12.492599
1984.000000	12.480097
1983.000000	12.421123
1982.000000	12.369697
1981.000000	12.312492
1980.000000	12.273923
1979.000000	12.204216
1978.000000	12.180508
1977.000000	12.144652
1976.000000	12.118586
1975.000000	12.053596
1974.000000	12.031894
1973.000000	11.965843
1972.000000	11.923381
1971.000000	11.857684
1970.000000	11.870069
1969.000000	11.792105
1968.000000	11.744926
1967.000000	11.680644
1966.000000	11.631106
1965.000000	11.620019
1964.000000	11.570716
1963.000000	11.522947
1962.000000	11.489568
1961.000000	11.437553
1960.000000	11.393322
1959.000000	11.341661
1958.000000	11.312292
1957.000000	11.263343
1956.000000	11.209677
1955.000000	11.173231
1954.000000	11.131477
1953.000000	11.078165
1952.000000	11.048796
1951.000000	11.007278
1950.000000	10.977083
1949.000000	10.932145
1948.000000	10.889212
1947.000000	10.845689
1946.000000	10.832597
1945.000000	10.776689
1944.000000	10.778930
1943.000000	10.757228
1942.000000	10.720900
1941.000000	10.682920
1940.000000	10.638100
1939.000000	10.650485
1938.000000	10.646003
1937.000000	10.694479
1936.000000	10.731987
1935.000000	10.717007
1934.000000	10.731869
1933.000000	10.754043
1932.000000	10.753100
1931.000000	10.773033
1930.000000	10.791079
1929.000000	10.847576
1928.000000	10.921530
1927.000000	11.006334
1926.000000	11.060826
1925.000000	11.166508
1924.000000	11.181251
1923.000000	11.193754
1922.000000	11.274313
1921.000000	11.443096
1920.000000	11.618839
1919.000000	11.785264
1918.000000	11.891889
1917.000000	11.964545
1916.000000	11.979525
1915.000000	12.028591
1914.000000	12.197375
1913.000000	12.447425
1912.000000	12.701250
1911.000000	12.906008
1910.000000	13.009566
1909.000000	13.003669
1908.000000	13.047899
1907.000000	13.178468
1906.000000	13.365652
1905.000000	13.685763
1904.000000	13.942890
1903.000000	14.103418
1902.000000	14.210515
1901.000000	14.316668
1900.000000	14.549969
1899.000000	14.894850
1898.000000	15.208238
1897.000000	15.452981
1896.000000	15.546749
1895.000000	15.559016
1894.000000	15.678026
1893.000000	15.827702
1892.000000	16.086009
1891.000000	16.402699
1890.000000	16.679406
1889.000000	16.889354
1888.000000	17.094230
1887.000000	17.245203
1886.000000	17.444772
1885.000000	17.752734
1884.000000	18.171096
1883.000000	18.568346
1882.000000	18.932334
1881.000000	19.292902
1880.000000	19.556162
1879.000000	19.788402
1878.000000	20.077257
1877.000000	20.353727
1876.000000	20.582075
1875.000000	20.869515
1874.000000	21.082411
1873.000000	21.381882
1872.000000	21.688193
1871.000000	21.982828
1870.000000	22.372529
1869.000000	22.686625
1868.000000	22.920162
1867.000000	23.066536
1866.000000	23.081397
1865.000000	23.086941
1864.000000	23.040233
1863.000000	22.919218
1862.000000	22.867793
1861.000000	22.893388
1860.000000	22.945993
1859.000000	23.016172
1858.000000	23.120674
1857.000000	23.111238
1856.000000	22.980315
1855.000000	22.933136
1854.000000	22.996592
1853.000000	22.993408
1852.000000	22.933136
1851.000000	22.795845
1850.000000	22.499441
1849.000000	22.348821
1848.000000	22.531169
1847.000000	22.810588
1846.000000	22.909782
1845.000000	22.719414
1844.000000	22.350708
1843.000000	22.086268
1842.000000	22.137104
1841.000000	22.333606
1840.000000	22.383498
1839.000000	22.308954
1838.000000	22.208345
1837.000000	22.225093
1836.000000	22.335021
1835.000000	22.410508
1834.000000	22.315795
1833.000000	22.088745
1832.000000	21.909110
1831.000000	21.834213
1830.000000	21.867356
1829.000000	21.839285
1828.000000	21.735962
1827.000000	21.696096
1826.000000	21.732424
1825.000000	21.706711
1824.000000	21.576024
1823.000000	21.337415
1822.000000	21.225836
1821.000000	21.346497
1820.000000	21.533091
1819.000000	21.603742
1818.000000	21.509856
1817.000000	21.395564
1816.000000	21.428117
1815.000000	21.487799
1814.000000	21.496409
1813.000000	21.467984
1812.000000	21.425758
1811.000000	21.442979
1810.000000	21.444984
1809.000000	21.378343
1808.000000	21.294836
1807.000000	21.272308
1806.000000	21.288939
1805.000000	21.272544
1804.000000	21.219349
1803.000000	21.135016
1802.000000	21.080170
1801.000000	21.114375
1800.000000	21.126288
1799.000000	21.062360
1798.000000	20.980386
1797.000000	20.940284
1796.000000	20.929904
1795.000000	20.893930
1794.000000	20.863028
1793.000000	20.846043
1792.000000	20.811602
1791.000000	20.772679
1790.000000	20.714885
1789.000000	20.633147
1788.000000	20.579716
1787.000000	20.531593
1786.000000	20.467194
1785.000000	20.410932
1784.000000	20.350189
1783.000000	20.274702
1782.000000	20.201928
1781.000000	20.143780
1780.000000	20.064872
1779.000000	20.003303
1778.000000	19.926283
1777.000000	19.828504
1776.000000	19.748064
1775.000000	19.654649
1774.000000	19.556752
1773.000000	19.463926
1772.000000	19.338430
1771.000000	19.220128
1770.000000	19.129543
1769.000000	19.011713
1768.000000	18.911693
1767.000000	18.843283
1766.000000	18.764376
1765.000000	18.712714
1764.000000	18.688181
1763.000000	18.647017
1762.000000	18.687474
1761.000000	18.745976
1760.000000	18.795396
1759.000000	18.845052
1758.000000	18.887514
1757.000000	18.937995
1756.000000	19.008764
1755.000000	19.041082
1754.000000	19.064554
1753.000000	19.051698
1752.000000	19.037072
1751.000000	19.037544
1750.000000	18.981400
1749.000000	18.916293
1748.000000	18.858616
1747.000000	18.778176
1746.000000	18.680279
1745.000000	18.569643
1744.000000	18.431054
1743.000000	18.242219
1742.000000	18.051261
1741.000000	17.859949
1740.000000	17.641981
1739.000000	17.481689
1738.000000	17.287665
1737.000000	17.157804
1736.000000	17.034312
1735.000000	16.930871
1734.000000	16.918723
1733.000000	16.919430
1732.000000	16.960830
1731.000000	17.019804
1730.000000	17.094112
1729.000000	17.188824
1728.000000	17.265608
1727.000000	17.342628
1726.000000	17.404905
1725.000000	17.489946
1724.000000	17.522499
1723.000000	17.549981
1722.000000	17.567556
1721.000000	17.538540
1720.000000	17.542315
1719.000000	17.525802
1718.000000	17.553402
1717.000000	17.578053
1716.000000	17.619099
1715.000000	17.646227
1714.000000	17.705555
1713.000000	17.743534
1712.000000	17.757452
1711.000000	17.786939
1710.000000	17.773021
1709.000000	17.756391
1708.000000	17.736575
1707.000000	17.714519
1706.000000	17.714283
1705.000000	17.684560
1704.000000	17.608248
1703.000000	17.511176
1702.000000	17.451259
1701.000000	17.315146
1700.000000	17.200029
1699.000000	17.055661
1698.000000	16.920138
1697.000000	16.828492
1696.000000	16.756780
1695.000000	16.770698
1694.000000	16.779308
1693.000000	16.891477
1692.000000	16.961184
1691.000000	17.127609
1690.000000	17.274808
1689.000000	17.362444
1688.000000	17.395233
1687.000000	17.402900
1686.000000	17.415992
1685.000000	17.418587
1684.000000	17.472253
1683.000000	17.631955
1682.000000	17.878113
1681.000000	18.235260
1680.000000	18.666597
1679.000000	19.169528
1678.000000	19.659956
1677.000000	20.131395
1676.000000	20.493968
1675.000000	20.857484
1674.000000	21.187031
1673.000000	21.440620
1672.000000	21.657173
1671.000000	21.847305
1670.000000	22.049350
1669.000000	22.175673
1668.000000	22.310606
1667.000000	22.449195
1666.000000	22.514538
1665.000000	22.594625
1664.000000	22.663978
1663.000000	22.702312
1662.000000	22.769188
1661.000000	22.804101
1660.000000	22.859537
1659.000000	22.881121
1658.000000	22.903885
1657.000000	22.905654
1656.000000	22.880177
1655.000000	22.875695
1654.000000	22.906362
1653.000000	22.887136
1652.000000	22.863547
1651.000000	22.840901
1650.000000	22.845855
1649.000000	22.805634
1648.000000	22.789004
1647.000000	22.754327
1646.000000	22.697240
1645.000000	22.640035
1644.000000	22.611492
1643.000000	22.556292
1642.000000	22.507815
1641.000000	22.480097
1640.000000	22.410272
1639.000000	22.374652
1638.000000	22.321457
1637.000000	22.276519
1636.000000	22.226273
1635.000000	22.181217
1634.000000	22.128022
1633.000000	22.060438
1632.000000	21.990141
1631.000000	21.912884
1630.000000	21.861813
1629.000000	21.802839
1628.000000	21.729475
1627.000000	21.658942
1626.000000	21.599260
1625.000000	21.530614
1624.000000	21.474943
1623.000000	21.400989
1622.000000	21.345082
1621.000000	21.283631
1620.000000	21.212272
1619.000000	21.140560
1618.000000	21.117206
1617.000000	21.054576
1616.000000	20.996545
1615.000000	20.917638
1614.000000	20.875648
1613.000000	20.825048
1612.000000	20.767726
1611.000000	20.725028
1610.000000	20.676905
1609.000000	20.659921
1608.000000	20.617696
1607.000000	20.558603
1606.000000	20.519681
1605.000000	20.478163
1604.000000	20.423907
1603.000000	20.383450
1602.000000	20.340517
1601.000000	20.268569
1600.000000	20.216672
1599.000000	20.201928
1598.000000	20.174328
1597.000000	20.128682
1596.000000	20.089052
1595.000000	20.056852
1594.000000	20.030903
1593.000000	20.015334
1592.000000	19.999529
1591.000000	19.963201
1590.000000	19.940791
1589.000000	19.925811
1588.000000	19.900453
1587.000000	19.893376
1586.000000	19.892432
1585.000000	19.885473
1584.000000	19.878868
1583.000000	19.871791
1582.000000	19.857284
1581.000000	19.837586
1580.000000	19.845961
1579.000000	19.852330
1578.000000	19.843366
1577.000000	19.847140
1576.000000	19.856340
1575.000000	19.875684
1574.000000	19.901042
1573.000000	19.913191
1572.000000	19.938314
1571.000000	19.975114
1570.000000	20.007196
1569.000000	20.043996
1568.000000	20.081739
1567.000000	20.128329
1566.000000	20.172087
1565.000000	20.192492
1564.000000	20.218441
1563.000000	20.260548
1562.000000	20.289682
1561.000000	20.302420
1560.000000	20.315394
1559.000000	20.323297
1558.000000	20.349481
1557.000000	20.386045
1556.000000	20.385456
1555.000000	20.378261
1554.000000	20.393240
1553.000000	20.422491
1552.000000	20.422491
1551.000000	20.387815
1550.000000	20.391235
1549.000000	20.426266
1548.000000	20.427563
1547.000000	20.426030
1546.000000	20.437471
1545.000000	20.433460
1544.000000	20.432399
1543.000000	20.420958
1542.000000	20.444430
1541.000000	20.434994
1540.000000	20.434286
1539.000000	20.440183
1538.000000	20.444430
1537.000000	20.474624
1536.000000	20.481701
1535.000000	20.453748
1534.000000	20.449148
1533.000000	20.456578
1532.000000	20.426266
1531.000000	20.410814
1530.000000	20.393712
1529.000000	20.373897
1528.000000	20.359035
1527.000000	20.339574
1526.000000	20.327897
1525.000000	20.314097
1524.000000	20.296641
1523.000000	20.292394
1522.000000	20.267861
1521.000000	20.223159
1520.000000	20.171851
1519.000000	20.158287
1518.000000	20.139180
1517.000000	20.106744
1516.000000	20.082447
1515.000000	20.058503
1514.000000	20.016396
1513.000000	19.994457
1512.000000	19.960724
1511.000000	19.915668
1510.000000	19.893258
1509.000000	19.858227
1508.000000	19.833458
1507.000000	19.794535
1506.000000	19.767289
1505.000000	19.731433
1504.000000	19.708315
1503.000000	19.692038
1502.000000	19.695223
1501.000000	19.668920
1500.000000	19.643679
1499.000000	19.608177
1498.000000	19.589305
1497.000000	19.570198
1496.000000	19.582110
1495.000000	19.591664
1494.000000	19.572439
1493.000000	19.569608
1492.000000	19.533870
1491.000000	19.527029
1490.000000	19.520306
1489.000000	19.547316
1488.000000	19.547198
1487.000000	19.589659
1486.000000	19.597798
1485.000000	19.578690
1484.000000	19.575623
1483.000000	19.591546
1482.000000	19.586710
1481.000000	19.622921
1480.000000	19.646156
1479.000000	19.673756
1478.000000	19.714684
1477.000000	19.736151
1476.000000	19.780735
1475.000000	19.811402
1474.000000	19.823786
1473.000000	19.880519
1472.000000	19.917083
1471.000000	19.945627
1470.000000	19.980421
1469.000000	20.032201
1468.000000	20.051544
1467.000000	20.071595
1466.000000	20.105447
1465.000000	20.163477
1464.000000	20.206292
1463.000000	20.273169
1462.000000	20.343584
1461.000000	20.396661
1460.000000	20.476512
1459.000000	20.558132
1458.000000	20.618049
1457.000000	20.701557
1456.000000	20.787895
1455.000000	20.881546
1454.000000	20.979561
1453.000000	21.055165
1452.000000	21.138201
1451.000000	21.258626
1450.000000	21.431774
1449.000000	21.520235
1448.000000	21.637358
1447.000000	21.708834
1446.000000	21.854382
1445.000000	22.051356
1444.000000	22.166827
1443.000000	22.229693
1442.000000	22.340918
1441.000000	22.501328
1440.000000	22.640271
1439.000000	22.731327
1438.000000	22.866378
1437.000000	23.019828
1436.000000	23.178233
1435.000000	23.276837
1434.000000	23.415780
1433.000000	23.549769
1432.000000	23.691897
1431.000000	23.861506
1430.000000	24.004106
1429.000000	24.141987
1428.000000	24.357832
1427.000000	24.573677
1426.000000	24.752015
1425.000000	24.908061
1424.000000	25.153865
1423.000000	25.432576
1422.000000	25.642878
1421.000000	25.778164
1420.000000	25.968533
1419.000000	26.305982
1418.000000	26.549899
1417.000000	26.715145
1416.000000	26.778955
1415.000000	26.964015
1414.000000	27.350060
1413.000000	27.603766
1412.000000	27.716525
1411.000000	27.837775
1410.000000	28.094313
1409.000000	28.507603
1408.000000	28.821345
1407.000000	29.142636
1406.000000	29.396932
1405.000000	29.801495
1404.000000	30.203462
1403.000000	30.545748
1402.000000	30.578891
1401.000000	30.975551
1400.000000	31.616481
1399.000000	31.943669
1398.000000	31.895900
1397.000000	31.911705
1396.000000	32.266729
1395.000000	32.717763
1394.000000	32.780983
1393.000000	32.762112
1392.000000	32.966044
1391.000000	33.208428
1390.000000	33.308448
1389.000000	33.378273
1388.000000	33.742497
1387.000000	34.066029
1386.000000	34.236700
1385.000000	34.439571
1384.000000	34.758857
1383.000000	35.133460
1382.000000	35.526227
1381.000000	35.901538
1380.000000	36.008989
1379.000000	36.095209
1378.000000	36.091671
1377.000000	36.107594
1376.000000	36.190865
1375.000000	36.384536
1374.000000	36.581746
1373.000000	36.839344
1372.000000	37.124425
1371.000000	37.566849
1370.000000	37.910196
1369.000000	38.133354
1368.000000	38.485901
1367.000000	38.815094
1366.000000	38.904853
1365.000000	39.072221
1364.000000	39.321446
1363.000000	39.358718
1362.000000	39.459327
1361.000000	39.781326
1360.000000	39.891843
1359.000000	39.876038
1358.000000	39.905053
1357.000000	40.020643
1356.000000	40.255006
1355.000000	40.685752
1354.000000	41.241760
1353.000000	41.745517
1352.000000	42.305889
1351.000000	42.847625
1350.000000	43.344304
1349.000000	43.743087
1348.000000	44.174896
1347.000000	44.602929
1346.000000	44.921390
1345.000000	45.206470
1344.000000	45.527761
1343.000000	45.818503
1342.000000	46.072446
1341.000000	46.345142
1340.000000	46.586818
1339.000000	46.819648
1338.000000	47.056841
1337.000000	47.272097
1336.000000	47.457157
1335.000000	47.660382
1334.000000	47.840607
1333.000000	48.024016
1332.000000	48.223113
1331.000000	48.407938
1330.000000	48.578019
1329.000000	48.731588
1328.000000	48.853782
1327.000000	48.977274
1326.000000	49.105247
1325.000000	49.230154
1324.000000	49.343974
1323.000000	49.433261
1322.000000	49.516415
1321.000000	49.629291
1320.000000	49.722942
1319.000000	49.816121
1318.000000	49.900926
1317.000000	49.958602
1316.000000	50.039987
1315.000000	50.107453
1314.000000	50.148971
1313.000000	50.204642
1312.000000	50.265975
1311.000000	50.336155
1310.000000	50.389703
1309.000000	50.427211
1308.000000	50.465072
1307.000000	50.493144
1306.000000	50.531359
1305.000000	50.562379
1304.000000	50.579835
1303.000000	50.585497
1302.000000	50.599887
1301.000000	50.620763
1300.000000	50.626897
1299.000000	50.621471
1298.000000	50.620528
1297.000000	50.614040
1296.000000	50.617107
1295.000000	50.625246
1294.000000	50.584200
1293.000000	50.545748
1292.000000	50.545395
1291.000000	50.538318
1290.000000	50.526051
1289.000000	50.504349
1288.000000	50.460590
1287.000000	50.399139
1286.000000	50.347242
1285.000000	50.296052
1284.000000	50.250052
1283.000000	50.215258
1282.000000	50.160766
1281.000000	50.101202
1280.000000	50.035858
1279.000000	49.975705
1278.000000	49.940792
1277.000000	49.905644
1276.000000	49.854100
1275.000000	49.808454
1274.000000	49.772008
1273.000000	49.713270
1272.000000	49.656537
1271.000000	49.599096
1270.000000	49.566425
1269.000000	49.514999
1268.000000	49.478435
1267.000000	49.440574
1266.000000	49.403774
1265.000000	49.352467
1264.000000	49.295026
1263.000000	49.234283
1262.000000	49.190878
1261.000000	49.158206
1260.000000	49.122822
1259.000000	49.051345
1258.000000	48.978335
1257.000000	48.938822
1256.000000	48.894946
1255.000000	48.830900
1254.000000	48.768859
1253.000000	48.701511
1252.000000	48.648788
1251.000000	48.569291
1250.000000	48.501942
1249.000000	48.444384
1248.000000	48.347312
1247.000000	48.268877
1246.000000	48.177231
1245.000000	48.037934
1244.000000	47.929068
1243.000000	47.801212
1242.000000	47.672531
1241.000000	47.503275
1240.000000	47.351712
1239.000000	47.212769
1238.000000	47.062503
1237.000000	46.880863
1236.000000	46.719156
1235.000000	46.530439
1234.000000	46.332522
1233.000000	46.166804
1232.000000	46.007574
1231.000000	45.824519
1230.000000	45.638986
1229.000000	45.429392
1228.000000	45.201281
1227.000000	45.008081
1226.000000	44.829862
1225.000000	44.644093
1224.000000	44.445587
1223.000000	44.269608
1222.000000	44.076645
1221.000000	43.891348
1220.000000	43.713010
1219.000000	43.538683
1218.000000	43.391956
1217.000000	43.276248
1216.000000	43.124213
1215.000000	42.988101
1214.000000	42.852461
1213.000000	42.728143
1212.000000	42.614795
1211.000000	42.510647
1210.000000	42.409211
1209.000000	42.339504
1208.000000	42.280412
1207.000000	42.216602
1206.000000	42.148428
1205.000000	42.126372
1204.000000	42.157274
1203.000000	42.119531
1202.000000	42.084972
1201.000000	42.091459
1200.000000	42.067515
1199.000000	41.983654
1198.000000	41.923737
1197.000000	41.845065
1196.000000	41.671799
1195.000000	41.385893
1194.000000	41.065192
1193.000000	40.721373
1192.000000	40.243565
1191.000000	39.784746
1190.000000	39.333713
1189.000000	38.931863
1188.000000	38.626259
1187.000000	38.437896
1186.000000	38.406050
1185.000000	38.499465
1184.000000	38.718849
1183.000000	39.051816
1182.000000	39.546845
1181.000000	40.039161
1180.000000	40.536548
1179.000000	41.045612
1178.000000	41.487210
1177.000000	41.869009
1176.000000	42.197966
1175.000000	42.475970
1174.000000	42.839840
1173.000000	43.172926
1172.000000	43.438545
1171.000000	43.769508
1170.000000	44.142460
1169.000000	44.483212
1168.000000	44.859349
1167.000000	45.196445
1166.000000	45.549228
1165.000000	45.952021
1164.000000	46.307988
1163.000000	46.677756
1162.000000	47.050000
1161.000000	47.403727
1160.000000	47.691167
1159.000000	48.044186
1158.000000	48.377035
1157.000000	48.643480
1156.000000	48.860033
1155.000000	49.087555
1154.000000	49.207980
1153.000000	49.269667
1152.000000	49.327344
1151.000000	49.328523
1150.000000	49.294318
1149.000000	49.258344
1148.000000	49.206211
1147.000000	49.199606
1146.000000	49.324631
1145.000000	49.581522
1144.000000	49.804680
1143.000000	50.065935
1142.000000	50.344293
1141.000000	50.660158
1140.000000	50.975788
1139.000000	51.279150
1138.000000	51.621908
1137.000000	51.905809
1136.000000	52.230520
1135.000000	52.597339
1134.000000	52.954958
1133.000000	53.237562
1132.000000	53.397500
1131.000000	53.557201
1130.000000	53.819636
1129.000000	53.968487
1128.000000	54.101178
1127.000000	54.170650
1126.000000	54.227147
1125.000000	54.281521
1124.000000	54.349105
1123.000000	54.394869
1122.000000	54.460331
1121.000000	54.485925
1120.000000	54.501730
1119.000000	54.483212
1118.000000	54.495597
1117.000000	54.498664
1116.000000	54.459977
1115.000000	54.432023
1114.000000	54.385080
1113.000000	54.375172
1112.000000	54.334716
1111.000000	54.331059
1110.000000	54.332357
1109.000000	54.313957
1108.000000	54.292136
1107.000000	54.253803
1106.000000	54.224670
1105.000000	54.192470
1104.000000	54.165106
1103.000000	54.147650
1102.000000	54.113917
1101.000000	54.083722
1100.000000	54.044917
1099.000000	54.004343
1098.000000	54.004697
1097.000000	53.958933
1096.000000	53.928738
1095.000000	53.873656
1094.000000	53.815744
1093.000000	53.782246
1092.000000	53.730349
1091.000000	53.685175
1090.000000	53.633160
1089.000000	53.608155
1088.000000	53.574304
1087.000000	53.517453
1086.000000	53.428638
1085.000000	53.361525
1084.000000	53.342300
1083.000000	53.296536
1082.000000	53.262095
1081.000000	53.213854
1080.000000	53.167619
1079.000000	53.149572
1078.000000	53.110296
1077.000000	53.049434
1076.000000	53.010512
1075.000000	52.973594
1074.000000	52.934907
1073.000000	52.884543
1072.000000	52.811887
1071.000000	52.766005
1070.000000	52.753267
1069.000000	52.727790
1068.000000	52.698303
1067.000000	52.663508
1066.000000	52.616683
1065.000000	52.566908
1064.000000	52.519021
1063.000000	52.467714
1062.000000	52.398125
1061.000000	52.306951
1060.000000	52.284776
1059.000000	52.242315
1058.000000	52.172136
1057.000000	52.084264
1056.000000	52.011255
1055.000000	51.960065
1054.000000	51.914773
1053.000000	51.834450
1052.000000	51.781492
1051.000000	51.757902
1050.000000	51.708953
1049.000000	51.640543
1048.000000	51.589354
1047.000000	51.542882
1046.000000	51.492047
1045.000000	51.450057
1044.000000	51.399811
1043.000000	51.342370
1042.000000	51.289648
1041.000000	51.225484
1040.000000	51.161792
1039.000000	51.110956
1038.000000	51.061182
1037.000000	51.007280
1036.000000	50.937690
1035.000000	50.873880
1034.000000	50.806296
1033.000000	50.737414
1032.000000	50.683040
1031.000000	50.603071
1030.000000	50.518974
1029.000000	50.464482
1028.000000	50.386165
1027.000000	50.284493
1026.000000	50.196268
1025.000000	50.112879
1024.000000	50.006371
1023.000000	49.918028
1022.000000	49.836762
1021.000000	49.761039
1020.000000	49.718460
1019.000000	49.654532
1018.000000	49.546491
1017.000000	49.462394
1016.000000	49.401415
1015.000000	49.349872
1014.000000	49.315195
1013.000000	49.287359
1012.000000	49.228385
1011.000000	49.159503
1010.000000	49.118340
1009.000000	49.086612
1008.000000	49.072812
1007.000000	49.069273
1006.000000	49.046273
1005.000000	49.020796
1004.000000	49.022094
1003.000000	48.977863
1002.000000	48.945074
1001.000000	48.933751
1000.000000	48.900489
999.000000	48.880320
998.000000	48.874069
997.000000	48.862156
996.000000	48.832433
995.000000	48.797874
994.000000	48.769685
993.000000	48.748572
992.000000	48.733357
991.000000	48.720029
990.000000	48.683229
989.000000	48.668367
988.000000	48.675208
987.000000	48.661644
986.000000	48.616588
985.000000	48.611162
984.000000	48.608686
983.000000	48.582265
982.000000	48.532845
981.000000	48.509963
980.000000	48.473753
979.000000	48.432825
978.000000	48.436481
977.000000	48.423979
976.000000	48.389656
975.000000	48.350143
974.000000	48.348728
973.000000	48.306266
972.000000	48.226887
971.000000	48.145149
970.000000	48.106816
969.000000	48.081339
968.000000	48.029088
967.000000	47.969170
966.000000	47.896514
965.000000	47.874222
964.000000	47.829284
963.000000	47.790125
962.000000	47.709567
961.000000	47.701900
960.000000	47.646110
959.000000	47.572039
958.000000	47.570388
957.000000	47.507167
956.000000	47.475439
955.000000	47.459163
954.000000	47.371527
953.000000	47.300286
952.000000	47.246856
951.000000	47.150492
950.000000	47.102015
949.000000	47.053775
948.000000	46.952693
947.000000	46.882632
946.000000	46.786858
945.000000	46.758314
944.000000	46.704648
943.000000	46.626920
942.000000	46.544592
941.000000	46.517110
940.000000	46.437613
939.000000	46.336178
938.000000	46.219999
937.000000	46.171522
936.000000	46.133071
935.000000	46.096271
934.000000	46.093794
933.000000	46.053456
932.000000	46.037061
931.000000	45.990118
930.000000	45.928667
929.000000	45.891277
928.000000	45.816970
927.000000	45.736058
926.000000	45.677437
925.000000	45.653612
924.000000	45.594402
923.000000	45.532951
922.000000	45.516320
921.000000	45.514551
920.000000	45.524812
919.000000	45.429982
918.000000	45.369829
917.000000	45.302362
916.000000	45.231829
915.000000	45.254829
914.000000	45.186537
913.000000	45.153747
912.000000	45.084512
911.000000	45.045353
910.000000	45.036861
909.000000	44.971871
908.000000	44.900749
907.000000	44.920328
906.000000	44.933420
905.000000	44.929764
904.000000	44.961020
903.000000	44.985907
902.000000	45.008435
901.000000	45.017753
900.000000	45.059861
899.000000	45.062338
898.000000	45.077199
897.000000	45.104091
896.000000	45.114942
895.000000	45.132989
894.000000	45.128860
893.000000	45.107984
892.000000	45.089230
891.000000	45.046533
890.000000	45.065640
889.000000	45.021410
888.000000	44.997348
887.000000	44.994046
886.000000	44.933656
885.000000	44.814882
884.000000	44.789995
883.000000	44.746944
882.000000	44.671575
881.000000	44.569196
880.000000	44.492884
879.000000	44.441812
878.000000	44.386966
877.000000	44.249085
876.000000	44.123588
875.000000	43.991132
874.000000	43.949497
873.000000	43.847471
872.000000	43.673734
871.000000	43.578078
870.000000	43.453289
869.000000	43.346545
868.000000	43.176464
867.000000	43.035044
866.000000	42.912732
865.000000	42.814245
864.000000	42.663508
863.000000	42.545559
862.000000	42.380432
861.000000	42.183576
860.000000	42.027413
859.000000	41.867593
858.000000	43.193567
857.000000	43.374100
856.000000	42.971000
855.000000	43.235600
854.000000	43.222700
853.000000	43.360700
852.000000	43.337700
851.000000	43.417400
850.000000	43.258600
849.000000	43.219200
848.000000	43.349400
847.000000	43.598100
846.000000	43.431000
845.000000	43.478900
844.000000	43.690100
843.000000	43.485300
842.000000	43.710100
841.000000	43.842700
840.000000	43.830600
839.000000	43.510700
838.000000	43.474600
837.000000	43.610700
836.000000	43.581100
835.000000	43.608300
834.000000	43.582600
833.000000	43.530800
832.000000	43.394600
831.000000	43.439600
830.000000	43.475900
829.000000	43.570200
828.000000	43.414200
827.000000	43.308300
826.000000	43.223400
825.000000	43.193700
824.000000	43.275200
823.000000	43.234700
822.000000	43.121700
821.000000	43.080500
820.000000	42.991300
819.000000	42.990700
818.000000	42.977500
817.000000	43.046600
816.000000	42.909500
815.000000	42.889100
814.000000	42.879100
813.000000	42.895400
812.000000	42.758900
811.000000	42.777700
810.000000	42.826900
809.000000	42.653300
808.000000	42.615800
807.000000	42.801300
806.000000	42.801700
805.000000	42.778700
804.000000	42.661100
803.000000	42.613400
802.000000	42.652800
801.000000	42.550100
800.000000	42.486700
799.000000	42.442500
798.000000	42.361100
797.000000	42.332800
796.000000	42.325000
795.000000	42.253900
794.000000	42.200900
793.000000	42.184700
792.000000	42.147500
791.000000	42.144600
790.000000	42.038700
789.000000	41.919600
788.000000	41.866900
787.000000	41.847100
786.000000	41.740400
785.000000	41.628200
784.000000	41.558100
783.000000	41.532400
782.000000	41.427200
781.000000	41.333000
780.000000	41.268000
779.000000	41.280400
778.000000	41.195300
777.000000	41.134500
776.000000	41.069300
775.000000	40.997800
774.000000	40.955700
773.000000	40.861400
772.000000	40.873500
771.000000	40.827200
770.000000	40.757100
769.000000	40.760600
768.000000	40.736400
767.000000	40.685600
766.000000	40.609700
765.000000	40.550000
764.000000	40.488300
763.000000	40.498200
762.000000	40.432000
761.000000	40.384100
760.000000	40.400100
759.000000	40.382900
758.000000	40.347400
757.000000	40.353900
756.000000	40.330300
755.000000	40.238400
754.000000	40.200200
753.000000	40.204500
752.000000	40.166600
751.000000	40.098900
750.000000	40.077600
749.000000	40.044200
748.000000	39.957500
747.000000	39.893300
746.000000	39.892100
745.000000	39.867800
744.000000	39.791800
743.000000	39.745800
742.000000	39.714000
741.000000	39.658600
740.000000	39.600700
739.000000	39.571800
738.000000	39.535800
737.000000	39.555800
736.000000	39.503700
735.000000	39.455800
734.000000	39.473300
733.000000	39.440400
732.000000	39.430000
731.000000	39.402700
730.000000	39.380600
729.000000	39.347700
728.000000	39.336400
727.000000	39.333100
726.000000	39.331100
725.000000	39.311700
724.000000	39.267200
723.000000	39.222500
722.000000	39.158900
721.000000	39.134600
720.000000	39.095200
719.000000	39.095500
718.000000	39.090900
717.000000	39.000000
716.000000	38.965400
715.000000	38.942400
714.000000	38.960700
713.000000	38.959000
712.000000	38.915300
711.000000	38.872900
710.000000	38.767800
709.000000	38.681200
708.000000	38.669200
707.000000	38.643100
706.000000	38.569000
705.000000	38.552700
704.000000	38.492900
703.000000	38.405500
702.000000	38.339100
701.000000	38.308000
700.000000	38.232400
699.000000	38.187300
698.000000	38.162500
697.000000	38.091500
696.000000	38.001000
695.000000	37.932500
694.000000	37.878900
693.000000	37.784500
692.000000	37.688900
691.000000	37.649900
690.000000	37.563100
689.000000	37.492100
688.000000	37.412300
687.000000	37.385200
686.000000	37.313200
685.000000	37.215000
684.000000	37.164400
683.000000	37.102800
682.000000	37.021800
681.000000	36.944200
680.000000	36.828100
679.000000	36.736500
678.000000	36.651800
677.000000	36.596300
676.000000	36.494500
675.000000	36.375800
674.000000	36.327200
673.000000	36.299900
672.000000	36.222800
671.000000	36.134800
670.000000	36.057600
669.000000	36.045900
668.000000	36.021200
667.000000	35.946100
666.000000	35.816000
665.000000	35.796900
664.000000	35.746800
663.000000	35.717100
662.000000	35.646800
661.000000	35.567900
660.000000	35.506700
659.000000	35.392000
658.000000	35.307300
657.000000	35.190200
656.000000	35.098200
655.000000	35.082600
654.000000	34.988000
653.000000	34.874200
652.000000	34.789200
651.000000	34.688900
650.000000	34.573200
649.000000	34.454300
648.000000	34.335700
647.000000	34.245800
646.000000	34.142400
645.000000	34.012000
644.000000	33.869200
643.000000	33.756600
642.000000	33.616000
641.000000	33.442400
640.000000	33.303700
639.000000	33.139800
638.000000	32.971700
637.000000	32.801300
636.000000	32.632900
635.000000	32.462400
634.000000	32.340700
633.000000	32.182400
632.000000	32.053400
631.000000	31.920600
630.000000	31.830200
629.000000	31.732000
628.000000	31.600500
627.000000	31.502900
626.000000	31.470600
625.000000	31.425800
624.000000	31.416900
623.000000	31.378800
622.000000	31.352100
621.000000	31.335300
620.000000	31.339500
619.000000	31.352200
618.000000	31.367800
617.000000	31.418300
616.000000	31.466200
615.000000	31.524200
614.000000	31.627300
613.000000	31.755800
612.000000	31.884000
611.000000	32.031400
610.000000	32.201900
609.000000	32.398500
608.000000	32.642000
607.000000	32.859100
606.000000	33.095100
605.000000	33.337100
604.000000	33.653600
603.000000	33.937100
602.000000	34.232700
601.000000	34.504500
600.000000	34.765000
599.000000	35.076800
598.000000	35.391600
597.000000	35.698700
596.000000	36.047700
595.000000	36.405100
594.000000	36.731300
593.000000	37.071300
592.000000	37.401800
591.000000	37.715000
590.000000	37.995900
589.000000	38.278600
588.000000	38.580400
587.000000	38.862500
586.000000	39.070700
585.000000	39.329800
584.000000	39.547300
583.000000	39.775300
582.000000	40.025200
581.000000	40.256400
580.000000	40.441700
579.000000	40.621000
578.000000	40.790400
577.000000	40.947600
576.000000	41.118500
575.000000	41.279300
574.000000	41.439400
573.000000	41.600700
572.000000	41.793200
571.000000	41.950600
570.000000	42.161000
569.000000	42.325800
568.000000	42.488200
567.000000	42.671300
566.000000	42.788500
565.000000	42.918700
564.000000	42.987900
563.000000	43.087800
562.000000	43.130500
561.000000	43.180700
560.000000	43.273300
559.000000	43.534000
558.000000	43.541000
557.000000	43.526700
556.000000	43.491000
555.000000	43.433600
554.000000	43.371100
553.000000	43.321600
552.000000	43.232000
551.000000	43.134800
550.000000	43.014300
549.000000	42.919900
548.000000	42.865400
547.000000	42.764900
546.000000	42.683700
545.000000	42.547500
544.000000	42.404400
543.000000	42.254500
542.000000	42.066900
541.000000	41.874300
540.000000	41.693200
539.000000	41.438600
538.000000	41.180700
537.000000	40.897000
536.000000	40.552700
535.000000	40.180600
534.000000	39.797200
533.000000	39.408900
532.000000	39.000300
531.000000	38.543900
530.000000	38.081600
529.000000	37.594100
528.000000	37.075100
527.000000	36.535800
526.000000	35.995300
525.000000	35.446600
524.000000	34.882000
523.000000	34.310800
522.000000	33.739300
521.000000	33.130900
520.000000	32.543100
519.000000	31.925300
518.000000	31.315000
517.000000	30.730300
516.000000	30.147600
515.000000	29.571600
514.000000	28.981100
513.000000	28.382600
512.000000	27.791800
511.000000	27.171500
510.000000	26.560400
509.000000	25.996200
508.000000	25.435600
507.000000	24.895600
506.000000	24.379500
505.000000	23.856200
504.000000	23.328500
503.000000	22.840800
502.000000	22.379300
501.000000	21.945500
500.000000	21.512400
499.000000	21.101000
498.000000	20.719500
497.000000	20.353200
496.000000	20.014100
495.000000	19.678300
494.000000	19.329100
493.000000	19.009300
492.000000	18.696000
491.000000	18.368700
490.000000	18.046900
489.000000	17.749000
488.000000	17.443100
487.000000	17.138200
486.000000	16.823600
485.000000	16.520100
484.000000	16.218100
483.000000	15.923400
482.000000	15.585000
481.000000	15.250600
480.000000	14.927600
479.000000	14.648200
478.000000	14.434500
477.000000	14.225700
476.000000	14.014900
475.000000	13.810300
474.000000	13.615700
473.000000	13.428500
472.000000	13.231600
471.000000	13.045500
470.000000	12.868000
469.000000	12.695800
468.000000	12.532200
467.000000	12.361200
466.000000	12.186500
465.000000	12.016300
464.000000	11.857700
463.000000	11.680200
462.000000	11.507200
461.000000	11.336000
460.000000	11.180500
459.000000	11.022800
458.000000	10.855900
457.000000	10.711500
456.000000	10.571500
455.000000	10.421400
454.000000	10.273700
453.000000	10.154200
452.000000	10.027200
451.000000	9.905700
450.000000	9.798200
449.000000	9.686800
448.000000	9.574500
447.000000	9.467800
446.000000	9.372300
445.000000	9.285600
444.000000	9.204000
443.000000	9.108400
442.000000	9.017100
441.000000	8.937300
440.000000	8.863300
439.000000	8.808900
438.000000	8.756400
437.000000	8.701700
436.000000	8.651200
435.000000	8.598600
434.000000	8.558400
433.000000	8.517200
432.000000	8.484700
431.000000	8.455100
430.000000	8.417600
429.000000	8.383200
428.000000	8.350400
427.000000	8.307400
426.000000	8.280000
425.000000	8.248600
424.000000	8.219300
423.000000	8.191700
422.000000	8.166100
421.000000	8.144400
420.000000	8.118000
419.000000	8.097700
418.000000	8.060600
417.000000	8.024700
416.000000	7.995000
415.000000	7.949200
414.000000	7.903200
413.000000	7.867400
412.000000	7.832400
411.000000	7.781400
410.000000	7.729500
409.000000	7.663900
408.000000	7.605700
407.000000	7.539300
406.000000	7.460400
405.000000	7.397400
404.000000	7.330300
403.000000	7.262500
402.000000	7.177300
401.000000	7.097500
400.000000	7.013400
399.000000	6.923200
398.000000	6.815300
397.000000	6.705400
396.000000	6.624900
395.000000	6.521400
394.000000	6.411100
393.000000	6.294600
392.000000	6.193700
391.000000	6.085400
390.000000	5.979900
389.000000	5.867100
388.000000	5.762400
387.000000	5.654800
386.000000	5.545100
385.000000	5.448900
384.000000	5.336200
383.000000	5.234600
382.000000	5.132400
381.000000	5.040500
380.000000	4.961300
379.000000	4.870600
378.000000	4.797400
377.000000	4.720600
376.000000	4.860100
375.000000	4.767600
374.000000	4.491200
373.000000	4.440700
372.000000	4.412500
371.000000	4.273500
370.000000	4.299600
369.000000	4.258000
368.000000	4.185100
367.000000	4.209200
366.000000	4.223600
365.000000	4.109600
364.000000	4.064800
363.000000	4.053800
362.000000	3.965000
361.000000	4.025400
360.000000	3.979900
359.000000	3.978300
358.000000	3.919000
357.000000	3.864900
356.000000	3.877300
355.000000	3.873400
354.000000	3.807700
353.000000	3.793300
352.000000	3.825400
351.000000	3.896300
350.000000	3.760800
349.000000	3.696500
348.000000	3.735200
347.000000	3.769300
346.000000	3.842500
345.000000	3.921800
344.000000	3.798600
343.000000	3.732900
342.000000	3.750200
341.000000	3.807600
340.000000	3.793200
339.000000	3.735900
338.000000	3.753600
337.000000	3.805000
336.000000	3.672200
335.000000	3.882400
334.000000	3.761400
333.000000	3.806800
332.000000	3.776000
331.000000	3.847800
330.000000	3.874000
329.000000	3.826000
328.000000	3.855700
327.000000	3.786400
326.000000	3.953200
325.000000	3.691800
324.000000	3.911800
323.000000	3.907500
322.000000	4.129600
321.000000	3.765500
320.000000	3.837200
319.000000	4.108600
318.000000	3.940700
317.000000	4.205600
316.000000	3.756500
315.000000	3.702700
314.000000	3.640100
313.000000	3.651700
312.000000	3.642900
311.000000	3.681300
310.000000	3.691100
309.000000	3.791700
308.000000	3.630300
307.000000	3.617700
306.000000	3.684300
305.000000	3.695800
304.000000	3.645200
303.000000	3.651600
302.000000	3.662600
301.000000	3.731000
300.000000	3.681800
299.000000	3.664300
298.000000	3.719000
297.000000	3.679600
296.000000	3.649400
295.000000	3.662400
294.000000	3.664600
293.000000	3.703300
292.000000	3.728000
291.000000	3.698000
290.000000	3.728600
289.000000	3.675800
288.000000	3.761100
287.000000	3.753200
286.000000	3.615000
285.000000	3.699000
284.000000	3.688500
283.000000	3.698600
282.000000	3.734800
281.000000	3.764100
280.000000	3.750700
279.000000	3.737700
278.000000	3.704600
277.000000	3.702000
276.000000	3.697500
275.000000	3.715600
274.000000	3.743000
273.000000	3.757400
272.000000	3.768300
271.000000	3.758400
270.000000	3.786100
269.000000	3.720600
268.000000	3.797000
267.000000	3.873500
266.000000	3.819800
265.000000	3.822300
264.000000	3.860200
263.000000	3.869800
262.000000	3.875600
261.000000	3.849900
260.000000	3.931900
259.000000	3.880100
258.000000	3.916000
257.000000	3.938600
256.000000	3.940300
255.000000	3.980600
254.000000	3.950400
253.000000	3.995900
252.000000	4.028600
251.000000	4.009600
250.000000	3.984800
