PE UV       SUBTECH     SPECTRUM    ASCII       PEDS        4.00        
   -1
CICIMAUCR0009-2.Sample.ASC
24/04/17
11:40:36.00
24/04/17
11:40:36.00
Vinicio Soto Monge
C. kalinini
250,000000
1
Lambda 1050
1050L1511233
PerkinElmer UV WinLab 6.3.2.0749 / 2.02.05 Lambda 900 UV/VIS/NIR, Aug  7 2015 09:38:08

0
0
3350/servo 860,8/2
0
0
UV/VIS
1
1
1
DoubleDePol,CommonBeamDepol,RBeamAtt,SBeamAtt,60mm sphere, WB InGaAs Detector
0
0
0
0
Program
Program
3350/servo 860,8/2
3350/0,2 860,8/0,2
3350/0,2 860,8/0,2
0
15.00
 
 
 
0
 
860,8
319,2
860,8
Front
100
on
S:100 R:100
0
0
0
0
 
0
 
 
 
0
 
 
0
0
0
0
0
 
 
 
 
0
0


0
0
#HDR
-1
-1
#GR
nm
%R
1.0
0.0
2500,000000
-1,000000
2251
8
97,179300
5,310100
#DATA
2482.000000	9.716341
2481.000000	9.752631
2480.000000	9.790243
2479.000000	9.733826
2478.000000	9.766151
2477.000000	9.784652
2476.000000	9.757917
2475.000000	9.807930
2474.000000	9.822873
2473.000000	9.812809
2472.000000	9.774588
2471.000000	9.826329
2470.000000	9.855402
2469.000000	9.849709
2468.000000	9.833953
2467.000000	9.871361
2466.000000	9.870650
2465.000000	9.933268
2464.000000	9.972099
2463.000000	9.991108
2462.000000	10.026483
2461.000000	10.067245
2460.000000	10.125391
2459.000000	10.220131
2458.000000	10.280512
2457.000000	10.326154
2456.000000	10.411644
2455.000000	10.508417
2454.000000	10.580285
2453.000000	10.681734
2452.000000	10.771696
2451.000000	10.883921
2450.000000	10.978661
2449.000000	11.079398
2448.000000	11.176578
2447.000000	11.265524
2446.000000	11.379273
2445.000000	11.463543
2444.000000	11.558283
2443.000000	11.670202
2442.000000	11.773989
2441.000000	11.866493
2440.000000	11.978107
2439.000000	12.070611
2438.000000	12.154575
2437.000000	12.229900
2436.000000	12.317931
2435.000000	12.426902
2434.000000	12.512798
2433.000000	12.588123
2432.000000	12.656027
2431.000000	12.732164
2430.000000	12.802101
2429.000000	12.856384
2428.000000	12.929675
2427.000000	13.000120
2426.000000	13.061111
2425.000000	13.110921
2424.000000	13.169981
2423.000000	13.227516
2422.000000	13.271735
2421.000000	13.315852
2420.000000	13.350617
2419.000000	13.395243
2418.000000	13.432346
2417.000000	13.451253
2416.000000	13.473312
2415.000000	13.499132
2414.000000	13.535015
2413.000000	13.574354
2412.000000	13.595905
2411.000000	13.618573
2410.000000	13.646832
2409.000000	13.658421
2408.000000	13.685155
2407.000000	13.721649
2406.000000	13.741776
2405.000000	13.754381
2404.000000	13.783352
2403.000000	13.814457
2402.000000	13.820963
2401.000000	13.844953
2400.000000	13.873009
2399.000000	13.897304
2398.000000	13.927698
2397.000000	13.955856
2396.000000	13.967647
2395.000000	13.973442
2394.000000	14.009528
2393.000000	14.043277
2392.000000	14.053544
2391.000000	14.070316
2390.000000	14.078347
2389.000000	14.076009
2388.000000	14.081295
2387.000000	14.091663
2386.000000	14.087191
2385.000000	14.083633
2384.000000	14.087902
2383.000000	14.068080
2382.000000	14.043988
2381.000000	14.014712
2380.000000	14.000989
2379.000000	13.978016
2378.000000	13.948333
2377.000000	13.920277
2376.000000	13.894661
2375.000000	13.853695
2374.000000	13.802767
2373.000000	13.761090
2372.000000	13.712297
2371.000000	13.666045
2370.000000	13.621623
2369.000000	13.556057
2368.000000	13.482867
2367.000000	13.419639
2366.000000	13.349703
2365.000000	13.268991
2364.000000	13.192040
2363.000000	13.094453
2362.000000	13.001848
2361.000000	12.911784
2360.000000	12.824465
2359.000000	12.743448
2358.000000	12.660194
2357.000000	12.574806
2356.000000	12.496026
2355.000000	12.434933
2354.000000	12.397118
2353.000000	12.372112
2352.000000	12.343954
2351.000000	12.346902
2350.000000	12.367842
2349.000000	12.369672
2348.000000	12.403420
2347.000000	12.462379
2346.000000	12.492671
2345.000000	12.544616
2344.000000	12.600626
2343.000000	12.631732
2342.000000	12.678187
2341.000000	12.710614
2340.000000	12.731148
2339.000000	12.756561
2338.000000	12.763067
2337.000000	12.763372
2336.000000	12.757069
2335.000000	12.720576
2334.000000	12.704312
2333.000000	12.673104
2332.000000	12.614654
2331.000000	12.544209
2330.000000	12.463904
2329.000000	12.409520
2328.000000	12.323827
2327.000000	12.225224
2326.000000	12.133940
2325.000000	12.013990
2324.000000	11.900546
2323.000000	11.787509
2322.000000	11.657190
2321.000000	11.533073
2320.000000	11.407125
2319.000000	11.255155
2318.000000	11.100034
2317.000000	10.940134
2316.000000	10.778507
2315.000000	10.638735
2314.000000	10.497133
2313.000000	10.372406
2312.000000	10.226026
2311.000000	10.117767
2310.000000	10.031260
2309.000000	9.942620
2308.000000	9.897283
2307.000000	9.864246
2306.000000	9.847371
2305.000000	9.836190
2304.000000	9.876139
2303.000000	9.922289
2302.000000	9.989380
2301.000000	10.073853
2300.000000	10.176318
2299.000000	10.270042
2298.000000	10.393855
2297.000000	10.494999
2296.000000	10.599396
2295.000000	10.700133
2294.000000	10.777999
2293.000000	10.845903
2292.000000	10.904251
2291.000000	10.933730
2290.000000	10.999194
2289.000000	11.020846
2288.000000	11.007022
2287.000000	11.014239
2286.000000	11.008546
2285.000000	10.983133
2284.000000	10.946335
2283.000000	10.881989
2282.000000	10.837974
2281.000000	10.795686
2280.000000	10.740794
2279.000000	10.693932
2278.000000	10.637820
2277.000000	10.597058
2276.000000	10.530882
2275.000000	10.509637
2274.000000	10.488290
2273.000000	10.489306
2272.000000	10.501911
2271.000000	10.499980
2270.000000	10.544808
2269.000000	10.582318
2268.000000	10.671264
2267.000000	10.742421
2266.000000	10.853832
2265.000000	11.011189
2264.000000	11.169767
2263.000000	11.361280
2262.000000	11.567940
2261.000000	11.809364
2260.000000	12.077015
2259.000000	12.343852
2258.000000	12.624514
2257.000000	12.905177
2256.000000	13.205966
2255.000000	13.493947
2254.000000	13.779997
2253.000000	14.091155
2252.000000	14.355959
2251.000000	14.623712
2250.000000	14.872659
2249.000000	15.086637
2248.000000	15.326841
2247.000000	15.542751
2246.000000	15.723286
2245.000000	15.899043
2244.000000	16.067989
2243.000000	16.240595
2242.000000	16.380773
2241.000000	16.488525
2240.000000	16.622096
2239.000000	16.744994
2238.000000	16.835769
2237.000000	16.922682
2236.000000	17.028604
2235.000000	17.102810
2234.000000	17.150587
2233.000000	17.192569
2232.000000	17.249393
2231.000000	17.283853
2230.000000	17.317602
2229.000000	17.354603
2228.000000	17.360906
2227.000000	17.347182
2226.000000	17.333053
2225.000000	17.334883
2224.000000	17.310893
2223.000000	17.307233
2222.000000	17.253967
2221.000000	17.217779
2220.000000	17.202633
2219.000000	17.147232
2218.000000	17.098236
2217.000000	17.062454
2216.000000	17.004716
2215.000000	16.967308
2214.000000	16.931018
2213.000000	16.873787
2212.000000	16.839429
2211.000000	16.797040
2210.000000	16.768984
2209.000000	16.739301
2208.000000	16.714701
2207.000000	16.674752
2206.000000	16.660724
2205.000000	16.630533
2204.000000	16.590685
2203.000000	16.574726
2202.000000	16.554091
2201.000000	16.526441
2200.000000	16.522578
2199.000000	16.491676
2198.000000	16.479173
2197.000000	16.465145
2196.000000	16.461384
2195.000000	16.449694
2194.000000	16.443899
2193.000000	16.428448
2192.000000	16.398054
2191.000000	16.374572
2190.000000	16.365017
2189.000000	16.342654
2188.000000	16.332997
2187.000000	16.330252
2186.000000	16.327101
2185.000000	16.317342
2184.000000	16.302806
2183.000000	16.290506
2182.000000	16.265906
2181.000000	16.257672
2180.000000	16.261433
2179.000000	16.270175
2178.000000	16.253708
2177.000000	16.243949
2176.000000	16.228295
2175.000000	16.245982
2174.000000	16.269769
2173.000000	16.298333
2172.000000	16.307482
2171.000000	16.314089
2170.000000	16.331878
2169.000000	16.377927
2168.000000	16.413404
2167.000000	16.429770
2166.000000	16.457318
2165.000000	16.496454
2164.000000	16.560800
2163.000000	16.596988
2162.000000	16.629008
2161.000000	16.674650
2160.000000	16.739098
2159.000000	16.785248
2158.000000	16.848069
2157.000000	16.914957
2156.000000	16.953076
2155.000000	17.025758
2154.000000	17.104843
2153.000000	17.167664
2152.000000	17.226826
2151.000000	17.297373
2150.000000	17.369749
2149.000000	17.434807
2148.000000	17.517755
2147.000000	17.591047
2146.000000	17.650310
2145.000000	17.722991
2144.000000	17.782865
2143.000000	17.844568
2142.000000	17.909930
2141.000000	17.980883
2140.000000	18.034048
2139.000000	18.091989
2138.000000	18.143222
2137.000000	18.193540
2136.000000	18.234608
2135.000000	18.291228
2134.000000	18.326095
2133.000000	18.353846
2132.000000	18.386476
2131.000000	18.422360
2130.000000	18.440047
2129.000000	18.449094
2128.000000	18.471051
2127.000000	18.495143
2126.000000	18.497278
2125.000000	18.502970
2124.000000	18.511204
2123.000000	18.509374
2122.000000	18.499514
2121.000000	18.483351
2120.000000	18.462004
2119.000000	18.433948
2118.000000	18.421953
2117.000000	18.410568
2116.000000	18.385053
2115.000000	18.351101
2114.000000	18.323757
2113.000000	18.301698
2112.000000	18.273032
2111.000000	18.229119
2110.000000	18.187746
2109.000000	18.172397
2108.000000	18.138648
2107.000000	18.088127
2106.000000	18.050719
2105.000000	18.013920
2104.000000	17.993285
2103.000000	17.950998
2102.000000	17.907999
2101.000000	17.892243
2100.000000	17.855648
2099.000000	17.819764
2098.000000	17.788252
2097.000000	17.752166
2096.000000	17.734986
2095.000000	17.709268
2094.000000	17.679382
2093.000000	17.666168
2092.000000	17.645126
2091.000000	17.632419
2090.000000	17.620322
2089.000000	17.584947
2088.000000	17.562787
2087.000000	17.570919
2086.000000	17.547539
2085.000000	17.510436
2084.000000	17.497425
2083.000000	17.481669
2082.000000	17.435518
2081.000000	17.392214
2080.000000	17.369038
2079.000000	17.328072
2078.000000	17.289241
2077.000000	17.253561
2076.000000	17.188300
2075.000000	17.136660
2074.000000	17.076990
2073.000000	17.024030
2072.000000	16.979607
2071.000000	16.931018
2070.000000	16.871856
2069.000000	16.816862
2068.000000	16.754549
2067.000000	16.688577
2066.000000	16.638665
2065.000000	16.580419
2064.000000	16.516378
2063.000000	16.452540
2062.000000	16.422756
2061.000000	16.383620
2060.000000	16.338689
2059.000000	16.304026
2058.000000	16.281764
2057.000000	16.272818
2056.000000	16.263771
2055.000000	16.293352
2054.000000	16.314496
2053.000000	16.351701
2052.000000	16.416047
2051.000000	16.497165
2050.000000	16.592109
2049.000000	16.705756
2048.000000	16.815947
2047.000000	16.971374
2046.000000	17.119278
2045.000000	17.290664
2044.000000	17.474146
2043.000000	17.655088
2042.000000	17.837655
2041.000000	18.028863
2040.000000	18.223833
2039.000000	18.395727
2038.000000	18.584190
2037.000000	18.753238
2036.000000	18.920558
2035.000000	19.090724
2034.000000	19.260890
2033.000000	19.405542
2032.000000	19.537995
2031.000000	19.680308
2030.000000	19.820588
2029.000000	19.960360
2028.000000	20.076854
2027.000000	20.195076
2026.000000	20.294797
2025.000000	20.410985
2024.000000	20.532867
2023.000000	20.652410
2022.000000	20.741559
2021.000000	20.836401
2020.000000	20.933275
2019.000000	21.035233
2018.000000	21.110862
2017.000000	21.203976
2016.000000	21.268525
2015.000000	21.329211
2014.000000	21.399961
2013.000000	21.468068
2012.000000	21.526519
2011.000000	21.566570
2010.000000	21.614245
2009.000000	21.656837
2008.000000	21.689366
2007.000000	21.705122
2006.000000	21.730128
2005.000000	21.771094
2004.000000	21.770078
2003.000000	21.764487
2002.000000	21.768756
2001.000000	21.759709
2000.000000	21.747206
1999.000000	21.733076
1998.000000	21.700141
1997.000000	21.673203
1996.000000	21.653482
1995.000000	21.613431
1994.000000	21.585579
1993.000000	21.523062
1992.000000	21.469492
1991.000000	21.414904
1990.000000	21.372312
1989.000000	21.290583
1988.000000	21.226746
1987.000000	21.159960
1986.000000	21.068168
1985.000000	21.006262
1984.000000	20.925855
1983.000000	20.835689
1982.000000	20.778967
1981.000000	20.696933
1980.000000	20.598229
1979.000000	20.528191
1978.000000	20.437313
1977.000000	20.364327
1976.000000	20.291340
1975.000000	20.184809
1974.000000	20.090475
1973.000000	20.036396
1972.000000	19.964833
1971.000000	19.860334
1970.000000	19.799546
1969.000000	19.717106
1968.000000	19.670956
1967.000000	19.572963
1966.000000	19.498858
1965.000000	19.435732
1964.000000	19.371590
1963.000000	19.291589
1962.000000	19.211792
1961.000000	19.150292
1960.000000	19.086658
1959.000000	19.019466
1958.000000	18.925031
1957.000000	18.848995
1956.000000	18.787190
1955.000000	18.701396
1954.000000	18.646808
1953.000000	18.560404
1952.000000	18.477964
1951.000000	18.415041
1950.000000	18.358929
1949.000000	18.285332
1948.000000	18.255040
1947.000000	18.192930
1946.000000	18.119131
1945.000000	18.099105
1944.000000	18.073285
1943.000000	18.034963
1942.000000	18.013311
1941.000000	18.013616
1940.000000	17.998266
1939.000000	18.015242
1938.000000	18.035471
1937.000000	18.047567
1936.000000	18.075827
1935.000000	18.107644
1934.000000	18.163451
1933.000000	18.207060
1932.000000	18.303223
1931.000000	18.375600
1930.000000	18.473084
1929.000000	18.591408
1928.000000	18.704953
1927.000000	18.826936
1926.000000	18.968436
1925.000000	19.105159
1924.000000	19.246761
1923.000000	19.401679
1922.000000	19.588922
1921.000000	19.798326
1920.000000	20.027959
1919.000000	20.222420
1918.000000	20.428063
1917.000000	20.636755
1916.000000	20.826642
1915.000000	21.032691
1914.000000	21.320672
1913.000000	21.632644
1912.000000	21.932315
1911.000000	22.180347
1910.000000	22.470768
1909.000000	22.690743
1908.000000	22.950770
1907.000000	23.261521
1906.000000	23.638550
1905.000000	24.008361
1904.000000	24.361807
1903.000000	24.691872
1902.000000	24.999167
1901.000000	25.327403
1900.000000	25.685626
1899.000000	26.051066
1898.000000	26.410611
1897.000000	26.781845
1896.000000	27.070233
1895.000000	27.364923
1894.000000	27.680249
1893.000000	28.018751
1892.000000	28.391409
1891.000000	28.779823
1890.000000	29.125542
1889.000000	29.443918
1888.000000	29.804174
1887.000000	30.147047
1886.000000	30.515029
1885.000000	30.951321
1884.000000	31.419532
1883.000000	31.912343
1882.000000	32.398038
1881.000000	32.892678
1880.000000	33.368920
1879.000000	33.816292
1878.000000	34.260716
1877.000000	34.690705
1876.000000	35.086337
1875.000000	35.457469
1874.000000	35.807154
1873.000000	36.126240
1872.000000	36.408936
1871.000000	36.660932
1870.000000	36.856918
1869.000000	37.022205
1868.000000	37.169092
1867.000000	37.265459
1866.000000	37.308458
1865.000000	37.355421
1864.000000	37.390898
1863.000000	37.426679
1862.000000	37.483096
1861.000000	37.528840
1860.000000	37.566350
1859.000000	37.570721
1858.000000	37.547239
1857.000000	37.531788
1856.000000	37.491229
1855.000000	37.446603
1854.000000	37.393439
1853.000000	37.311101
1852.000000	37.214531
1851.000000	37.154048
1850.000000	37.088990
1849.000000	37.037656
1848.000000	36.988456
1847.000000	36.903780
1846.000000	36.792572
1845.000000	36.670792
1844.000000	36.575036
1843.000000	36.546776
1842.000000	36.549114
1841.000000	36.514959
1840.000000	36.464641
1839.000000	36.394298
1838.000000	36.319380
1837.000000	36.256152
1836.000000	36.174017
1835.000000	36.087917
1834.000000	35.984639
1833.000000	35.870686
1832.000000	35.787331
1831.000000	35.718818
1830.000000	35.629059
1829.000000	35.532591
1828.000000	35.433276
1827.000000	35.340061
1826.000000	35.256503
1825.000000	35.181890
1824.000000	35.120797
1823.000000	35.103719
1822.000000	35.142754
1821.000000	35.146921
1820.000000	35.110022
1819.000000	35.056247
1818.000000	35.015891
1817.000000	35.013960
1816.000000	35.018128
1815.000000	35.005523
1814.000000	34.988954
1813.000000	34.987429
1812.000000	34.968928
1811.000000	34.942905
1810.000000	34.890554
1809.000000	34.835052
1808.000000	34.803235
1807.000000	34.762167
1806.000000	34.724149
1805.000000	34.669663
1804.000000	34.593322
1803.000000	34.544224
1802.000000	34.518811
1801.000000	34.475914
1800.000000	34.406079
1799.000000	34.319471
1798.000000	34.272304
1797.000000	34.233981
1796.000000	34.179699
1795.000000	34.114845
1794.000000	34.056496
1793.000000	34.004959
1792.000000	33.944780
1791.000000	33.874030
1790.000000	33.816698
1789.000000	33.750116
1788.000000	33.671335
1787.000000	33.609937
1786.000000	33.535833
1785.000000	33.431029
1784.000000	33.338119
1783.000000	33.257102
1782.000000	33.164293
1781.000000	33.068435
1780.000000	32.957634
1779.000000	32.845511
1778.000000	32.745079
1777.000000	32.620758
1776.000000	32.492168
1775.000000	32.335420
1774.000000	32.166880
1773.000000	32.002610
1772.000000	31.836307
1771.000000	31.655162
1770.000000	31.503192
1769.000000	31.332619
1768.000000	31.166417
1767.000000	31.028170
1766.000000	30.890126
1765.000000	30.785526
1764.000000	30.720062
1763.000000	30.694852
1762.000000	30.699426
1761.000000	30.720672
1760.000000	30.771498
1759.000000	30.857191
1758.000000	30.930685
1757.000000	30.996556
1756.000000	31.044536
1755.000000	31.093634
1754.000000	31.101766
1753.000000	31.099327
1752.000000	31.069848
1751.000000	31.024917
1750.000000	30.963926
1749.000000	30.883925
1748.000000	30.782985
1747.000000	30.646059
1746.000000	30.479044
1745.000000	30.297289
1744.000000	30.082193
1743.000000	29.850934
1742.000000	29.591415
1741.000000	29.281172
1740.000000	28.969811
1739.000000	28.689657
1738.000000	28.381955
1737.000000	28.118472
1736.000000	27.900835
1735.000000	27.762282
1734.000000	27.669880
1733.000000	27.627186
1732.000000	27.643552
1731.000000	27.712676
1730.000000	27.789424
1729.000000	27.908865
1728.000000	28.010416
1727.000000	28.124775
1726.000000	28.221853
1725.000000	28.276643
1724.000000	28.331942
1723.000000	28.387851
1722.000000	28.415806
1721.000000	28.456975
1720.000000	28.492451
1719.000000	28.563608
1718.000000	28.646150
1717.000000	28.754410
1716.000000	28.883610
1715.000000	28.999392
1714.000000	29.085491
1713.000000	29.218961
1712.000000	29.312075
1711.000000	29.371236
1710.000000	29.432736
1709.000000	29.455506
1708.000000	29.460690
1707.000000	29.466078
1706.000000	29.436294
1705.000000	29.426230
1704.000000	29.369610
1703.000000	29.292659
1702.000000	29.218046
1701.000000	29.070244
1700.000000	28.893267
1699.000000	28.722694
1698.000000	28.574688
1697.000000	28.442947
1696.000000	28.368537
1695.000000	28.328486
1694.000000	28.363760
1693.000000	28.476797
1692.000000	28.618602
1691.000000	28.798222
1690.000000	28.952428
1689.000000	29.065974
1688.000000	29.132353
1687.000000	29.167627
1686.000000	29.187652
1685.000000	29.235530
1684.000000	29.351719
1683.000000	29.614999
1682.000000	29.966106
1681.000000	30.525296
1680.000000	31.126163
1679.000000	31.777145
1678.000000	32.463807
1677.000000	33.027164
1676.000000	33.567955
1675.000000	34.040334
1674.000000	34.464224
1673.000000	34.818584
1672.000000	35.148446
1671.000000	35.445576
1670.000000	35.728983
1669.000000	35.935337
1668.000000	36.150637
1667.000000	36.335848
1666.000000	36.469216
1665.000000	36.639890
1664.000000	36.764821
1663.000000	36.868709
1662.000000	36.996893
1661.000000	37.082383
1660.000000	37.179664
1659.000000	37.242180
1658.000000	37.312625
1657.000000	37.346984
1656.000000	37.384799
1655.000000	37.410923
1654.000000	37.416616
1653.000000	37.416209
1652.000000	37.403909
1651.000000	37.403706
1650.000000	37.373617
1649.000000	37.342714
1648.000000	37.308559
1647.000000	37.270033
1646.000000	37.223680
1645.000000	37.164518
1644.000000	37.082891
1643.000000	37.025457
1642.000000	36.965686
1641.000000	36.888938
1640.000000	36.831708
1639.000000	36.769192
1638.000000	36.685938
1637.000000	36.619966
1636.000000	36.552977
1635.000000	36.470029
1634.000000	36.390537
1633.000000	36.294475
1632.000000	36.202073
1631.000000	36.089849
1630.000000	36.004664
1629.000000	35.913380
1628.000000	35.806442
1627.000000	35.703163
1626.000000	35.604357
1625.000000	35.503518
1624.000000	35.400747
1623.000000	35.298892
1622.000000	35.192868
1621.000000	35.104532
1620.000000	35.000542
1619.000000	34.899601
1618.000000	34.817059
1617.000000	34.723844
1616.000000	34.627274
1615.000000	34.519218
1614.000000	34.437388
1613.000000	34.347730
1612.000000	34.253499
1611.000000	34.163435
1610.000000	34.071236
1609.000000	33.981172
1608.000000	33.900358
1607.000000	33.797893
1606.000000	33.710675
1605.000000	33.621831
1604.000000	33.531665
1603.000000	33.439670
1602.000000	33.353163
1601.000000	33.261473
1600.000000	33.179541
1599.000000	33.095780
1598.000000	33.011713
1597.000000	32.922869
1596.000000	32.861268
1595.000000	32.796820
1594.000000	32.729323
1593.000000	32.668128
1592.000000	32.610694
1591.000000	32.547975
1590.000000	32.497860
1589.000000	32.443375
1588.000000	32.403933
1587.000000	32.378927
1586.000000	32.338469
1585.000000	32.286525
1584.000000	32.257554
1583.000000	32.223500
1582.000000	32.191175
1581.000000	32.174097
1580.000000	32.157528
1579.000000	32.130997
1578.000000	32.132217
1577.000000	32.144822
1576.000000	32.149396
1575.000000	32.164339
1574.000000	32.172776
1573.000000	32.201950
1572.000000	32.217300
1571.000000	32.236004
1570.000000	32.286017
1569.000000	32.320070
1568.000000	32.358292
1567.000000	32.412574
1566.000000	32.466043
1565.000000	32.514023
1564.000000	32.555396
1563.000000	32.598090
1562.000000	32.624621
1561.000000	32.649831
1560.000000	32.689373
1559.000000	32.713465
1558.000000	32.739386
1557.000000	32.759412
1556.000000	32.766019
1555.000000	32.771204
1554.000000	32.775270
1553.000000	32.783503
1552.000000	32.765714
1551.000000	32.734609
1550.000000	32.710517
1549.000000	32.694456
1548.000000	32.672296
1547.000000	32.654303
1546.000000	32.636921
1545.000000	32.622181
1544.000000	32.603579
1543.000000	32.604392
1542.000000	32.597886
1541.000000	32.586908
1540.000000	32.582435
1539.000000	32.566069
1538.000000	32.567086
1537.000000	32.575319
1536.000000	32.577861
1535.000000	32.558445
1534.000000	32.545434
1533.000000	32.536285
1532.000000	32.525103
1531.000000	32.504264
1530.000000	32.489321
1529.000000	32.473667
1528.000000	32.447847
1527.000000	32.411761
1526.000000	32.374556
1525.000000	32.360630
1524.000000	32.331760
1523.000000	32.300451
1522.000000	32.258367
1521.000000	32.223399
1520.000000	32.197477
1519.000000	32.151937
1518.000000	32.112903
1517.000000	32.078951
1516.000000	32.039916
1515.000000	31.996612
1514.000000	31.958696
1513.000000	31.911224
1512.000000	31.864769
1511.000000	31.807844
1510.000000	31.766776
1509.000000	31.736891
1508.000000	31.680168
1507.000000	31.637983
1506.000000	31.581057
1505.000000	31.531349
1504.000000	31.497601
1503.000000	31.461819
1502.000000	31.451451
1501.000000	31.416787
1500.000000	31.372365
1499.000000	31.342378
1498.000000	31.338515
1497.000000	31.320522
1496.000000	31.285452
1495.000000	31.301818
1494.000000	31.300395
1493.000000	31.307308
1492.000000	31.311069
1491.000000	31.333229
1490.000000	31.367892
1489.000000	31.366876
1488.000000	31.391476
1487.000000	31.425733
1486.000000	31.432747
1485.000000	31.451959
1484.000000	31.471476
1483.000000	31.480930
1482.000000	31.523217
1481.000000	31.585022
1480.000000	31.632900
1479.000000	31.663599
1478.000000	31.730995
1477.000000	31.795849
1476.000000	31.868022
1475.000000	31.919662
1474.000000	31.985024
1473.000000	32.070717
1472.000000	32.161188
1471.000000	32.228888
1470.000000	32.273818
1469.000000	32.357478
1468.000000	32.419181
1467.000000	32.494506
1466.000000	32.577657
1465.000000	32.674126
1464.000000	32.740505
1463.000000	32.843072
1462.000000	32.939743
1461.000000	33.046681
1460.000000	33.157686
1459.000000	33.265742
1458.000000	33.381931
1457.000000	33.496392
1456.000000	33.605668
1455.000000	33.746456
1454.000000	33.885822
1453.000000	34.006992
1452.000000	34.165569
1451.000000	34.313473
1450.000000	34.451009
1449.000000	34.590883
1448.000000	34.690604
1447.000000	34.843184
1446.000000	35.050453
1445.000000	35.171623
1444.000000	35.319934
1443.000000	35.454115
1442.000000	35.630177
1441.000000	35.794244
1440.000000	35.927612
1439.000000	36.093102
1438.000000	36.235110
1437.000000	36.377119
1436.000000	36.515671
1435.000000	36.658289
1434.000000	36.836079
1433.000000	36.974835
1432.000000	37.152116
1431.000000	37.301037
1430.000000	37.462868
1429.000000	37.650925
1428.000000	37.885538
1427.000000	38.088843
1426.000000	38.316849
1425.000000	38.559392
1424.000000	38.838021
1423.000000	39.075989
1422.000000	39.314669
1421.000000	39.569613
1420.000000	39.872436
1419.000000	40.161840
1418.000000	40.379783
1417.000000	40.563062
1416.000000	40.823495
1415.000000	41.131807
1414.000000	41.424261
1413.000000	41.655622
1412.000000	41.861265
1411.000000	42.135014
1410.000000	42.463047
1409.000000	42.893748
1408.000000	43.261425
1407.000000	43.658072
1406.000000	44.066511
1405.000000	44.535840
1404.000000	44.937164
1403.000000	45.407916
1402.000000	45.805682
1401.000000	46.363957
1400.000000	46.736208
1399.000000	47.021343
1398.000000	47.208891
1397.000000	47.506530
1396.000000	47.815756
1395.000000	48.034512
1394.000000	48.115021
1393.000000	48.237105
1392.000000	48.407983
1391.000000	48.589433
1390.000000	48.777591
1389.000000	48.996245
1388.000000	49.329767
1387.000000	49.601280
1386.000000	49.918944
1385.000000	50.301462
1384.000000	50.782379
1383.000000	51.163677
1382.000000	51.544467
1381.000000	51.781317
1380.000000	51.880022
1379.000000	52.013898
1378.000000	52.098269
1377.000000	52.172171
1376.000000	52.300659
1375.000000	52.485362
1374.000000	52.761450
1373.000000	53.162875
1372.000000	53.598760
1371.000000	54.034239
1370.000000	54.412183
1369.000000	54.773455
1368.000000	55.166748
1367.000000	55.466826
1366.000000	55.732139
1365.000000	55.996435
1364.000000	56.206246
1363.000000	56.375192
1362.000000	56.588052
1361.000000	56.726299
1360.000000	56.772144
1359.000000	56.810264
1358.000000	56.918524
1357.000000	57.117254
1356.000000	57.441729
1355.000000	57.937182
1354.000000	58.561531
1353.000000	59.224203
1352.000000	59.933940
1351.000000	60.668887
1350.000000	61.360733
1349.000000	61.979186
1348.000000	62.561654
1347.000000	63.087502
1346.000000	63.523896
1345.000000	63.985601
1344.000000	64.456963
1343.000000	64.852391
1342.000000	65.253409
1341.000000	65.652903
1340.000000	66.009805
1339.000000	66.355321
1338.000000	66.685996
1337.000000	67.000204
1336.000000	67.281984
1335.000000	67.559597
1334.000000	67.825011
1333.000000	68.073755
1332.000000	68.313248
1331.000000	68.543490
1330.000000	68.775461
1329.000000	68.972667
1328.000000	69.154218
1327.000000	69.333329
1326.000000	69.502174
1325.000000	69.652721
1324.000000	69.797982
1323.000000	69.931960
1322.000000	70.057399
1321.000000	70.190259
1320.000000	70.316003
1319.000000	70.425991
1318.000000	70.540756
1317.000000	70.634480
1316.000000	70.724951
1315.000000	70.827924
1314.000000	70.928052
1313.000000	71.002462
1312.000000	71.066198
1311.000000	71.133085
1310.000000	71.193568
1309.000000	71.257202
1308.000000	71.314128
1307.000000	71.345437
1306.000000	71.373289
1305.000000	71.394941
1304.000000	71.399211
1303.000000	71.408868
1302.000000	71.406835
1301.000000	71.397584
1300.000000	71.378982
1299.000000	71.361803
1298.000000	71.337711
1297.000000	71.315754
1296.000000	71.294610
1295.000000	71.259439
1294.000000	71.222946
1293.000000	71.186452
1292.000000	71.156058
1291.000000	71.108383
1290.000000	71.048307
1289.000000	70.982233
1288.000000	70.894608
1287.000000	70.803426
1286.000000	70.715090
1285.000000	70.617504
1284.000000	70.506601
1283.000000	70.394072
1282.000000	70.281441
1281.000000	70.160373
1280.000000	70.048759
1279.000000	69.944260
1278.000000	69.846369
1277.000000	69.746750
1276.000000	69.644487
1275.000000	69.563470
1274.000000	69.469442
1273.000000	69.395947
1272.000000	69.332923
1271.000000	69.270508
1270.000000	69.205959
1269.000000	69.133481
1268.000000	69.063747
1267.000000	68.975208
1266.000000	68.886669
1265.000000	68.813682
1264.000000	68.738968
1263.000000	68.677062
1262.000000	68.609361
1261.000000	68.528446
1260.000000	68.456984
1259.000000	68.371901
1258.000000	68.307047
1257.000000	68.229893
1256.000000	68.135153
1255.000000	68.053323
1254.000000	67.965393
1253.000000	67.866892
1252.000000	67.740437
1251.000000	67.644273
1250.000000	67.531541
1249.000000	67.395733
1248.000000	67.257994
1247.000000	67.107854
1246.000000	66.940534
1245.000000	66.766403
1244.000000	66.600202
1243.000000	66.415906
1242.000000	66.181292
1241.000000	65.978191
1240.000000	65.782612
1239.000000	65.554199
1238.000000	65.332393
1237.000000	65.114857
1236.000000	64.883801
1235.000000	64.651017
1234.000000	64.414371
1233.000000	64.187584
1232.000000	63.955308
1231.000000	63.709716
1230.000000	63.475814
1229.000000	63.223920
1228.000000	62.993067
1227.000000	62.748593
1226.000000	62.505135
1225.000000	62.291564
1224.000000	62.069657
1223.000000	61.848461
1222.000000	61.626147
1221.000000	61.405358
1220.000000	61.207035
1219.000000	61.025382
1218.000000	60.861010
1217.000000	60.684440
1216.000000	60.518136
1215.000000	60.378059
1214.000000	60.222125
1213.000000	60.094449
1212.000000	59.958438
1211.000000	59.831779
1210.000000	59.717217
1209.000000	59.610990
1208.000000	59.492870
1207.000000	59.427000
1206.000000	59.354217
1205.000000	59.325246
1204.000000	59.290582
1203.000000	59.268930
1202.000000	59.242399
1201.000000	59.202856
1200.000000	59.114622
1199.000000	59.039602
1198.000000	58.915180
1197.000000	58.758635
1196.000000	58.509079
1195.000000	58.199446
1194.000000	57.835123
1193.000000	57.381855
1192.000000	56.853161
1191.000000	56.276081
1190.000000	55.761415
1189.000000	55.283954
1188.000000	54.916988
1187.000000	54.658181
1186.000000	54.599426
1185.000000	54.704027
1184.000000	54.923494
1183.000000	55.305402
1182.000000	55.805634
1181.000000	56.400808
1180.000000	56.996085
1179.000000	57.581907
1178.000000	58.098200
1177.000000	58.567630
1176.000000	58.964888
1175.000000	59.313149
1174.000000	59.663138
1173.000000	60.051654
1172.000000	60.453180
1171.000000	60.867414
1170.000000	61.295370
1169.000000	61.726682
1168.000000	62.159212
1167.000000	62.587779
1166.000000	63.055177
1165.000000	63.510783
1164.000000	63.989667
1163.000000	64.461232
1162.000000	64.934932
1161.000000	65.393690
1160.000000	65.836589
1159.000000	66.281623
1158.000000	66.669935
1157.000000	67.067396
1156.000000	67.389533
1155.000000	67.628924
1154.000000	67.831517
1153.000000	67.908773
1152.000000	67.934288
1151.000000	67.920666
1150.000000	67.881225
1149.000000	67.838938
1148.000000	67.818912
1147.000000	67.821860
1146.000000	67.930425
1145.000000	68.118583
1144.000000	68.410021
1143.000000	68.734902
1142.000000	69.146696
1141.000000	69.541920
1140.000000	69.950054
1139.000000	70.402712
1138.000000	70.852423
1137.000000	71.327038
1136.000000	71.855528
1135.000000	72.344476
1134.000000	72.775482
1133.000000	73.158610
1132.000000	73.488066
1131.000000	73.842324
1130.000000	74.166799
1129.000000	74.426927
1128.000000	74.616610
1127.000000	74.772443
1126.000000	74.924922
1125.000000	75.020577
1124.000000	75.127922
1123.000000	75.192979
1122.000000	75.247872
1121.000000	75.291277
1120.000000	75.328889
1119.000000	75.332040
1118.000000	75.342917
1117.000000	75.332446
1116.000000	75.310185
1115.000000	75.277148
1114.000000	75.236283
1113.000000	75.214530
1112.000000	75.168176
1111.000000	75.139917
1110.000000	75.090920
1109.000000	75.067134
1108.000000	75.007362
1107.000000	74.979509
1106.000000	74.946777
1105.000000	74.896053
1104.000000	74.845430
1103.000000	74.787386
1102.000000	74.722329
1101.000000	74.677297
1100.000000	74.615797
1099.000000	74.556330
1098.000000	74.487105
1097.000000	74.422759
1096.000000	74.342149
1095.000000	74.263572
1094.000000	74.176456
1093.000000	74.086696
1092.000000	74.016150
1091.000000	73.919783
1090.000000	73.817724
1089.000000	73.726135
1088.000000	73.626211
1087.000000	73.537367
1086.000000	73.428701
1085.000000	73.327252
1084.000000	73.211774
1083.000000	73.129131
1082.000000	73.032358
1081.000000	72.936805
1080.000000	72.831594
1079.000000	72.719370
1078.000000	72.643131
1077.000000	72.547476
1076.000000	72.458429
1075.000000	72.365925
1074.000000	72.260816
1073.000000	72.177156
1072.000000	72.081095
1071.000000	71.978528
1070.000000	71.895478
1069.000000	71.798400
1068.000000	71.704168
1067.000000	71.628030
1066.000000	71.535933
1065.000000	71.441295
1064.000000	71.348181
1063.000000	71.259642
1062.000000	71.154635
1061.000000	71.048307
1060.000000	70.955498
1059.000000	70.862181
1058.000000	70.767340
1057.000000	70.660706
1056.000000	70.559359
1055.000000	70.475496
1054.000000	70.373233
1053.000000	70.265787
1052.000000	70.163423
1051.000000	70.077120
1050.000000	70.004642
1049.000000	69.929012
1048.000000	69.844743
1047.000000	69.764945
1046.000000	69.700193
1045.000000	69.623547
1044.000000	69.544258
1043.000000	69.489671
1042.000000	69.426036
1041.000000	69.340343
1040.000000	69.259835
1039.000000	69.200165
1038.000000	69.141308
1037.000000	69.063137
1036.000000	68.977546
1035.000000	68.905881
1034.000000	68.825271
1033.000000	68.719552
1032.000000	68.646972
1031.000000	68.573071
1030.000000	68.484532
1029.000000	68.385523
1028.000000	68.291901
1027.000000	68.193603
1026.000000	68.093069
1025.000000	68.019981
1024.000000	67.916092
1023.000000	67.809154
1022.000000	67.721123
1021.000000	67.629229
1020.000000	67.525238
1019.000000	67.441070
1018.000000	67.381705
1017.000000	67.292963
1016.000000	67.230447
1015.000000	67.181247
1014.000000	67.125745
1013.000000	67.086405
1012.000000	67.068819
1011.000000	67.051132
1010.000000	67.057028
1009.000000	67.069937
1008.000000	67.067599
1007.000000	67.080713
1006.000000	67.090675
1005.000000	67.110090
1004.000000	67.132250
1003.000000	67.136926
1002.000000	67.133673
1001.000000	67.150446
1000.000000	67.184703
999.000000	67.205338
998.000000	67.216317
997.000000	67.238477
996.000000	67.277207
995.000000	67.318884
994.000000	67.356699
993.000000	67.383535
992.000000	67.398071
991.000000	67.443103
990.000000	67.492201
989.000000	67.530016
988.000000	67.569457
987.000000	67.635430
986.000000	67.687577
985.000000	67.754566
984.000000	67.819014
983.000000	67.890984
982.000000	67.937744
981.000000	68.008596
980.000000	68.073551
979.000000	68.141354
978.000000	68.200820
977.000000	68.273095
976.000000	68.336526
975.000000	68.417746
974.000000	68.488700
973.000000	68.580289
972.000000	68.653580
971.000000	68.725753
970.000000	68.837571
969.000000	68.916250
968.000000	68.995843
967.000000	69.060189
966.000000	69.167026
965.000000	69.245298
964.000000	69.351728
963.000000	69.457854
962.000000	69.554118
961.000000	69.669494
960.000000	69.783649
959.000000	69.916001
958.000000	70.016942
957.000000	70.140653
956.000000	70.250031
955.000000	70.380451
954.000000	70.483933
953.000000	70.578774
952.000000	70.668228
951.000000	70.751888
950.000000	70.853947
949.000000	70.956413
948.000000	71.052576
947.000000	71.145995
946.000000	71.240633
945.000000	71.323480
944.000000	71.442515
943.000000	71.525870
942.000000	71.619085
941.000000	71.732834
940.000000	71.832250
939.000000	71.922416
938.000000	72.056800
937.000000	72.163942
936.000000	72.281553
935.000000	72.390830
934.000000	72.509661
933.000000	72.627680
932.000000	72.755559
931.000000	72.855991
930.000000	72.941684
929.000000	73.043438
928.000000	73.150173
927.000000	73.244202
926.000000	73.383974
925.000000	73.464381
924.000000	73.558816
923.000000	73.680798
922.000000	73.801257
921.000000	73.932591
920.000000	74.022452
919.000000	74.100420
918.000000	74.225045
917.000000	74.334322
916.000000	74.452442
915.000000	74.559075
914.000000	74.633688
913.000000	74.725887
912.000000	74.833333
911.000000	74.963347
910.000000	75.064287
909.000000	75.178443
908.000000	75.290362
907.000000	75.431659
906.000000	75.574684
905.000000	75.737633
904.000000	75.859107
903.000000	76.008333
902.000000	76.191511
901.000000	76.373570
900.000000	76.554613
899.000000	76.711158
898.000000	76.897385
897.000000	77.056776
896.000000	77.240665
895.000000	77.432991
894.000000	77.593094
893.000000	77.784912
892.000000	77.960161
891.000000	78.149742
890.000000	78.320315
889.000000	78.518334
888.000000	78.687687
887.000000	78.865680
886.000000	79.041640
885.000000	79.232645
884.000000	79.435950
883.000000	79.651758
882.000000	79.824059
881.000000	80.021366
880.000000	80.244493
879.000000	80.447289
878.000000	80.669095
877.000000	80.884090
876.000000	81.114637
875.000000	81.325159
874.000000	81.575834
873.000000	81.795708
872.000000	82.035506
871.000000	82.266460
870.000000	82.507783
869.000000	82.713629
868.000000	82.948345
867.000000	83.165169
866.000000	83.373963
865.000000	83.575845
864.000000	83.778946
863.000000	83.954602
862.000000	84.116534
861.000000	84.225708
860.000000	84.298390
859.000000	84.340271
858.000000	84.594300
857.000000	84.186200
856.000000	84.598200
855.000000	84.998500
854.000000	85.258000
853.000000	85.164700
852.000000	85.375200
851.000000	85.919200
850.000000	86.178100
849.000000	86.251100
848.000000	86.914000
847.000000	87.538800
846.000000	87.659100
845.000000	88.208500
844.000000	88.043000
843.000000	88.583300
842.000000	88.674700
841.000000	89.268000
840.000000	89.135400
839.000000	89.667400
838.000000	89.901600
837.000000	90.150400
836.000000	90.504900
835.000000	90.806600
834.000000	91.045900
833.000000	91.320500
832.000000	91.658300
831.000000	91.983000
830.000000	92.184100
829.000000	92.765400
828.000000	93.043800
827.000000	92.965300
826.000000	93.486800
825.000000	93.743000
824.000000	93.984000
823.000000	94.413700
822.000000	94.539900
821.000000	94.917400
820.000000	95.217300
819.000000	95.365700
818.000000	95.470700
817.000000	95.670500
816.000000	95.946400
815.000000	96.177200
814.000000	96.385200
813.000000	96.411300
812.000000	96.661300
811.000000	96.825200
810.000000	96.879400
809.000000	96.949900
808.000000	96.921400
807.000000	96.900700
806.000000	96.975100
805.000000	97.099700
804.000000	97.167200
803.000000	97.133000
802.000000	97.147800
801.000000	97.179300
800.000000	97.120300
799.000000	97.002900
798.000000	96.937300
797.000000	96.917800
796.000000	96.861600
795.000000	96.793400
794.000000	96.681100
793.000000	96.509900
792.000000	96.517100
791.000000	96.388600
790.000000	96.259800
789.000000	96.104200
788.000000	96.078200
787.000000	95.950000
786.000000	95.904000
785.000000	95.767900
784.000000	95.530300
783.000000	95.464400
782.000000	95.343700
781.000000	95.347900
780.000000	95.329300
779.000000	95.203200
778.000000	95.075700
777.000000	94.921700
776.000000	94.869500
775.000000	94.786000
774.000000	94.682400
773.000000	94.586800
772.000000	94.532000
771.000000	94.544300
770.000000	94.473000
769.000000	94.359100
768.000000	94.242500
767.000000	94.188700
766.000000	94.132400
765.000000	93.974400
764.000000	93.796900
763.000000	93.688300
762.000000	93.583700
761.000000	93.424700
760.000000	93.237800
759.000000	93.166700
758.000000	93.025100
757.000000	92.798500
756.000000	92.656300
755.000000	92.493900
754.000000	92.240700
753.000000	92.018000
752.000000	91.885200
751.000000	91.656100
750.000000	91.466000
749.000000	91.354000
748.000000	91.058900
747.000000	90.711800
746.000000	90.580000
745.000000	90.384800
744.000000	90.058300
743.000000	89.715000
742.000000	89.418500
741.000000	89.161600
740.000000	88.754100
739.000000	88.317500
738.000000	87.963100
737.000000	87.515100
736.000000	87.088100
735.000000	86.573300
734.000000	86.050800
733.000000	85.487900
732.000000	84.916500
731.000000	84.318900
730.000000	83.712700
729.000000	83.072300
728.000000	82.420300
727.000000	81.781000
726.000000	81.156500
725.000000	80.549400
724.000000	79.863000
723.000000	79.201100
722.000000	78.589000
721.000000	77.969600
720.000000	77.370500
719.000000	76.858600
718.000000	76.322100
717.000000	75.833000
716.000000	75.393300
715.000000	74.921000
714.000000	74.503700
713.000000	74.183200
712.000000	73.889100
711.000000	73.619800
710.000000	73.374000
709.000000	73.135700
708.000000	72.892800
707.000000	72.707300
706.000000	72.567900
705.000000	72.407300
704.000000	72.310600
703.000000	72.205300
702.000000	72.137100
701.000000	72.058200
700.000000	71.881700
699.000000	71.789900
698.000000	71.674600
697.000000	71.588600
696.000000	71.412500
695.000000	71.231400
694.000000	71.049100
693.000000	70.846600
692.000000	70.638100
691.000000	70.389800
690.000000	70.121900
689.000000	69.837900
688.000000	69.534100
687.000000	69.152200
686.000000	68.744000
685.000000	68.399400
684.000000	68.013000
683.000000	67.599400
682.000000	67.154900
681.000000	66.728400
680.000000	66.247000
679.000000	65.824700
678.000000	65.433100
677.000000	64.992300
676.000000	64.575600
675.000000	64.240100
674.000000	63.966400
673.000000	63.640000
672.000000	63.383500
671.000000	63.158500
670.000000	62.899000
669.000000	62.761700
668.000000	62.680500
667.000000	62.563000
666.000000	62.510800
665.000000	62.462100
664.000000	62.447400
663.000000	62.448200
662.000000	62.491100
661.000000	62.501400
660.000000	62.536900
659.000000	62.581700
658.000000	62.632900
657.000000	62.641000
656.000000	62.683100
655.000000	62.687500
654.000000	62.660200
653.000000	62.598700
652.000000	62.526800
651.000000	62.380500
650.000000	62.358100
649.000000	62.233500
648.000000	62.067100
647.000000	61.901800
646.000000	61.741200
645.000000	61.641500
644.000000	61.519400
643.000000	61.340700
642.000000	61.240500
641.000000	61.091300
640.000000	60.980500
639.000000	60.862900
638.000000	60.805800
637.000000	60.763400
636.000000	60.802800
635.000000	60.824600
634.000000	60.868100
633.000000	60.986500
632.000000	61.219700
631.000000	61.479700
630.000000	61.807600
629.000000	62.194000
628.000000	62.571300
627.000000	63.068900
626.000000	63.552400
625.000000	64.160300
624.000000	64.742800
623.000000	65.401600
622.000000	66.052300
621.000000	66.677200
620.000000	67.428700
619.000000	68.166200
618.000000	68.859500
617.000000	69.544400
616.000000	70.213700
615.000000	70.904300
614.000000	71.555900
613.000000	72.210100
612.000000	72.761900
611.000000	73.308800
610.000000	73.882200
609.000000	74.346800
608.000000	74.794100
607.000000	75.260300
606.000000	75.620500
605.000000	76.043800
604.000000	76.360000
603.000000	76.728100
602.000000	77.044200
601.000000	77.378100
600.000000	77.686300
599.000000	77.972200
598.000000	78.159600
597.000000	78.386700
596.000000	78.622000
595.000000	78.809700
594.000000	79.004100
593.000000	79.196100
592.000000	79.396700
591.000000	79.556000
590.000000	79.777700
589.000000	79.930400
588.000000	80.087100
587.000000	80.189800
586.000000	80.333400
585.000000	80.363100
584.000000	80.396000
583.000000	80.386300
582.000000	80.392100
581.000000	80.342300
580.000000	80.297900
579.000000	80.245600
578.000000	80.187300
577.000000	80.109800
576.000000	80.009500
575.000000	79.873800
574.000000	79.725400
573.000000	79.550000
572.000000	79.297600
571.000000	79.084900
570.000000	78.836600
569.000000	78.615500
568.000000	78.377200
567.000000	78.131100
566.000000	77.908400
565.000000	77.630400
564.000000	77.354700
563.000000	77.040100
562.000000	76.711200
561.000000	76.363600
560.000000	75.977600
559.000000	75.507300
558.000000	75.104500
557.000000	74.719900
556.000000	74.334700
555.000000	73.888700
554.000000	73.383000
553.000000	72.857800
552.000000	72.282700
551.000000	71.682100
550.000000	71.092800
549.000000	70.435300
548.000000	69.782900
547.000000	69.128300
546.000000	68.446200
545.000000	67.760600
544.000000	67.023100
543.000000	66.267300
542.000000	65.516600
541.000000	64.762700
540.000000	63.964900
539.000000	63.163300
538.000000	62.392100
537.000000	61.554100
536.000000	60.710700
535.000000	59.833200
534.000000	58.962300
533.000000	58.049400
532.000000	57.121800
531.000000	56.190000
530.000000	55.256000
529.000000	54.349200
528.000000	53.432100
527.000000	52.556700
526.000000	51.685800
525.000000	50.843300
524.000000	50.001600
523.000000	49.202300
522.000000	48.425200
521.000000	47.654600
520.000000	46.951000
519.000000	46.251900
518.000000	45.580900
517.000000	44.932200
516.000000	44.326200
515.000000	43.737800
514.000000	43.172000
513.000000	42.592700
512.000000	42.045700
511.000000	41.528900
510.000000	41.041600
509.000000	40.577300
508.000000	40.122900
507.000000	39.665500
506.000000	39.206500
505.000000	38.785300
504.000000	38.372400
503.000000	37.965300
502.000000	37.551400
501.000000	37.191500
500.000000	36.844500
499.000000	36.490100
498.000000	36.146400
497.000000	35.835500
496.000000	35.571000
495.000000	35.297800
494.000000	35.044200
493.000000	34.817200
492.000000	34.568700
491.000000	34.353000
490.000000	34.127800
489.000000	33.938800
488.000000	33.751900
487.000000	33.569900
486.000000	33.382100
485.000000	33.198100
484.000000	32.996000
483.000000	32.788300
482.000000	32.577100
481.000000	32.343400
480.000000	32.114600
479.000000	31.871600
478.000000	31.624400
477.000000	31.365400
476.000000	31.088700
475.000000	30.822400
474.000000	30.542600
473.000000	30.271200
472.000000	30.019000
471.000000	29.742700
470.000000	29.473300
469.000000	29.232800
468.000000	28.988000
467.000000	28.774800
466.000000	28.571900
465.000000	28.388700
464.000000	28.214900
463.000000	28.063900
462.000000	27.932700
461.000000	27.807500
460.000000	27.704700
459.000000	27.611400
458.000000	27.536700
457.000000	27.490200
456.000000	27.456700
455.000000	27.414700
454.000000	27.378100
453.000000	27.352600
452.000000	27.335100
451.000000	27.305600
450.000000	27.280900
449.000000	27.268900
448.000000	27.240000
447.000000	27.179900
446.000000	27.131100
445.000000	27.086200
444.000000	27.026900
443.000000	26.961200
442.000000	26.872300
441.000000	26.775500
440.000000	26.655700
439.000000	26.520200
438.000000	26.409100
437.000000	26.258500
436.000000	26.086800
435.000000	25.912900
434.000000	25.703400
433.000000	25.473200
432.000000	25.247500
431.000000	25.020200
430.000000	24.774500
429.000000	24.501100
428.000000	24.214400
427.000000	23.919100
426.000000	23.624100
425.000000	23.298600
424.000000	22.941400
423.000000	22.591800
422.000000	22.218900
421.000000	21.819300
420.000000	21.414200
419.000000	20.987000
418.000000	20.550000
417.000000	20.111600
416.000000	19.654600
415.000000	19.184100
414.000000	18.708100
413.000000	18.223100
412.000000	17.734400
411.000000	17.240200
410.000000	16.739800
409.000000	16.266600
408.000000	15.769500
407.000000	15.275700
406.000000	14.792400
405.000000	14.312600
404.000000	13.861300
403.000000	13.396400
402.000000	12.932400
401.000000	12.493800
400.000000	12.088700
399.000000	11.702100
398.000000	11.325500
397.000000	10.958000
396.000000	10.615200
395.000000	10.280100
394.000000	9.959600
393.000000	9.659700
392.000000	9.385700
391.000000	9.119900
390.000000	8.873200
389.000000	8.645100
388.000000	8.423700
387.000000	8.229400
386.000000	8.046800
385.000000	7.870300
384.000000	7.714600
383.000000	7.572300
382.000000	7.422000
381.000000	7.298800
380.000000	7.181600
379.000000	7.081000
378.000000	6.987800
377.000000	6.899800
376.000000	6.807100
375.000000	6.589000
374.000000	6.462800
373.000000	6.505600
372.000000	6.488200
371.000000	6.491100
370.000000	6.429400
369.000000	6.328800
368.000000	6.286400
367.000000	6.346300
366.000000	6.304300
365.000000	6.164200
364.000000	6.139800
363.000000	6.135900
362.000000	6.048600
361.000000	6.073300
360.000000	6.015200
359.000000	5.963200
358.000000	5.948200
357.000000	5.905900
356.000000	5.853400
355.000000	5.850600
354.000000	5.845100
353.000000	5.764400
352.000000	5.675000
351.000000	5.608500
350.000000	5.575300
349.000000	5.625900
348.000000	5.593200
347.000000	5.560000
346.000000	5.531700
345.000000	5.545200
344.000000	5.514900
343.000000	5.483600
342.000000	5.507600
341.000000	5.435100
340.000000	5.495900
339.000000	5.496000
338.000000	5.590000
337.000000	5.477500
336.000000	5.587800
335.000000	5.539600
334.000000	5.601400
333.000000	5.584100
332.000000	5.668500
331.000000	5.420700
330.000000	5.473000
329.000000	5.712300
328.000000	5.413900
327.000000	5.314900
326.000000	5.485100
325.000000	5.505900
324.000000	5.348400
323.000000	5.310100
322.000000	5.578100
321.000000	5.620200
320.000000	5.490500
319.000000	5.567500
318.000000	5.447200
317.000000	5.670400
316.000000	5.417900
315.000000	5.393100
314.000000	5.339600
313.000000	5.362900
312.000000	5.388300
311.000000	5.358200
310.000000	5.404800
309.000000	5.395900
308.000000	5.380600
307.000000	5.394400
306.000000	5.368800
305.000000	5.406900
304.000000	5.332300
303.000000	5.378300
302.000000	5.405200
301.000000	5.422300
300.000000	5.383800
299.000000	5.369600
298.000000	5.410400
297.000000	5.368900
296.000000	5.365900
295.000000	5.432000
294.000000	5.442200
293.000000	5.394200
292.000000	5.437000
291.000000	5.443100
290.000000	5.412700
289.000000	5.477300
288.000000	5.448000
287.000000	5.433300
286.000000	5.475600
285.000000	5.450400
284.000000	5.483700
283.000000	5.443900
282.000000	5.524700
281.000000	5.543700
280.000000	5.506800
279.000000	5.527400
278.000000	5.566200
277.000000	5.542100
276.000000	5.556100
275.000000	5.556500
274.000000	5.569200
273.000000	5.599300
272.000000	5.595800
271.000000	5.619200
270.000000	5.663900
269.000000	5.617100
268.000000	5.667900
267.000000	5.646300
266.000000	5.699400
265.000000	5.734100
264.000000	5.715100
263.000000	5.761800
262.000000	5.812400
261.000000	5.801700
260.000000	5.830800
259.000000	5.824300
258.000000	5.889800
257.000000	5.841800
256.000000	5.915700
255.000000	5.895000
254.000000	5.905600
253.000000	5.910200
252.000000	5.933400
251.000000	5.894000
250.000000	5.918100
