PE UV       SUBTECH     SPECTRUM    ASCII       PEDS        4.00        
   -1
ANGSOL0011-3.Sample.ASC
24/03/07
13:52:18.00
24/03/07
13:52:18.00
Vinicio Soto Monge
Chrysina resplendens. Sector Santa Maria, manta #560, crater bosque, sendero adentro/ 8 Abril 2016/ Col: Sergio rios / BioCol-0000415.
250,000000
1
Lambda 1050
1050L1511233
PerkinElmer UV WinLab 6.3.2.0749 / 2.02.05 Lambda 900 UV/VIS/NIR, Aug  7 2015 09:38:08

0
0
3350/servo 860,8/2
0
0
UV/VIS
1
1
1
DoubleDePol,CommonBeamDepol,RBeamAtt,SBeamAtt,60mm sphere, WB InGaAs Detector
0
0
0
0
Program
Program
3350/servo 860,8/2
3350/0,2 860,8/0,2
3350/0,2 860,8/0,2
0
15.00
 
 
 
0
 
860,8
319,2
860,8
Front
100
on
S:100 R:100
0
0
0
0
 
0
 
 
 
0
 
 
0
0
0
0
0
 
 
 
 
0
0


0
0
#HDR
-1
-1
#GR
nm
%R
1.0
0.0
2500,000000
-1,000000
2251
8
22,796100
1,694900
#DATA
250.000000	nan
251.000000	nan
252.000000	nan
253.000000	nan
254.000000	nan
255.000000	nan
256.000000	nan
257.000000	nan
258.000000	nan
259.000000	nan
260.000000	nan
261.000000	nan
262.000000	nan
263.000000	nan
264.000000	nan
265.000000	nan
266.000000	nan
267.000000	nan
268.000000	nan
269.000000	nan
270.000000	nan
271.000000	nan
272.000000	nan
273.000000	nan
274.000000	nan
275.000000	nan
276.000000	nan
277.000000	nan
278.000000	nan
279.000000	nan
280.000000	nan
281.000000	nan
282.000000	nan
283.000000	nan
284.000000	1.950696
285.000000	1.946512
286.000000	1.941982
287.000000	1.938319
288.000000	1.936331
289.000000	1.933595
290.000000	1.931359
291.000000	1.928289
292.000000	1.925844
293.000000	1.922643
294.000000	1.919474
295.000000	1.916060
296.000000	1.914318
297.000000	1.911475
298.000000	1.909688
299.000000	1.907904
300.000000	1.906635
301.000000	1.904300
302.000000	1.901851
303.000000	1.899958
304.000000	1.898013
305.000000	1.896552
306.000000	1.895125
307.000000	1.893320
308.000000	1.891500
309.000000	1.890857
310.000000	1.889457
311.000000	1.887306
312.000000	1.885923
313.000000	1.884852
314.000000	1.883658
315.000000	1.881958
316.000000	1.883330
317.000000	1.903203
318.000000	1.925582
319.000000	1.948416
320.000000	1.965648
321.000000	1.982346
322.000000	1.992440
323.000000	2.009443
324.000000	2.027244
325.000000	2.039142
326.000000	2.047156
327.000000	2.056979
328.000000	2.066216
329.000000	2.078362
330.000000	2.088409
331.000000	2.098926
332.000000	2.107094
333.000000	2.113607
334.000000	2.117806
335.000000	2.118785
336.000000	2.122687
337.000000	2.127373
338.000000	2.133423
339.000000	2.136769
340.000000	2.139654
341.000000	2.145259
342.000000	2.148585
343.000000	2.154639
344.000000	2.159884
345.000000	2.164750
346.000000	2.170295
347.000000	2.174900
348.000000	2.180530
349.000000	2.184476
350.000000	2.188008
351.000000	2.188004
352.000000	2.169571
353.000000	2.149938
354.000000	2.129090
355.000000	2.113667
356.000000	2.100362
357.000000	2.094011
358.000000	2.079821
359.000000	2.062729
360.000000	2.052757
361.000000	2.046934
362.000000	2.037375
363.000000	2.028602
364.000000	2.017542
365.000000	2.008497
366.000000	1.998536
367.000000	1.989915
368.000000	1.981585
369.000000	1.975846
370.000000	1.972281
371.000000	1.966228
372.000000	1.956988
373.000000	1.946240
374.000000	1.939553
375.000000	1.931406
376.000000	1.925216
377.000000	1.920179
378.000000	1.912376
379.000000	1.905000
380.000000	1.898619
381.000000	1.891881
382.000000	1.885418
383.000000	1.878700
384.000000	1.873502
385.000000	1.868891
386.000000	1.866187
387.000000	1.863294
388.000000	1.859566
389.000000	1.857691
390.000000	1.855512
391.000000	1.852578
392.000000	1.848748
393.000000	1.845698
394.000000	1.845682
395.000000	1.844589
396.000000	1.843649
397.000000	1.844920
398.000000	1.846958
399.000000	1.848996
400.000000	1.851784
401.000000	1.855774
402.000000	1.861589
403.000000	1.869097
404.000000	1.877144
405.000000	1.887158
406.000000	1.898962
407.000000	1.913742
408.000000	1.929868
409.000000	1.946131
410.000000	1.965779
411.000000	1.982032
412.000000	2.001910
413.000000	2.023161
414.000000	2.046356
415.000000	2.071630
416.000000	2.099165
417.000000	2.129009
418.000000	2.160942
419.000000	2.195394
420.000000	2.232633
421.000000	2.272835
422.000000	2.315949
423.000000	2.362176
424.000000	2.411477
425.000000	2.464104
426.000000	2.520047
427.000000	2.579399
428.000000	2.642119
429.000000	2.708091
430.000000	2.777373
431.000000	2.849711
432.000000	2.925522
433.000000	3.004712
434.000000	3.087046
435.000000	3.172404
436.000000	3.260331
437.000000	3.351040
438.000000	3.444527
439.000000	3.540288
440.000000	3.638383
441.000000	3.738704
442.000000	3.840948
443.000000	3.944755
444.000000	4.049963
445.000000	4.156508
446.000000	4.264221
447.000000	4.372737
448.000000	4.481847
449.000000	4.591138
450.000000	4.700462
451.000000	4.809723
452.000000	4.918555
453.000000	5.026742
454.000000	5.134287
455.000000	5.240852
456.000000	5.345709
457.000000	5.449154
458.000000	5.550908
459.000000	5.650893
460.000000	5.748890
461.000000	5.844672
462.000000	5.938200
463.000000	6.029266
464.000000	6.117888
465.000000	6.203854
466.000000	6.286971
467.000000	6.367036
468.000000	6.443815
469.000000	6.517223
470.000000	6.587325
471.000000	6.654027
472.000000	6.716956
473.000000	6.776034
474.000000	6.831297
475.000000	6.882598
476.000000	6.929858
477.000000	6.973081
478.000000	7.012202
479.000000	7.047163
480.000000	7.077565
481.000000	7.103078
482.000000	7.123893
483.000000	7.140583
484.000000	7.153552
485.000000	7.162909
486.000000	7.168772
487.000000	7.171211
488.000000	7.170526
489.000000	7.167103
490.000000	7.161329
491.000000	7.153833
492.000000	7.144752
493.000000	7.134712
494.000000	7.124211
495.000000	7.113641
496.000000	7.103650
497.000000	7.095104
498.000000	7.088378
499.000000	7.083794
500.000000	7.082177
501.000000	7.084027
502.000000	7.089831
503.000000	7.100053
504.000000	7.115180
505.000000	7.135074
506.000000	7.160140
507.000000	7.190596
508.000000	7.226138
509.000000	7.266684
510.000000	7.312029
511.000000	7.361805
512.000000	7.415979
513.000000	7.473999
514.000000	7.535314
515.000000	7.600145
516.000000	7.668389
517.000000	7.739653
518.000000	7.813296
519.000000	7.889015
520.000000	7.966197
521.000000	8.044679
522.000000	8.124244
523.000000	8.204972
524.000000	8.286644
525.000000	8.369140
526.000000	8.452553
527.000000	8.537149
528.000000	8.622832
529.000000	8.709681
530.000000	8.798121
531.000000	8.888719
532.000000	8.981787
533.000000	9.078096
534.000000	9.178056
535.000000	9.282386
536.000000	9.391371
537.000000	9.505723
538.000000	9.625944
539.000000	9.752506
540.000000	9.886224
541.000000	10.027426
542.000000	10.176832
543.000000	10.335187
544.000000	10.502661
545.000000	10.679610
546.000000	10.865895
547.000000	11.061715
548.000000	11.267687
549.000000	11.483875
550.000000	11.709896
551.000000	11.945993
552.000000	12.191472
553.000000	12.446229
554.000000	12.709876
555.000000	12.981828
556.000000	13.261579
557.000000	13.549130
558.000000	13.843381
559.000000	14.143585
560.000000	14.435722
561.000000	14.730561
562.000000	15.028944
563.000000	15.329875
564.000000	15.632378
565.000000	15.935763
566.000000	16.238643
567.000000	16.539344
568.000000	16.836934
569.000000	17.130164
570.000000	17.417553
571.000000	17.699021
572.000000	17.972995
573.000000	18.238914
574.000000	18.495665
575.000000	18.742162
576.000000	18.978287
577.000000	19.203094
578.000000	19.416474
579.000000	19.618644
580.000000	19.809411
581.000000	19.988580
582.000000	20.156575
583.000000	20.313196
584.000000	20.458906
585.000000	20.594404
586.000000	20.719754
587.000000	20.836073
588.000000	20.943014
589.000000	21.041453
590.000000	21.132350
591.000000	21.216377
592.000000	21.293176
593.000000	21.363787
594.000000	21.428506
595.000000	21.500936
596.000000	21.569912
597.000000	21.634492
598.000000	21.694433
599.000000	21.749554
600.000000	21.800741
601.000000	21.848136
602.000000	21.892257
603.000000	21.932445
604.000000	21.969369
605.000000	22.002936
606.000000	22.032694
607.000000	22.059027
608.000000	22.081621
609.000000	22.100616
610.000000	22.116518
611.000000	22.128476
612.000000	22.136965
613.000000	22.140961
614.000000	22.141436
615.000000	22.137572
616.000000	22.129552
617.000000	22.117643
618.000000	22.101743
619.000000	22.081186
620.000000	22.056260
621.000000	22.026595
622.000000	21.991668
623.000000	21.952309
624.000000	21.907614
625.000000	21.857173
626.000000	21.801352
627.000000	21.740495
628.000000	21.674071
629.000000	21.602474
630.000000	21.525369
631.000000	21.442726
632.000000	21.353923
633.000000	21.259589
634.000000	21.160026
635.000000	21.053837
636.000000	20.940476
637.000000	20.819836
638.000000	20.691906
639.000000	20.555957
640.000000	20.411869
641.000000	20.258871
642.000000	20.096380
643.000000	19.924614
644.000000	19.743739
645.000000	19.553468
646.000000	19.353974
647.000000	19.145480
648.000000	18.929261
649.000000	18.704388
650.000000	18.472153
651.000000	18.234159
652.000000	17.990619
653.000000	17.742575
654.000000	17.491638
655.000000	17.238489
656.000000	16.984546
657.000000	16.731633
658.000000	16.480287
659.000000	16.231952
660.000000	15.987431
661.000000	15.747294
662.000000	15.512956
663.000000	15.285234
664.000000	15.064454
665.000000	14.852222
666.000000	14.649270
667.000000	14.456175
668.000000	14.273400
669.000000	14.101547
670.000000	13.941683
671.000000	13.794835
672.000000	13.660823
673.000000	13.540575
674.000000	13.434355
675.000000	13.342469
676.000000	13.265535
677.000000	13.203663
678.000000	13.156325
679.000000	13.123336
680.000000	13.104994
681.000000	13.101083
682.000000	13.110696
683.000000	13.133320
684.000000	13.168801
685.000000	13.216455
686.000000	13.275397
687.000000	13.344161
688.000000	13.422412
689.000000	13.508658
690.000000	13.602010
691.000000	13.701519
692.000000	13.805461
693.000000	13.913028
694.000000	14.023348
695.000000	14.135776
696.000000	14.248488
697.000000	14.360203
698.000000	14.470922
699.000000	14.579939
700.000000	14.685878
701.000000	14.787798
702.000000	14.885196
703.000000	14.977777
704.000000	15.065325
705.000000	15.147006
706.000000	15.222583
707.000000	15.292199
708.000000	15.355443
709.000000	15.413371
710.000000	15.465714
711.000000	15.512296
712.000000	15.554487
713.000000	15.592947
714.000000	15.627855
715.000000	15.659015
716.000000	15.687463
717.000000	15.714316
718.000000	15.739565
719.000000	15.763248
720.000000	15.785742
721.000000	15.807504
722.000000	15.829341
723.000000	15.851593
724.000000	15.875032
725.000000	15.898838
726.000000	15.923615
727.000000	15.949783
728.000000	15.977645
729.000000	16.007811
730.000000	16.041196
731.000000	16.078592
732.000000	16.120037
733.000000	16.165050
734.000000	16.213552
735.000000	16.266390
736.000000	16.323812
737.000000	16.385851
738.000000	16.452600
739.000000	16.524022
740.000000	16.600094
741.000000	16.680475
742.000000	16.765561
743.000000	16.854967
744.000000	16.947642
745.000000	17.044065
746.000000	17.144474
747.000000	17.247859
748.000000	17.354109
749.000000	17.463003
750.000000	17.574437
751.000000	17.687872
752.000000	17.802259
753.000000	17.917322
754.000000	18.033000
755.000000	18.149429
756.000000	18.265965
757.000000	18.382307
758.000000	18.497451
759.000000	18.610305
760.000000	18.721783
761.000000	18.832061
762.000000	18.940254
763.000000	19.046652
764.000000	19.150643
765.000000	19.249697
766.000000	19.344078
767.000000	19.434674
768.000000	19.521269
769.000000	19.603854
770.000000	19.681504
771.000000	19.753981
772.000000	19.821220
773.000000	19.884617
774.000000	19.942608
775.000000	19.995298
776.000000	20.044471
777.000000	20.089129
778.000000	20.129673
779.000000	20.166864
780.000000	20.200761
781.000000	20.230991
782.000000	20.257821
783.000000	20.281337
784.000000	20.302300
785.000000	20.320950
786.000000	20.337264
787.000000	20.351846
788.000000	20.364651
789.000000	20.376334
790.000000	20.386074
791.000000	20.393780
792.000000	20.400495
793.000000	20.407435
794.000000	20.414382
795.000000	20.420357
796.000000	20.425542
797.000000	20.430609
798.000000	20.434453
799.000000	20.437574
800.000000	20.442186
801.000000	20.446645
802.000000	20.450961
803.000000	20.453985
804.000000	20.457879
805.000000	20.462264
806.000000	20.467431
807.000000	20.473445
808.000000	20.479083
809.000000	20.485052
810.000000	20.491816
811.000000	20.499089
812.000000	20.506758
813.000000	20.514655
814.000000	20.522271
815.000000	20.530301
816.000000	20.536979
817.000000	20.542832
818.000000	20.548107
819.000000	20.551667
820.000000	20.556159
821.000000	20.560053
822.000000	20.563598
823.000000	20.567440
824.000000	20.571616
825.000000	20.575141
826.000000	20.579310
827.000000	20.582563
828.000000	20.583799
829.000000	20.583942
830.000000	20.584042
831.000000	20.582628
832.000000	20.581484
833.000000	20.579420
834.000000	20.576813
835.000000	20.571504
836.000000	20.567916
837.000000	20.563611
838.000000	20.556011
839.000000	20.547819
840.000000	20.537746
841.000000	20.526490
842.000000	20.514943
843.000000	20.501257
844.000000	20.486918
845.000000	20.470491
846.000000	20.449367
847.000000	20.424021
848.000000	20.396773
849.000000	20.370582
850.000000	20.337753
851.000000	20.308558
852.000000	20.270421
853.000000	20.228421
854.000000	20.187617
855.000000	20.141368
856.000000	20.097373
857.000000	20.053757
858.000000	20.013950
859.000000	19.980164
860.000000	19.946056
861.000000	19.911072
862.000000	19.875987
863.000000	19.841266
864.000000	19.806903
865.000000	19.772752
866.000000	19.739300
867.000000	19.703989
868.000000	19.669549
869.000000	19.634902
870.000000	19.601690
871.000000	19.567306
872.000000	19.533560
873.000000	19.503955
874.000000	19.474329
875.000000	19.446710
876.000000	19.420268
877.000000	19.394939
878.000000	19.371603
879.000000	19.349834
880.000000	19.330969
881.000000	19.315982
882.000000	19.305748
883.000000	19.297401
884.000000	19.288896
885.000000	19.286888
886.000000	19.283281
887.000000	19.289741
888.000000	19.300786
889.000000	19.311902
890.000000	19.327077
891.000000	19.340736
892.000000	19.354199
893.000000	19.363685
894.000000	19.365862
895.000000	19.368903
896.000000	19.372295
897.000000	19.376750
898.000000	19.381254
899.000000	19.386131
900.000000	19.390950
901.000000	19.396859
902.000000	19.404078
903.000000	19.411853
904.000000	19.419990
905.000000	19.428865
906.000000	19.437810
907.000000	19.447321
908.000000	19.457880
909.000000	19.468637
910.000000	19.478907
911.000000	19.489659
912.000000	19.499068
913.000000	19.509137
914.000000	19.519033
915.000000	19.528545
916.000000	19.538096
917.000000	19.546565
918.000000	19.555346
919.000000	19.563693
920.000000	19.571335
921.000000	19.578107
922.000000	19.584830
923.000000	19.591306
924.000000	19.597710
925.000000	19.603897
926.000000	19.609406
927.000000	19.614071
928.000000	19.618617
929.000000	19.623050
930.000000	19.626850
931.000000	19.630566
932.000000	19.633529
933.000000	19.636078
934.000000	19.638326
935.000000	19.641053
936.000000	19.642988
937.000000	19.644268
938.000000	19.645118
939.000000	19.645468
940.000000	19.644930
941.000000	19.644226
942.000000	19.642323
943.000000	19.639386
944.000000	19.635795
945.000000	19.632630
946.000000	19.628957
947.000000	19.625403
948.000000	19.620454
949.000000	19.615143
950.000000	19.608962
951.000000	19.602424
952.000000	19.596191
953.000000	19.589101
954.000000	19.581293
955.000000	19.572871
956.000000	19.564233
957.000000	19.555025
958.000000	19.545803
959.000000	19.535858
960.000000	19.525354
961.000000	19.514368
962.000000	19.502892
963.000000	19.490530
964.000000	19.477517
965.000000	19.463907
966.000000	19.449825
967.000000	19.435228
968.000000	19.420287
969.000000	19.405001
970.000000	19.388605
971.000000	19.371352
972.000000	19.353914
973.000000	19.336076
974.000000	19.318237
975.000000	19.300423
976.000000	19.282232
977.000000	19.264218
978.000000	19.245713
979.000000	19.226794
980.000000	19.207709
981.000000	19.188492
982.000000	19.169283
983.000000	19.150315
984.000000	19.130985
985.000000	19.112302
986.000000	19.093334
987.000000	19.073985
988.000000	19.055219
989.000000	19.036700
990.000000	19.018597
991.000000	19.000350
992.000000	18.982152
993.000000	18.964081
994.000000	18.946582
995.000000	18.929523
996.000000	18.912850
997.000000	18.896529
998.000000	18.880690
999.000000	18.865553
1000.000000	18.851462
1001.000000	18.837699
1002.000000	18.824055
1003.000000	18.811124
1004.000000	18.798628
1005.000000	18.786735
1006.000000	18.775240
1007.000000	18.764271
1008.000000	18.753861
1009.000000	18.743909
1010.000000	18.734617
1011.000000	18.725883
1012.000000	18.717757
1013.000000	18.710543
1014.000000	18.704379
1015.000000	18.698746
1016.000000	18.693470
1017.000000	18.689127
1018.000000	18.685521
1019.000000	18.682588
1020.000000	18.680013
1021.000000	18.678497
1022.000000	18.677977
1023.000000	18.677832
1024.000000	18.678262
1025.000000	18.679318
1026.000000	18.681223
1027.000000	18.683886
1028.000000	18.686627
1029.000000	18.689515
1030.000000	18.692855
1031.000000	18.696351
1032.000000	18.700522
1033.000000	18.704989
1034.000000	18.709812
1035.000000	18.714886
1036.000000	18.720070
1037.000000	18.725622
1038.000000	18.731126
1039.000000	18.736771
1040.000000	18.742678
1041.000000	18.748668
1042.000000	18.754556
1043.000000	18.760441
1044.000000	18.766173
1045.000000	18.771782
1046.000000	18.777467
1047.000000	18.783127
1048.000000	18.788846
1049.000000	18.794150
1050.000000	18.799379
1051.000000	18.805006
1052.000000	18.810325
1053.000000	18.815426
1054.000000	18.820606
1055.000000	18.825647
1056.000000	18.830335
1057.000000	18.835016
1058.000000	18.839794
1059.000000	18.844228
1060.000000	18.848667
1061.000000	18.853389
1062.000000	18.858215
1063.000000	18.863220
1064.000000	18.868632
1065.000000	18.874230
1066.000000	18.879998
1067.000000	18.886138
1068.000000	18.892664
1069.000000	18.899843
1070.000000	18.907730
1071.000000	18.916042
1072.000000	18.924529
1073.000000	18.933480
1074.000000	18.942846
1075.000000	18.952142
1076.000000	18.962005
1077.000000	18.972569
1078.000000	18.983325
1079.000000	18.994458
1080.000000	19.006336
1081.000000	19.018511
1082.000000	19.030963
1083.000000	19.043710
1084.000000	19.056783
1085.000000	19.070072
1086.000000	19.083274
1087.000000	19.096973
1088.000000	19.111064
1089.000000	19.125128
1090.000000	19.139159
1091.000000	19.153512
1092.000000	19.167544
1093.000000	19.181549
1094.000000	19.196195
1095.000000	19.210804
1096.000000	19.224456
1097.000000	19.237751
1098.000000	19.251120
1099.000000	19.264009
1100.000000	19.276721
1101.000000	19.289226
1102.000000	19.301032
1103.000000	19.312519
1104.000000	19.323229
1105.000000	19.333019
1106.000000	19.342260
1107.000000	19.351227
1108.000000	19.359597
1109.000000	19.367791
1110.000000	19.376068
1111.000000	19.383581
1112.000000	19.390366
1113.000000	19.397153
1114.000000	19.403676
1115.000000	19.409137
1116.000000	19.414168
1117.000000	19.418924
1118.000000	19.423238
1119.000000	19.427410
1120.000000	19.430685
1121.000000	19.433404
1122.000000	19.435434
1123.000000	19.437086
1124.000000	19.438389
1125.000000	19.439056
1126.000000	19.439115
1127.000000	19.438781
1128.000000	19.437553
1129.000000	19.436013
1130.000000	19.433250
1131.000000	19.430090
1132.000000	19.425343
1133.000000	19.418665
1134.000000	19.411667
1135.000000	19.404665
1136.000000	19.397450
1137.000000	19.389067
1138.000000	19.379273
1139.000000	19.368000
1140.000000	19.355796
1141.000000	19.343307
1142.000000	19.329910
1143.000000	19.315506
1144.000000	19.300121
1145.000000	19.284212
1146.000000	19.268215
1147.000000	19.251752
1148.000000	19.234207
1149.000000	19.216283
1150.000000	19.198160
1151.000000	19.179295
1152.000000	19.159835
1153.000000	19.139770
1154.000000	19.119065
1155.000000	19.098055
1156.000000	19.076129
1157.000000	19.053512
1158.000000	19.029998
1159.000000	19.005628
1160.000000	18.980369
1161.000000	18.953660
1162.000000	18.926206
1163.000000	18.898024
1164.000000	18.868149
1165.000000	18.837670
1166.000000	18.806870
1167.000000	18.776649
1168.000000	18.746872
1169.000000	18.715903
1170.000000	18.683807
1171.000000	18.651108
1172.000000	18.618809
1173.000000	18.587369
1174.000000	18.556482
1175.000000	18.526167
1176.000000	18.495567
1177.000000	18.465052
1178.000000	18.434821
1179.000000	18.404741
1180.000000	18.374412
1181.000000	18.344000
1182.000000	18.313319
1183.000000	18.283131
1184.000000	18.252998
1185.000000	18.223212
1186.000000	18.194328
1187.000000	18.165548
1188.000000	18.137407
1189.000000	18.110034
1190.000000	18.083831
1191.000000	18.059137
1192.000000	18.035691
1193.000000	18.013594
1194.000000	17.993269
1195.000000	17.974888
1196.000000	17.958546
1197.000000	17.944027
1198.000000	17.931295
1199.000000	17.920620
1200.000000	17.912186
1201.000000	17.905846
1202.000000	17.900768
1203.000000	17.897382
1204.000000	17.896142
1205.000000	17.896038
1206.000000	17.897330
1207.000000	17.900050
1208.000000	17.903581
1209.000000	17.908404
1210.000000	17.914186
1211.000000	17.921124
1212.000000	17.929557
1213.000000	17.939388
1214.000000	17.950037
1215.000000	17.961491
1216.000000	17.973790
1217.000000	17.987395
1218.000000	18.001551
1219.000000	18.016486
1220.000000	18.032046
1221.000000	18.047359
1222.000000	18.063150
1223.000000	18.079022
1224.000000	18.094796
1225.000000	18.110468
1226.000000	18.125592
1227.000000	18.140499
1228.000000	18.155125
1229.000000	18.168850
1230.000000	18.182249
1231.000000	18.195319
1232.000000	18.207698
1233.000000	18.219680
1234.000000	18.230789
1235.000000	18.241211
1236.000000	18.250622
1237.000000	18.259491
1238.000000	18.267649
1239.000000	18.275112
1240.000000	18.282626
1241.000000	18.289595
1242.000000	18.296587
1243.000000	18.303318
1244.000000	18.309709
1245.000000	18.315910
1246.000000	18.322153
1247.000000	18.328196
1248.000000	18.334156
1249.000000	18.340273
1250.000000	18.346420
1251.000000	18.352813
1252.000000	18.359476
1253.000000	18.366325
1254.000000	18.373292
1255.000000	18.380346
1256.000000	18.388039
1257.000000	18.395955
1258.000000	18.403835
1259.000000	18.411752
1260.000000	18.419659
1261.000000	18.428200
1262.000000	18.436879
1263.000000	18.445334
1264.000000	18.453926
1265.000000	18.462639
1266.000000	18.471360
1267.000000	18.480123
1268.000000	18.488738
1269.000000	18.497372
1270.000000	18.505927
1271.000000	18.514775
1272.000000	18.523845
1273.000000	18.532938
1274.000000	18.542062
1275.000000	18.550606
1276.000000	18.559003
1277.000000	18.566786
1278.000000	18.574290
1279.000000	18.581642
1280.000000	18.588800
1281.000000	18.595556
1282.000000	18.601628
1283.000000	18.607138
1284.000000	18.612338
1285.000000	18.617594
1286.000000	18.622067
1287.000000	18.626035
1288.000000	18.629744
1289.000000	18.632944
1290.000000	18.635846
1291.000000	18.638176
1292.000000	18.640129
1293.000000	18.641915
1294.000000	18.643686
1295.000000	18.645510
1296.000000	18.646803
1297.000000	18.647681
1298.000000	18.648548
1299.000000	18.649414
1300.000000	18.650228
1301.000000	18.650953
1302.000000	18.651511
1303.000000	18.652006
1304.000000	18.652308
1305.000000	18.652621
1306.000000	18.652809
1307.000000	18.652895
1308.000000	18.652939
1309.000000	18.652839
1310.000000	18.652633
1311.000000	18.652284
1312.000000	18.651835
1313.000000	18.651034
1314.000000	18.649845
1315.000000	18.648121
1316.000000	18.645962
1317.000000	18.643430
1318.000000	18.640072
1319.000000	18.635961
1320.000000	18.630999
1321.000000	18.625835
1322.000000	18.619870
1323.000000	18.613022
1324.000000	18.605703
1325.000000	18.597646
1326.000000	18.588843
1327.000000	18.579323
1328.000000	18.569184
1329.000000	18.558303
1330.000000	18.546519
1331.000000	18.533880
1332.000000	18.520282
1333.000000	18.506155
1334.000000	18.491150
1335.000000	18.474749
1336.000000	18.457436
1337.000000	18.439105
1338.000000	18.419797
1339.000000	18.400089
1340.000000	18.379746
1341.000000	18.358408
1342.000000	18.335842
1343.000000	18.312144
1344.000000	18.287517
1345.000000	18.261593
1346.000000	18.234046
1347.000000	18.205449
1348.000000	18.176486
1349.000000	18.146598
1350.000000	18.114809
1351.000000	18.081455
1352.000000	18.046739
1353.000000	18.011097
1354.000000	17.975040
1355.000000	17.939384
1356.000000	17.903412
1357.000000	17.866801
1358.000000	17.828929
1359.000000	17.789887
1360.000000	17.749373
1361.000000	17.709757
1362.000000	17.672429
1363.000000	17.634797
1364.000000	17.595970
1365.000000	17.556722
1366.000000	17.516393
1367.000000	17.474362
1368.000000	17.432208
1369.000000	17.388934
1370.000000	17.343645
1371.000000	17.296836
1372.000000	17.248444
1373.000000	17.196595
1374.000000	17.140231
1375.000000	17.079200
1376.000000	17.014822
1377.000000	16.946420
1378.000000	16.873720
1379.000000	16.796258
1380.000000	16.716098
1381.000000	16.635224
1382.000000	16.555615
1383.000000	16.475624
1384.000000	16.395912
1385.000000	16.316090
1386.000000	16.236556
1387.000000	16.157789
1388.000000	16.081363
1389.000000	16.005944
1390.000000	15.928857
1391.000000	15.850803
1392.000000	15.774254
1393.000000	15.699672
1394.000000	15.625806
1395.000000	15.554229
1396.000000	15.484301
1397.000000	15.412033
1398.000000	15.337855
1399.000000	15.263310
1400.000000	15.190150
1401.000000	15.120898
1402.000000	15.052194
1403.000000	14.980057
1404.000000	14.907659
1405.000000	14.838309
1406.000000	14.769336
1407.000000	14.701232
1408.000000	14.635735
1409.000000	14.573796
1410.000000	14.515750
1411.000000	14.459596
1412.000000	14.405271
1413.000000	14.354928
1414.000000	14.309359
1415.000000	14.267446
1416.000000	14.225754
1417.000000	14.180711
1418.000000	14.135686
1419.000000	14.090745
1420.000000	14.047110
1421.000000	14.003524
1422.000000	13.958565
1423.000000	13.911850
1424.000000	13.864121
1425.000000	13.816980
1426.000000	13.769579
1427.000000	13.720797
1428.000000	13.670768
1429.000000	13.620536
1430.000000	13.568832
1431.000000	13.514889
1432.000000	13.460652
1433.000000	13.408750
1434.000000	13.358148
1435.000000	13.305841
1436.000000	13.250410
1437.000000	13.196371
1438.000000	13.146226
1439.000000	13.097858
1440.000000	13.048883
1441.000000	13.001153
1442.000000	12.954470
1443.000000	12.908895
1444.000000	12.864544
1445.000000	12.821133
1446.000000	12.780735
1447.000000	12.742351
1448.000000	12.704543
1449.000000	12.666700
1450.000000	12.629543
1451.000000	12.594413
1452.000000	12.562206
1453.000000	12.529972
1454.000000	12.497955
1455.000000	12.466370
1456.000000	12.435565
1457.000000	12.406350
1458.000000	12.377659
1459.000000	12.348944
1460.000000	12.320793
1461.000000	12.293862
1462.000000	12.267042
1463.000000	12.240747
1464.000000	12.214759
1465.000000	12.189312
1466.000000	12.163839
1467.000000	12.138747
1468.000000	12.113025
1469.000000	12.087530
1470.000000	12.062812
1471.000000	12.038914
1472.000000	12.015145
1473.000000	11.990817
1474.000000	11.966420
1475.000000	11.941723
1476.000000	11.917022
1477.000000	11.892783
1478.000000	11.869064
1479.000000	11.845203
1480.000000	11.821790
1481.000000	11.797452
1482.000000	11.774104
1483.000000	11.751321
1484.000000	11.729283
1485.000000	11.706632
1486.000000	11.684043
1487.000000	11.661153
1488.000000	11.639453
1489.000000	11.618005
1490.000000	11.596985
1491.000000	11.576144
1492.000000	11.555959
1493.000000	11.536398
1494.000000	11.517486
1495.000000	11.498828
1496.000000	11.480939
1497.000000	11.464271
1498.000000	11.448390
1499.000000	11.433472
1500.000000	11.419332
1501.000000	11.405815
1502.000000	11.393303
1503.000000	11.382426
1504.000000	11.372688
1505.000000	11.364204
1506.000000	11.356470
1507.000000	11.349543
1508.000000	11.343630
1509.000000	11.339115
1510.000000	11.336134
1511.000000	11.334740
1512.000000	11.334137
1513.000000	11.334450
1514.000000	11.335869
1515.000000	11.338022
1516.000000	11.341225
1517.000000	11.345626
1518.000000	11.351093
1519.000000	11.357319
1520.000000	11.365006
1521.000000	11.373616
1522.000000	11.383077
1523.000000	11.392890
1524.000000	11.403785
1525.000000	11.415450
1526.000000	11.428328
1527.000000	11.441904
1528.000000	11.455953
1529.000000	11.470644
1530.000000	11.486133
1531.000000	11.502258
1532.000000	11.518917
1533.000000	11.535889
1534.000000	11.552945
1535.000000	11.570114
1536.000000	11.587529
1537.000000	11.604837
1538.000000	11.622031
1539.000000	11.638941
1540.000000	11.655363
1541.000000	11.671687
1542.000000	11.688095
1543.000000	11.704341
1544.000000	11.720212
1545.000000	11.736159
1546.000000	11.751935
1547.000000	11.767812
1548.000000	11.783641
1549.000000	11.799675
1550.000000	11.815791
1551.000000	11.831987
1552.000000	11.848270
1553.000000	11.864598
1554.000000	11.881111
1555.000000	11.897179
1556.000000	11.912835
1557.000000	11.928650
1558.000000	11.944697
1559.000000	11.960151
1560.000000	11.975009
1561.000000	11.989437
1562.000000	12.003501
1563.000000	12.016958
1564.000000	12.029944
1565.000000	12.042419
1566.000000	12.053856
1567.000000	12.064129
1568.000000	12.073564
1569.000000	12.082558
1570.000000	12.091107
1571.000000	12.098899
1572.000000	12.106382
1573.000000	12.113680
1574.000000	12.120678
1575.000000	12.127319
1576.000000	12.133641
1577.000000	12.139688
1578.000000	12.145892
1579.000000	12.151666
1580.000000	12.156985
1581.000000	12.162006
1582.000000	12.166299
1583.000000	12.170187
1584.000000	12.173580
1585.000000	12.176591
1586.000000	12.179224
1587.000000	12.181335
1588.000000	12.182938
1589.000000	12.184295
1590.000000	12.185822
1591.000000	12.187532
1592.000000	12.189332
1593.000000	12.191118
1594.000000	12.193026
1595.000000	12.195213
1596.000000	12.197519
1597.000000	12.200336
1598.000000	12.203740
1599.000000	12.207641
1600.000000	12.212051
1601.000000	12.217310
1602.000000	12.223487
1603.000000	12.230814
1604.000000	12.238709
1605.000000	12.247101
1606.000000	12.256497
1607.000000	12.266624
1608.000000	12.276917
1609.000000	12.287490
1610.000000	12.298349
1611.000000	12.309584
1612.000000	12.321105
1613.000000	12.332586
1614.000000	12.344223
1615.000000	12.356457
1616.000000	12.368643
1617.000000	12.381043
1618.000000	12.393665
1619.000000	12.406144
1620.000000	12.418613
1621.000000	12.430791
1622.000000	12.442918
1623.000000	12.455171
1624.000000	12.467580
1625.000000	12.479487
1626.000000	12.491033
1627.000000	12.502410
1628.000000	12.513693
1629.000000	12.525031
1630.000000	12.536539
1631.000000	12.547996
1632.000000	12.558845
1633.000000	12.569344
1634.000000	12.579939
1635.000000	12.590130
1636.000000	12.600227
1637.000000	12.610084
1638.000000	12.619193
1639.000000	12.628070
1640.000000	12.636602
1641.000000	12.644292
1642.000000	12.651617
1643.000000	12.658799
1644.000000	12.666146
1645.000000	12.673290
1646.000000	12.679990
1647.000000	12.686483
1648.000000	12.692810
1649.000000	12.699063
1650.000000	12.704570
1651.000000	12.709393
1652.000000	12.714032
1653.000000	12.718710
1654.000000	12.722846
1655.000000	12.726350
1656.000000	12.729582
1657.000000	12.731417
1658.000000	12.732463
1659.000000	12.732522
1660.000000	12.731842
1661.000000	12.729857
1662.000000	12.726292
1663.000000	12.721459
1664.000000	12.715604
1665.000000	12.708085
1666.000000	12.699231
1667.000000	12.689244
1668.000000	12.676257
1669.000000	12.661234
1670.000000	12.645005
1671.000000	12.627044
1672.000000	12.607854
1673.000000	12.587009
1674.000000	12.564614
1675.000000	12.541001
1676.000000	12.516131
1677.000000	12.489677
1678.000000	12.461784
1679.000000	12.432019
1680.000000	12.400583
1681.000000	12.367738
1682.000000	12.332841
1683.000000	12.296238
1684.000000	12.258117
1685.000000	12.218763
1686.000000	12.178274
1687.000000	12.136966
1688.000000	12.094788
1689.000000	12.053180
1690.000000	12.012269
1691.000000	11.971549
1692.000000	11.932096
1693.000000	11.893698
1694.000000	11.856410
1695.000000	11.820438
1696.000000	11.785584
1697.000000	11.752453
1698.000000	11.720016
1699.000000	11.688096
1700.000000	11.657678
1701.000000	11.628209
1702.000000	11.599667
1703.000000	11.573698
1704.000000	11.548944
1705.000000	11.525186
1706.000000	11.501901
1707.000000	11.478945
1708.000000	11.457030
1709.000000	11.435901
1710.000000	11.414880
1711.000000	11.394488
1712.000000	11.374300
1713.000000	11.354165
1714.000000	11.334150
1715.000000	11.314490
1716.000000	11.294448
1717.000000	11.274810
1718.000000	11.255393
1719.000000	11.235724
1720.000000	11.215956
1721.000000	11.196686
1722.000000	11.177342
1723.000000	11.157870
1724.000000	11.138494
1725.000000	11.118302
1726.000000	11.097867
1727.000000	11.077559
1728.000000	11.057048
1729.000000	11.036130
1730.000000	11.014941
1731.000000	10.994163
1732.000000	10.973598
1733.000000	10.953335
1734.000000	10.933822
1735.000000	10.914385
1736.000000	10.895645
1737.000000	10.877495
1738.000000	10.860247
1739.000000	10.843980
1740.000000	10.828433
1741.000000	10.814535
1742.000000	10.801908
1743.000000	10.790277
1744.000000	10.780077
1745.000000	10.771390
1746.000000	10.764070
1747.000000	10.758299
1748.000000	10.754208
1749.000000	10.751868
1750.000000	10.751075
1751.000000	10.752409
1752.000000	10.755256
1753.000000	10.760135
1754.000000	10.766445
1755.000000	10.774050
1756.000000	10.782551
1757.000000	10.792600
1758.000000	10.803272
1759.000000	10.813914
1760.000000	10.824910
1761.000000	10.836492
1762.000000	10.848090
1763.000000	10.859384
1764.000000	10.870918
1765.000000	10.882170
1766.000000	10.893769
1767.000000	10.904877
1768.000000	10.916272
1769.000000	10.927950
1770.000000	10.939726
1771.000000	10.951280
1772.000000	10.962909
1773.000000	10.974509
1774.000000	10.985823
1775.000000	10.997213
1776.000000	11.008435
1777.000000	11.019461
1778.000000	11.030950
1779.000000	11.041977
1780.000000	11.053143
1781.000000	11.064259
1782.000000	11.075201
1783.000000	11.085513
1784.000000	11.095647
1785.000000	11.105939
1786.000000	11.115875
1787.000000	11.125935
1788.000000	11.135105
1789.000000	11.144830
1790.000000	11.154804
1791.000000	11.164988
1792.000000	11.174546
1793.000000	11.184504
1794.000000	11.194576
1795.000000	11.204917
1796.000000	11.215250
1797.000000	11.225590
1798.000000	11.235629
1799.000000	11.245102
1800.000000	11.254604
1801.000000	11.264286
1802.000000	11.274558
1803.000000	11.284463
1804.000000	11.293118
1805.000000	11.301299
1806.000000	11.309576
1807.000000	11.317916
1808.000000	11.325850
1809.000000	11.332967
1810.000000	11.339048
1811.000000	11.344908
1812.000000	11.351318
1813.000000	11.357216
1814.000000	11.362428
1815.000000	11.367167
1816.000000	11.371665
1817.000000	11.375329
1818.000000	11.377777
1819.000000	11.379278
1820.000000	11.381670
1821.000000	11.386637
1822.000000	11.393087
1823.000000	11.398985
1824.000000	11.402277
1825.000000	11.403843
1826.000000	11.405145
1827.000000	11.407143
1828.000000	11.409740
1829.000000	11.412598
1830.000000	11.415580
1831.000000	11.419070
1832.000000	11.422268
1833.000000	11.424414
1834.000000	11.425372
1835.000000	11.426020
1836.000000	11.426402
1837.000000	11.427396
1838.000000	11.429143
1839.000000	11.431496
1840.000000	11.434586
1841.000000	11.438885
1842.000000	11.445014
1843.000000	11.451044
1844.000000	11.454782
1845.000000	11.455220
1846.000000	11.453144
1847.000000	11.451660
1848.000000	11.454040
1849.000000	11.460219
1850.000000	11.465672
1851.000000	11.467591
1852.000000	11.467875
1853.000000	11.469356
1854.000000	11.472292
1855.000000	11.474259
1856.000000	11.473470
1857.000000	11.469665
1858.000000	11.465475
1859.000000	11.464193
1860.000000	11.465307
1861.000000	11.466592
1862.000000	11.466869
1863.000000	11.464469
1864.000000	11.458837
1865.000000	11.449739
1866.000000	11.437608
1867.000000	11.423798
1868.000000	11.409917
1869.000000	11.396061
1870.000000	11.382590
1871.000000	11.369478
1872.000000	11.354767
1873.000000	11.339088
1874.000000	11.322897
1875.000000	11.304597
1876.000000	11.283351
1877.000000	11.257827
1878.000000	11.229884
1879.000000	11.201896
1880.000000	11.174317
1881.000000	11.144972
1882.000000	11.110891
1883.000000	11.070155
1884.000000	11.023317
1885.000000	10.974210
1886.000000	10.925321
1887.000000	10.874540
1888.000000	10.819089
1889.000000	10.758364
1890.000000	10.693678
1891.000000	10.625980
1892.000000	10.556672
1893.000000	10.484730
1894.000000	10.407681
1895.000000	10.324738
1896.000000	10.236382
1897.000000	10.143052
1898.000000	10.046750
1899.000000	9.949814
1900.000000	9.853187
1901.000000	9.755359
1902.000000	9.655423
1903.000000	9.552690
1904.000000	9.447584
1905.000000	9.339990
1906.000000	9.229518
1907.000000	9.116539
1908.000000	9.000993
1909.000000	8.882549
1910.000000	8.761922
1911.000000	8.639482
1912.000000	8.516690
1913.000000	8.395152
1914.000000	8.275607
1915.000000	8.157552
1916.000000	8.041537
1917.000000	7.926130
1918.000000	7.810864
1919.000000	7.696531
1920.000000	7.584362
1921.000000	7.474931
1922.000000	7.368648
1923.000000	7.266899
1924.000000	7.168460
1925.000000	7.072077
1926.000000	6.978211
1927.000000	6.887077
1928.000000	6.799700
1929.000000	6.716116
1930.000000	6.637780
1931.000000	6.564833
1932.000000	6.496758
1933.000000	6.432775
1934.000000	6.371879
1935.000000	6.313711
1936.000000	6.258970
1937.000000	6.208239
1938.000000	6.162093
1939.000000	6.120322
1940.000000	6.081410
1941.000000	6.044713
1942.000000	6.010848
1943.000000	5.980098
1944.000000	5.952948
1945.000000	5.929959
1946.000000	5.910835
1947.000000	5.894441
1948.000000	5.880005
1949.000000	5.866517
1950.000000	5.855962
1951.000000	5.847646
1952.000000	5.842353
1953.000000	5.839897
1954.000000	5.840170
1955.000000	5.842250
1956.000000	5.844844
1957.000000	5.848936
1958.000000	5.854303
1959.000000	5.861466
1960.000000	5.870928
1961.000000	5.881822
1962.000000	5.894019
1963.000000	5.906879
1964.000000	5.921206
1965.000000	5.935758
1966.000000	5.950743
1967.000000	5.967593
1968.000000	5.985198
1969.000000	6.003451
1970.000000	6.022465
1971.000000	6.042524
1972.000000	6.063136
1973.000000	6.083706
1974.000000	6.104204
1975.000000	6.125132
1976.000000	6.146216
1977.000000	6.167823
1978.000000	6.189479
1979.000000	6.211513
1980.000000	6.233792
1981.000000	6.256180
1982.000000	6.278500
1983.000000	6.300862
1984.000000	6.323574
1985.000000	6.345927
1986.000000	6.368400
1987.000000	6.391297
1988.000000	6.414492
1989.000000	6.437347
1990.000000	6.459553
1991.000000	6.482225
1992.000000	6.504796
1993.000000	6.527233
1994.000000	6.549546
1995.000000	6.571804
1996.000000	6.593911
1997.000000	6.615287
1998.000000	6.636644
1999.000000	6.657312
2000.000000	6.678135
2001.000000	6.698614
2002.000000	6.717983
2003.000000	6.737701
2004.000000	6.757431
2005.000000	6.776514
2006.000000	6.794717
2007.000000	6.812441
2008.000000	6.829639
2009.000000	6.845978
2010.000000	6.861493
2011.000000	6.876727
2012.000000	6.891008
2013.000000	6.904692
2014.000000	6.917956
2015.000000	6.930074
2016.000000	6.940849
2017.000000	6.950883
2018.000000	6.959622
2019.000000	6.967245
2020.000000	6.974037
2021.000000	6.979964
2022.000000	6.984110
2023.000000	6.986769
2024.000000	6.988546
2025.000000	6.989181
2026.000000	6.988640
2027.000000	6.986950
2028.000000	6.983234
2029.000000	6.978586
2030.000000	6.972685
2031.000000	6.965210
2032.000000	6.956490
2033.000000	6.946402
2034.000000	6.935689
2035.000000	6.923310
2036.000000	6.909464
2037.000000	6.894183
2038.000000	6.877848
2039.000000	6.859811
2040.000000	6.840650
2041.000000	6.819964
2042.000000	6.797630
2043.000000	6.774343
2044.000000	6.750099
2045.000000	6.724530
2046.000000	6.697663
2047.000000	6.669700
2048.000000	6.641072
2049.000000	6.611599
2050.000000	6.581548
2051.000000	6.551665
2052.000000	6.521590
2053.000000	6.491297
2054.000000	6.461840
2055.000000	6.432368
2056.000000	6.402935
2057.000000	6.374702
2058.000000	6.347611
2059.000000	6.321293
2060.000000	6.296180
2061.000000	6.272173
2062.000000	6.249249
2063.000000	6.228391
2064.000000	6.208680
2065.000000	6.189974
2066.000000	6.173089
2067.000000	6.158028
2068.000000	6.144550
2069.000000	6.132151
2070.000000	6.121490
2071.000000	6.112810
2072.000000	6.105816
2073.000000	6.099952
2074.000000	6.095930
2075.000000	6.093542
2076.000000	6.092719
2077.000000	6.093610
2078.000000	6.096055
2079.000000	6.100144
2080.000000	6.105292
2081.000000	6.111662
2082.000000	6.119825
2083.000000	6.128819
2084.000000	6.138088
2085.000000	6.148333
2086.000000	6.158779
2087.000000	6.169634
2088.000000	6.181104
2089.000000	6.191994
2090.000000	6.202551
2091.000000	6.213231
2092.000000	6.223324
2093.000000	6.232863
2094.000000	6.241870
2095.000000	6.250127
2096.000000	6.257554
2097.000000	6.264375
2098.000000	6.269959
2099.000000	6.275010
2100.000000	6.279708
2101.000000	6.283308
2102.000000	6.285842
2103.000000	6.287601
2104.000000	6.288718
2105.000000	6.288956
2106.000000	6.288128
2107.000000	6.286306
2108.000000	6.283950
2109.000000	6.281009
2110.000000	6.277337
2111.000000	6.273010
2112.000000	6.267906
2113.000000	6.262279
2114.000000	6.256016
2115.000000	6.249250
2116.000000	6.241789
2117.000000	6.233791
2118.000000	6.225734
2119.000000	6.217593
2120.000000	6.208670
2121.000000	6.199398
2122.000000	6.189766
2123.000000	6.179663
2124.000000	6.169658
2125.000000	6.159582
2126.000000	6.148987
2127.000000	6.138015
2128.000000	6.126358
2129.000000	6.114109
2130.000000	6.101785
2131.000000	6.089003
2132.000000	6.075762
2133.000000	6.062383
2134.000000	6.048362
2135.000000	6.033564
2136.000000	6.018156
2137.000000	6.002270
2138.000000	5.985820
2139.000000	5.968747
2140.000000	5.951184
2141.000000	5.933472
2142.000000	5.915471
2143.000000	5.896772
2144.000000	5.877417
2145.000000	5.857286
2146.000000	5.836964
2147.000000	5.816291
2148.000000	5.794978
2149.000000	5.772922
2150.000000	5.750745
2151.000000	5.728566
2152.000000	5.705710
2153.000000	5.681764
2154.000000	5.657946
2155.000000	5.634554
2156.000000	5.611118
2157.000000	5.587504
2158.000000	5.563995
2159.000000	5.540217
2160.000000	5.516770
2161.000000	5.494112
2162.000000	5.471471
2163.000000	5.449162
2164.000000	5.427337
2165.000000	5.405649
2166.000000	5.383983
2167.000000	5.362877
2168.000000	5.342465
2169.000000	5.322648
2170.000000	5.303083
2171.000000	5.283964
2172.000000	5.264970
2173.000000	5.246750
2174.000000	5.228814
2175.000000	5.211442
2176.000000	5.194529
2177.000000	5.177988
2178.000000	5.161925
2179.000000	5.146245
2180.000000	5.131284
2181.000000	5.116483
2182.000000	5.102172
2183.000000	5.088281
2184.000000	5.074690
2185.000000	5.061468
2186.000000	5.048276
2187.000000	5.034801
2188.000000	5.021410
2189.000000	5.006940
2190.000000	4.991750
2191.000000	4.975844
2192.000000	4.959118
2193.000000	4.941168
2194.000000	4.922309
2195.000000	4.901691
2196.000000	4.879124
2197.000000	4.855640
2198.000000	4.831079
2199.000000	4.804835
2200.000000	4.777377
2201.000000	4.749107
2202.000000	4.719599
2203.000000	4.688376
2204.000000	4.655862
2205.000000	4.622914
2206.000000	4.589677
2207.000000	4.556613
2208.000000	4.522849
2209.000000	4.489398
2210.000000	4.455848
2211.000000	4.423173
2212.000000	4.391075
2213.000000	4.359811
2214.000000	4.329773
2215.000000	4.300688
2216.000000	4.272444
2217.000000	4.245802
2218.000000	4.220006
2219.000000	4.195983
2220.000000	4.173310
2221.000000	4.151934
2222.000000	4.132724
2223.000000	4.115170
2224.000000	4.100479
2225.000000	4.087324
2226.000000	4.076231
2227.000000	4.066982
2228.000000	4.059984
2229.000000	4.054853
2230.000000	4.051878
2231.000000	4.051055
2232.000000	4.052008
2233.000000	4.054741
2234.000000	4.059339
2235.000000	4.065612
2236.000000	4.072917
2237.000000	4.081504
2238.000000	4.091808
2239.000000	4.103103
2240.000000	4.114934
2241.000000	4.126887
2242.000000	4.138705
2243.000000	4.150856
2244.000000	4.163247
2245.000000	4.174778
2246.000000	4.184810
2247.000000	4.194370
2248.000000	4.202607
2249.000000	4.209700
2250.000000	4.215116
2251.000000	4.219327
2252.000000	4.221587
2253.000000	4.223050
2254.000000	4.223467
2255.000000	4.221722
2256.000000	4.218708
2257.000000	4.214544
2258.000000	4.209732
2259.000000	4.203025
2260.000000	4.195274
2261.000000	4.186391
2262.000000	4.177420
2263.000000	4.167648
2264.000000	4.157066
2265.000000	4.146258
2266.000000	4.135415
2267.000000	4.124449
2268.000000	4.113340
2269.000000	4.101965
2270.000000	4.090912
2271.000000	4.080462
2272.000000	4.070434
2273.000000	4.059942
2274.000000	4.050026
2275.000000	4.040768
2276.000000	4.032278
2277.000000	4.024336
2278.000000	4.016833
2279.000000	4.009494
2280.000000	4.003109
2281.000000	3.997468
2282.000000	3.992402
2283.000000	3.987898
2284.000000	3.983661
2285.000000	3.980534
2286.000000	3.978018
2287.000000	3.976545
2288.000000	3.975254
2289.000000	3.973598
2290.000000	3.973331
2291.000000	3.973521
2292.000000	3.974083
2293.000000	3.974722
2294.000000	3.975858
2295.000000	3.977481
2296.000000	3.979289
2297.000000	3.980979
2298.000000	3.982879
2299.000000	3.985229
2300.000000	3.987592
2301.000000	3.990210
2302.000000	3.992751
2303.000000	3.995520
2304.000000	3.998807
2305.000000	4.001990
2306.000000	4.005072
2307.000000	4.008305
2308.000000	4.012119
2309.000000	4.015745
2310.000000	4.019302
2311.000000	4.023360
2312.000000	4.027640
2313.000000	4.031942
2314.000000	4.036295
2315.000000	4.040926
2316.000000	4.045391
2317.000000	4.049899
2318.000000	4.054690
2319.000000	4.059472
2320.000000	4.063993
2321.000000	4.068707
2322.000000	4.072993
2323.000000	4.077462
2324.000000	4.081962
2325.000000	4.086036
2326.000000	4.090069
2327.000000	4.093692
2328.000000	4.097239
2329.000000	4.100720
2330.000000	4.104060
2331.000000	4.107442
2332.000000	4.110525
2333.000000	4.113395
2334.000000	4.116264
2335.000000	4.119062
2336.000000	4.121269
2337.000000	4.123602
2338.000000	4.125646
2339.000000	4.127353
2340.000000	4.128630
2341.000000	4.130010
2342.000000	4.130889
2343.000000	4.131813
2344.000000	4.132726
2345.000000	4.133346
2346.000000	4.133510
2347.000000	4.133634
2348.000000	4.133461
2349.000000	4.133323
2350.000000	4.133698
2351.000000	4.134139
2352.000000	4.134059
2353.000000	4.133920
2354.000000	4.134005
2355.000000	4.134490
2356.000000	4.135033
2357.000000	4.135756
2358.000000	4.136388
2359.000000	4.137195
2360.000000	4.138379
2361.000000	4.139697
2362.000000	4.141197
2363.000000	4.142861
2364.000000	4.144609
2365.000000	4.146405
2366.000000	4.147996
2367.000000	4.149734
2368.000000	4.151731
2369.000000	4.153715
2370.000000	4.155809
2371.000000	4.158057
2372.000000	4.160025
2373.000000	4.162125
2374.000000	4.164637
2375.000000	4.167274
2376.000000	4.169631
2377.000000	4.171858
2378.000000	4.173799
2379.000000	4.175886
2380.000000	4.178033
2381.000000	4.179774
2382.000000	4.181410
2383.000000	4.183362
2384.000000	4.184899
2385.000000	4.185519
2386.000000	4.186265
2387.000000	4.187089
2388.000000	4.187511
2389.000000	4.187750
2390.000000	4.187408
2391.000000	4.186838
2392.000000	4.186003
2393.000000	4.184998
2394.000000	4.184143
2395.000000	4.182969
2396.000000	4.181308
2397.000000	4.179245
2398.000000	4.177012
2399.000000	4.174610
2400.000000	4.172309
2401.000000	4.169730
2402.000000	4.166722
2403.000000	4.163607
2404.000000	4.160310
2405.000000	4.156412
2406.000000	4.152064
2407.000000	4.147423
2408.000000	4.142197
2409.000000	4.136047
2410.000000	4.129442
2411.000000	4.122359
2412.000000	4.114934
2413.000000	4.107204
2414.000000	4.098846
2415.000000	4.090144
2416.000000	4.081370
2417.000000	4.072137
2418.000000	4.061790
2419.000000	4.050562
2420.000000	4.038725
2421.000000	4.026092
2422.000000	4.013122
2423.000000	3.999755
2424.000000	3.985807
2425.000000	3.971697
2426.000000	3.957074
2427.000000	3.941797
2428.000000	3.926131
2429.000000	3.909840
2430.000000	3.893095
2431.000000	3.876077
2432.000000	3.858501
2433.000000	3.840372
2434.000000	3.821905
2435.000000	3.802677
2436.000000	3.783431
2437.000000	3.763652
2438.000000	3.743169
2439.000000	3.722132
2440.000000	3.701022
2441.000000	3.679830
2442.000000	3.658393
2443.000000	3.636575
2444.000000	3.614398
2445.000000	3.591942
2446.000000	3.569460
2447.000000	3.547129
2448.000000	3.524249
2449.000000	3.501170
2450.000000	3.477440
2451.000000	3.453543
2452.000000	3.429580
2453.000000	3.406007
2454.000000	3.383257
2455.000000	3.360115
2456.000000	3.337614
2457.000000	3.315111
2458.000000	3.292617
2459.000000	3.270201
2460.000000	3.247849
2461.000000	3.225794
2462.000000	3.204376
2463.000000	3.183193
2464.000000	3.161872
2465.000000	3.140282
2466.000000	3.119145
2467.000000	3.098800
2468.000000	3.079130
2469.000000	3.059477
2470.000000	3.040400
2471.000000	3.021281
2472.000000	3.003230
2473.000000	2.986078
2474.000000	2.969449
2475.000000	2.952986
2476.000000	2.936098
2477.000000	2.920694
2478.000000	2.905418
2479.000000	2.890516
2480.000000	2.876796
2481.000000	2.863333
2482.000000	2.851299
2483.000000	2.839203
2484.000000	2.826819
2485.000000	2.816237
2486.000000	2.805901
2487.000000	2.797136
2488.000000	2.788177
2489.000000	2.778718
2490.000000	2.771486
2491.000000	2.763803
2492.000000	2.758776
2493.000000	2.751890
2494.000000	2.747528
2495.000000	2.743528
2496.000000	2.740433
2497.000000	2.736413
2498.000000	2.731577
2499.000000	2.729388
2500.000000	2.728742
