PE UV       SUBTECH     SPECTRUM    ASCII       PEDS        4.00        
   -1
ANGSOL0002-1.Sample.ASC
24/03/07
10:01:25.00
24/03/07
10:01:25.00
Vinicio Soto Monge

250,000000
1
Lambda 1050
1050L1511233
PerkinElmer UV WinLab 6.3.2.0749 / 2.02.05 Lambda 900 UV/VIS/NIR, Aug  7 2015 09:38:08

0
0
3350/servo 860,8/2
0
0
UV/VIS
1
1
1
DoubleDePol,CommonBeamDepol,RBeamAtt,SBeamAtt,60mm sphere, WB InGaAs Detector
0
0
0
0
Program
Program
3350/servo 860,8/2
3350/0,2 860,8/0,2
3350/0,2 860,8/0,2
0
15.00
 
 
 
0
 
860,8
319,2
860,8
Front
100
on
S:100 R:100
0
0
0
0
 
0
 
 
 
0
 
 
0
0
0
0
0
 
 
 
 
0
0


0
0
#HDR
-1
-1
#GR
nm
%R
1.0
0.0
2500,000000
-1,000000
2251
8
19,902300
1,770900
#DATA
250.000000	nan
251.000000	nan
252.000000	nan
253.000000	nan
254.000000	nan
255.000000	nan
256.000000	nan
257.000000	nan
258.000000	nan
259.000000	nan
260.000000	nan
261.000000	nan
262.000000	nan
263.000000	nan
264.000000	nan
265.000000	nan
266.000000	nan
267.000000	nan
268.000000	nan
269.000000	nan
270.000000	nan
271.000000	nan
272.000000	nan
273.000000	nan
274.000000	nan
275.000000	nan
276.000000	nan
277.000000	nan
278.000000	nan
279.000000	nan
280.000000	nan
281.000000	nan
282.000000	nan
283.000000	nan
284.000000	2.204161
285.000000	2.197847
286.000000	2.193708
287.000000	2.188649
288.000000	2.184161
289.000000	2.178670
290.000000	2.173116
291.000000	2.169233
292.000000	2.165243
293.000000	2.160956
294.000000	2.155811
295.000000	2.151828
296.000000	2.147838
297.000000	2.144517
298.000000	2.141837
299.000000	2.137820
300.000000	2.134891
301.000000	2.132208
302.000000	2.130698
303.000000	2.127875
304.000000	2.125262
305.000000	2.122691
306.000000	2.119993
307.000000	2.118799
308.000000	2.116599
309.000000	2.114280
310.000000	2.111722
311.000000	2.109255
312.000000	2.105806
313.000000	2.103794
314.000000	2.101500
315.000000	2.099179
316.000000	2.097599
317.000000	2.097201
318.000000	2.096675
319.000000	2.098978
320.000000	2.100127
321.000000	2.101734
322.000000	2.103001
323.000000	2.102959
324.000000	2.102919
325.000000	2.106687
326.000000	2.106532
327.000000	2.107292
328.000000	2.104089
329.000000	2.105068
330.000000	2.106678
331.000000	2.107301
332.000000	2.107398
333.000000	2.104794
334.000000	2.106019
335.000000	2.106420
336.000000	2.106635
337.000000	2.105298
338.000000	2.105329
339.000000	2.106131
340.000000	2.105739
341.000000	2.106228
342.000000	2.105888
343.000000	2.105575
344.000000	2.108048
345.000000	2.108635
346.000000	2.110093
347.000000	2.112296
348.000000	2.114402
349.000000	2.115198
350.000000	2.116201
351.000000	2.117115
352.000000	2.116854
353.000000	2.115095
354.000000	2.110880
355.000000	2.109589
356.000000	2.106329
357.000000	2.104062
358.000000	2.102977
359.000000	2.102117
360.000000	2.097839
361.000000	2.096794
362.000000	2.094800
363.000000	2.097228
364.000000	2.095444
365.000000	2.092600
366.000000	2.090805
367.000000	2.089094
368.000000	2.090792
369.000000	2.089926
370.000000	2.090069
371.000000	2.090233
372.000000	2.090388
373.000000	2.089975
374.000000	2.088903
375.000000	2.090981
376.000000	2.089723
377.000000	2.083986
378.000000	2.079143
379.000000	2.071792
380.000000	2.065943
381.000000	2.060021
382.000000	2.054102
383.000000	2.047818
384.000000	2.042999
385.000000	2.037831
386.000000	2.033166
387.000000	2.028724
388.000000	2.024595
389.000000	2.021286
390.000000	2.017202
391.000000	2.013547
392.000000	2.010469
393.000000	2.006929
394.000000	2.003635
395.000000	2.000718
396.000000	1.998469
397.000000	1.996625
398.000000	1.994759
399.000000	1.993732
400.000000	1.992657
401.000000	1.991988
402.000000	1.990931
403.000000	1.989882
404.000000	1.989226
405.000000	1.988214
406.000000	1.987819
407.000000	1.988105
408.000000	1.989074
409.000000	1.989673
410.000000	1.988707
411.000000	1.990949
412.000000	1.997919
413.000000	2.004838
414.000000	2.011869
415.000000	2.019128
416.000000	2.026716
417.000000	2.034121
418.000000	2.041553
419.000000	2.049034
420.000000	2.056585
421.000000	2.064117
422.000000	2.071644
423.000000	2.079580
424.000000	2.087505
425.000000	2.095168
426.000000	2.103001
427.000000	2.111069
428.000000	2.119142
429.000000	2.127264
430.000000	2.135253
431.000000	2.143098
432.000000	2.151111
433.000000	2.159300
434.000000	2.167479
435.000000	2.175951
436.000000	2.184565
437.000000	2.193377
438.000000	2.202137
439.000000	2.210715
440.000000	2.219511
441.000000	2.228633
442.000000	2.237642
443.000000	2.246673
444.000000	2.255980
445.000000	2.265478
446.000000	2.275345
447.000000	2.285460
448.000000	2.295858
449.000000	2.306444
450.000000	2.317237
451.000000	2.328334
452.000000	2.339917
453.000000	2.351910
454.000000	2.364584
455.000000	2.377820
456.000000	2.391405
457.000000	2.405513
458.000000	2.420344
459.000000	2.435692
460.000000	2.451839
461.000000	2.468788
462.000000	2.486411
463.000000	2.505086
464.000000	2.524554
465.000000	2.544827
466.000000	2.566222
467.000000	2.588646
468.000000	2.611964
469.000000	2.636476
470.000000	2.661911
471.000000	2.688295
472.000000	2.715849
473.000000	2.744508
474.000000	2.774356
475.000000	2.805142
476.000000	2.836929
477.000000	2.869991
478.000000	2.904217
479.000000	2.939555
480.000000	2.975985
481.000000	3.013185
482.000000	3.051207
483.000000	3.090428
484.000000	3.131136
485.000000	3.173429
486.000000	3.217169
487.000000	3.262529
488.000000	3.309468
489.000000	3.357957
490.000000	3.408111
491.000000	3.460152
492.000000	3.514418
493.000000	3.570449
494.000000	3.628454
495.000000	3.688542
496.000000	3.750680
497.000000	3.814860
498.000000	3.881237
499.000000	3.950291
500.000000	4.021998
501.000000	4.096114
502.000000	4.172597
503.000000	4.251687
504.000000	4.333637
505.000000	4.418330
506.000000	4.506059
507.000000	4.596547
508.000000	4.689988
509.000000	4.786347
510.000000	4.885829
511.000000	4.988197
512.000000	5.093231
513.000000	5.200935
514.000000	5.311347
515.000000	5.424265
516.000000	5.539894
517.000000	5.658142
518.000000	5.778641
519.000000	5.900919
520.000000	6.024703
521.000000	6.150003
522.000000	6.276316
523.000000	6.403072
524.000000	6.529907
525.000000	6.656152
526.000000	6.781805
527.000000	6.906069
528.000000	7.028678
529.000000	7.149931
530.000000	7.269592
531.000000	7.387806
532.000000	7.504395
533.000000	7.619149
534.000000	7.731846
535.000000	7.842473
536.000000	7.950891
537.000000	8.056979
538.000000	8.160961
539.000000	8.262114
540.000000	8.360560
541.000000	8.455837
542.000000	8.548066
543.000000	8.636417
544.000000	8.721518
545.000000	8.802328
546.000000	8.878784
547.000000	8.950934
548.000000	9.018639
549.000000	9.081701
550.000000	9.140731
551.000000	9.195288
552.000000	9.245716
553.000000	9.291351
554.000000	9.332059
555.000000	9.368597
556.000000	9.400985
557.000000	9.429234
558.000000	9.453795
559.000000	9.474187
560.000000	9.485016
561.000000	9.491479
562.000000	9.494885
563.000000	9.494955
564.000000	9.491622
565.000000	9.484527
566.000000	9.473312
567.000000	9.458140
568.000000	9.439183
569.000000	9.416102
570.000000	9.388880
571.000000	9.357440
572.000000	9.321503
573.000000	9.280780
574.000000	9.235713
575.000000	9.186169
576.000000	9.132147
577.000000	9.074457
578.000000	9.013981
579.000000	8.950196
580.000000	8.884979
581.000000	8.818159
582.000000	8.750369
583.000000	8.681938
584.000000	8.612626
585.000000	8.542083
586.000000	8.470425
587.000000	8.397600
588.000000	8.323818
589.000000	8.249249
590.000000	8.173380
591.000000	8.096477
592.000000	8.018961
593.000000	7.940900
594.000000	7.863272
595.000000	7.792206
596.000000	7.722353
597.000000	7.652865
598.000000	7.584449
599.000000	7.517136
600.000000	7.450956
601.000000	7.386305
602.000000	7.323265
603.000000	7.261333
604.000000	7.200945
605.000000	7.141900
606.000000	7.084307
607.000000	7.028714
608.000000	6.975515
609.000000	6.924276
610.000000	6.875675
611.000000	6.829446
612.000000	6.785311
613.000000	6.743176
614.000000	6.702906
615.000000	6.663290
616.000000	6.624597
617.000000	6.586855
618.000000	6.550234
619.000000	6.514346
620.000000	6.479615
621.000000	6.446316
622.000000	6.414460
623.000000	6.384360
624.000000	6.355773
625.000000	6.329207
626.000000	6.304142
627.000000	6.280803
628.000000	6.258932
629.000000	6.238276
630.000000	6.218744
631.000000	6.200230
632.000000	6.183017
633.000000	6.166919
634.000000	6.151714
635.000000	6.137548
636.000000	6.124078
637.000000	6.111262
638.000000	6.099800
639.000000	6.088977
640.000000	6.079369
641.000000	6.070864
642.000000	6.062952
643.000000	6.055805
644.000000	6.049515
645.000000	6.044098
646.000000	6.038975
647.000000	6.033827
648.000000	6.029285
649.000000	6.024721
650.000000	6.020494
651.000000	6.016878
652.000000	6.013566
653.000000	6.009905
654.000000	6.006265
655.000000	6.002351
656.000000	5.998492
657.000000	5.994478
658.000000	5.990091
659.000000	5.985949
660.000000	5.981558
661.000000	5.977034
662.000000	5.971884
663.000000	5.966858
664.000000	5.961893
665.000000	5.956457
666.000000	5.950845
667.000000	5.945075
668.000000	5.939277
669.000000	5.933057
670.000000	5.926786
671.000000	5.920757
672.000000	5.914562
673.000000	5.907816
674.000000	5.901140
675.000000	5.894413
676.000000	5.887324
677.000000	5.880421
678.000000	5.873532
679.000000	5.866410
680.000000	5.858589
681.000000	5.851108
682.000000	5.844250
683.000000	5.836748
684.000000	5.829327
685.000000	5.822703
686.000000	5.815851
687.000000	5.808453
688.000000	5.801430
689.000000	5.794566
690.000000	5.787781
691.000000	5.781391
692.000000	5.774825
693.000000	5.768763
694.000000	5.762555
695.000000	5.756354
696.000000	5.750912
697.000000	5.746250
698.000000	5.741644
699.000000	5.737229
700.000000	5.733318
701.000000	5.729280
702.000000	5.725473
703.000000	5.722510
704.000000	5.719891
705.000000	5.717530
706.000000	5.715725
707.000000	5.713951
708.000000	5.712398
709.000000	5.711578
710.000000	5.711243
711.000000	5.711511
712.000000	5.712301
713.000000	5.713279
714.000000	5.714789
715.000000	5.717011
716.000000	5.720010
717.000000	5.723224
718.000000	5.726828
719.000000	5.731207
720.000000	5.735667
721.000000	5.740660
722.000000	5.746138
723.000000	5.751568
724.000000	5.758001
725.000000	5.765223
726.000000	5.772534
727.000000	5.780778
728.000000	5.789234
729.000000	5.798480
730.000000	5.807851
731.000000	5.817374
732.000000	5.827292
733.000000	5.837699
734.000000	5.848163
735.000000	5.859005
736.000000	5.871138
737.000000	5.883578
738.000000	5.896023
739.000000	5.909287
740.000000	5.923012
741.000000	5.936324
742.000000	5.950842
743.000000	5.966442
744.000000	5.981908
745.000000	5.997219
746.000000	6.013235
747.000000	6.029431
748.000000	6.045529
749.000000	6.062432
750.000000	6.079941
751.000000	6.097613
752.000000	6.115601
753.000000	6.134270
754.000000	6.153215
755.000000	6.172455
756.000000	6.192871
757.000000	6.214086
758.000000	6.235766
759.000000	6.257276
760.000000	6.279263
761.000000	6.301681
762.000000	6.323614
763.000000	6.346242
764.000000	6.369736
765.000000	6.394035
766.000000	6.418316
767.000000	6.442749
768.000000	6.467966
769.000000	6.493420
770.000000	6.519800
771.000000	6.546989
772.000000	6.574224
773.000000	6.601862
774.000000	6.629553
775.000000	6.657571
776.000000	6.686246
777.000000	6.714905
778.000000	6.744039
779.000000	6.773373
780.000000	6.802990
781.000000	6.833026
782.000000	6.863536
783.000000	6.894824
784.000000	6.927029
785.000000	6.959140
786.000000	6.991753
787.000000	7.024399
788.000000	7.057835
789.000000	7.091515
790.000000	7.124808
791.000000	7.158141
792.000000	7.191635
793.000000	7.225885
794.000000	7.261391
795.000000	7.297182
796.000000	7.333067
797.000000	7.369611
798.000000	7.406332
799.000000	7.443719
800.000000	7.481384
801.000000	7.519640
802.000000	7.557494
803.000000	7.595573
804.000000	7.635126
805.000000	7.674754
806.000000	7.714553
807.000000	7.755005
808.000000	7.796026
809.000000	7.838058
810.000000	7.880078
811.000000	7.921979
812.000000	7.964066
813.000000	8.007053
814.000000	8.050732
815.000000	8.093630
816.000000	8.137312
817.000000	8.180487
818.000000	8.224087
819.000000	8.268465
820.000000	8.313857
821.000000	8.358858
822.000000	8.403622
823.000000	8.448556
824.000000	8.494994
825.000000	8.542839
826.000000	8.589131
827.000000	8.635949
828.000000	8.681436
829.000000	8.727236
830.000000	8.773204
831.000000	8.820429
832.000000	8.865770
833.000000	8.911904
834.000000	8.956549
835.000000	9.001672
836.000000	9.046639
837.000000	9.092315
838.000000	9.140360
839.000000	9.187749
840.000000	9.235181
841.000000	9.281777
842.000000	9.326237
843.000000	9.370888
844.000000	9.413197
845.000000	9.457156
846.000000	9.501051
847.000000	9.548932
848.000000	9.592611
849.000000	9.636345
850.000000	9.685150
851.000000	9.729367
852.000000	9.775173
853.000000	9.821417
854.000000	9.864239
855.000000	9.905062
856.000000	9.944663
857.000000	9.984322
858.000000	10.043133
859.000000	10.084987
860.000000	10.126293
861.000000	10.168845
862.000000	10.210546
863.000000	10.254407
864.000000	10.297928
865.000000	10.340534
866.000000	10.382267
867.000000	10.426557
868.000000	10.470314
869.000000	10.514742
870.000000	10.558496
871.000000	10.603008
872.000000	10.647665
873.000000	10.689350
874.000000	10.731311
875.000000	10.773609
876.000000	10.816415
877.000000	10.860732
878.000000	10.904919
879.000000	10.951092
880.000000	10.995972
881.000000	11.041718
882.000000	11.083998
883.000000	11.129824
884.000000	11.175545
885.000000	11.217514
886.000000	11.263853
887.000000	11.309500
888.000000	11.355830
889.000000	11.403756
890.000000	11.453989
891.000000	11.506353
892.000000	11.559561
893.000000	11.593860
894.000000	11.643709
895.000000	11.693791
896.000000	11.744771
897.000000	11.796217
898.000000	11.847406
899.000000	11.898780
900.000000	11.950874
901.000000	12.003091
902.000000	12.055691
903.000000	12.108651
904.000000	12.161411
905.000000	12.215689
906.000000	12.269731
907.000000	12.324606
908.000000	12.379691
909.000000	12.435037
910.000000	12.490569
911.000000	12.546989
912.000000	12.604054
913.000000	12.660237
914.000000	12.716574
915.000000	12.773497
916.000000	12.829437
917.000000	12.885706
918.000000	12.941460
919.000000	12.997886
920.000000	13.054263
921.000000	13.110289
922.000000	13.166443
923.000000	13.221603
924.000000	13.277240
925.000000	13.331949
926.000000	13.385929
927.000000	13.439971
928.000000	13.492909
929.000000	13.546731
930.000000	13.600149
931.000000	13.652183
932.000000	13.705109
933.000000	13.756377
934.000000	13.807317
935.000000	13.858694
936.000000	13.909666
937.000000	13.960311
938.000000	14.010009
939.000000	14.059046
940.000000	14.107820
941.000000	14.155534
942.000000	14.202020
943.000000	14.248060
944.000000	14.293840
945.000000	14.338763
946.000000	14.382763
947.000000	14.426723
948.000000	14.470526
949.000000	14.514269
950.000000	14.557294
951.000000	14.601054
952.000000	14.643769
953.000000	14.686771
954.000000	14.729569
955.000000	14.771583
956.000000	14.813269
957.000000	14.855066
958.000000	14.896094
959.000000	14.937031
960.000000	14.977629
961.000000	15.018320
962.000000	15.058949
963.000000	15.099997
964.000000	15.140280
965.000000	15.180183
966.000000	15.220183
967.000000	15.259103
968.000000	15.298600
969.000000	15.337557
970.000000	15.376166
971.000000	15.414814
972.000000	15.452720
973.000000	15.490014
974.000000	15.527857
975.000000	15.564889
976.000000	15.603143
977.000000	15.641211
978.000000	15.679546
979.000000	15.717046
980.000000	15.754414
981.000000	15.791417
982.000000	15.828326
983.000000	15.865671
984.000000	15.902297
985.000000	15.938220
986.000000	15.973837
987.000000	16.009234
988.000000	16.044249
989.000000	16.078937
990.000000	16.113969
991.000000	16.148366
992.000000	16.182320
993.000000	16.216514
994.000000	16.250531
995.000000	16.284731
996.000000	16.318291
997.000000	16.351040
998.000000	16.383294
999.000000	16.415011
1000.000000	16.446837
1001.000000	16.479031
1002.000000	16.511254
1003.000000	16.543274
1004.000000	16.574934
1005.000000	16.606037
1006.000000	16.636966
1007.000000	16.668131
1008.000000	16.699920
1009.000000	16.731386
1010.000000	16.762280
1011.000000	16.792303
1012.000000	16.822423
1013.000000	16.852269
1014.000000	16.882049
1015.000000	16.911949
1016.000000	16.941900
1017.000000	16.971163
1018.000000	16.999794
1019.000000	17.028211
1020.000000	17.056863
1021.000000	17.085317
1022.000000	17.114074
1023.000000	17.142366
1024.000000	17.170323
1025.000000	17.198863
1026.000000	17.227754
1027.000000	17.256249
1028.000000	17.284517
1029.000000	17.312209
1030.000000	17.339243
1031.000000	17.366780
1032.000000	17.394409
1033.000000	17.422037
1034.000000	17.449611
1035.000000	17.476911
1036.000000	17.503671
1037.000000	17.530231
1038.000000	17.557031
1039.000000	17.583637
1040.000000	17.609894
1041.000000	17.635849
1042.000000	17.661426
1043.000000	17.687251
1044.000000	17.713571
1045.000000	17.739580
1046.000000	17.765217
1047.000000	17.790571
1048.000000	17.815711
1049.000000	17.840751
1050.000000	17.865460
1051.000000	17.889831
1052.000000	17.914480
1053.000000	17.939397
1054.000000	17.964651
1055.000000	17.989869
1056.000000	18.014880
1057.000000	18.040054
1058.000000	18.065243
1059.000000	18.089671
1060.000000	18.113111
1061.000000	18.136249
1062.000000	18.159589
1063.000000	18.182946
1064.000000	18.206074
1065.000000	18.229406
1066.000000	18.252460
1067.000000	18.275317
1068.000000	18.298091
1069.000000	18.321343
1070.000000	18.344894
1071.000000	18.368300
1072.000000	18.391529
1073.000000	18.414280
1074.000000	18.437006
1075.000000	18.460260
1076.000000	18.482946
1077.000000	18.505309
1078.000000	18.527634
1079.000000	18.549883
1080.000000	18.572303
1081.000000	18.594766
1082.000000	18.617237
1083.000000	18.639646
1084.000000	18.661449
1085.000000	18.683417
1086.000000	18.705149
1087.000000	18.726791
1088.000000	18.748263
1089.000000	18.768749
1090.000000	18.789097
1091.000000	18.809237
1092.000000	18.828600
1093.000000	18.847531
1094.000000	18.866337
1095.000000	18.886020
1096.000000	18.905857
1097.000000	18.925469
1098.000000	18.943980
1099.000000	18.963066
1100.000000	18.982237
1101.000000	19.001589
1102.000000	19.020720
1103.000000	19.039023
1104.000000	19.056920
1105.000000	19.074569
1106.000000	19.091709
1107.000000	19.108480
1108.000000	19.125046
1109.000000	19.141360
1110.000000	19.156906
1111.000000	19.173131
1112.000000	19.188880
1113.000000	19.203700
1114.000000	19.218123
1115.000000	19.232726
1116.000000	19.246769
1117.000000	19.260500
1118.000000	19.273603
1119.000000	19.287509
1120.000000	19.300326
1121.000000	19.312497
1122.000000	19.324794
1123.000000	19.336863
1124.000000	19.349083
1125.000000	19.361294
1126.000000	19.373243
1127.000000	19.385131
1128.000000	19.396823
1129.000000	19.408763
1130.000000	19.419063
1131.000000	19.428857
1132.000000	19.437769
1133.000000	19.445989
1134.000000	19.453226
1135.000000	19.461134
1136.000000	19.468503
1137.000000	19.475117
1138.000000	19.481926
1139.000000	19.487569
1140.000000	19.492003
1141.000000	19.496603
1142.000000	19.500031
1143.000000	19.502634
1144.000000	19.505191
1145.000000	19.508474
1146.000000	19.511363
1147.000000	19.514511
1148.000000	19.517043
1149.000000	19.519300
1150.000000	19.519569
1151.000000	19.520114
1152.000000	19.520586
1153.000000	19.520694
1154.000000	19.520237
1155.000000	19.519729
1156.000000	19.518760
1157.000000	19.517131
1158.000000	19.513971
1159.000000	19.510034
1160.000000	19.505403
1161.000000	19.499891
1162.000000	19.493537
1163.000000	19.486009
1164.000000	19.477523
1165.000000	19.469197
1166.000000	19.460009
1167.000000	19.450080
1168.000000	19.440254
1169.000000	19.430289
1170.000000	19.417889
1171.000000	19.405160
1172.000000	19.393557
1173.000000	19.381060
1174.000000	19.368751
1175.000000	19.356557
1176.000000	19.344366
1177.000000	19.333057
1178.000000	19.321571
1179.000000	19.309720
1180.000000	19.297034
1181.000000	19.284349
1182.000000	19.270691
1183.000000	19.257583
1184.000000	19.244066
1185.000000	19.232083
1186.000000	19.220220
1187.000000	19.208469
1188.000000	19.196294
1189.000000	19.184877
1190.000000	19.173597
1191.000000	19.163243
1192.000000	19.153257
1193.000000	19.144574
1194.000000	19.137077
1195.000000	19.130751
1196.000000	19.125071
1197.000000	19.120100
1198.000000	19.117143
1199.000000	19.114931
1200.000000	19.112580
1201.000000	19.112069
1202.000000	19.112780
1203.000000	19.115329
1204.000000	19.117997
1205.000000	19.122523
1206.000000	19.127249
1207.000000	19.131026
1208.000000	19.136774
1209.000000	19.142940
1210.000000	19.150260
1211.000000	19.158069
1212.000000	19.166263
1213.000000	19.174966
1214.000000	19.184131
1215.000000	19.194206
1216.000000	19.204434
1217.000000	19.215326
1218.000000	19.226551
1219.000000	19.237889
1220.000000	19.248966
1221.000000	19.260054
1222.000000	19.270811
1223.000000	19.282663
1224.000000	19.293986
1225.000000	19.305131
1226.000000	19.316006
1227.000000	19.326611
1228.000000	19.337140
1229.000000	19.347269
1230.000000	19.356680
1231.000000	19.366606
1232.000000	19.376183
1233.000000	19.384794
1234.000000	19.393211
1235.000000	19.401880
1236.000000	19.409006
1237.000000	19.416103
1238.000000	19.422314
1239.000000	19.428609
1240.000000	19.433937
1241.000000	19.440051
1242.000000	19.446463
1243.000000	19.451074
1244.000000	19.456131
1245.000000	19.460623
1246.000000	19.464683
1247.000000	19.468820
1248.000000	19.473934
1249.000000	19.479403
1250.000000	19.484094
1251.000000	19.488343
1252.000000	19.493191
1253.000000	19.498311
1254.000000	19.503940
1255.000000	19.509780
1256.000000	19.515254
1257.000000	19.521080
1258.000000	19.526811
1259.000000	19.532494
1260.000000	19.538849
1261.000000	19.545780
1262.000000	19.552606
1263.000000	19.559429
1264.000000	19.566463
1265.000000	19.573729
1266.000000	19.580866
1267.000000	19.588197
1268.000000	19.595766
1269.000000	19.604077
1270.000000	19.612340
1271.000000	19.620651
1272.000000	19.628840
1273.000000	19.636631
1274.000000	19.644591
1275.000000	19.652997
1276.000000	19.660554
1277.000000	19.668023
1278.000000	19.675997
1279.000000	19.683423
1280.000000	19.690843
1281.000000	19.698351
1282.000000	19.704954
1283.000000	19.710689
1284.000000	19.716306
1285.000000	19.721980
1286.000000	19.727891
1287.000000	19.733523
1288.000000	19.738609
1289.000000	19.743157
1290.000000	19.747451
1291.000000	19.752303
1292.000000	19.757163
1293.000000	19.762306
1294.000000	19.767417
1295.000000	19.771863
1296.000000	19.775771
1297.000000	19.780157
1298.000000	19.784806
1299.000000	19.789000
1300.000000	19.793060
1301.000000	19.797326
1302.000000	19.801446
1303.000000	19.804869
1304.000000	19.807714
1305.000000	19.811246
1306.000000	19.815154
1307.000000	19.818766
1308.000000	19.822634
1309.000000	19.826174
1310.000000	19.829600
1311.000000	19.833277
1312.000000	19.836443
1313.000000	19.839569
1314.000000	19.842794
1315.000000	19.845280
1316.000000	19.846980
1317.000000	19.848606
1318.000000	19.850134
1319.000000	19.850763
1320.000000	19.851060
1321.000000	19.850894
1322.000000	19.849577
1323.000000	19.847469
1324.000000	19.845237
1325.000000	19.842623
1326.000000	19.838869
1327.000000	19.834066
1328.000000	19.828077
1329.000000	19.821731
1330.000000	19.815371
1331.000000	19.808089
1332.000000	19.799500
1333.000000	19.789823
1334.000000	19.779551
1335.000000	19.768560
1336.000000	19.756443
1337.000000	19.743171
1338.000000	19.729631
1339.000000	19.715029
1340.000000	19.699266
1341.000000	19.682980
1342.000000	19.665909
1343.000000	19.647369
1344.000000	19.628234
1345.000000	19.608434
1346.000000	19.586834
1347.000000	19.564509
1348.000000	19.542051
1349.000000	19.519131
1350.000000	19.495006
1351.000000	19.469929
1352.000000	19.443989
1353.000000	19.416386
1354.000000	19.388074
1355.000000	19.360403
1356.000000	19.333414
1357.000000	19.306183
1358.000000	19.278160
1359.000000	19.249206
1360.000000	19.218369
1361.000000	19.188083
1362.000000	19.161629
1363.000000	19.136529
1364.000000	19.108611
1365.000000	19.079571
1366.000000	19.051243
1367.000000	19.021140
1368.000000	18.990429
1369.000000	18.959434
1370.000000	18.926306
1371.000000	18.891017
1372.000000	18.855011
1373.000000	18.815846
1374.000000	18.772077
1375.000000	18.724000
1376.000000	18.671180
1377.000000	18.614180
1378.000000	18.553663
1379.000000	18.487851
1380.000000	18.418180
1381.000000	18.346874
1382.000000	18.275820
1383.000000	18.204791
1384.000000	18.134603
1385.000000	18.063746
1386.000000	17.993183
1387.000000	17.922757
1388.000000	17.855111
1389.000000	17.790009
1390.000000	17.724097
1391.000000	17.656117
1392.000000	17.589714
1393.000000	17.526011
1394.000000	17.463000
1395.000000	17.401749
1396.000000	17.343774
1397.000000	17.284491
1398.000000	17.221660
1399.000000	17.158303
1400.000000	17.096834
1401.000000	17.038746
1402.000000	16.982391
1403.000000	16.923623
1404.000000	16.862749
1405.000000	16.805114
1406.000000	16.749434
1407.000000	16.694214
1408.000000	16.640840
1409.000000	16.592303
1410.000000	16.547477
1411.000000	16.505611
1412.000000	16.465106
1413.000000	16.427657
1414.000000	16.395306
1415.000000	16.366471
1416.000000	16.339094
1417.000000	16.308917
1418.000000	16.277120
1419.000000	16.244106
1420.000000	16.212677
1421.000000	16.180911
1422.000000	16.147014
1423.000000	16.111343
1424.000000	16.072897
1425.000000	16.033283
1426.000000	15.993066
1427.000000	15.950786
1428.000000	15.906077
1429.000000	15.860494
1430.000000	15.814223
1431.000000	15.762777
1432.000000	15.709180
1433.000000	15.657983
1434.000000	15.609189
1435.000000	15.558246
1436.000000	15.503100
1437.000000	15.447071
1438.000000	15.394971
1439.000000	15.345246
1440.000000	15.293937
1441.000000	15.242926
1442.000000	15.192023
1443.000000	15.142951
1444.000000	15.093600
1445.000000	15.044266
1446.000000	14.998154
1447.000000	14.955697
1448.000000	14.913660
1449.000000	14.871429
1450.000000	14.829391
1451.000000	14.789603
1452.000000	14.752746
1453.000000	14.716726
1454.000000	14.681129
1455.000000	14.645923
1456.000000	14.611763
1457.000000	14.580203
1458.000000	14.548814
1459.000000	14.517751
1460.000000	14.487989
1461.000000	14.459969
1462.000000	14.432380
1463.000000	14.404974
1464.000000	14.378763
1465.000000	14.352714
1466.000000	14.327189
1467.000000	14.301977
1468.000000	14.276457
1469.000000	14.251069
1470.000000	14.226923
1471.000000	14.203863
1472.000000	14.182006
1473.000000	14.158771
1474.000000	14.136086
1475.000000	14.113283
1476.000000	14.090600
1477.000000	14.068646
1478.000000	14.047011
1479.000000	14.025811
1480.000000	14.006080
1481.000000	13.984977
1482.000000	13.963789
1483.000000	13.943771
1484.000000	13.924820
1485.000000	13.906357
1486.000000	13.887031
1487.000000	13.868326
1488.000000	13.850763
1489.000000	13.833463
1490.000000	13.816483
1491.000000	13.799397
1492.000000	13.782811
1493.000000	13.767111
1494.000000	13.751863
1495.000000	13.737091
1496.000000	13.722386
1497.000000	13.708983
1498.000000	13.696560
1499.000000	13.684426
1500.000000	13.673623
1501.000000	13.664629
1502.000000	13.655986
1503.000000	13.648814
1504.000000	13.643171
1505.000000	13.638520
1506.000000	13.634306
1507.000000	13.631126
1508.000000	13.629749
1509.000000	13.628740
1510.000000	13.629317
1511.000000	13.631211
1512.000000	13.634226
1513.000000	13.637980
1514.000000	13.643114
1515.000000	13.648683
1516.000000	13.655197
1517.000000	13.662689
1518.000000	13.670809
1519.000000	13.679563
1520.000000	13.689094
1521.000000	13.699546
1522.000000	13.710857
1523.000000	13.722806
1524.000000	13.735303
1525.000000	13.748323
1526.000000	13.762540
1527.000000	13.777389
1528.000000	13.792769
1529.000000	13.809277
1530.000000	13.826017
1531.000000	13.843809
1532.000000	13.861757
1533.000000	13.880337
1534.000000	13.899203
1535.000000	13.917709
1536.000000	13.936203
1537.000000	13.954531
1538.000000	13.972300
1539.000000	13.989449
1540.000000	14.006234
1541.000000	14.022883
1542.000000	14.039357
1543.000000	14.055383
1544.000000	14.071471
1545.000000	14.087529
1546.000000	14.103194
1547.000000	14.118689
1548.000000	14.134266
1549.000000	14.150000
1550.000000	14.165151
1551.000000	14.179946
1552.000000	14.194620
1553.000000	14.209811
1554.000000	14.224920
1555.000000	14.239840
1556.000000	14.254857
1557.000000	14.269511
1558.000000	14.283531
1559.000000	14.297366
1560.000000	14.310757
1561.000000	14.323191
1562.000000	14.335100
1563.000000	14.346414
1564.000000	14.357143
1565.000000	14.367494
1566.000000	14.376866
1567.000000	14.385769
1568.000000	14.394469
1569.000000	14.402603
1570.000000	14.410257
1571.000000	14.417186
1572.000000	14.423920
1573.000000	14.430571
1574.000000	14.437500
1575.000000	14.444100
1576.000000	14.449994
1577.000000	14.455654
1578.000000	14.461511
1579.000000	14.467580
1580.000000	14.473014
1581.000000	14.478106
1582.000000	14.483000
1583.000000	14.487703
1584.000000	14.492317
1585.000000	14.497263
1586.000000	14.501737
1587.000000	14.505777
1588.000000	14.509291
1589.000000	14.512483
1590.000000	14.515511
1591.000000	14.518206
1592.000000	14.520814
1593.000000	14.523720
1594.000000	14.527031
1595.000000	14.530777
1596.000000	14.535566
1597.000000	14.540931
1598.000000	14.546054
1599.000000	14.551271
1600.000000	14.556714
1601.000000	14.563003
1602.000000	14.569954
1603.000000	14.577343
1604.000000	14.585414
1605.000000	14.594740
1606.000000	14.605154
1607.000000	14.615654
1608.000000	14.626700
1609.000000	14.638086
1610.000000	14.650049
1611.000000	14.662217
1612.000000	14.674197
1613.000000	14.686031
1614.000000	14.697429
1615.000000	14.708843
1616.000000	14.720591
1617.000000	14.732766
1618.000000	14.744129
1619.000000	14.755691
1620.000000	14.766969
1621.000000	14.778703
1622.000000	14.790120
1623.000000	14.801111
1624.000000	14.812460
1625.000000	14.823611
1626.000000	14.834531
1627.000000	14.845506
1628.000000	14.856294
1629.000000	14.867086
1630.000000	14.878071
1631.000000	14.888426
1632.000000	14.898369
1633.000000	14.908669
1634.000000	14.919069
1635.000000	14.929226
1636.000000	14.938731
1637.000000	14.947923
1638.000000	14.957077
1639.000000	14.965769
1640.000000	14.973694
1641.000000	14.980566
1642.000000	14.987483
1643.000000	14.994194
1644.000000	15.000026
1645.000000	15.005129
1646.000000	15.010977
1647.000000	15.017029
1648.000000	15.023540
1649.000000	15.029814
1650.000000	15.036011
1651.000000	15.041620
1652.000000	15.046503
1653.000000	15.051709
1654.000000	15.056034
1655.000000	15.059963
1656.000000	15.062911
1657.000000	15.065454
1658.000000	15.067486
1659.000000	15.068951
1660.000000	15.070534
1661.000000	15.071134
1662.000000	15.071403
1663.000000	15.069986
1664.000000	15.067046
1665.000000	15.063534
1666.000000	15.059246
1667.000000	15.053677
1668.000000	15.044880
1669.000000	15.034831
1670.000000	15.022989
1671.000000	15.009791
1672.000000	14.995637
1673.000000	14.979283
1674.000000	14.961669
1675.000000	14.942886
1676.000000	14.923151
1677.000000	14.901580
1678.000000	14.878614
1679.000000	14.853883
1680.000000	14.827534
1681.000000	14.797977
1682.000000	14.766829
1683.000000	14.733280
1684.000000	14.698051
1685.000000	14.661106
1686.000000	14.622840
1687.000000	14.583600
1688.000000	14.543783
1689.000000	14.503834
1690.000000	14.464026
1691.000000	14.425383
1692.000000	14.387231
1693.000000	14.350266
1694.000000	14.314911
1695.000000	14.279620
1696.000000	14.245737
1697.000000	14.211360
1698.000000	14.178637
1699.000000	14.146969
1700.000000	14.115026
1701.000000	14.083786
1702.000000	14.053626
1703.000000	14.026357
1704.000000	13.999220
1705.000000	13.973703
1706.000000	13.948817
1707.000000	13.924071
1708.000000	13.899669
1709.000000	13.876051
1710.000000	13.852434
1711.000000	13.828871
1712.000000	13.806563
1713.000000	13.783886
1714.000000	13.761420
1715.000000	13.739554
1716.000000	13.718431
1717.000000	13.696669
1718.000000	13.674994
1719.000000	13.653597
1720.000000	13.631671
1721.000000	13.609817
1722.000000	13.588291
1723.000000	13.566691
1724.000000	13.544949
1725.000000	13.522837
1726.000000	13.501100
1727.000000	13.479377
1728.000000	13.457397
1729.000000	13.434146
1730.000000	13.411560
1731.000000	13.388663
1732.000000	13.366846
1733.000000	13.345631
1734.000000	13.324423
1735.000000	13.303289
1736.000000	13.282837
1737.000000	13.263674
1738.000000	13.244357
1739.000000	13.227109
1740.000000	13.210563
1741.000000	13.195460
1742.000000	13.181720
1743.000000	13.169786
1744.000000	13.158760
1745.000000	13.149314
1746.000000	13.141351
1747.000000	13.135154
1748.000000	13.130874
1749.000000	13.128789
1750.000000	13.127723
1751.000000	13.128274
1752.000000	13.131389
1753.000000	13.136617
1754.000000	13.143274
1755.000000	13.152640
1756.000000	13.163131
1757.000000	13.174757
1758.000000	13.186637
1759.000000	13.198506
1760.000000	13.211266
1761.000000	13.223020
1762.000000	13.234986
1763.000000	13.246406
1764.000000	13.257349
1765.000000	13.268000
1766.000000	13.278823
1767.000000	13.289234
1768.000000	13.298957
1769.000000	13.308620
1770.000000	13.318766
1771.000000	13.328563
1772.000000	13.337666
1773.000000	13.346771
1774.000000	13.355294
1775.000000	13.363769
1776.000000	13.371791
1777.000000	13.379557
1778.000000	13.386517
1779.000000	13.393220
1780.000000	13.399743
1781.000000	13.406411
1782.000000	13.412149
1783.000000	13.417549
1784.000000	13.422271
1785.000000	13.426977
1786.000000	13.432300
1787.000000	13.437331
1788.000000	13.441931
1789.000000	13.446494
1790.000000	13.450306
1791.000000	13.454394
1792.000000	13.458440
1793.000000	13.462871
1794.000000	13.467817
1795.000000	13.472714
1796.000000	13.477674
1797.000000	13.482340
1798.000000	13.487714
1799.000000	13.492737
1800.000000	13.496754
1801.000000	13.501023
1802.000000	13.506091
1803.000000	13.511037
1804.000000	13.515309
1805.000000	13.518503
1806.000000	13.521586
1807.000000	13.525134
1808.000000	13.529009
1809.000000	13.531689
1810.000000	13.532474
1811.000000	13.533871
1812.000000	13.536363
1813.000000	13.539091
1814.000000	13.541300
1815.000000	13.543243
1816.000000	13.545023
1817.000000	13.546083
1818.000000	13.545606
1819.000000	13.543594
1820.000000	13.542140
1821.000000	13.543031
1822.000000	13.546480
1823.000000	13.549426
1824.000000	13.549971
1825.000000	13.548866
1826.000000	13.547049
1827.000000	13.545657
1828.000000	13.545103
1829.000000	13.544571
1830.000000	13.544166
1831.000000	13.545349
1832.000000	13.547003
1833.000000	13.546791
1834.000000	13.545034
1835.000000	13.542320
1836.000000	13.539531
1837.000000	13.537611
1838.000000	13.537246
1839.000000	13.537617
1840.000000	13.538351
1841.000000	13.540260
1842.000000	13.544797
1843.000000	13.551454
1844.000000	13.556129
1845.000000	13.556897
1846.000000	13.553046
1847.000000	13.548060
1848.000000	13.547709
1849.000000	13.552123
1850.000000	13.557460
1851.000000	13.559917
1852.000000	13.559157
1853.000000	13.558689
1854.000000	13.560711
1855.000000	13.562889
1856.000000	13.562169
1857.000000	13.557386
1858.000000	13.551674
1859.000000	13.548949
1860.000000	13.550309
1861.000000	13.552400
1862.000000	13.553597
1863.000000	13.552089
1864.000000	13.547540
1865.000000	13.539297
1866.000000	13.526886
1867.000000	13.511386
1868.000000	13.495737
1869.000000	13.480471
1870.000000	13.466817
1871.000000	13.454583
1872.000000	13.441234
1873.000000	13.426403
1874.000000	13.411943
1875.000000	13.396940
1876.000000	13.378754
1877.000000	13.355034
1878.000000	13.326697
1879.000000	13.298280
1880.000000	13.271503
1881.000000	13.244240
1882.000000	13.212983
1883.000000	13.173897
1884.000000	13.128326
1885.000000	13.079303
1886.000000	13.029634
1887.000000	12.979426
1888.000000	12.925351
1889.000000	12.864849
1890.000000	12.800211
1891.000000	12.732040
1892.000000	12.662097
1893.000000	12.589840
1894.000000	12.512886
1895.000000	12.428143
1896.000000	12.337040
1897.000000	12.240020
1898.000000	12.139049
1899.000000	12.036474
1900.000000	11.933957
1901.000000	11.830411
1902.000000	11.724957
1903.000000	11.615574
1904.000000	11.503531
1905.000000	11.388014
1906.000000	11.268100
1907.000000	11.144617
1908.000000	11.018054
1909.000000	10.886469
1910.000000	10.751051
1911.000000	10.613489
1912.000000	10.474837
1913.000000	10.337186
1914.000000	10.200989
1915.000000	10.066080
1916.000000	9.933203
1917.000000	9.800597
1918.000000	9.667757
1919.000000	9.534586
1920.000000	9.402886
1921.000000	9.273697
1922.000000	9.148180
1923.000000	9.026054
1924.000000	8.908503
1925.000000	8.792734
1926.000000	8.678169
1927.000000	8.566706
1928.000000	8.457960
1929.000000	8.353291
1930.000000	8.253977
1931.000000	8.161246
1932.000000	8.073946
1933.000000	7.991523
1934.000000	7.912680
1935.000000	7.837257
1936.000000	7.765503
1937.000000	7.698069
1938.000000	7.636254
1939.000000	7.579683
1940.000000	7.527251
1941.000000	7.478200
1942.000000	7.432289
1943.000000	7.389743
1944.000000	7.351560
1945.000000	7.317720
1946.000000	7.289229
1947.000000	7.264760
1948.000000	7.242114
1949.000000	7.221394
1950.000000	7.203166
1951.000000	7.187740
1952.000000	7.176849
1953.000000	7.169657
1954.000000	7.166154
1955.000000	7.164540
1956.000000	7.164740
1957.000000	7.165660
1958.000000	7.169086
1959.000000	7.174669
1960.000000	7.183174
1961.000000	7.194709
1962.000000	7.206789
1963.000000	7.220911
1964.000000	7.235997
1965.000000	7.252714
1966.000000	7.269291
1967.000000	7.287360
1968.000000	7.306166
1969.000000	7.326851
1970.000000	7.347746
1971.000000	7.369437
1972.000000	7.392400
1973.000000	7.415469
1974.000000	7.439214
1975.000000	7.463069
1976.000000	7.486000
1977.000000	7.509546
1978.000000	7.532971
1979.000000	7.556831
1980.000000	7.582731
1981.000000	7.607814
1982.000000	7.632789
1983.000000	7.657974
1984.000000	7.683234
1985.000000	7.708680
1986.000000	7.734180
1987.000000	7.759369
1988.000000	7.784057
1989.000000	7.808166
1990.000000	7.832371
1991.000000	7.856549
1992.000000	7.881126
1993.000000	7.905280
1994.000000	7.928111
1995.000000	7.950554
1996.000000	7.973331
1997.000000	7.995634
1998.000000	8.018037
1999.000000	8.040317
2000.000000	8.061460
2001.000000	8.082554
2002.000000	8.103463
2003.000000	8.124900
2004.000000	8.145886
2005.000000	8.166797
2006.000000	8.187366
2007.000000	8.206960
2008.000000	8.226489
2009.000000	8.244657
2010.000000	8.261826
2011.000000	8.278683
2012.000000	8.294634
2013.000000	8.311109
2014.000000	8.326423
2015.000000	8.340163
2016.000000	8.353351
2017.000000	8.365689
2018.000000	8.377000
2019.000000	8.387489
2020.000000	8.396349
2021.000000	8.404343
2022.000000	8.411300
2023.000000	8.417949
2024.000000	8.423160
2025.000000	8.426397
2026.000000	8.428089
2027.000000	8.428243
2028.000000	8.427060
2029.000000	8.425266
2030.000000	8.421769
2031.000000	8.416403
2032.000000	8.410449
2033.000000	8.401986
2034.000000	8.391751
2035.000000	8.380174
2036.000000	8.367331
2037.000000	8.352769
2038.000000	8.336089
2039.000000	8.317200
2040.000000	8.296720
2041.000000	8.274320
2042.000000	8.250569
2043.000000	8.225771
2044.000000	8.199471
2045.000000	8.171646
2046.000000	8.142654
2047.000000	8.112366
2048.000000	8.080603
2049.000000	8.048763
2050.000000	8.015834
2051.000000	7.981877
2052.000000	7.947246
2053.000000	7.912757
2054.000000	7.878563
2055.000000	7.845257
2056.000000	7.812243
2057.000000	7.780131
2058.000000	7.748789
2059.000000	7.718274
2060.000000	7.689531
2061.000000	7.661983
2062.000000	7.636249
2063.000000	7.612040
2064.000000	7.589566
2065.000000	7.568723
2066.000000	7.550180
2067.000000	7.533131
2068.000000	7.517709
2069.000000	7.504269
2070.000000	7.493037
2071.000000	7.483609
2072.000000	7.475500
2073.000000	7.469580
2074.000000	7.465960
2075.000000	7.464274
2076.000000	7.464554
2077.000000	7.466346
2078.000000	7.469577
2079.000000	7.474209
2080.000000	7.480731
2081.000000	7.489051
2082.000000	7.498780
2083.000000	7.509069
2084.000000	7.520463
2085.000000	7.533209
2086.000000	7.547014
2087.000000	7.560989
2088.000000	7.575271
2089.000000	7.589557
2090.000000	7.603394
2091.000000	7.616860
2092.000000	7.629889
2093.000000	7.642346
2094.000000	7.654154
2095.000000	7.665334
2096.000000	7.675546
2097.000000	7.684260
2098.000000	7.691731
2099.000000	7.698243
2100.000000	7.704289
2101.000000	7.708691
2102.000000	7.712074
2103.000000	7.714823
2104.000000	7.716529
2105.000000	7.717251
2106.000000	7.717283
2107.000000	7.716894
2108.000000	7.715557
2109.000000	7.713217
2110.000000	7.710100
2111.000000	7.706163
2112.000000	7.701723
2113.000000	7.696863
2114.000000	7.691700
2115.000000	7.685403
2116.000000	7.678334
2117.000000	7.671060
2118.000000	7.663803
2119.000000	7.655711
2120.000000	7.646503
2121.000000	7.637014
2122.000000	7.628357
2123.000000	7.619620
2124.000000	7.609649
2125.000000	7.599294
2126.000000	7.589034
2127.000000	7.578629
2128.000000	7.567880
2129.000000	7.556654
2130.000000	7.544603
2131.000000	7.531920
2132.000000	7.519294
2133.000000	7.507191
2134.000000	7.494294
2135.000000	7.480034
2136.000000	7.465834
2137.000000	7.450660
2138.000000	7.434654
2139.000000	7.418120
2140.000000	7.400837
2141.000000	7.382423
2142.000000	7.363217
2143.000000	7.343263
2144.000000	7.322494
2145.000000	7.301137
2146.000000	7.279569
2147.000000	7.257043
2148.000000	7.233469
2149.000000	7.209583
2150.000000	7.185237
2151.000000	7.160869
2152.000000	7.135586
2153.000000	7.109549
2154.000000	7.083297
2155.000000	7.056797
2156.000000	7.029734
2157.000000	7.001743
2158.000000	6.973731
2159.000000	6.945889
2160.000000	6.918489
2161.000000	6.890931
2162.000000	6.862700
2163.000000	6.834654
2164.000000	6.806314
2165.000000	6.778500
2166.000000	6.751014
2167.000000	6.724294
2168.000000	6.696849
2169.000000	6.669509
2170.000000	6.643183
2171.000000	6.616766
2172.000000	6.591351
2173.000000	6.566449
2174.000000	6.541626
2175.000000	6.517174
2176.000000	6.493706
2177.000000	6.471626
2178.000000	6.449723
2179.000000	6.428186
2180.000000	6.406731
2181.000000	6.385526
2182.000000	6.365166
2183.000000	6.344543
2184.000000	6.324131
2185.000000	6.303780
2186.000000	6.282689
2187.000000	6.261694
2188.000000	6.239974
2189.000000	6.218434
2190.000000	6.196660
2191.000000	6.173809
2192.000000	6.150054
2193.000000	6.124394
2194.000000	6.097406
2195.000000	6.069311
2196.000000	6.039203
2197.000000	6.007517
2198.000000	5.974731
2199.000000	5.940291
2200.000000	5.903749
2201.000000	5.865443
2202.000000	5.824983
2203.000000	5.783740
2204.000000	5.741954
2205.000000	5.699380
2206.000000	5.655526
2207.000000	5.611546
2208.000000	5.567229
2209.000000	5.523320
2210.000000	5.479717
2211.000000	5.436949
2212.000000	5.394283
2213.000000	5.353126
2214.000000	5.312726
2215.000000	5.273754
2216.000000	5.236297
2217.000000	5.200183
2218.000000	5.167137
2219.000000	5.135583
2220.000000	5.106226
2221.000000	5.078726
2222.000000	5.053626
2223.000000	5.031674
2224.000000	5.011360
2225.000000	4.993817
2226.000000	4.978083
2227.000000	4.964534
2228.000000	4.953649
2229.000000	4.946143
2230.000000	4.941003
2231.000000	4.939020
2232.000000	4.939123
2233.000000	4.940826
2234.000000	4.945769
2235.000000	4.952577
2236.000000	4.961966
2237.000000	4.972669
2238.000000	4.985323
2239.000000	4.998797
2240.000000	5.013057
2241.000000	5.029311
2242.000000	5.044711
2243.000000	5.060574
2244.000000	5.075606
2245.000000	5.090543
2246.000000	5.104423
2247.000000	5.117360
2248.000000	5.128983
2249.000000	5.139180
2250.000000	5.147951
2251.000000	5.155594
2252.000000	5.161843
2253.000000	5.165069
2254.000000	5.166551
2255.000000	5.166560
2256.000000	5.165183
2257.000000	5.161906
2258.000000	5.156649
2259.000000	5.149766
2260.000000	5.141449
2261.000000	5.132791
2262.000000	5.123171
2263.000000	5.112600
2264.000000	5.100374
2265.000000	5.087934
2266.000000	5.074780
2267.000000	5.061529
2268.000000	5.048577
2269.000000	5.035020
2270.000000	5.022423
2271.000000	5.009643
2272.000000	4.997177
2273.000000	4.985209
2274.000000	4.974017
2275.000000	4.962754
2276.000000	4.951629
2277.000000	4.941554
2278.000000	4.932131
2279.000000	4.924409
2280.000000	4.916280
2281.000000	4.908457
2282.000000	4.902037
2283.000000	4.896331
2284.000000	4.891631
2285.000000	4.887700
2286.000000	4.883991
2287.000000	4.880634
2288.000000	4.878563
2289.000000	4.877520
2290.000000	4.877494
2291.000000	4.877503
2292.000000	4.878671
2293.000000	4.880809
2294.000000	4.883914
2295.000000	4.887106
2296.000000	4.890931
2297.000000	4.894889
2298.000000	4.899637
2299.000000	4.905197
2300.000000	4.910886
2301.000000	4.916740
2302.000000	4.922534
2303.000000	4.928280
2304.000000	4.934811
2305.000000	4.940417
2306.000000	4.946809
2307.000000	4.954046
2308.000000	4.960731
2309.000000	4.967271
2310.000000	4.975366
2311.000000	4.983749
2312.000000	4.991763
2313.000000	4.999909
2314.000000	5.007900
2315.000000	5.016146
2316.000000	5.025069
2317.000000	5.033063
2318.000000	5.041357
2319.000000	5.050074
2320.000000	5.058563
2321.000000	5.067089
2322.000000	5.075754
2323.000000	5.084049
2324.000000	5.091654
2325.000000	5.098357
2326.000000	5.104940
2327.000000	5.110757
2328.000000	5.116169
2329.000000	5.121203
2330.000000	5.125974
2331.000000	5.130071
2332.000000	5.134163
2333.000000	5.138063
2334.000000	5.141654
2335.000000	5.144503
2336.000000	5.146974
2337.000000	5.149866
2338.000000	5.152317
2339.000000	5.154349
2340.000000	5.157149
2341.000000	5.159254
2342.000000	5.161017
2343.000000	5.162349
2344.000000	5.163440
2345.000000	5.163246
2346.000000	5.162640
2347.000000	5.162829
2348.000000	5.162731
2349.000000	5.162629
2350.000000	5.163209
2351.000000	5.163289
2352.000000	5.163537
2353.000000	5.164006
2354.000000	5.164731
2355.000000	5.165200
2356.000000	5.165334
2357.000000	5.165631
2358.000000	5.166317
2359.000000	5.167394
2360.000000	5.168574
2361.000000	5.170554
2362.000000	5.172846
2363.000000	5.175017
2364.000000	5.177406
2365.000000	5.180069
2366.000000	5.182974
2367.000000	5.186151
2368.000000	5.189314
2369.000000	5.191954
2370.000000	5.194717
2371.000000	5.198009
2372.000000	5.200934
2373.000000	5.203969
2374.000000	5.206974
2375.000000	5.210126
2376.000000	5.213426
2377.000000	5.216137
2378.000000	5.219266
2379.000000	5.222534
2380.000000	5.225789
2381.000000	5.229051
2382.000000	5.231694
2383.000000	5.233954
2384.000000	5.235286
2385.000000	5.236454
2386.000000	5.237926
2387.000000	5.238914
2388.000000	5.239286
2389.000000	5.239046
2390.000000	5.238746
2391.000000	5.238751
2392.000000	5.238360
2393.000000	5.237666
2394.000000	5.236286
2395.000000	5.234809
2396.000000	5.232583
2397.000000	5.229580
2398.000000	5.226514
2399.000000	5.223143
2400.000000	5.219209
2401.000000	5.215037
2402.000000	5.210694
2403.000000	5.205637
2404.000000	5.200703
2405.000000	5.195503
2406.000000	5.188743
2407.000000	5.181894
2408.000000	5.174749
2409.000000	5.166503
2410.000000	5.156923
2411.000000	5.146406
2412.000000	5.135743
2413.000000	5.124603
2414.000000	5.112820
2415.000000	5.099706
2416.000000	5.085606
2417.000000	5.070971
2418.000000	5.056189
2419.000000	5.041054
2420.000000	5.024797
2421.000000	5.007426
2422.000000	4.988894
2423.000000	4.969437
2424.000000	4.949049
2425.000000	4.928114
2426.000000	4.906031
2427.000000	4.883194
2428.000000	4.859809
2429.000000	4.835934
2430.000000	4.811543
2431.000000	4.787009
2432.000000	4.761874
2433.000000	4.736260
2434.000000	4.710051
2435.000000	4.683449
2436.000000	4.656600
2437.000000	4.629129
2438.000000	4.600706
2439.000000	4.571340
2440.000000	4.541526
2441.000000	4.512014
2442.000000	4.482717
2443.000000	4.452029
2444.000000	4.421443
2445.000000	4.390557
2446.000000	4.359031
2447.000000	4.327740
2448.000000	4.295266
2449.000000	4.262503
2450.000000	4.230660
2451.000000	4.199089
2452.000000	4.167480
2453.000000	4.135157
2454.000000	4.103214
2455.000000	4.071820
2456.000000	4.040194
2457.000000	4.010043
2458.000000	3.978857
2459.000000	3.948283
2460.000000	3.918014
2461.000000	3.888303
2462.000000	3.859869
2463.000000	3.831549
2464.000000	3.803357
2465.000000	3.775206
2466.000000	3.747651
2467.000000	3.720794
2468.000000	3.694674
2469.000000	3.668674
2470.000000	3.643100
2471.000000	3.616723
2472.000000	3.591497
2473.000000	3.568143
2474.000000	3.544897
2475.000000	3.521757
2476.000000	3.499140
2477.000000	3.478023
2478.000000	3.458963
2479.000000	3.438477
2480.000000	3.421149
2481.000000	3.404257
2482.000000	3.388311
2483.000000	3.372600
2484.000000	3.358406
2485.000000	3.342817
2486.000000	3.328269
2487.000000	3.312926
2488.000000	3.299494
2489.000000	3.286586
2490.000000	3.274214
2491.000000	3.264369
2492.000000	3.255891
2493.000000	3.245246
2494.000000	3.237949
2495.000000	3.231763
2496.000000	3.225749
2497.000000	3.221989
2498.000000	3.216234
2499.000000	3.210851
2500.000000	3.209503
