PE UV       SUBTECH     SPECTRUM    ASCII       PEDS        4.00        
   -1
ANGSOL0010-1.Sample.ASC
24/03/07
16:51:04.00
24/03/07
16:51:04.00
Vinicio Soto Monge
Chrysina marginata. ASolis003116. Costa Rica, Los Gigantes del Bosque, Altamira, 1400 m, 4-May-2022. A. Solis. 9.03075 -83.00953. 
250,000000
1
Lambda 1050
1050L1511233
PerkinElmer UV WinLab 6.3.2.0749 / 2.02.05 Lambda 900 UV/VIS/NIR, Aug  7 2015 09:38:08

0
0
3350/servo 860,8/2
0
0
UV/VIS
1
1
1
DoubleDePol,CommonBeamDepol,RBeamAtt,SBeamAtt,60mm sphere, WB InGaAs Detector
0
0
0
0
Program
Program
3350/servo 860,8/2
3350/0,2 860,8/0,2
3350/0,2 860,8/0,2
0
15.00
 
 
 
0
 
860,8
319,2
860,8
Front
100
on
S:100 R:100
0
0
0
0
 
0
 
 
 
0
 
 
0
0
0
0
0
 
 
 
 
0
0


0
0
#HDR
-1
-1
#GR
nm
%R
1.0
0.0
2500,000000
-1,000000
2251
8
20,732500
1,598300
#DATA
250.000000	nan
251.000000	nan
252.000000	nan
253.000000	nan
254.000000	nan
255.000000	nan
256.000000	nan
257.000000	nan
258.000000	nan
259.000000	nan
260.000000	nan
261.000000	nan
262.000000	nan
263.000000	nan
264.000000	nan
265.000000	nan
266.000000	nan
267.000000	nan
268.000000	nan
269.000000	nan
270.000000	nan
271.000000	nan
272.000000	nan
273.000000	nan
274.000000	nan
275.000000	nan
276.000000	nan
277.000000	nan
278.000000	nan
279.000000	nan
280.000000	nan
281.000000	nan
282.000000	nan
283.000000	nan
284.000000	1.870953
285.000000	1.866391
286.000000	1.863531
287.000000	1.860856
288.000000	1.857033
289.000000	1.852997
290.000000	1.849899
291.000000	1.847060
292.000000	1.842639
293.000000	1.838989
294.000000	1.835112
295.000000	1.832942
296.000000	1.831663
297.000000	1.828009
298.000000	1.823296
299.000000	1.819756
300.000000	1.817686
301.000000	1.815663
302.000000	1.813261
303.000000	1.810225
304.000000	1.809921
305.000000	1.808726
306.000000	1.809680
307.000000	1.809504
308.000000	1.809561
309.000000	1.808949
310.000000	1.807641
311.000000	1.805951
312.000000	1.806600
313.000000	1.804342
314.000000	1.803351
315.000000	1.803555
316.000000	1.804922
317.000000	1.813521
318.000000	1.823356
319.000000	1.832701
320.000000	1.840271
321.000000	1.851843
322.000000	1.856804
323.000000	1.861903
324.000000	1.867128
325.000000	1.870282
326.000000	1.876206
327.000000	1.879461
328.000000	1.885235
329.000000	1.891033
330.000000	1.891736
331.000000	1.889848
332.000000	1.895088
333.000000	1.901410
334.000000	1.906842
335.000000	1.910272
336.000000	1.912511
337.000000	1.917353
338.000000	1.921280
339.000000	1.921596
340.000000	1.925325
341.000000	1.925228
342.000000	1.928016
343.000000	1.929875
344.000000	1.934015
345.000000	1.938703
346.000000	1.943771
347.000000	1.946452
348.000000	1.949836
349.000000	1.950896
350.000000	1.951514
351.000000	1.953091
352.000000	1.946496
353.000000	1.940619
354.000000	1.936574
355.000000	1.934416
356.000000	1.927633
357.000000	1.924955
358.000000	1.924397
359.000000	1.924146
360.000000	1.923500
361.000000	1.920558
362.000000	1.921678
363.000000	1.916833
364.000000	1.916651
365.000000	1.919166
366.000000	1.922819
367.000000	1.924312
368.000000	1.925639
369.000000	1.925811
370.000000	1.925977
371.000000	1.928104
372.000000	1.928649
373.000000	1.931773
374.000000	1.935658
375.000000	1.936859
376.000000	1.942357
377.000000	1.944009
378.000000	1.946518
379.000000	1.947264
380.000000	1.949328
381.000000	1.950959
382.000000	1.954524
383.000000	1.960774
384.000000	1.970756
385.000000	1.981014
386.000000	1.989428
387.000000	1.999895
388.000000	2.008874
389.000000	2.018545
390.000000	2.029631
391.000000	2.042071
392.000000	2.058002
393.000000	2.072954
394.000000	2.089336
395.000000	2.107898
396.000000	2.127351
397.000000	2.148061
398.000000	2.171957
399.000000	2.194683
400.000000	2.218984
401.000000	2.245273
402.000000	2.269802
403.000000	2.295373
404.000000	2.323616
405.000000	2.354643
406.000000	2.387028
407.000000	2.420163
408.000000	2.452931
409.000000	2.487477
410.000000	2.523352
411.000000	2.559027
412.000000	2.598396
413.000000	2.638562
414.000000	2.678887
415.000000	2.719222
416.000000	2.759911
417.000000	2.800911
418.000000	2.841732
419.000000	2.882656
420.000000	2.923800
421.000000	2.964787
422.000000	3.005715
423.000000	3.046712
424.000000	3.087461
425.000000	3.127971
426.000000	3.168209
427.000000	3.207725
428.000000	3.246909
429.000000	3.285221
430.000000	3.323314
431.000000	3.360814
432.000000	3.397533
433.000000	3.433543
434.000000	3.468927
435.000000	3.503905
436.000000	3.537996
437.000000	3.570783
438.000000	3.602811
439.000000	3.633964
440.000000	3.664182
441.000000	3.693299
442.000000	3.721153
443.000000	3.747868
444.000000	3.773728
445.000000	3.798687
446.000000	3.822003
447.000000	3.844021
448.000000	3.865003
449.000000	3.884936
450.000000	3.903886
451.000000	3.921859
452.000000	3.938423
453.000000	3.953576
454.000000	3.967707
455.000000	3.980906
456.000000	3.992948
457.000000	4.004062
458.000000	4.013959
459.000000	4.022533
460.000000	4.030373
461.000000	4.037369
462.000000	4.043396
463.000000	4.048389
464.000000	4.052500
465.000000	4.056138
466.000000	4.059205
467.000000	4.061482
468.000000	4.063034
469.000000	4.063830
470.000000	4.064091
471.000000	4.063909
472.000000	4.063451
473.000000	4.062720
474.000000	4.061717
475.000000	4.060544
476.000000	4.059424
477.000000	4.058424
478.000000	4.057543
479.000000	4.056458
480.000000	4.055410
481.000000	4.054959
482.000000	4.054840
483.000000	4.054981
484.000000	4.055749
485.000000	4.057744
486.000000	4.060867
487.000000	4.065471
488.000000	4.071780
489.000000	4.079523
490.000000	4.088736
491.000000	4.099850
492.000000	4.112764
493.000000	4.127876
494.000000	4.145388
495.000000	4.165003
496.000000	4.186911
497.000000	4.211043
498.000000	4.237626
499.000000	4.267430
500.000000	4.300584
501.000000	4.336453
502.000000	4.375496
503.000000	4.417778
504.000000	4.463510
505.000000	4.512733
506.000000	4.565542
507.000000	4.621485
508.000000	4.681351
509.000000	4.745152
510.000000	4.812356
511.000000	4.883110
512.000000	4.957665
513.000000	5.035769
514.000000	5.117813
515.000000	5.203475
516.000000	5.292834
517.000000	5.385612
518.000000	5.481752
519.000000	5.581124
520.000000	5.683423
521.000000	5.788202
522.000000	5.895528
523.000000	6.005475
524.000000	6.117718
525.000000	6.232463
526.000000	6.349426
527.000000	6.468188
528.000000	6.588195
529.000000	6.709460
530.000000	6.832177
531.000000	6.955807
532.000000	7.080355
533.000000	7.205446
534.000000	7.330452
535.000000	7.454813
536.000000	7.578781
537.000000	7.702194
538.000000	7.824613
539.000000	7.946053
540.000000	8.066205
541.000000	8.184522
542.000000	8.301786
543.000000	8.417265
544.000000	8.530677
545.000000	8.642453
546.000000	8.752372
547.000000	8.860805
548.000000	8.967371
549.000000	9.071755
550.000000	9.174261
551.000000	9.275324
552.000000	9.374995
553.000000	9.472966
554.000000	9.569325
555.000000	9.663993
556.000000	9.757217
557.000000	9.848737
558.000000	9.938727
559.000000	10.027221
560.000000	10.106310
561.000000	10.182367
562.000000	10.256470
563.000000	10.329394
564.000000	10.400665
565.000000	10.469575
566.000000	10.536726
567.000000	10.601600
568.000000	10.664629
569.000000	10.725897
570.000000	10.785292
571.000000	10.842972
572.000000	10.898316
573.000000	10.951697
574.000000	11.002186
575.000000	11.050292
576.000000	11.096372
577.000000	11.140081
578.000000	11.181052
579.000000	11.219154
580.000000	11.254268
581.000000	11.286524
582.000000	11.315056
583.000000	11.339977
584.000000	11.361640
585.000000	11.379437
586.000000	11.393113
587.000000	11.402502
588.000000	11.408269
589.000000	11.409342
590.000000	11.406990
591.000000	11.400658
592.000000	11.390156
593.000000	11.374203
594.000000	11.354236
595.000000	11.337609
596.000000	11.318242
597.000000	11.295054
598.000000	11.267103
599.000000	11.235041
600.000000	11.199937
601.000000	11.160822
602.000000	11.118446
603.000000	11.073009
604.000000	11.023862
605.000000	10.971246
606.000000	10.915144
607.000000	10.856927
608.000000	10.796519
609.000000	10.734452
610.000000	10.669788
611.000000	10.603230
612.000000	10.534211
613.000000	10.463679
614.000000	10.391922
615.000000	10.319760
616.000000	10.246328
617.000000	10.171861
618.000000	10.097680
619.000000	10.022931
620.000000	9.948342
621.000000	9.873655
622.000000	9.799358
623.000000	9.724399
624.000000	9.650709
625.000000	9.577447
626.000000	9.504297
627.000000	9.432107
628.000000	9.362200
629.000000	9.292926
630.000000	9.224828
631.000000	9.158038
632.000000	9.092349
633.000000	9.028996
634.000000	8.967334
635.000000	8.907364
636.000000	8.849092
637.000000	8.793507
638.000000	8.739700
639.000000	8.688147
640.000000	8.639286
641.000000	8.592676
642.000000	8.547985
643.000000	8.505408
644.000000	8.464831
645.000000	8.426723
646.000000	8.390606
647.000000	8.357860
648.000000	8.327350
649.000000	8.298948
650.000000	8.272276
651.000000	8.248615
652.000000	8.227332
653.000000	8.208039
654.000000	8.191058
655.000000	8.176695
656.000000	8.164578
657.000000	8.154549
658.000000	8.147123
659.000000	8.141986
660.000000	8.138621
661.000000	8.137721
662.000000	8.138386
663.000000	8.141008
664.000000	8.145966
665.000000	8.152579
666.000000	8.161429
667.000000	8.172872
668.000000	8.185573
669.000000	8.199879
670.000000	8.215788
671.000000	8.233952
672.000000	8.253702
673.000000	8.275193
674.000000	8.298060
675.000000	8.322568
676.000000	8.349249
677.000000	8.377560
678.000000	8.407211
679.000000	8.438561
680.000000	8.472185
681.000000	8.507688
682.000000	8.544752
683.000000	8.583826
684.000000	8.624788
685.000000	8.667560
686.000000	8.711181
687.000000	8.757374
688.000000	8.805188
689.000000	8.854498
690.000000	8.904818
691.000000	8.957355
692.000000	9.011890
693.000000	9.068306
694.000000	9.125992
695.000000	9.184980
696.000000	9.246235
697.000000	9.308826
698.000000	9.373031
699.000000	9.438774
700.000000	9.505715
701.000000	9.573985
702.000000	9.643440
703.000000	9.714291
704.000000	9.787193
705.000000	9.860801
706.000000	9.936321
707.000000	10.012714
708.000000	10.090627
709.000000	10.170541
710.000000	10.250988
711.000000	10.332530
712.000000	10.415257
713.000000	10.498975
714.000000	10.583542
715.000000	10.668584
716.000000	10.754613
717.000000	10.840714
718.000000	10.927242
719.000000	11.014664
720.000000	11.102621
721.000000	11.190764
722.000000	11.278546
723.000000	11.366645
724.000000	11.454816
725.000000	11.543053
726.000000	11.631014
727.000000	11.719000
728.000000	11.806365
729.000000	11.892507
730.000000	11.978098
731.000000	12.063126
732.000000	12.148033
733.000000	12.231312
734.000000	12.314130
735.000000	12.397142
736.000000	12.478856
737.000000	12.559758
738.000000	12.639976
739.000000	12.718401
740.000000	12.796142
741.000000	12.872032
742.000000	12.946969
743.000000	13.020844
744.000000	13.093256
745.000000	13.164995
746.000000	13.235749
747.000000	13.304608
748.000000	13.372107
749.000000	13.439123
750.000000	13.504458
751.000000	13.567485
752.000000	13.630119
753.000000	13.692500
754.000000	13.753037
755.000000	13.811880
756.000000	13.870799
757.000000	13.929668
758.000000	13.987134
759.000000	14.042560
760.000000	14.096542
761.000000	14.149565
762.000000	14.201632
763.000000	14.252877
764.000000	14.304191
765.000000	14.355157
766.000000	14.404313
767.000000	14.453055
768.000000	14.502234
769.000000	14.550239
770.000000	14.596768
771.000000	14.642133
772.000000	14.687460
773.000000	14.733054
774.000000	14.776842
775.000000	14.820908
776.000000	14.864856
777.000000	14.908132
778.000000	14.951255
779.000000	14.993817
780.000000	15.036431
781.000000	15.077466
782.000000	15.118509
783.000000	15.160330
784.000000	15.201384
785.000000	15.242888
786.000000	15.283540
787.000000	15.322605
788.000000	15.360970
789.000000	15.399803
790.000000	15.438510
791.000000	15.476208
792.000000	15.512663
793.000000	15.549248
794.000000	15.587525
795.000000	15.625753
796.000000	15.664096
797.000000	15.702054
798.000000	15.740250
799.000000	15.777898
800.000000	15.813406
801.000000	15.849451
802.000000	15.886224
803.000000	15.922018
804.000000	15.958044
805.000000	15.994540
806.000000	16.031473
807.000000	16.066009
808.000000	16.099809
809.000000	16.135932
810.000000	16.171428
811.000000	16.206905
812.000000	16.242935
813.000000	16.277844
814.000000	16.312848
815.000000	16.347046
816.000000	16.383464
817.000000	16.417379
818.000000	16.451590
819.000000	16.486214
820.000000	16.519973
821.000000	16.552687
822.000000	16.585653
823.000000	16.618427
824.000000	16.649705
825.000000	16.682288
826.000000	16.714802
827.000000	16.747224
828.000000	16.778779
829.000000	16.810728
830.000000	16.841282
831.000000	16.870973
832.000000	16.899739
833.000000	16.927631
834.000000	16.955651
835.000000	16.984025
836.000000	17.012362
837.000000	17.038447
838.000000	17.065259
839.000000	17.088829
840.000000	17.114155
841.000000	17.140933
842.000000	17.167815
843.000000	17.193605
844.000000	17.221710
845.000000	17.249658
846.000000	17.270998
847.000000	17.287860
848.000000	17.310489
849.000000	17.328264
850.000000	17.346656
851.000000	17.362650
852.000000	17.381663
853.000000	17.402436
854.000000	17.424303
855.000000	17.442899
856.000000	17.461982
857.000000	17.489309
858.000000	17.567921
859.000000	17.605260
860.000000	17.642232
861.000000	17.679720
862.000000	17.717312
863.000000	17.755819
864.000000	17.792611
865.000000	17.831187
866.000000	17.869875
867.000000	17.908269
868.000000	17.947363
869.000000	17.986135
870.000000	18.025754
871.000000	18.064523
872.000000	18.104154
873.000000	18.143005
874.000000	18.184492
875.000000	18.223569
876.000000	18.261121
877.000000	18.299637
878.000000	18.338105
879.000000	18.373785
880.000000	18.408529
881.000000	18.449254
882.000000	18.494665
883.000000	18.533719
884.000000	18.578201
885.000000	18.620935
886.000000	18.663645
887.000000	18.706763
888.000000	18.746856
889.000000	18.783806
890.000000	18.824806
891.000000	18.867518
892.000000	18.902611
893.000000	18.885631
894.000000	18.910097
895.000000	18.933946
896.000000	18.957703
897.000000	18.981837
898.000000	19.004583
899.000000	19.028243
900.000000	19.051689
901.000000	19.075540
902.000000	19.100329
903.000000	19.124829
904.000000	19.150051
905.000000	19.175577
906.000000	19.202446
907.000000	19.228746
908.000000	19.254620
909.000000	19.281146
910.000000	19.308206
911.000000	19.334969
912.000000	19.362449
913.000000	19.390794
914.000000	19.418203
915.000000	19.446406
916.000000	19.474794
917.000000	19.501617
918.000000	19.528414
919.000000	19.554151
920.000000	19.581269
921.000000	19.608731
922.000000	19.634983
923.000000	19.661469
924.000000	19.689020
925.000000	19.714726
926.000000	19.739897
927.000000	19.764089
928.000000	19.788049
929.000000	19.811969
930.000000	19.835157
931.000000	19.857543
932.000000	19.878451
933.000000	19.899571
934.000000	19.920657
935.000000	19.941457
936.000000	19.961646
937.000000	19.980317
938.000000	19.997666
939.000000	20.014737
940.000000	20.031297
941.000000	20.045869
942.000000	20.060291
943.000000	20.074686
944.000000	20.087017
945.000000	20.098903
946.000000	20.111414
947.000000	20.122623
948.000000	20.133437
949.000000	20.144637
950.000000	20.154777
951.000000	20.164240
952.000000	20.173469
953.000000	20.182437
954.000000	20.191274
955.000000	20.199449
956.000000	20.207140
957.000000	20.213943
958.000000	20.219920
959.000000	20.225497
960.000000	20.232331
961.000000	20.239223
962.000000	20.245349
963.000000	20.251689
964.000000	20.257457
965.000000	20.262637
966.000000	20.268286
967.000000	20.273514
968.000000	20.278386
969.000000	20.282086
970.000000	20.285477
971.000000	20.288277
972.000000	20.291603
973.000000	20.295291
974.000000	20.298060
975.000000	20.300206
976.000000	20.302343
977.000000	20.304334
978.000000	20.306120
979.000000	20.308803
980.000000	20.310477
981.000000	20.310497
982.000000	20.311054
983.000000	20.311274
984.000000	20.310666
985.000000	20.310729
986.000000	20.310186
987.000000	20.309597
988.000000	20.309277
989.000000	20.308500
990.000000	20.306226
991.000000	20.304554
992.000000	20.303631
993.000000	20.301651
994.000000	20.299297
995.000000	20.296349
996.000000	20.293049
997.000000	20.289826
998.000000	20.286129
999.000000	20.283254
1000.000000	20.280374
1001.000000	20.276431
1002.000000	20.272797
1003.000000	20.269486
1004.000000	20.265994
1005.000000	20.261500
1006.000000	20.256720
1007.000000	20.252209
1008.000000	20.248377
1009.000000	20.244523
1010.000000	20.240674
1011.000000	20.237057
1012.000000	20.233051
1013.000000	20.229517
1014.000000	20.226103
1015.000000	20.222700
1016.000000	20.219989
1017.000000	20.216717
1018.000000	20.212783
1019.000000	20.208829
1020.000000	20.204674
1021.000000	20.201586
1022.000000	20.199017
1023.000000	20.196289
1024.000000	20.193283
1025.000000	20.191609
1026.000000	20.190086
1027.000000	20.188734
1028.000000	20.188049
1029.000000	20.187291
1030.000000	20.186769
1031.000000	20.186389
1032.000000	20.186340
1033.000000	20.186926
1034.000000	20.187766
1035.000000	20.188240
1036.000000	20.188974
1037.000000	20.190231
1038.000000	20.191631
1039.000000	20.193131
1040.000000	20.195297
1041.000000	20.197877
1042.000000	20.200997
1043.000000	20.203831
1044.000000	20.206954
1045.000000	20.210469
1046.000000	20.213943
1047.000000	20.218380
1048.000000	20.222466
1049.000000	20.226469
1050.000000	20.230754
1051.000000	20.234709
1052.000000	20.238946
1053.000000	20.244280
1054.000000	20.250240
1055.000000	20.256063
1056.000000	20.261520
1057.000000	20.266840
1058.000000	20.272794
1059.000000	20.279009
1060.000000	20.285229
1061.000000	20.291169
1062.000000	20.296509
1063.000000	20.302551
1064.000000	20.309003
1065.000000	20.315131
1066.000000	20.321537
1067.000000	20.328311
1068.000000	20.334280
1069.000000	20.340431
1070.000000	20.348297
1071.000000	20.356477
1072.000000	20.364694
1073.000000	20.372803
1074.000000	20.381211
1075.000000	20.389920
1076.000000	20.398829
1077.000000	20.407511
1078.000000	20.416209
1079.000000	20.424606
1080.000000	20.433060
1081.000000	20.441883
1082.000000	20.450529
1083.000000	20.459017
1084.000000	20.467469
1085.000000	20.476334
1086.000000	20.485417
1087.000000	20.494614
1088.000000	20.503720
1089.000000	20.512180
1090.000000	20.520651
1091.000000	20.529217
1092.000000	20.537729
1093.000000	20.545843
1094.000000	20.553966
1095.000000	20.562334
1096.000000	20.570400
1097.000000	20.578563
1098.000000	20.586043
1099.000000	20.593814
1100.000000	20.602186
1101.000000	20.610277
1102.000000	20.618120
1103.000000	20.626120
1104.000000	20.632843
1105.000000	20.638309
1106.000000	20.643949
1107.000000	20.649569
1108.000000	20.655054
1109.000000	20.659920
1110.000000	20.664843
1111.000000	20.669383
1112.000000	20.673337
1113.000000	20.676623
1114.000000	20.680146
1115.000000	20.683109
1116.000000	20.685611
1117.000000	20.688389
1118.000000	20.691274
1119.000000	20.694046
1120.000000	20.696000
1121.000000	20.697603
1122.000000	20.699863
1123.000000	20.700980
1124.000000	20.701714
1125.000000	20.702011
1126.000000	20.701814
1127.000000	20.700254
1128.000000	20.697423
1129.000000	20.694500
1130.000000	20.690583
1131.000000	20.685443
1132.000000	20.677531
1133.000000	20.668306
1134.000000	20.659149
1135.000000	20.649857
1136.000000	20.640163
1137.000000	20.629049
1138.000000	20.616329
1139.000000	20.602709
1140.000000	20.588091
1141.000000	20.572577
1142.000000	20.556737
1143.000000	20.539580
1144.000000	20.521743
1145.000000	20.503246
1146.000000	20.484883
1147.000000	20.465897
1148.000000	20.446900
1149.000000	20.426414
1150.000000	20.405694
1151.000000	20.384343
1152.000000	20.361497
1153.000000	20.338077
1154.000000	20.314220
1155.000000	20.289446
1156.000000	20.264403
1157.000000	20.236954
1158.000000	20.208389
1159.000000	20.179071
1160.000000	20.148657
1161.000000	20.117320
1162.000000	20.084820
1163.000000	20.052703
1164.000000	20.019103
1165.000000	19.984691
1166.000000	19.949991
1167.000000	19.916220
1168.000000	19.882814
1169.000000	19.847551
1170.000000	19.810746
1171.000000	19.773366
1172.000000	19.735334
1173.000000	19.698780
1174.000000	19.663240
1175.000000	19.628294
1176.000000	19.592923
1177.000000	19.556440
1178.000000	19.520351
1179.000000	19.485031
1180.000000	19.449063
1181.000000	19.412754
1182.000000	19.376929
1183.000000	19.341514
1184.000000	19.305989
1185.000000	19.270454
1186.000000	19.235431
1187.000000	19.202111
1188.000000	19.169903
1189.000000	19.137923
1190.000000	19.107986
1191.000000	19.079729
1192.000000	19.053531
1193.000000	19.029857
1194.000000	19.008414
1195.000000	18.988614
1196.000000	18.969866
1197.000000	18.954323
1198.000000	18.940857
1199.000000	18.929223
1200.000000	18.919003
1201.000000	18.910849
1202.000000	18.905017
1203.000000	18.900163
1204.000000	18.897483
1205.000000	18.896777
1206.000000	18.897114
1207.000000	18.900343
1208.000000	18.904340
1209.000000	18.909323
1210.000000	18.914720
1211.000000	18.921303
1212.000000	18.930474
1213.000000	18.940589
1214.000000	18.951254
1215.000000	18.963400
1216.000000	18.976109
1217.000000	18.989886
1218.000000	19.003857
1219.000000	19.019680
1220.000000	19.036531
1221.000000	19.053860
1222.000000	19.070151
1223.000000	19.085874
1224.000000	19.102397
1225.000000	19.118546
1226.000000	19.133729
1227.000000	19.148223
1228.000000	19.162203
1229.000000	19.175334
1230.000000	19.188511
1231.000000	19.201900
1232.000000	19.215014
1233.000000	19.226749
1234.000000	19.238714
1235.000000	19.250469
1236.000000	19.262323
1237.000000	19.273489
1238.000000	19.284614
1239.000000	19.294857
1240.000000	19.304209
1241.000000	19.313786
1242.000000	19.323109
1243.000000	19.331991
1244.000000	19.341237
1245.000000	19.350766
1246.000000	19.359951
1247.000000	19.368371
1248.000000	19.377186
1249.000000	19.386326
1250.000000	19.395491
1251.000000	19.404803
1252.000000	19.413443
1253.000000	19.422100
1254.000000	19.430509
1255.000000	19.439009
1256.000000	19.448206
1257.000000	19.458011
1258.000000	19.467929
1259.000000	19.477420
1260.000000	19.487534
1261.000000	19.497283
1262.000000	19.506626
1263.000000	19.515946
1264.000000	19.525974
1265.000000	19.535563
1266.000000	19.544783
1267.000000	19.553466
1268.000000	19.561991
1269.000000	19.570209
1270.000000	19.578649
1271.000000	19.586103
1272.000000	19.593314
1273.000000	19.600383
1274.000000	19.607766
1275.000000	19.615337
1276.000000	19.622351
1277.000000	19.629206
1278.000000	19.636063
1279.000000	19.642169
1280.000000	19.648454
1281.000000	19.654840
1282.000000	19.660480
1283.000000	19.665803
1284.000000	19.670660
1285.000000	19.675820
1286.000000	19.681037
1287.000000	19.686049
1288.000000	19.691126
1289.000000	19.696551
1290.000000	19.701866
1291.000000	19.706480
1292.000000	19.710600
1293.000000	19.714483
1294.000000	19.718629
1295.000000	19.722537
1296.000000	19.726877
1297.000000	19.731706
1298.000000	19.736309
1299.000000	19.740271
1300.000000	19.744583
1301.000000	19.749009
1302.000000	19.753437
1303.000000	19.758214
1304.000000	19.763003
1305.000000	19.767914
1306.000000	19.772669
1307.000000	19.777571
1308.000000	19.782580
1309.000000	19.786971
1310.000000	19.790726
1311.000000	19.794323
1312.000000	19.797237
1313.000000	19.799229
1314.000000	19.800563
1315.000000	19.801146
1316.000000	19.801349
1317.000000	19.801574
1318.000000	19.800663
1319.000000	19.798331
1320.000000	19.794689
1321.000000	19.789843
1322.000000	19.784126
1323.000000	19.777474
1324.000000	19.770303
1325.000000	19.762309
1326.000000	19.752917
1327.000000	19.742437
1328.000000	19.731360
1329.000000	19.719260
1330.000000	19.705643
1331.000000	19.690583
1332.000000	19.674609
1333.000000	19.657171
1334.000000	19.638317
1335.000000	19.618166
1336.000000	19.597251
1337.000000	19.575366
1338.000000	19.551366
1339.000000	19.525414
1340.000000	19.498229
1341.000000	19.470594
1342.000000	19.441217
1343.000000	19.410263
1344.000000	19.377900
1345.000000	19.343474
1346.000000	19.306931
1347.000000	19.269014
1348.000000	19.229994
1349.000000	19.189169
1350.000000	19.145726
1351.000000	19.100014
1352.000000	19.051791
1353.000000	19.002080
1354.000000	18.952811
1355.000000	18.904071
1356.000000	18.855014
1357.000000	18.805243
1358.000000	18.754983
1359.000000	18.702731
1360.000000	18.648803
1361.000000	18.596960
1362.000000	18.548217
1363.000000	18.498549
1364.000000	18.447346
1365.000000	18.396229
1366.000000	18.344106
1367.000000	18.289631
1368.000000	18.236129
1369.000000	18.181860
1370.000000	18.125051
1371.000000	18.066389
1372.000000	18.005851
1373.000000	17.942606
1374.000000	17.875094
1375.000000	17.804106
1376.000000	17.728971
1377.000000	17.649889
1378.000000	17.566626
1379.000000	17.478837
1380.000000	17.388780
1381.000000	17.297763
1382.000000	17.209069
1383.000000	17.120680
1384.000000	17.033283
1385.000000	16.946426
1386.000000	16.859374
1387.000000	16.773534
1388.000000	16.690534
1389.000000	16.607046
1390.000000	16.521449
1391.000000	16.434497
1392.000000	16.349214
1393.000000	16.264497
1394.000000	16.180140
1395.000000	16.097760
1396.000000	16.015946
1397.000000	15.930454
1398.000000	15.842383
1399.000000	15.753646
1400.000000	15.665871
1401.000000	15.580829
1402.000000	15.495831
1403.000000	15.406151
1404.000000	15.314811
1405.000000	15.225823
1406.000000	15.136694
1407.000000	15.047640
1408.000000	14.959654
1409.000000	14.874711
1410.000000	14.792617
1411.000000	14.711449
1412.000000	14.632206
1413.000000	14.555903
1414.000000	14.483766
1415.000000	14.414157
1416.000000	14.344403
1417.000000	14.270720
1418.000000	14.196291
1419.000000	14.121294
1420.000000	14.046774
1421.000000	13.972111
1422.000000	13.896069
1423.000000	13.817514
1424.000000	13.738886
1425.000000	13.660846
1426.000000	13.583057
1427.000000	13.503240
1428.000000	13.423186
1429.000000	13.342720
1430.000000	13.260257
1431.000000	13.175391
1432.000000	13.091506
1433.000000	13.010451
1434.000000	12.930706
1435.000000	12.849511
1436.000000	12.766106
1437.000000	12.684983
1438.000000	12.607834
1439.000000	12.533854
1440.000000	12.460009
1441.000000	12.388226
1442.000000	12.318123
1443.000000	12.251117
1444.000000	12.185717
1445.000000	12.121154
1446.000000	12.060580
1447.000000	12.002377
1448.000000	11.946497
1449.000000	11.891209
1450.000000	11.838151
1451.000000	11.787843
1452.000000	11.740297
1453.000000	11.693317
1454.000000	11.647137
1455.000000	11.603051
1456.000000	11.560534
1457.000000	11.519497
1458.000000	11.479329
1459.000000	11.439406
1460.000000	11.400349
1461.000000	11.362834
1462.000000	11.326691
1463.000000	11.290074
1464.000000	11.254440
1465.000000	11.220614
1466.000000	11.186643
1467.000000	11.152457
1468.000000	11.118771
1469.000000	11.085114
1470.000000	11.052426
1471.000000	11.020651
1472.000000	10.989077
1473.000000	10.958274
1474.000000	10.926883
1475.000000	10.895789
1476.000000	10.865054
1477.000000	10.834326
1478.000000	10.803791
1479.000000	10.774611
1480.000000	10.745694
1481.000000	10.716354
1482.000000	10.688917
1483.000000	10.661263
1484.000000	10.634394
1485.000000	10.607649
1486.000000	10.581320
1487.000000	10.555900
1488.000000	10.531260
1489.000000	10.506800
1490.000000	10.482497
1491.000000	10.459180
1492.000000	10.436591
1493.000000	10.415431
1494.000000	10.395017
1495.000000	10.376009
1496.000000	10.357640
1497.000000	10.340063
1498.000000	10.324251
1499.000000	10.309506
1500.000000	10.295137
1501.000000	10.282640
1502.000000	10.271957
1503.000000	10.262606
1504.000000	10.255974
1505.000000	10.250369
1506.000000	10.246063
1507.000000	10.243463
1508.000000	10.241709
1509.000000	10.242057
1510.000000	10.244351
1511.000000	10.248274
1512.000000	10.253986
1513.000000	10.260969
1514.000000	10.268980
1515.000000	10.278400
1516.000000	10.288869
1517.000000	10.299963
1518.000000	10.312411
1519.000000	10.326560
1520.000000	10.341889
1521.000000	10.358626
1522.000000	10.375391
1523.000000	10.393471
1524.000000	10.413451
1525.000000	10.433446
1526.000000	10.454340
1527.000000	10.476666
1528.000000	10.499703
1529.000000	10.523711
1530.000000	10.547686
1531.000000	10.572229
1532.000000	10.596937
1533.000000	10.621606
1534.000000	10.646983
1535.000000	10.673114
1536.000000	10.698554
1537.000000	10.723594
1538.000000	10.748943
1539.000000	10.773391
1540.000000	10.797260
1541.000000	10.820717
1542.000000	10.843660
1543.000000	10.866906
1544.000000	10.890057
1545.000000	10.912360
1546.000000	10.933883
1547.000000	10.955580
1548.000000	10.976797
1549.000000	10.997866
1550.000000	11.019283
1551.000000	11.040891
1552.000000	11.062186
1553.000000	11.083654
1554.000000	11.105289
1555.000000	11.126437
1556.000000	11.146854
1557.000000	11.167314
1558.000000	11.187683
1559.000000	11.207023
1560.000000	11.226280
1561.000000	11.244891
1562.000000	11.262494
1563.000000	11.279523
1564.000000	11.295697
1565.000000	11.310874
1566.000000	11.325111
1567.000000	11.338897
1568.000000	11.352223
1569.000000	11.364300
1570.000000	11.374946
1571.000000	11.385503
1572.000000	11.395971
1573.000000	11.405854
1574.000000	11.415363
1575.000000	11.424451
1576.000000	11.433449
1577.000000	11.442074
1578.000000	11.450023
1579.000000	11.457720
1580.000000	11.465271
1581.000000	11.472514
1582.000000	11.479537
1583.000000	11.486757
1584.000000	11.493697
1585.000000	11.500071
1586.000000	11.506320
1587.000000	11.512640
1588.000000	11.518446
1589.000000	11.523529
1590.000000	11.528557
1591.000000	11.534003
1592.000000	11.539551
1593.000000	11.545477
1594.000000	11.551726
1595.000000	11.558680
1596.000000	11.566674
1597.000000	11.575549
1598.000000	11.584483
1599.000000	11.594026
1600.000000	11.605080
1601.000000	11.617483
1602.000000	11.630900
1603.000000	11.644809
1604.000000	11.660017
1605.000000	11.676537
1606.000000	11.694051
1607.000000	11.711911
1608.000000	11.730237
1609.000000	11.749446
1610.000000	11.769571
1611.000000	11.790614
1612.000000	11.812231
1613.000000	11.833669
1614.000000	11.855540
1615.000000	11.877831
1616.000000	11.900466
1617.000000	11.923286
1618.000000	11.945654
1619.000000	11.967403
1620.000000	11.988726
1621.000000	12.010074
1622.000000	12.030906
1623.000000	12.052331
1624.000000	12.073800
1625.000000	12.094783
1626.000000	12.115540
1627.000000	12.136309
1628.000000	12.156469
1629.000000	12.176257
1630.000000	12.195946
1631.000000	12.214680
1632.000000	12.233020
1633.000000	12.251163
1634.000000	12.268620
1635.000000	12.286051
1636.000000	12.302540
1637.000000	12.318091
1638.000000	12.333220
1639.000000	12.347226
1640.000000	12.360834
1641.000000	12.373437
1642.000000	12.385503
1643.000000	12.397029
1644.000000	12.407283
1645.000000	12.417200
1646.000000	12.425977
1647.000000	12.434683
1648.000000	12.443400
1649.000000	12.450223
1650.000000	12.456649
1651.000000	12.462251
1652.000000	12.466449
1653.000000	12.470177
1654.000000	12.473834
1655.000000	12.476131
1656.000000	12.477031
1657.000000	12.476134
1658.000000	12.473831
1659.000000	12.469711
1660.000000	12.463683
1661.000000	12.456206
1662.000000	12.445826
1663.000000	12.434097
1664.000000	12.420797
1665.000000	12.404800
1666.000000	12.386803
1667.000000	12.366734
1668.000000	12.342774
1669.000000	12.317291
1670.000000	12.288297
1671.000000	12.257654
1672.000000	12.225191
1673.000000	12.191137
1674.000000	12.155623
1675.000000	12.118317
1676.000000	12.079923
1677.000000	12.039191
1678.000000	11.996706
1679.000000	11.953214
1680.000000	11.906814
1681.000000	11.858326
1682.000000	11.806440
1683.000000	11.752791
1684.000000	11.698431
1685.000000	11.641377
1686.000000	11.584417
1687.000000	11.526443
1688.000000	11.468546
1689.000000	11.411989
1690.000000	11.357189
1691.000000	11.303894
1692.000000	11.254197
1693.000000	11.206360
1694.000000	11.161431
1695.000000	11.119420
1696.000000	11.079166
1697.000000	11.042109
1698.000000	11.006749
1699.000000	10.973220
1700.000000	10.941531
1701.000000	10.910474
1702.000000	10.881360
1703.000000	10.856371
1704.000000	10.832114
1705.000000	10.809163
1706.000000	10.786614
1707.000000	10.765583
1708.000000	10.744543
1709.000000	10.723951
1710.000000	10.704226
1711.000000	10.684111
1712.000000	10.664720
1713.000000	10.644957
1714.000000	10.624323
1715.000000	10.604146
1716.000000	10.583614
1717.000000	10.563863
1718.000000	10.543011
1719.000000	10.520997
1720.000000	10.500351
1721.000000	10.478543
1722.000000	10.456383
1723.000000	10.434443
1724.000000	10.411357
1725.000000	10.387243
1726.000000	10.363017
1727.000000	10.337423
1728.000000	10.311120
1729.000000	10.284180
1730.000000	10.256757
1731.000000	10.229666
1732.000000	10.202903
1733.000000	10.176531
1734.000000	10.150500
1735.000000	10.125489
1736.000000	10.102591
1737.000000	10.080277
1738.000000	10.058609
1739.000000	10.039260
1740.000000	10.021951
1741.000000	10.007043
1742.000000	9.993337
1743.000000	9.982646
1744.000000	9.974423
1745.000000	9.967537
1746.000000	9.963206
1747.000000	9.961291
1748.000000	9.961849
1749.000000	9.965329
1750.000000	9.971126
1751.000000	9.979554
1752.000000	9.989949
1753.000000	10.003569
1754.000000	10.019583
1755.000000	10.037014
1756.000000	10.055683
1757.000000	10.076763
1758.000000	10.097909
1759.000000	10.119251
1760.000000	10.141109
1761.000000	10.162057
1762.000000	10.182320
1763.000000	10.202689
1764.000000	10.222340
1765.000000	10.241220
1766.000000	10.259789
1767.000000	10.277034
1768.000000	10.293643
1769.000000	10.310563
1770.000000	10.326751
1771.000000	10.342691
1772.000000	10.358494
1773.000000	10.373843
1774.000000	10.388591
1775.000000	10.403046
1776.000000	10.416983
1777.000000	10.430489
1778.000000	10.442849
1779.000000	10.454980
1780.000000	10.467086
1781.000000	10.478383
1782.000000	10.488880
1783.000000	10.499160
1784.000000	10.508669
1785.000000	10.518266
1786.000000	10.528266
1787.000000	10.538623
1788.000000	10.548380
1789.000000	10.558437
1790.000000	10.568274
1791.000000	10.577931
1792.000000	10.587123
1793.000000	10.596769
1794.000000	10.606509
1795.000000	10.616263
1796.000000	10.626809
1797.000000	10.637860
1798.000000	10.648011
1799.000000	10.657463
1800.000000	10.667409
1801.000000	10.677306
1802.000000	10.687911
1803.000000	10.698197
1804.000000	10.707591
1805.000000	10.716571
1806.000000	10.725491
1807.000000	10.734826
1808.000000	10.743906
1809.000000	10.751534
1810.000000	10.757566
1811.000000	10.763626
1812.000000	10.770340
1813.000000	10.777006
1814.000000	10.782349
1815.000000	10.786903
1816.000000	10.791783
1817.000000	10.796340
1818.000000	10.798931
1819.000000	10.800746
1820.000000	10.803780
1821.000000	10.808863
1822.000000	10.814946
1823.000000	10.820694
1824.000000	10.824000
1825.000000	10.825740
1826.000000	10.828103
1827.000000	10.830657
1828.000000	10.833229
1829.000000	10.836254
1830.000000	10.839766
1831.000000	10.843874
1832.000000	10.847626
1833.000000	10.850249
1834.000000	10.852029
1835.000000	10.853569
1836.000000	10.855394
1837.000000	10.858166
1838.000000	10.861983
1839.000000	10.865820
1840.000000	10.870386
1841.000000	10.876597
1842.000000	10.884606
1843.000000	10.892103
1844.000000	10.897303
1845.000000	10.899549
1846.000000	10.899709
1847.000000	10.901611
1848.000000	10.908309
1849.000000	10.918151
1850.000000	10.926206
1851.000000	10.930523
1852.000000	10.933409
1853.000000	10.938309
1854.000000	10.944714
1855.000000	10.949883
1856.000000	10.952117
1857.000000	10.951537
1858.000000	10.950729
1859.000000	10.952937
1860.000000	10.957426
1861.000000	10.961660
1862.000000	10.964880
1863.000000	10.965617
1864.000000	10.962523
1865.000000	10.956069
1866.000000	10.945860
1867.000000	10.933789
1868.000000	10.921340
1869.000000	10.909023
1870.000000	10.896709
1871.000000	10.883800
1872.000000	10.868626
1873.000000	10.852320
1874.000000	10.835000
1875.000000	10.814829
1876.000000	10.790431
1877.000000	10.760914
1878.000000	10.727783
1879.000000	10.694371
1880.000000	10.660534
1881.000000	10.623151
1882.000000	10.578934
1883.000000	10.526220
1884.000000	10.467660
1885.000000	10.407337
1886.000000	10.345577
1887.000000	10.280894
1888.000000	10.210263
1889.000000	10.132617
1890.000000	10.049746
1891.000000	9.962769
1892.000000	9.872446
1893.000000	9.778066
1894.000000	9.677429
1895.000000	9.570200
1896.000000	9.456549
1897.000000	9.338066
1898.000000	9.216566
1899.000000	9.093774
1900.000000	8.969703
1901.000000	8.843823
1902.000000	8.714717
1903.000000	8.583269
1904.000000	8.449071
1905.000000	8.311917
1906.000000	8.171917
1907.000000	8.028811
1908.000000	7.883257
1909.000000	7.735440
1910.000000	7.586683
1911.000000	7.437580
1912.000000	7.288814
1913.000000	7.142197
1914.000000	6.997886
1915.000000	6.856354
1916.000000	6.718031
1917.000000	6.581600
1918.000000	6.446680
1919.000000	6.313440
1920.000000	6.182994
1921.000000	6.056974
1922.000000	5.935000
1923.000000	5.818329
1924.000000	5.706411
1925.000000	5.598400
1926.000000	5.494603
1927.000000	5.395637
1928.000000	5.300829
1929.000000	5.211826
1930.000000	5.129160
1931.000000	5.052294
1932.000000	4.980869
1933.000000	4.913889
1934.000000	4.851251
1935.000000	4.792769
1936.000000	4.738923
1937.000000	4.690443
1938.000000	4.645931
1939.000000	4.606497
1940.000000	4.569637
1941.000000	4.535754
1942.000000	4.506574
1943.000000	4.479929
1944.000000	4.457097
1945.000000	4.438034
1946.000000	4.422040
1947.000000	4.408551
1948.000000	4.397677
1949.000000	4.388017
1950.000000	4.380857
1951.000000	4.375883
1952.000000	4.373994
1953.000000	4.374466
1954.000000	4.377354
1955.000000	4.381840
1956.000000	4.386834
1957.000000	4.393111
1958.000000	4.400760
1959.000000	4.410677
1960.000000	4.422949
1961.000000	4.435789
1962.000000	4.449211
1963.000000	4.464769
1964.000000	4.480743
1965.000000	4.497214
1966.000000	4.513960
1967.000000	4.531854
1968.000000	4.551049
1969.000000	4.571131
1970.000000	4.591009
1971.000000	4.611717
1972.000000	4.633249
1973.000000	4.655254
1974.000000	4.676909
1975.000000	4.699874
1976.000000	4.722840
1977.000000	4.744769
1978.000000	4.767923
1979.000000	4.791737
1980.000000	4.815886
1981.000000	4.839943
1982.000000	4.864277
1983.000000	4.888137
1984.000000	4.912443
1985.000000	4.935769
1986.000000	4.960080
1987.000000	4.984391
1988.000000	5.008554
1989.000000	5.033269
1990.000000	5.057443
1991.000000	5.082071
1992.000000	5.106400
1993.000000	5.129980
1994.000000	5.154200
1995.000000	5.177317
1996.000000	5.201683
1997.000000	5.225520
1998.000000	5.248500
1999.000000	5.271020
2000.000000	5.292446
2001.000000	5.314843
2002.000000	5.336729
2003.000000	5.358434
2004.000000	5.379540
2005.000000	5.400683
2006.000000	5.421180
2007.000000	5.440257
2008.000000	5.458949
2009.000000	5.476740
2010.000000	5.493134
2011.000000	5.508591
2012.000000	5.524700
2013.000000	5.538937
2014.000000	5.551751
2015.000000	5.562974
2016.000000	5.573611
2017.000000	5.582357
2018.000000	5.589889
2019.000000	5.596483
2020.000000	5.602903
2021.000000	5.606460
2022.000000	5.608106
2023.000000	5.609171
2024.000000	5.608060
2025.000000	5.605969
2026.000000	5.601463
2027.000000	5.595394
2028.000000	5.588366
2029.000000	5.579680
2030.000000	5.569706
2031.000000	5.557057
2032.000000	5.543186
2033.000000	5.527983
2034.000000	5.511331
2035.000000	5.493629
2036.000000	5.473997
2037.000000	5.452666
2038.000000	5.429591
2039.000000	5.404814
2040.000000	5.378677
2041.000000	5.351371
2042.000000	5.322843
2043.000000	5.292891
2044.000000	5.262023
2045.000000	5.230249
2046.000000	5.197677
2047.000000	5.163594
2048.000000	5.129166
2049.000000	5.094131
2050.000000	5.058977
2051.000000	5.023383
2052.000000	4.988751
2053.000000	4.954374
2054.000000	4.920217
2055.000000	4.886149
2056.000000	4.853917
2057.000000	4.823311
2058.000000	4.793591
2059.000000	4.764789
2060.000000	4.737440
2061.000000	4.712520
2062.000000	4.689543
2063.000000	4.668343
2064.000000	4.648969
2065.000000	4.631474
2066.000000	4.615914
2067.000000	4.602243
2068.000000	4.590326
2069.000000	4.580820
2070.000000	4.572951
2071.000000	4.567180
2072.000000	4.563526
2073.000000	4.561734
2074.000000	4.562040
2075.000000	4.564271
2076.000000	4.567671
2077.000000	4.573291
2078.000000	4.580926
2079.000000	4.589731
2080.000000	4.599774
2081.000000	4.610926
2082.000000	4.623149
2083.000000	4.636777
2084.000000	4.651466
2085.000000	4.667254
2086.000000	4.683309
2087.000000	4.698889
2088.000000	4.714383
2089.000000	4.729840
2090.000000	4.745360
2091.000000	4.760266
2092.000000	4.774217
2093.000000	4.787643
2094.000000	4.800509
2095.000000	4.812531
2096.000000	4.823634
2097.000000	4.833589
2098.000000	4.842437
2099.000000	4.849794
2100.000000	4.856180
2101.000000	4.861831
2102.000000	4.866483
2103.000000	4.869763
2104.000000	4.872506
2105.000000	4.875206
2106.000000	4.876546
2107.000000	4.876563
2108.000000	4.875911
2109.000000	4.874154
2110.000000	4.871543
2111.000000	4.868917
2112.000000	4.865323
2113.000000	4.860731
2114.000000	4.855823
2115.000000	4.850354
2116.000000	4.844497
2117.000000	4.838794
2118.000000	4.832626
2119.000000	4.825709
2120.000000	4.818160
2121.000000	4.810254
2122.000000	4.802477
2123.000000	4.794886
2124.000000	4.786920
2125.000000	4.778394
2126.000000	4.769211
2127.000000	4.759983
2128.000000	4.750329
2129.000000	4.739971
2130.000000	4.729157
2131.000000	4.717963
2132.000000	4.706103
2133.000000	4.694057
2134.000000	4.681883
2135.000000	4.669317
2136.000000	4.655889
2137.000000	4.641969
2138.000000	4.627497
2139.000000	4.611766
2140.000000	4.594934
2141.000000	4.577951
2142.000000	4.560314
2143.000000	4.541680
2144.000000	4.522734
2145.000000	4.502889
2146.000000	4.482020
2147.000000	4.460723
2148.000000	4.438914
2149.000000	4.416443
2150.000000	4.394077
2151.000000	4.371134
2152.000000	4.347169
2153.000000	4.322469
2154.000000	4.298091
2155.000000	4.273434
2156.000000	4.248543
2157.000000	4.223946
2158.000000	4.199086
2159.000000	4.174654
2160.000000	4.150474
2161.000000	4.126386
2162.000000	4.102420
2163.000000	4.078869
2164.000000	4.055417
2165.000000	4.032309
2166.000000	4.009314
2167.000000	3.987251
2168.000000	3.965386
2169.000000	3.943814
2170.000000	3.922443
2171.000000	3.901786
2172.000000	3.881514
2173.000000	3.862280
2174.000000	3.843317
2175.000000	3.825037
2176.000000	3.807286
2177.000000	3.790537
2178.000000	3.774749
2179.000000	3.759406
2180.000000	3.745271
2181.000000	3.731603
2182.000000	3.718154
2183.000000	3.705557
2184.000000	3.693040
2185.000000	3.680826
2186.000000	3.669537
2187.000000	3.658346
2188.000000	3.647571
2189.000000	3.635526
2190.000000	3.622960
2191.000000	3.611057
2192.000000	3.598140
2193.000000	3.584543
2194.000000	3.570469
2195.000000	3.555334
2196.000000	3.539597
2197.000000	3.523071
2198.000000	3.505577
2199.000000	3.487214
2200.000000	3.468177
2201.000000	3.449011
2202.000000	3.429403
2203.000000	3.408234
2204.000000	3.385897
2205.000000	3.364157
2206.000000	3.342409
2207.000000	3.320423
2208.000000	3.297937
2209.000000	3.275960
2210.000000	3.254914
2211.000000	3.234140
2212.000000	3.213580
2213.000000	3.193534
2214.000000	3.174040
2215.000000	3.155740
2216.000000	3.138300
2217.000000	3.122540
2218.000000	3.108097
2219.000000	3.094620
2220.000000	3.081591
2221.000000	3.070063
2222.000000	3.059874
2223.000000	3.051474
2224.000000	3.044849
2225.000000	3.040091
2226.000000	3.035969
2227.000000	3.034229
2228.000000	3.033640
2229.000000	3.034317
2230.000000	3.036657
2231.000000	3.040777
2232.000000	3.045480
2233.000000	3.050991
2234.000000	3.058663
2235.000000	3.067571
2236.000000	3.077271
2237.000000	3.086371
2238.000000	3.097757
2239.000000	3.109117
2240.000000	3.119929
2241.000000	3.130931
2242.000000	3.142283
2243.000000	3.152934
2244.000000	3.163223
2245.000000	3.171551
2246.000000	3.179814
2247.000000	3.187677
2248.000000	3.193480
2249.000000	3.198697
2250.000000	3.201649
2251.000000	3.203897
2252.000000	3.203446
2253.000000	3.201851
2254.000000	3.198503
2255.000000	3.194669
2256.000000	3.188874
2257.000000	3.181969
2258.000000	3.173191
2259.000000	3.163971
2260.000000	3.153820
2261.000000	3.142903
2262.000000	3.129897
2263.000000	3.117300
2264.000000	3.103991
2265.000000	3.090057
2266.000000	3.076080
2267.000000	3.062209
2268.000000	3.048969
2269.000000	3.035383
2270.000000	3.021097
2271.000000	3.006623
2272.000000	2.994163
2273.000000	2.981277
2274.000000	2.969817
2275.000000	2.959166
2276.000000	2.948049
2277.000000	2.937600
2278.000000	2.928546
2279.000000	2.919723
2280.000000	2.912289
2281.000000	2.905289
2282.000000	2.898037
2283.000000	2.891874
2284.000000	2.886243
2285.000000	2.881914
2286.000000	2.878049
2287.000000	2.875454
2288.000000	2.872706
2289.000000	2.871511
2290.000000	2.870260
2291.000000	2.870043
2292.000000	2.870057
2293.000000	2.870257
2294.000000	2.870829
2295.000000	2.871489
2296.000000	2.872657
2297.000000	2.875180
2298.000000	2.877146
2299.000000	2.879294
2300.000000	2.882149
2301.000000	2.884123
2302.000000	2.886683
2303.000000	2.889289
2304.000000	2.892337
2305.000000	2.896146
2306.000000	2.900126
2307.000000	2.903211
2308.000000	2.906531
2309.000000	2.909631
2310.000000	2.912686
2311.000000	2.916603
2312.000000	2.920166
2313.000000	2.923731
2314.000000	2.928031
2315.000000	2.932543
2316.000000	2.936171
2317.000000	2.940480
2318.000000	2.945974
2319.000000	2.951117
2320.000000	2.955854
2321.000000	2.959817
2322.000000	2.964114
2323.000000	2.968409
2324.000000	2.972591
2325.000000	2.976691
2326.000000	2.980477
2327.000000	2.984526
2328.000000	2.989100
2329.000000	2.992594
2330.000000	2.996269
2331.000000	2.999646
2332.000000	3.002283
2333.000000	3.005294
2334.000000	3.008117
2335.000000	3.010840
2336.000000	3.014031
2337.000000	3.017263
2338.000000	3.020209
2339.000000	3.022943
2340.000000	3.025563
2341.000000	3.028080
2342.000000	3.030934
2343.000000	3.033623
2344.000000	3.036423
2345.000000	3.038740
2346.000000	3.040537
2347.000000	3.042971
2348.000000	3.045869
2349.000000	3.048011
2350.000000	3.049506
2351.000000	3.051594
2352.000000	3.053880
2353.000000	3.055651
2354.000000	3.057594
2355.000000	3.060034
2356.000000	3.063317
2357.000000	3.066477
2358.000000	3.069826
2359.000000	3.073340
2360.000000	3.076774
2361.000000	3.080206
2362.000000	3.083871
2363.000000	3.087574
2364.000000	3.092263
2365.000000	3.096594
2366.000000	3.101066
2367.000000	3.105891
2368.000000	3.110543
2369.000000	3.115311
2370.000000	3.119940
2371.000000	3.124557
2372.000000	3.129054
2373.000000	3.133494
2374.000000	3.137611
2375.000000	3.141626
2376.000000	3.145449
2377.000000	3.149143
2378.000000	3.152674
2379.000000	3.155700
2380.000000	3.159389
2381.000000	3.163454
2382.000000	3.166446
2383.000000	3.169163
2384.000000	3.171937
2385.000000	3.174466
2386.000000	3.176951
2387.000000	3.178851
2388.000000	3.180226
2389.000000	3.181183
2390.000000	3.181757
2391.000000	3.181906
2392.000000	3.182111
2393.000000	3.182477
2394.000000	3.182620
2395.000000	3.182917
2396.000000	3.182700
2397.000000	3.182289
2398.000000	3.181811
2399.000000	3.180857
2400.000000	3.179611
2401.000000	3.178657
2402.000000	3.177271
2403.000000	3.175657
2404.000000	3.173911
2405.000000	3.171809
2406.000000	3.169329
2407.000000	3.166346
2408.000000	3.162743
2409.000000	3.158454
2410.000000	3.153614
2411.000000	3.148440
2412.000000	3.142866
2413.000000	3.137177
2414.000000	3.131026
2415.000000	3.123914
2416.000000	3.116294
2417.000000	3.109046
2418.000000	3.100471
2419.000000	3.091674
2420.000000	3.082806
2421.000000	3.073014
2422.000000	3.062566
2423.000000	3.052034
2424.000000	3.041266
2425.000000	3.029757
2426.000000	3.017611
2427.000000	3.004537
2428.000000	2.990691
2429.000000	2.976697
2430.000000	2.961806
2431.000000	2.946457
2432.000000	2.930374
2433.000000	2.913586
2434.000000	2.896523
2435.000000	2.879503
2436.000000	2.861494
2437.000000	2.843317
2438.000000	2.824646
2439.000000	2.805029
2440.000000	2.785283
2441.000000	2.764754
2442.000000	2.744283
2443.000000	2.723400
2444.000000	2.702431
2445.000000	2.681403
2446.000000	2.660734
2447.000000	2.639529
2448.000000	2.617523
2449.000000	2.595426
2450.000000	2.573794
2451.000000	2.551780
2452.000000	2.529251
2453.000000	2.506797
2454.000000	2.484831
2455.000000	2.462986
2456.000000	2.441486
2457.000000	2.420149
2458.000000	2.398660
2459.000000	2.377606
2460.000000	2.357146
2461.000000	2.336537
2462.000000	2.316903
2463.000000	2.298149
2464.000000	2.278423
2465.000000	2.260386
2466.000000	2.241874
2467.000000	2.223600
2468.000000	2.205037
2469.000000	2.188260
2470.000000	2.171346
2471.000000	2.155074
2472.000000	2.140066
2473.000000	2.125254
2474.000000	2.110820
2475.000000	2.097160
2476.000000	2.084706
2477.000000	2.072137
2478.000000	2.059483
2479.000000	2.047420
2480.000000	2.036911
2481.000000	2.025003
2482.000000	2.015294
2483.000000	2.006089
2484.000000	1.996963
2485.000000	1.988380
2486.000000	1.980083
2487.000000	1.973006
2488.000000	1.968014
2489.000000	1.961426
2490.000000	1.956337
2491.000000	1.951431
2492.000000	1.947189
2493.000000	1.942723
2494.000000	1.940189
2495.000000	1.937966
2496.000000	1.936443
2497.000000	1.935794
2498.000000	1.936251
2499.000000	1.938351
2500.000000	1.936971
