PE UV       SUBTECH     SPECTRUM    ASCII       PEDS        4.00        
   -1
ANGSOL0007-1.Sample.ASC
24/03/07
16:13:12.00
24/03/07
16:13:12.00
Vinicio Soto Monge
Chrysina auripes. (en otra etiqueta Plusiotis cholchihoilli). Mexico, Oaxaca, b Esperanza. 1-VII-1992. J. Blackaller col.
250,000000
1
Lambda 1050
1050L1511233
PerkinElmer UV WinLab 6.3.2.0749 / 2.02.05 Lambda 900 UV/VIS/NIR, Aug  7 2015 09:38:08

0
0
3350/servo 860,8/2
0
0
UV/VIS
1
1
1
DoubleDePol,CommonBeamDepol,RBeamAtt,SBeamAtt,60mm sphere, WB InGaAs Detector
0
0
0
0
Program
Program
3350/servo 860,8/2
3350/0,2 860,8/0,2
3350/0,2 860,8/0,2
0
15.00
 
 
 
0
 
860,8
319,2
860,8
Front
100
on
S:100 R:100
0
0
0
0
 
0
 
 
 
0
 
 
0
0
0
0
0
 
 
 
 
0
0


0
0
#HDR
-1
-1
#GR
nm
%R
1.0
0.0
2500,000000
-1,000000
2251
8
19,667200
2,645400
#DATA
250.000000	nan
251.000000	nan
252.000000	nan
253.000000	nan
254.000000	nan
255.000000	nan
256.000000	nan
257.000000	nan
258.000000	nan
259.000000	nan
260.000000	nan
261.000000	nan
262.000000	nan
263.000000	nan
264.000000	nan
265.000000	nan
266.000000	nan
267.000000	nan
268.000000	nan
269.000000	nan
270.000000	nan
271.000000	nan
272.000000	nan
273.000000	nan
274.000000	nan
275.000000	nan
276.000000	nan
277.000000	nan
278.000000	nan
279.000000	nan
280.000000	nan
281.000000	nan
282.000000	nan
283.000000	nan
284.000000	3.181983
285.000000	3.180119
286.000000	3.178638
287.000000	3.178967
288.000000	3.179118
289.000000	3.178338
290.000000	3.176130
291.000000	3.175897
292.000000	3.174349
293.000000	3.172822
294.000000	3.171933
295.000000	3.169167
296.000000	3.165964
297.000000	3.165998
298.000000	3.163914
299.000000	3.163570
300.000000	3.162279
301.000000	3.161861
302.000000	3.161672
303.000000	3.161384
304.000000	3.159943
305.000000	3.158503
306.000000	3.159894
307.000000	3.160300
308.000000	3.161204
309.000000	3.161532
310.000000	3.161638
311.000000	3.161922
312.000000	3.163843
313.000000	3.164134
314.000000	3.168368
315.000000	3.171338
316.000000	3.172078
317.000000	3.184256
318.000000	3.192170
319.000000	3.204772
320.000000	3.221126
321.000000	3.236299
322.000000	3.247269
323.000000	3.258305
324.000000	3.268017
325.000000	3.285263
326.000000	3.292659
327.000000	3.305658
328.000000	3.318806
329.000000	3.330519
330.000000	3.343593
331.000000	3.355384
332.000000	3.364363
333.000000	3.373434
334.000000	3.380409
335.000000	3.389701
336.000000	3.401136
337.000000	3.407587
338.000000	3.416721
339.000000	3.428521
340.000000	3.439950
341.000000	3.447811
342.000000	3.456780
343.000000	3.465325
344.000000	3.473456
345.000000	3.485677
346.000000	3.494857
347.000000	3.503725
348.000000	3.513651
349.000000	3.520078
350.000000	3.526632
351.000000	3.535205
352.000000	3.535611
353.000000	3.536543
354.000000	3.533944
355.000000	3.528651
356.000000	3.524690
357.000000	3.522531
358.000000	3.521329
359.000000	3.523033
360.000000	3.516482
361.000000	3.514732
362.000000	3.510684
363.000000	3.505441
364.000000	3.504013
365.000000	3.501646
366.000000	3.501327
367.000000	3.500652
368.000000	3.501879
369.000000	3.505332
370.000000	3.508408
371.000000	3.505986
372.000000	3.505726
373.000000	3.504632
374.000000	3.501396
375.000000	3.500110
376.000000	3.500414
377.000000	3.491779
378.000000	3.483035
379.000000	3.475398
380.000000	3.463761
381.000000	3.455805
382.000000	3.447328
383.000000	3.438724
384.000000	3.431454
385.000000	3.426195
386.000000	3.419412
387.000000	3.410505
388.000000	3.406311
389.000000	3.399823
390.000000	3.393145
391.000000	3.386793
392.000000	3.382252
393.000000	3.377067
394.000000	3.371867
395.000000	3.368869
396.000000	3.368603
397.000000	3.367122
398.000000	3.366218
399.000000	3.364483
400.000000	3.362730
401.000000	3.361160
402.000000	3.360677
403.000000	3.360401
404.000000	3.359491
405.000000	3.358410
406.000000	3.359726
407.000000	3.363433
408.000000	3.367590
409.000000	3.371294
410.000000	3.373753
411.000000	3.378086
412.000000	3.391476
413.000000	3.405048
414.000000	3.418960
415.000000	3.433808
416.000000	3.448585
417.000000	3.463408
418.000000	3.478619
419.000000	3.494136
420.000000	3.509898
421.000000	3.526375
422.000000	3.542923
423.000000	3.559667
424.000000	3.576835
425.000000	3.594284
426.000000	3.611827
427.000000	3.629527
428.000000	3.647435
429.000000	3.665728
430.000000	3.684438
431.000000	3.703027
432.000000	3.722146
433.000000	3.741346
434.000000	3.760447
435.000000	3.779959
436.000000	3.799893
437.000000	3.819972
438.000000	3.840314
439.000000	3.861022
440.000000	3.881978
441.000000	3.903185
442.000000	3.924558
443.000000	3.945629
444.000000	3.966916
445.000000	3.988380
446.000000	4.010060
447.000000	4.031570
448.000000	4.053012
449.000000	4.074975
450.000000	4.096912
451.000000	4.118679
452.000000	4.140214
453.000000	4.161762
454.000000	4.183458
455.000000	4.205051
456.000000	4.226719
457.000000	4.248270
458.000000	4.269972
459.000000	4.291857
460.000000	4.313376
461.000000	4.334948
462.000000	4.356908
463.000000	4.378749
464.000000	4.400303
465.000000	4.421714
466.000000	4.443611
467.000000	4.465641
468.000000	4.487684
469.000000	4.509990
470.000000	4.532132
471.000000	4.554305
472.000000	4.576633
473.000000	4.598890
474.000000	4.621168
475.000000	4.643418
476.000000	4.665768
477.000000	4.688207
478.000000	4.711068
479.000000	4.734542
480.000000	4.758393
481.000000	4.782592
482.000000	4.807314
483.000000	4.832661
484.000000	4.858418
485.000000	4.884837
486.000000	4.912133
487.000000	4.940593
488.000000	4.969880
489.000000	5.000168
490.000000	5.031409
491.000000	5.063308
492.000000	5.096296
493.000000	5.130294
494.000000	5.165259
495.000000	5.201638
496.000000	5.239353
497.000000	5.277960
498.000000	5.317895
499.000000	5.359156
500.000000	5.401827
501.000000	5.445488
502.000000	5.490729
503.000000	5.537274
504.000000	5.585098
505.000000	5.634601
506.000000	5.685361
507.000000	5.737304
508.000000	5.790443
509.000000	5.844731
510.000000	5.900023
511.000000	5.956720
512.000000	6.014576
513.000000	6.073110
514.000000	6.132533
515.000000	6.192954
516.000000	6.254046
517.000000	6.316114
518.000000	6.379031
519.000000	6.442444
520.000000	6.506426
521.000000	6.570941
522.000000	6.635985
523.000000	6.701724
524.000000	6.768081
525.000000	6.834737
526.000000	6.901519
527.000000	6.968375
528.000000	7.035578
529.000000	7.102478
530.000000	7.169161
531.000000	7.235500
532.000000	7.301582
533.000000	7.366927
534.000000	7.431904
535.000000	7.495809
536.000000	7.558710
537.000000	7.620007
538.000000	7.679402
539.000000	7.737174
540.000000	7.793293
541.000000	7.847553
542.000000	7.899552
543.000000	7.949265
544.000000	7.997058
545.000000	8.042618
546.000000	8.085187
547.000000	8.124710
548.000000	8.162013
549.000000	8.196373
550.000000	8.227692
551.000000	8.256270
552.000000	8.281593
553.000000	8.303881
554.000000	8.322461
555.000000	8.337705
556.000000	8.349698
557.000000	8.357943
558.000000	8.362300
559.000000	8.362542
560.000000	8.353157
561.000000	8.339545
562.000000	8.322114
563.000000	8.301059
564.000000	8.276954
565.000000	8.249391
566.000000	8.218199
567.000000	8.184108
568.000000	8.147072
569.000000	8.106780
570.000000	8.063583
571.000000	8.017788
572.000000	7.969673
573.000000	7.919427
574.000000	7.867285
575.000000	7.813152
576.000000	7.757263
577.000000	7.699924
578.000000	7.641746
579.000000	7.582339
580.000000	7.522095
581.000000	7.461253
582.000000	7.400634
583.000000	7.339511
584.000000	7.278217
585.000000	7.216824
586.000000	7.155323
587.000000	7.094385
588.000000	7.033237
589.000000	6.973247
590.000000	6.913499
591.000000	6.854271
592.000000	6.796300
593.000000	6.739138
594.000000	6.683047
595.000000	6.633662
596.000000	6.586860
597.000000	6.541201
598.000000	6.496797
599.000000	6.453405
600.000000	6.411255
601.000000	6.371167
602.000000	6.332183
603.000000	6.294601
604.000000	6.258271
605.000000	6.224137
606.000000	6.191594
607.000000	6.160607
608.000000	6.131332
609.000000	6.103296
610.000000	6.077025
611.000000	6.052093
612.000000	6.028907
613.000000	6.006917
614.000000	5.986447
615.000000	5.966857
616.000000	5.948999
617.000000	5.931800
618.000000	5.915921
619.000000	5.901122
620.000000	5.887408
621.000000	5.874833
622.000000	5.862887
623.000000	5.852298
624.000000	5.842681
625.000000	5.834371
626.000000	5.826811
627.000000	5.820114
628.000000	5.814806
629.000000	5.810380
630.000000	5.807193
631.000000	5.804666
632.000000	5.803681
633.000000	5.803396
634.000000	5.804604
635.000000	5.807119
636.000000	5.809956
637.000000	5.814394
638.000000	5.820164
639.000000	5.827467
640.000000	5.835446
641.000000	5.844827
642.000000	5.855627
643.000000	5.867839
644.000000	5.881418
645.000000	5.896315
646.000000	5.912393
647.000000	5.929932
648.000000	5.949039
649.000000	5.968809
650.000000	5.990037
651.000000	6.011978
652.000000	6.035653
653.000000	6.060740
654.000000	6.086831
655.000000	6.114616
656.000000	6.143696
657.000000	6.174061
658.000000	6.205782
659.000000	6.238347
660.000000	6.271809
661.000000	6.307396
662.000000	6.343968
663.000000	6.381905
664.000000	6.420980
665.000000	6.461166
666.000000	6.501870
667.000000	6.543586
668.000000	6.586170
669.000000	6.629580
670.000000	6.673725
671.000000	6.719492
672.000000	6.765093
673.000000	6.811331
674.000000	6.858009
675.000000	6.905368
676.000000	6.952886
677.000000	7.000688
678.000000	7.049122
679.000000	7.098272
680.000000	7.147409
681.000000	7.197315
682.000000	7.246842
683.000000	7.297101
684.000000	7.347836
685.000000	7.399089
686.000000	7.450738
687.000000	7.503056
688.000000	7.555582
689.000000	7.608516
690.000000	7.661661
691.000000	7.714803
692.000000	7.768651
693.000000	7.823196
694.000000	7.878014
695.000000	7.933504
696.000000	7.988987
697.000000	8.044508
698.000000	8.099914
699.000000	8.155499
700.000000	8.212064
701.000000	8.269610
702.000000	8.327193
703.000000	8.385796
704.000000	8.444550
705.000000	8.502911
706.000000	8.560763
707.000000	8.619267
708.000000	8.678377
709.000000	8.737732
710.000000	8.797019
711.000000	8.856448
712.000000	8.916026
713.000000	8.975161
714.000000	9.033887
715.000000	9.092580
716.000000	9.151228
717.000000	9.210438
718.000000	9.269164
719.000000	9.328110
720.000000	9.387239
721.000000	9.446501
722.000000	9.504503
723.000000	9.562492
724.000000	9.620797
725.000000	9.679028
726.000000	9.737447
727.000000	9.794941
728.000000	9.851635
729.000000	9.908392
730.000000	9.965241
731.000000	10.021620
732.000000	10.078361
733.000000	10.134913
734.000000	10.191108
735.000000	10.246496
736.000000	10.301422
737.000000	10.355697
738.000000	10.409242
739.000000	10.462347
740.000000	10.515523
741.000000	10.568587
742.000000	10.621367
743.000000	10.673041
744.000000	10.723978
745.000000	10.775069
746.000000	10.825557
747.000000	10.874945
748.000000	10.924807
749.000000	10.974313
750.000000	11.023156
751.000000	11.071624
752.000000	11.119340
753.000000	11.166365
754.000000	11.212653
755.000000	11.258250
756.000000	11.302834
757.000000	11.347075
758.000000	11.390519
759.000000	11.433165
760.000000	11.475876
761.000000	11.517933
762.000000	11.559132
763.000000	11.599987
764.000000	11.640059
765.000000	11.678963
766.000000	11.718099
767.000000	11.755894
768.000000	11.791413
769.000000	11.827400
770.000000	11.863287
771.000000	11.897778
772.000000	11.931079
773.000000	11.963851
774.000000	11.996055
775.000000	12.027957
776.000000	12.059341
777.000000	12.090842
778.000000	12.122233
779.000000	12.151715
780.000000	12.180349
781.000000	12.209531
782.000000	12.238211
783.000000	12.265383
784.000000	12.292164
785.000000	12.318831
786.000000	12.344179
787.000000	12.369000
788.000000	12.393468
789.000000	12.417363
790.000000	12.440227
791.000000	12.462526
792.000000	12.484703
793.000000	12.507117
794.000000	12.529652
795.000000	12.549261
796.000000	12.569365
797.000000	12.589345
798.000000	12.608133
799.000000	12.627493
800.000000	12.647399
801.000000	12.665289
802.000000	12.682596
803.000000	12.702489
804.000000	12.722339
805.000000	12.740573
806.000000	12.757613
807.000000	12.775345
808.000000	12.795647
809.000000	12.814119
810.000000	12.831832
811.000000	12.849551
812.000000	12.866450
813.000000	12.882413
814.000000	12.898794
815.000000	12.914336
816.000000	12.927669
817.000000	12.943477
818.000000	12.960670
819.000000	12.977249
820.000000	12.992707
821.000000	13.008435
822.000000	13.025253
823.000000	13.041724
824.000000	13.057383
825.000000	13.072467
826.000000	13.087408
827.000000	13.103727
828.000000	13.119195
829.000000	13.134575
830.000000	13.151827
831.000000	13.166690
832.000000	13.180268
833.000000	13.196105
834.000000	13.211529
835.000000	13.224878
836.000000	13.236786
837.000000	13.254183
838.000000	13.269735
839.000000	13.280513
840.000000	13.291935
841.000000	13.306269
842.000000	13.320222
843.000000	13.328501
844.000000	13.340757
845.000000	13.353025
846.000000	13.361982
847.000000	13.371555
848.000000	13.384579
849.000000	13.392449
850.000000	13.398452
851.000000	13.404185
852.000000	13.408428
853.000000	13.410360
854.000000	13.411968
855.000000	13.410354
856.000000	13.411283
857.000000	13.409013
858.000000	13.439988
859.000000	13.445608
860.000000	13.453632
861.000000	13.464036
862.000000	13.474063
863.000000	13.485045
864.000000	13.496198
865.000000	13.508120
866.000000	13.522228
867.000000	13.538445
868.000000	13.553274
869.000000	13.569031
870.000000	13.586413
871.000000	13.606743
872.000000	13.622242
873.000000	13.639373
874.000000	13.660552
875.000000	13.683213
876.000000	13.704098
877.000000	13.727208
878.000000	13.753288
879.000000	13.777218
880.000000	13.801978
881.000000	13.830108
882.000000	13.858414
883.000000	13.883870
884.000000	13.916966
885.000000	13.952712
886.000000	13.990795
887.000000	14.028985
888.000000	14.068653
889.000000	14.108770
890.000000	14.153381
891.000000	14.196270
892.000000	14.241975
893.000000	14.254963
894.000000	14.294697
895.000000	14.333543
896.000000	14.371137
897.000000	14.408300
898.000000	14.444800
899.000000	14.482569
900.000000	14.519474
901.000000	14.554911
902.000000	14.591406
903.000000	14.628200
904.000000	14.665037
905.000000	14.702374
906.000000	14.739371
907.000000	14.776080
908.000000	14.812943
909.000000	14.850731
910.000000	14.887511
911.000000	14.924383
912.000000	14.959926
913.000000	14.996003
914.000000	15.031777
915.000000	15.067837
916.000000	15.102980
917.000000	15.138740
918.000000	15.175031
919.000000	15.210046
920.000000	15.244980
921.000000	15.279083
922.000000	15.311971
923.000000	15.345229
924.000000	15.379300
925.000000	15.412626
926.000000	15.446311
927.000000	15.479243
928.000000	15.511189
929.000000	15.543140
930.000000	15.574994
931.000000	15.606343
932.000000	15.637357
933.000000	15.668420
934.000000	15.697991
935.000000	15.728017
936.000000	15.759737
937.000000	15.790914
938.000000	15.821786
939.000000	15.851491
940.000000	15.879357
941.000000	15.907066
942.000000	15.935574
943.000000	15.962577
944.000000	15.988320
945.000000	16.014503
946.000000	16.041031
947.000000	16.067937
948.000000	16.094003
949.000000	16.119726
950.000000	16.145186
951.000000	16.171480
952.000000	16.195909
953.000000	16.220251
954.000000	16.244511
955.000000	16.268697
956.000000	16.293334
957.000000	16.319157
958.000000	16.344977
959.000000	16.369946
960.000000	16.394903
961.000000	16.418566
962.000000	16.442849
963.000000	16.468426
964.000000	16.493709
965.000000	16.518354
966.000000	16.543220
967.000000	16.568349
968.000000	16.593660
969.000000	16.618077
970.000000	16.641926
971.000000	16.665306
972.000000	16.688457
973.000000	16.710969
974.000000	16.733037
975.000000	16.756851
976.000000	16.781054
977.000000	16.804709
978.000000	16.828911
979.000000	16.852643
980.000000	16.876229
981.000000	16.899334
982.000000	16.921791
983.000000	16.944257
984.000000	16.967383
985.000000	16.990154
986.000000	17.012900
987.000000	17.035969
988.000000	17.058280
989.000000	17.080494
990.000000	17.102866
991.000000	17.124869
992.000000	17.146243
993.000000	17.167054
994.000000	17.188117
995.000000	17.209874
996.000000	17.232206
997.000000	17.253649
998.000000	17.273897
999.000000	17.294094
1000.000000	17.315343
1001.000000	17.336831
1002.000000	17.358120
1003.000000	17.378740
1004.000000	17.399820
1005.000000	17.420954
1006.000000	17.442157
1007.000000	17.462874
1008.000000	17.483714
1009.000000	17.504506
1010.000000	17.524240
1011.000000	17.543506
1012.000000	17.563326
1013.000000	17.583220
1014.000000	17.603523
1015.000000	17.623169
1016.000000	17.643554
1017.000000	17.664157
1018.000000	17.685114
1019.000000	17.705429
1020.000000	17.725097
1021.000000	17.744146
1022.000000	17.763957
1023.000000	17.784609
1024.000000	17.805080
1025.000000	17.825614
1026.000000	17.845891
1027.000000	17.865951
1028.000000	17.885486
1029.000000	17.905297
1030.000000	17.925589
1031.000000	17.945860
1032.000000	17.966320
1033.000000	17.987011
1034.000000	18.008157
1035.000000	18.028863
1036.000000	18.048880
1037.000000	18.068683
1038.000000	18.088929
1039.000000	18.109506
1040.000000	18.129734
1041.000000	18.149491
1042.000000	18.169320
1043.000000	18.189603
1044.000000	18.210451
1045.000000	18.231566
1046.000000	18.252323
1047.000000	18.273043
1048.000000	18.293466
1049.000000	18.313377
1050.000000	18.333766
1051.000000	18.354280
1052.000000	18.374257
1053.000000	18.393457
1054.000000	18.412691
1055.000000	18.432831
1056.000000	18.453563
1057.000000	18.474160
1058.000000	18.494454
1059.000000	18.514851
1060.000000	18.534763
1061.000000	18.554611
1062.000000	18.574531
1063.000000	18.595066
1064.000000	18.615617
1065.000000	18.635217
1066.000000	18.654823
1067.000000	18.675169
1068.000000	18.695720
1069.000000	18.715871
1070.000000	18.735163
1071.000000	18.754131
1072.000000	18.772966
1073.000000	18.791757
1074.000000	18.810886
1075.000000	18.830114
1076.000000	18.849566
1077.000000	18.869440
1078.000000	18.888771
1079.000000	18.907683
1080.000000	18.926577
1081.000000	18.945929
1082.000000	18.964794
1083.000000	18.984020
1084.000000	19.003737
1085.000000	19.022109
1086.000000	19.039820
1087.000000	19.057640
1088.000000	19.075994
1089.000000	19.094617
1090.000000	19.112637
1091.000000	19.130034
1092.000000	19.147009
1093.000000	19.164100
1094.000000	19.181374
1095.000000	19.197843
1096.000000	19.214411
1097.000000	19.230974
1098.000000	19.246911
1099.000000	19.261763
1100.000000	19.276800
1101.000000	19.292100
1102.000000	19.306431
1103.000000	19.320669
1104.000000	19.334137
1105.000000	19.348111
1106.000000	19.362160
1107.000000	19.375929
1108.000000	19.389620
1109.000000	19.402797
1110.000000	19.414994
1111.000000	19.426546
1112.000000	19.437363
1113.000000	19.448886
1114.000000	19.459600
1115.000000	19.469617
1116.000000	19.478957
1117.000000	19.488900
1118.000000	19.498169
1119.000000	19.506683
1120.000000	19.515400
1121.000000	19.523794
1122.000000	19.532506
1123.000000	19.541317
1124.000000	19.548846
1125.000000	19.556009
1126.000000	19.562903
1127.000000	19.569249
1128.000000	19.574337
1129.000000	19.578457
1130.000000	19.582874
1131.000000	19.586260
1132.000000	19.588089
1133.000000	19.588057
1134.000000	19.588709
1135.000000	19.589757
1136.000000	19.588863
1137.000000	19.587209
1138.000000	19.584894
1139.000000	19.581889
1140.000000	19.577731
1141.000000	19.573306
1142.000000	19.567914
1143.000000	19.561846
1144.000000	19.554086
1145.000000	19.547371
1146.000000	19.540749
1147.000000	19.532997
1148.000000	19.523940
1149.000000	19.516303
1150.000000	19.507737
1151.000000	19.498511
1152.000000	19.488271
1153.000000	19.477320
1154.000000	19.466877
1155.000000	19.454949
1156.000000	19.442483
1157.000000	19.429100
1158.000000	19.413557
1159.000000	19.397620
1160.000000	19.380437
1161.000000	19.362731
1162.000000	19.343317
1163.000000	19.323371
1164.000000	19.302226
1165.000000	19.280426
1166.000000	19.257683
1167.000000	19.235709
1168.000000	19.213814
1169.000000	19.191323
1170.000000	19.166700
1171.000000	19.142074
1172.000000	19.117197
1173.000000	19.092489
1174.000000	19.067343
1175.000000	19.042840
1176.000000	19.018871
1177.000000	18.994983
1178.000000	18.970851
1179.000000	18.947680
1180.000000	18.923220
1181.000000	18.898909
1182.000000	18.874654
1183.000000	18.851071
1184.000000	18.826954
1185.000000	18.803920
1186.000000	18.781066
1187.000000	18.758617
1188.000000	18.736243
1189.000000	18.714420
1190.000000	18.694123
1191.000000	18.675329
1192.000000	18.657520
1193.000000	18.642089
1194.000000	18.627580
1195.000000	18.614754
1196.000000	18.602737
1197.000000	18.593440
1198.000000	18.585320
1199.000000	18.579294
1200.000000	18.574980
1201.000000	18.572800
1202.000000	18.571374
1203.000000	18.572654
1204.000000	18.574197
1205.000000	18.577469
1206.000000	18.582511
1207.000000	18.588489
1208.000000	18.595340
1209.000000	18.604209
1210.000000	18.612583
1211.000000	18.621974
1212.000000	18.632477
1213.000000	18.643489
1214.000000	18.655320
1215.000000	18.668474
1216.000000	18.681511
1217.000000	18.695589
1218.000000	18.709974
1219.000000	18.724869
1220.000000	18.740191
1221.000000	18.756169
1222.000000	18.772151
1223.000000	18.788943
1224.000000	18.804266
1225.000000	18.819383
1226.000000	18.833429
1227.000000	18.846643
1228.000000	18.858954
1229.000000	18.871631
1230.000000	18.884714
1231.000000	18.897974
1232.000000	18.909971
1233.000000	18.921017
1234.000000	18.931640
1235.000000	18.941583
1236.000000	18.951089
1237.000000	18.960583
1238.000000	18.968917
1239.000000	18.976826
1240.000000	18.984420
1241.000000	18.991977
1242.000000	18.999517
1243.000000	19.006543
1244.000000	19.013197
1245.000000	19.021066
1246.000000	19.027889
1247.000000	19.035023
1248.000000	19.042189
1249.000000	19.049069
1250.000000	19.056234
1251.000000	19.063406
1252.000000	19.070629
1253.000000	19.077977
1254.000000	19.084369
1255.000000	19.091017
1256.000000	19.097334
1257.000000	19.103889
1258.000000	19.110906
1259.000000	19.119546
1260.000000	19.128466
1261.000000	19.137220
1262.000000	19.146017
1263.000000	19.155123
1264.000000	19.164434
1265.000000	19.173060
1266.000000	19.181080
1267.000000	19.189234
1268.000000	19.197737
1269.000000	19.206217
1270.000000	19.215029
1271.000000	19.223591
1272.000000	19.231694
1273.000000	19.239891
1274.000000	19.248349
1275.000000	19.256926
1276.000000	19.264689
1277.000000	19.272600
1278.000000	19.280346
1279.000000	19.287551
1280.000000	19.294297
1281.000000	19.301251
1282.000000	19.307720
1283.000000	19.314177
1284.000000	19.320523
1285.000000	19.326557
1286.000000	19.332577
1287.000000	19.338120
1288.000000	19.343746
1289.000000	19.349731
1290.000000	19.355477
1291.000000	19.361769
1292.000000	19.367714
1293.000000	19.372943
1294.000000	19.377700
1295.000000	19.382983
1296.000000	19.388609
1297.000000	19.394083
1298.000000	19.399429
1299.000000	19.404551
1300.000000	19.409469
1301.000000	19.414820
1302.000000	19.420211
1303.000000	19.426331
1304.000000	19.432451
1305.000000	19.437343
1306.000000	19.442140
1307.000000	19.447180
1308.000000	19.452460
1309.000000	19.457823
1310.000000	19.462486
1311.000000	19.466706
1312.000000	19.470671
1313.000000	19.474803
1314.000000	19.478283
1315.000000	19.480663
1316.000000	19.482063
1317.000000	19.483060
1318.000000	19.483671
1319.000000	19.483503
1320.000000	19.482380
1321.000000	19.480557
1322.000000	19.478129
1323.000000	19.474211
1324.000000	19.469314
1325.000000	19.463631
1326.000000	19.457237
1327.000000	19.450274
1328.000000	19.442074
1329.000000	19.432577
1330.000000	19.421597
1331.000000	19.409514
1332.000000	19.396426
1333.000000	19.382151
1334.000000	19.366797
1335.000000	19.350626
1336.000000	19.333306
1337.000000	19.314837
1338.000000	19.294611
1339.000000	19.273223
1340.000000	19.251600
1341.000000	19.228900
1342.000000	19.204883
1343.000000	19.179126
1344.000000	19.151843
1345.000000	19.123383
1346.000000	19.093171
1347.000000	19.061883
1348.000000	19.028860
1349.000000	18.995006
1350.000000	18.959929
1351.000000	18.923571
1352.000000	18.885663
1353.000000	18.845803
1354.000000	18.805571
1355.000000	18.766449
1356.000000	18.727189
1357.000000	18.687369
1358.000000	18.646677
1359.000000	18.604640
1360.000000	18.561120
1361.000000	18.518869
1362.000000	18.479334
1363.000000	18.439557
1364.000000	18.398523
1365.000000	18.358346
1366.000000	18.317297
1367.000000	18.274974
1368.000000	18.233220
1369.000000	18.189820
1370.000000	18.144117
1371.000000	18.096931
1372.000000	18.048629
1373.000000	17.996889
1374.000000	17.940763
1375.000000	17.880126
1376.000000	17.815891
1377.000000	17.746669
1378.000000	17.673809
1379.000000	17.596486
1380.000000	17.516094
1381.000000	17.435886
1382.000000	17.357166
1383.000000	17.279594
1384.000000	17.202697
1385.000000	17.125620
1386.000000	17.048434
1387.000000	16.971983
1388.000000	16.898811
1389.000000	16.826343
1390.000000	16.750614
1391.000000	16.673949
1392.000000	16.599263
1393.000000	16.525971
1394.000000	16.453046
1395.000000	16.381983
1396.000000	16.312231
1397.000000	16.239086
1398.000000	16.162846
1399.000000	16.085691
1400.000000	16.010186
1401.000000	15.938469
1402.000000	15.866637
1403.000000	15.789989
1404.000000	15.713329
1405.000000	15.639511
1406.000000	15.566314
1407.000000	15.492537
1408.000000	15.421329
1409.000000	15.353069
1410.000000	15.288497
1411.000000	15.225697
1412.000000	15.165291
1413.000000	15.107234
1414.000000	15.053914
1415.000000	15.004514
1416.000000	14.953966
1417.000000	14.899109
1418.000000	14.842369
1419.000000	14.786437
1420.000000	14.732226
1421.000000	14.676326
1422.000000	14.619160
1423.000000	14.559189
1424.000000	14.498457
1425.000000	14.438180
1426.000000	14.377951
1427.000000	14.314831
1428.000000	14.251249
1429.000000	14.188063
1430.000000	14.123040
1431.000000	14.054834
1432.000000	13.987240
1433.000000	13.922160
1434.000000	13.859543
1435.000000	13.793849
1436.000000	13.725440
1437.000000	13.658857
1438.000000	13.596860
1439.000000	13.536069
1440.000000	13.474714
1441.000000	13.414800
1442.000000	13.356494
1443.000000	13.299911
1444.000000	13.244806
1445.000000	13.191031
1446.000000	13.139997
1447.000000	13.091903
1448.000000	13.045183
1449.000000	12.998174
1450.000000	12.952000
1451.000000	12.909331
1452.000000	12.869883
1453.000000	12.831666
1454.000000	12.792657
1455.000000	12.753629
1456.000000	12.717943
1457.000000	12.683466
1458.000000	12.649494
1459.000000	12.615971
1460.000000	12.583506
1461.000000	12.552109
1462.000000	12.521920
1463.000000	12.491960
1464.000000	12.462594
1465.000000	12.434909
1466.000000	12.407163
1467.000000	12.378383
1468.000000	12.351043
1469.000000	12.323897
1470.000000	12.298037
1471.000000	12.272234
1472.000000	12.246786
1473.000000	12.221323
1474.000000	12.196386
1475.000000	12.171723
1476.000000	12.146660
1477.000000	12.122517
1478.000000	12.098737
1479.000000	12.075986
1480.000000	12.053340
1481.000000	12.030717
1482.000000	12.009014
1483.000000	11.988700
1484.000000	11.969320
1485.000000	11.949111
1486.000000	11.928551
1487.000000	11.908589
1488.000000	11.889374
1489.000000	11.870691
1490.000000	11.852811
1491.000000	11.835031
1492.000000	11.818200
1493.000000	11.802571
1494.000000	11.787406
1495.000000	11.773000
1496.000000	11.759440
1497.000000	11.747154
1498.000000	11.735434
1499.000000	11.724469
1500.000000	11.714309
1501.000000	11.705697
1502.000000	11.698951
1503.000000	11.693071
1504.000000	11.688663
1505.000000	11.684909
1506.000000	11.682629
1507.000000	11.681174
1508.000000	11.681240
1509.000000	11.682551
1510.000000	11.685217
1511.000000	11.689654
1512.000000	11.695394
1513.000000	11.701449
1514.000000	11.708131
1515.000000	11.716049
1516.000000	11.725009
1517.000000	11.734271
1518.000000	11.743834
1519.000000	11.755291
1520.000000	11.768220
1521.000000	11.781694
1522.000000	11.795983
1523.000000	11.810940
1524.000000	11.827126
1525.000000	11.843426
1526.000000	11.860209
1527.000000	11.877977
1528.000000	11.896514
1529.000000	11.916143
1530.000000	11.936597
1531.000000	11.956797
1532.000000	11.977143
1533.000000	11.998226
1534.000000	12.019514
1535.000000	12.040754
1536.000000	12.061837
1537.000000	12.083074
1538.000000	12.104234
1539.000000	12.124431
1540.000000	12.144509
1541.000000	12.164097
1542.000000	12.183580
1543.000000	12.202563
1544.000000	12.221591
1545.000000	12.240371
1546.000000	12.258794
1547.000000	12.276523
1548.000000	12.294271
1549.000000	12.312203
1550.000000	12.329837
1551.000000	12.347311
1552.000000	12.365237
1553.000000	12.383829
1554.000000	12.401800
1555.000000	12.419477
1556.000000	12.436934
1557.000000	12.453809
1558.000000	12.470689
1559.000000	12.486694
1560.000000	12.501954
1561.000000	12.517131
1562.000000	12.532037
1563.000000	12.545991
1564.000000	12.558809
1565.000000	12.571346
1566.000000	12.583486
1567.000000	12.594609
1568.000000	12.604529
1569.000000	12.614271
1570.000000	12.623723
1571.000000	12.632591
1572.000000	12.640837
1573.000000	12.648686
1574.000000	12.656434
1575.000000	12.664134
1576.000000	12.671729
1577.000000	12.679031
1578.000000	12.686243
1579.000000	12.693163
1580.000000	12.699423
1581.000000	12.705246
1582.000000	12.711017
1583.000000	12.716951
1584.000000	12.722743
1585.000000	12.728483
1586.000000	12.733766
1587.000000	12.738463
1588.000000	12.742797
1589.000000	12.746957
1590.000000	12.750826
1591.000000	12.754680
1592.000000	12.758674
1593.000000	12.762866
1594.000000	12.767529
1595.000000	12.773160
1596.000000	12.778906
1597.000000	12.785026
1598.000000	12.791837
1599.000000	12.799369
1600.000000	12.807523
1601.000000	12.816577
1602.000000	12.826637
1603.000000	12.837551
1604.000000	12.848626
1605.000000	12.860277
1606.000000	12.872857
1607.000000	12.885934
1608.000000	12.899637
1609.000000	12.914240
1610.000000	12.929280
1611.000000	12.944586
1612.000000	12.959960
1613.000000	12.975443
1614.000000	12.991511
1615.000000	13.007623
1616.000000	13.023826
1617.000000	13.040186
1618.000000	13.056026
1619.000000	13.071777
1620.000000	13.087229
1621.000000	13.102991
1622.000000	13.117754
1623.000000	13.132669
1624.000000	13.147700
1625.000000	13.162523
1626.000000	13.177954
1627.000000	13.193011
1628.000000	13.208257
1629.000000	13.223514
1630.000000	13.238260
1631.000000	13.252874
1632.000000	13.267269
1633.000000	13.281366
1634.000000	13.294957
1635.000000	13.308100
1636.000000	13.321189
1637.000000	13.333634
1638.000000	13.345851
1639.000000	13.357969
1640.000000	13.368703
1641.000000	13.378951
1642.000000	13.389389
1643.000000	13.399614
1644.000000	13.409177
1645.000000	13.418297
1646.000000	13.427103
1647.000000	13.435911
1648.000000	13.444757
1649.000000	13.452820
1650.000000	13.460889
1651.000000	13.468383
1652.000000	13.474869
1653.000000	13.480674
1654.000000	13.485903
1655.000000	13.489971
1656.000000	13.493057
1657.000000	13.496509
1658.000000	13.498337
1659.000000	13.498694
1660.000000	13.498106
1661.000000	13.495926
1662.000000	13.492400
1663.000000	13.487314
1664.000000	13.480191
1665.000000	13.472089
1666.000000	13.462743
1667.000000	13.450831
1668.000000	13.437274
1669.000000	13.421731
1670.000000	13.403817
1671.000000	13.384163
1672.000000	13.363394
1673.000000	13.340317
1674.000000	13.315889
1675.000000	13.290709
1676.000000	13.264054
1677.000000	13.235234
1678.000000	13.204760
1679.000000	13.172189
1680.000000	13.137969
1681.000000	13.101337
1682.000000	13.062040
1683.000000	13.020954
1684.000000	12.977763
1685.000000	12.933643
1686.000000	12.888266
1687.000000	12.843431
1688.000000	12.798866
1689.000000	12.754854
1690.000000	12.712257
1691.000000	12.670991
1692.000000	12.631360
1693.000000	12.593503
1694.000000	12.557269
1695.000000	12.522706
1696.000000	12.488969
1697.000000	12.456823
1698.000000	12.425980
1699.000000	12.397546
1700.000000	12.369711
1701.000000	12.342537
1702.000000	12.317449
1703.000000	12.293240
1704.000000	12.270823
1705.000000	12.249803
1706.000000	12.230209
1707.000000	12.210617
1708.000000	12.192729
1709.000000	12.174729
1710.000000	12.157454
1711.000000	12.139951
1712.000000	12.122203
1713.000000	12.104057
1714.000000	12.086483
1715.000000	12.067969
1716.000000	12.050137
1717.000000	12.032369
1718.000000	12.013917
1719.000000	11.995271
1720.000000	11.976940
1721.000000	11.958963
1722.000000	11.939749
1723.000000	11.920400
1724.000000	11.900143
1725.000000	11.880180
1726.000000	11.859843
1727.000000	11.838063
1728.000000	11.816011
1729.000000	11.793449
1730.000000	11.771157
1731.000000	11.749751
1732.000000	11.729294
1733.000000	11.708797
1734.000000	11.687689
1735.000000	11.667323
1736.000000	11.648251
1737.000000	11.629726
1738.000000	11.612697
1739.000000	11.596260
1740.000000	11.581440
1741.000000	11.566766
1742.000000	11.554209
1743.000000	11.543374
1744.000000	11.534749
1745.000000	11.527826
1746.000000	11.522483
1747.000000	11.519203
1748.000000	11.518374
1749.000000	11.518963
1750.000000	11.522757
1751.000000	11.528143
1752.000000	11.535871
1753.000000	11.545354
1754.000000	11.557126
1755.000000	11.570457
1756.000000	11.585403
1757.000000	11.601074
1758.000000	11.617391
1759.000000	11.634303
1760.000000	11.650423
1761.000000	11.666420
1762.000000	11.682346
1763.000000	11.697617
1764.000000	11.713083
1765.000000	11.727266
1766.000000	11.741474
1767.000000	11.755320
1768.000000	11.768746
1769.000000	11.781903
1770.000000	11.794789
1771.000000	11.806874
1772.000000	11.818686
1773.000000	11.830434
1774.000000	11.841877
1775.000000	11.852754
1776.000000	11.863337
1777.000000	11.873100
1778.000000	11.882717
1779.000000	11.891846
1780.000000	11.900609
1781.000000	11.909694
1782.000000	11.918200
1783.000000	11.926286
1784.000000	11.934280
1785.000000	11.941663
1786.000000	11.949077
1787.000000	11.956497
1788.000000	11.963889
1789.000000	11.971214
1790.000000	11.977757
1791.000000	11.984089
1792.000000	11.990980
1793.000000	11.998200
1794.000000	12.005537
1795.000000	12.012723
1796.000000	12.019857
1797.000000	12.027357
1798.000000	12.034660
1799.000000	12.041557
1800.000000	12.048897
1801.000000	12.055943
1802.000000	12.063009
1803.000000	12.070331
1804.000000	12.076909
1805.000000	12.082900
1806.000000	12.089794
1807.000000	12.096783
1808.000000	12.102817
1809.000000	12.107646
1810.000000	12.112237
1811.000000	12.117257
1812.000000	12.122686
1813.000000	12.127469
1814.000000	12.131571
1815.000000	12.134760
1816.000000	12.137494
1817.000000	12.140246
1818.000000	12.141197
1819.000000	12.141186
1820.000000	12.142600
1821.000000	12.146754
1822.000000	12.152889
1823.000000	12.158223
1824.000000	12.160694
1825.000000	12.161811
1826.000000	12.162986
1827.000000	12.165069
1828.000000	12.167626
1829.000000	12.170286
1830.000000	12.173614
1831.000000	12.177591
1832.000000	12.181229
1833.000000	12.183606
1834.000000	12.184169
1835.000000	12.184191
1836.000000	12.184951
1837.000000	12.187309
1838.000000	12.189786
1839.000000	12.192817
1840.000000	12.197123
1841.000000	12.202149
1842.000000	12.209314
1843.000000	12.217091
1844.000000	12.222983
1845.000000	12.224337
1846.000000	12.222649
1847.000000	12.222831
1848.000000	12.227806
1849.000000	12.236154
1850.000000	12.243811
1851.000000	12.248257
1852.000000	12.250394
1853.000000	12.253709
1854.000000	12.258823
1855.000000	12.262800
1856.000000	12.263497
1857.000000	12.260666
1858.000000	12.258066
1859.000000	12.259186
1860.000000	12.262566
1861.000000	12.266229
1862.000000	12.268151
1863.000000	12.267531
1864.000000	12.263757
1865.000000	12.256051
1866.000000	12.244937
1867.000000	12.232131
1868.000000	12.219020
1869.000000	12.206900
1870.000000	12.195429
1871.000000	12.183069
1872.000000	12.168263
1873.000000	12.153191
1874.000000	12.137351
1875.000000	12.118677
1876.000000	12.097097
1877.000000	12.070586
1878.000000	12.041260
1879.000000	12.012020
1880.000000	11.983314
1881.000000	11.952700
1882.000000	11.916514
1883.000000	11.871954
1884.000000	11.821129
1885.000000	11.768331
1886.000000	11.715334
1887.000000	11.660154
1888.000000	11.600266
1889.000000	11.534700
1890.000000	11.465194
1891.000000	11.391940
1892.000000	11.317109
1893.000000	11.239106
1894.000000	11.155537
1895.000000	11.065669
1896.000000	10.970177
1897.000000	10.870094
1898.000000	10.766826
1899.000000	10.663214
1900.000000	10.558663
1901.000000	10.452914
1902.000000	10.344874
1903.000000	10.235180
1904.000000	10.122577
1905.000000	10.006780
1906.000000	9.887854
1907.000000	9.766926
1908.000000	9.642646
1909.000000	9.516814
1910.000000	9.390029
1911.000000	9.261946
1912.000000	9.134074
1913.000000	9.006800
1914.000000	8.881071
1915.000000	8.757354
1916.000000	8.636289
1917.000000	8.517060
1918.000000	8.398834
1919.000000	8.282126
1920.000000	8.167749
1921.000000	8.055677
1922.000000	7.948249
1923.000000	7.844786
1924.000000	7.745757
1925.000000	7.648743
1926.000000	7.555994
1927.000000	7.465271
1928.000000	7.377929
1929.000000	7.295511
1930.000000	7.219349
1931.000000	7.147666
1932.000000	7.080220
1933.000000	7.018106
1934.000000	6.958940
1935.000000	6.903969
1936.000000	6.852517
1937.000000	6.805411
1938.000000	6.762700
1939.000000	6.724114
1940.000000	6.689140
1941.000000	6.656800
1942.000000	6.626891
1943.000000	6.600689
1944.000000	6.577743
1945.000000	6.558057
1946.000000	6.541040
1947.000000	6.526574
1948.000000	6.514149
1949.000000	6.503480
1950.000000	6.495991
1951.000000	6.490334
1952.000000	6.486557
1953.000000	6.486189
1954.000000	6.487854
1955.000000	6.491246
1956.000000	6.496226
1957.000000	6.501431
1958.000000	6.508469
1959.000000	6.516737
1960.000000	6.527303
1961.000000	6.538323
1962.000000	6.551229
1963.000000	6.565666
1964.000000	6.580626
1965.000000	6.595123
1966.000000	6.610937
1967.000000	6.628566
1968.000000	6.646063
1969.000000	6.664531
1970.000000	6.683094
1971.000000	6.703006
1972.000000	6.723557
1973.000000	6.743897
1974.000000	6.763974
1975.000000	6.784706
1976.000000	6.805931
1977.000000	6.827769
1978.000000	6.849014
1979.000000	6.870057
1980.000000	6.891343
1981.000000	6.913943
1982.000000	6.936274
1983.000000	6.958411
1984.000000	6.981246
1985.000000	7.003109
1986.000000	7.024877
1987.000000	7.047091
1988.000000	7.069103
1989.000000	7.091709
1990.000000	7.113054
1991.000000	7.134289
1992.000000	7.156074
1993.000000	7.177860
1994.000000	7.199551
1995.000000	7.220854
1996.000000	7.241469
1997.000000	7.262271
1998.000000	7.282489
1999.000000	7.302240
2000.000000	7.322317
2001.000000	7.341946
2002.000000	7.361240
2003.000000	7.380726
2004.000000	7.400074
2005.000000	7.419457
2006.000000	7.437200
2007.000000	7.454289
2008.000000	7.470914
2009.000000	7.487583
2010.000000	7.502689
2011.000000	7.517389
2012.000000	7.530769
2013.000000	7.544269
2014.000000	7.557086
2015.000000	7.568480
2016.000000	7.578203
2017.000000	7.587603
2018.000000	7.596769
2019.000000	7.604097
2020.000000	7.610383
2021.000000	7.616397
2022.000000	7.620754
2023.000000	7.623283
2024.000000	7.624826
2025.000000	7.625603
2026.000000	7.625037
2027.000000	7.622857
2028.000000	7.619374
2029.000000	7.614277
2030.000000	7.607674
2031.000000	7.600660
2032.000000	7.591923
2033.000000	7.582414
2034.000000	7.571154
2035.000000	7.558637
2036.000000	7.544697
2037.000000	7.529597
2038.000000	7.512660
2039.000000	7.493651
2040.000000	7.473246
2041.000000	7.451909
2042.000000	7.430146
2043.000000	7.406677
2044.000000	7.381577
2045.000000	7.355500
2046.000000	7.328669
2047.000000	7.301246
2048.000000	7.273026
2049.000000	7.244240
2050.000000	7.215574
2051.000000	7.186563
2052.000000	7.157743
2053.000000	7.128754
2054.000000	7.100006
2055.000000	7.072214
2056.000000	7.044223
2057.000000	7.017400
2058.000000	6.992094
2059.000000	6.967371
2060.000000	6.944226
2061.000000	6.922711
2062.000000	6.902789
2063.000000	6.884137
2064.000000	6.866946
2065.000000	6.851754
2066.000000	6.838437
2067.000000	6.826414
2068.000000	6.815357
2069.000000	6.806537
2070.000000	6.798740
2071.000000	6.792880
2072.000000	6.788746
2073.000000	6.786509
2074.000000	6.786366
2075.000000	6.788271
2076.000000	6.791497
2077.000000	6.794806
2078.000000	6.800126
2079.000000	6.807243
2080.000000	6.815626
2081.000000	6.824923
2082.000000	6.835371
2083.000000	6.846206
2084.000000	6.857603
2085.000000	6.869531
2086.000000	6.881929
2087.000000	6.894217
2088.000000	6.906609
2089.000000	6.919266
2090.000000	6.931691
2091.000000	6.944203
2092.000000	6.955969
2093.000000	6.966906
2094.000000	6.976729
2095.000000	6.985666
2096.000000	6.994160
2097.000000	7.001411
2098.000000	7.007391
2099.000000	7.012666
2100.000000	7.016397
2101.000000	7.018854
2102.000000	7.020954
2103.000000	7.022429
2104.000000	7.022809
2105.000000	7.022791
2106.000000	7.021757
2107.000000	7.019491
2108.000000	7.016389
2109.000000	7.012234
2110.000000	7.007526
2111.000000	7.002551
2112.000000	6.997320
2113.000000	6.991089
2114.000000	6.984171
2115.000000	6.976649
2116.000000	6.968249
2117.000000	6.959346
2118.000000	6.950106
2119.000000	6.940760
2120.000000	6.930986
2121.000000	6.920494
2122.000000	6.909597
2123.000000	6.898043
2124.000000	6.885926
2125.000000	6.873560
2126.000000	6.861243
2127.000000	6.848406
2128.000000	6.834783
2129.000000	6.821566
2130.000000	6.807994
2131.000000	6.792746
2132.000000	6.777223
2133.000000	6.761729
2134.000000	6.745383
2135.000000	6.728563
2136.000000	6.710911
2137.000000	6.692343
2138.000000	6.673740
2139.000000	6.654900
2140.000000	6.634674
2141.000000	6.613820
2142.000000	6.592331
2143.000000	6.570471
2144.000000	6.548440
2145.000000	6.525277
2146.000000	6.501374
2147.000000	6.477114
2148.000000	6.452717
2149.000000	6.427611
2150.000000	6.402146
2151.000000	6.376671
2152.000000	6.350726
2153.000000	6.324540
2154.000000	6.298129
2155.000000	6.271654
2156.000000	6.245920
2157.000000	6.219843
2158.000000	6.193637
2159.000000	6.167563
2160.000000	6.141654
2161.000000	6.115580
2162.000000	6.090526
2163.000000	6.065949
2164.000000	6.040469
2165.000000	6.015794
2166.000000	5.992703
2167.000000	5.970269
2168.000000	5.947754
2169.000000	5.925926
2170.000000	5.905060
2171.000000	5.884511
2172.000000	5.864403
2173.000000	5.844594
2174.000000	5.825051
2175.000000	5.807151
2176.000000	5.789991
2177.000000	5.772874
2178.000000	5.756237
2179.000000	5.739854
2180.000000	5.724337
2181.000000	5.709297
2182.000000	5.694691
2183.000000	5.680146
2184.000000	5.665526
2185.000000	5.651154
2186.000000	5.637049
2187.000000	5.622297
2188.000000	5.607706
2189.000000	5.592226
2190.000000	5.576171
2191.000000	5.558534
2192.000000	5.540586
2193.000000	5.522071
2194.000000	5.501749
2195.000000	5.480266
2196.000000	5.456726
2197.000000	5.431314
2198.000000	5.404814
2199.000000	5.377457
2200.000000	5.347389
2201.000000	5.315109
2202.000000	5.281349
2203.000000	5.246540
2204.000000	5.210500
2205.000000	5.173471
2206.000000	5.136151
2207.000000	5.099169
2208.000000	5.061120
2209.000000	5.023566
2210.000000	4.985769
2211.000000	4.948186
2212.000000	4.911691
2213.000000	4.875329
2214.000000	4.840100
2215.000000	4.805114
2216.000000	4.771034
2217.000000	4.739054
2218.000000	4.708580
2219.000000	4.680034
2220.000000	4.653140
2221.000000	4.628123
2222.000000	4.605606
2223.000000	4.584617
2224.000000	4.565857
2225.000000	4.549240
2226.000000	4.535709
2227.000000	4.523434
2228.000000	4.512566
2229.000000	4.504920
2230.000000	4.498546
2231.000000	4.494763
2232.000000	4.493731
2233.000000	4.494311
2234.000000	4.496769
2235.000000	4.501123
2236.000000	4.508269
2237.000000	4.517149
2238.000000	4.526600
2239.000000	4.537380
2240.000000	4.548626
2241.000000	4.560457
2242.000000	4.572286
2243.000000	4.584006
2244.000000	4.595483
2245.000000	4.605951
2246.000000	4.615831
2247.000000	4.625189
2248.000000	4.633686
2249.000000	4.640063
2250.000000	4.646089
2251.000000	4.651569
2252.000000	4.654266
2253.000000	4.655354
2254.000000	4.655229
2255.000000	4.654406
2256.000000	4.651000
2257.000000	4.646714
2258.000000	4.641231
2259.000000	4.634523
2260.000000	4.626617
2261.000000	4.616646
2262.000000	4.607094
2263.000000	4.597754
2264.000000	4.586511
2265.000000	4.575660
2266.000000	4.564769
2267.000000	4.553057
2268.000000	4.540731
2269.000000	4.529231
2270.000000	4.518491
2271.000000	4.506980
2272.000000	4.495254
2273.000000	4.484934
2274.000000	4.475557
2275.000000	4.466251
2276.000000	4.456983
2277.000000	4.448774
2278.000000	4.441840
2279.000000	4.435509
2280.000000	4.429583
2281.000000	4.424446
2282.000000	4.420194
2283.000000	4.416357
2284.000000	4.413754
2285.000000	4.411414
2286.000000	4.409394
2287.000000	4.408389
2288.000000	4.408083
2289.000000	4.408609
2290.000000	4.409220
2291.000000	4.410906
2292.000000	4.412103
2293.000000	4.413831
2294.000000	4.415866
2295.000000	4.417900
2296.000000	4.421177
2297.000000	4.424063
2298.000000	4.426520
2299.000000	4.429960
2300.000000	4.433617
2301.000000	4.437391
2302.000000	4.440931
2303.000000	4.445257
2304.000000	4.448877
2305.000000	4.452757
2306.000000	4.456620
2307.000000	4.461117
2308.000000	4.465474
2309.000000	4.469049
2310.000000	4.473474
2311.000000	4.478429
2312.000000	4.481889
2313.000000	4.485794
2314.000000	4.489923
2315.000000	4.494463
2316.000000	4.498723
2317.000000	4.502114
2318.000000	4.505766
2319.000000	4.509706
2320.000000	4.513077
2321.000000	4.516097
2322.000000	4.519240
2323.000000	4.521946
2324.000000	4.523706
2325.000000	4.525120
2326.000000	4.526349
2327.000000	4.527311
2328.000000	4.527677
2329.000000	4.527706
2330.000000	4.528103
2331.000000	4.527571
2332.000000	4.526614
2333.000000	4.526057
2334.000000	4.525340
2335.000000	4.524034
2336.000000	4.522346
2337.000000	4.520423
2338.000000	4.518443
2339.000000	4.516789
2340.000000	4.514586
2341.000000	4.512369
2342.000000	4.509346
2343.000000	4.506503
2344.000000	4.503780
2345.000000	4.500391
2346.000000	4.496240
2347.000000	4.492494
2348.000000	4.488489
2349.000000	4.483997
2350.000000	4.479843
2351.000000	4.475614
2352.000000	4.471669
2353.000000	4.468146
2354.000000	4.464300
2355.000000	4.461380
2356.000000	4.458557
2357.000000	4.455357
2358.000000	4.452517
2359.000000	4.450169
2360.000000	4.447460
2361.000000	4.444897
2362.000000	4.442800
2363.000000	4.441323
2364.000000	4.440563
2365.000000	4.439517
2366.000000	4.438489
2367.000000	4.437337
2368.000000	4.436057
2369.000000	4.435069
2370.000000	4.433694
2371.000000	4.432414
2372.000000	4.431323
2373.000000	4.430371
2374.000000	4.429017
2375.000000	4.427591
2376.000000	4.426106
2377.000000	4.424354
2378.000000	4.422040
2379.000000	4.420057
2380.000000	4.418809
2381.000000	4.418120
2382.000000	4.416966
2383.000000	4.415323
2384.000000	4.413754
2385.000000	4.411489
2386.000000	4.408994
2387.000000	4.406563
2388.000000	4.403337
2389.000000	4.399920
2390.000000	4.396120
2391.000000	4.391889
2392.000000	4.387431
2393.000000	4.382860
2394.000000	4.378169
2395.000000	4.373171
2396.000000	4.368349
2397.000000	4.363774
2398.000000	4.358297
2399.000000	4.351774
2400.000000	4.345051
2401.000000	4.338437
2402.000000	4.331866
2403.000000	4.324911
2404.000000	4.317451
2405.000000	4.309777
2406.000000	4.301323
2407.000000	4.292503
2408.000000	4.282620
2409.000000	4.272320
2410.000000	4.261634
2411.000000	4.250520
2412.000000	4.240074
2413.000000	4.228743
2414.000000	4.215943
2415.000000	4.202283
2416.000000	4.188637
2417.000000	4.174309
2418.000000	4.158623
2419.000000	4.142629
2420.000000	4.126317
2421.000000	4.109840
2422.000000	4.092557
2423.000000	4.074366
2424.000000	4.054346
2425.000000	4.033023
2426.000000	4.011991
2427.000000	3.990726
2428.000000	3.969157
2429.000000	3.947000
2430.000000	3.924597
2431.000000	3.901489
2432.000000	3.877831
2433.000000	3.854314
2434.000000	3.830994
2435.000000	3.807771
2436.000000	3.783329
2437.000000	3.758337
2438.000000	3.733220
2439.000000	3.708306
2440.000000	3.682669
2441.000000	3.657426
2442.000000	3.631926
2443.000000	3.606549
2444.000000	3.581143
2445.000000	3.555286
2446.000000	3.529583
2447.000000	3.503106
2448.000000	3.476966
2449.000000	3.451566
2450.000000	3.426051
2451.000000	3.400043
2452.000000	3.374669
2453.000000	3.350566
2454.000000	3.325183
2455.000000	3.301554
2456.000000	3.277411
2457.000000	3.253991
2458.000000	3.231174
2459.000000	3.209643
2460.000000	3.189389
2461.000000	3.168671
2462.000000	3.147977
2463.000000	3.127980
2464.000000	3.109020
2465.000000	3.089506
2466.000000	3.070483
2467.000000	3.051837
2468.000000	3.033389
2469.000000	3.015291
2470.000000	2.998646
2471.000000	2.981686
2472.000000	2.966491
2473.000000	2.951351
2474.000000	2.936383
2475.000000	2.921500
2476.000000	2.907063
2477.000000	2.893440
2478.000000	2.881049
2479.000000	2.867840
2480.000000	2.855506
2481.000000	2.843914
2482.000000	2.831449
2483.000000	2.823166
2484.000000	2.814851
2485.000000	2.806297
2486.000000	2.797817
2487.000000	2.791206
2488.000000	2.783983
2489.000000	2.777203
2490.000000	2.769431
2491.000000	2.762409
2492.000000	2.757037
2493.000000	2.752754
2494.000000	2.750229
2495.000000	2.746946
2496.000000	2.744063
2497.000000	2.743529
2498.000000	2.740029
2499.000000	2.739591
2500.000000	2.740226
