PE UV       SUBTECH     SPECTRUM    ASCII       PEDS        4.00        
   -1
ANGSOL0009-1.Sample.ASC
24/03/07
16:38:04.00
24/03/07
16:38:04.00
Vinicio Soto Monge
Chrysina adelaida. Coleccion del instituto de biologia, UNAM. Mexico, D.F. Mexico Queretaro Pinal de Amoles Desv. a Mision de Bucareli. 2250 msnm 27-IV-1998. N 21 6 36, O 99 59 25. E. Barrera C. Mayorga. 
250,000000
1
Lambda 1050
1050L1511233
PerkinElmer UV WinLab 6.3.2.0749 / 2.02.05 Lambda 900 UV/VIS/NIR, Aug  7 2015 09:38:08

0
0
3350/servo 860,8/2
0
0
UV/VIS
1
1
1
DoubleDePol,CommonBeamDepol,RBeamAtt,SBeamAtt,60mm sphere, WB InGaAs Detector
0
0
0
0
Program
Program
3350/servo 860,8/2
3350/0,2 860,8/0,2
3350/0,2 860,8/0,2
0
15.00
 
 
 
0
 
860,8
319,2
860,8
Front
100
on
S:100 R:100
0
0
0
0
 
0
 
 
 
0
 
 
0
0
0
0
0
 
 
 
 
0
0


0
0
#HDR
-1
-1
#GR
nm
%R
1.0
0.0
2500,000000
-1,000000
2251
8
19,232200
1,456000
#DATA
250.000000	nan
251.000000	nan
252.000000	nan
253.000000	nan
254.000000	nan
255.000000	nan
256.000000	nan
257.000000	nan
258.000000	nan
259.000000	nan
260.000000	nan
261.000000	nan
262.000000	nan
263.000000	nan
264.000000	nan
265.000000	nan
266.000000	nan
267.000000	nan
268.000000	nan
269.000000	nan
270.000000	nan
271.000000	nan
272.000000	nan
273.000000	nan
274.000000	nan
275.000000	nan
276.000000	nan
277.000000	nan
278.000000	nan
279.000000	nan
280.000000	nan
281.000000	nan
282.000000	nan
283.000000	nan
284.000000	1.776279
285.000000	1.773346
286.000000	1.769004
287.000000	1.766357
288.000000	1.763371
289.000000	1.761061
290.000000	1.757740
291.000000	1.754866
292.000000	1.752082
293.000000	1.749937
294.000000	1.747364
295.000000	1.746020
296.000000	1.743187
297.000000	1.742072
298.000000	1.741663
299.000000	1.740980
300.000000	1.738385
301.000000	1.737240
302.000000	1.734552
303.000000	1.733332
304.000000	1.731290
305.000000	1.731982
306.000000	1.731066
307.000000	1.730781
308.000000	1.730989
309.000000	1.730418
310.000000	1.730424
311.000000	1.729148
312.000000	1.729725
313.000000	1.728065
314.000000	1.730259
315.000000	1.730747
316.000000	1.733236
317.000000	1.747097
318.000000	1.750074
319.000000	1.760453
320.000000	1.758842
321.000000	1.763476
322.000000	1.773380
323.000000	1.778793
324.000000	1.785150
325.000000	1.788251
326.000000	1.794111
327.000000	1.803469
328.000000	1.810803
329.000000	1.818867
330.000000	1.818780
331.000000	1.823141
332.000000	1.824050
333.000000	1.827290
334.000000	1.832852
335.000000	1.837728
336.000000	1.840696
337.000000	1.846379
338.000000	1.850392
339.000000	1.849920
340.000000	1.849836
341.000000	1.852962
342.000000	1.856084
343.000000	1.857965
344.000000	1.857602
345.000000	1.858499
346.000000	1.860749
347.000000	1.859157
348.000000	1.857081
349.000000	1.855997
350.000000	1.855920
351.000000	1.853493
352.000000	1.838923
353.000000	1.835289
354.000000	1.825158
355.000000	1.826831
356.000000	1.821660
357.000000	1.809332
358.000000	1.802419
359.000000	1.794418
360.000000	1.788480
361.000000	1.782369
362.000000	1.774131
363.000000	1.766347
364.000000	1.758730
365.000000	1.757206
366.000000	1.752867
367.000000	1.751557
368.000000	1.746781
369.000000	1.740365
370.000000	1.736510
371.000000	1.732081
372.000000	1.727950
373.000000	1.721963
374.000000	1.721655
375.000000	1.720979
376.000000	1.716727
377.000000	1.709026
378.000000	1.703067
379.000000	1.699448
380.000000	1.694066
381.000000	1.687964
382.000000	1.686849
383.000000	1.686859
384.000000	1.684801
385.000000	1.681945
386.000000	1.680906
387.000000	1.680868
388.000000	1.680065
389.000000	1.679925
390.000000	1.679267
391.000000	1.680421
392.000000	1.681828
393.000000	1.683305
394.000000	1.685782
395.000000	1.689969
396.000000	1.692123
397.000000	1.693535
398.000000	1.696499
399.000000	1.700093
400.000000	1.705205
401.000000	1.710535
402.000000	1.714821
403.000000	1.720970
404.000000	1.727211
405.000000	1.733816
406.000000	1.741886
407.000000	1.750332
408.000000	1.760375
409.000000	1.770357
410.000000	1.779194
411.000000	1.790237
412.000000	1.804530
413.000000	1.819180
414.000000	1.834376
415.000000	1.849920
416.000000	1.866041
417.000000	1.882041
418.000000	1.897933
419.000000	1.914001
420.000000	1.930091
421.000000	1.946467
422.000000	1.963091
423.000000	1.979759
424.000000	1.996150
425.000000	2.012677
426.000000	2.029339
427.000000	2.045981
428.000000	2.062487
429.000000	2.078987
430.000000	2.095400
431.000000	2.111720
432.000000	2.127981
433.000000	2.143925
434.000000	2.159618
435.000000	2.175401
436.000000	2.191140
437.000000	2.206476
438.000000	2.221325
439.000000	2.236086
440.000000	2.250637
441.000000	2.264601
442.000000	2.278155
443.000000	2.291700
444.000000	2.304870
445.000000	2.317434
446.000000	2.329905
447.000000	2.342252
448.000000	2.354242
449.000000	2.365769
450.000000	2.376561
451.000000	2.386919
452.000000	2.397313
453.000000	2.407277
454.000000	2.416914
455.000000	2.426235
456.000000	2.435115
457.000000	2.443650
458.000000	2.451968
459.000000	2.459942
460.000000	2.467642
461.000000	2.475185
462.000000	2.482410
463.000000	2.489301
464.000000	2.495906
465.000000	2.502473
466.000000	2.509091
467.000000	2.515565
468.000000	2.521853
469.000000	2.528235
470.000000	2.534433
471.000000	2.540517
472.000000	2.546712
473.000000	2.552864
474.000000	2.559108
475.000000	2.565372
476.000000	2.571629
477.000000	2.578085
478.000000	2.584532
479.000000	2.591537
480.000000	2.599023
481.000000	2.606438
482.000000	2.613934
483.000000	2.621867
484.000000	2.630605
485.000000	2.640261
486.000000	2.650727
487.000000	2.662034
488.000000	2.674480
489.000000	2.688037
490.000000	2.702619
491.000000	2.718417
492.000000	2.735504
493.000000	2.753841
494.000000	2.773463
495.000000	2.794442
496.000000	2.816718
497.000000	2.840326
498.000000	2.865594
499.000000	2.892308
500.000000	2.920699
501.000000	2.950632
502.000000	2.982185
503.000000	3.015641
504.000000	3.050916
505.000000	3.088105
506.000000	3.127098
507.000000	3.168118
508.000000	3.211212
509.000000	3.256297
510.000000	3.303081
511.000000	3.351600
512.000000	3.401825
513.000000	3.453858
514.000000	3.507228
515.000000	3.562066
516.000000	3.618393
517.000000	3.676385
518.000000	3.735425
519.000000	3.795214
520.000000	3.855834
521.000000	3.917212
522.000000	3.979208
523.000000	4.041681
524.000000	4.104697
525.000000	4.168192
526.000000	4.231749
527.000000	4.295131
528.000000	4.358421
529.000000	4.421888
530.000000	4.485208
531.000000	4.548535
532.000000	4.611850
533.000000	4.674606
534.000000	4.737153
535.000000	4.798894
536.000000	4.859937
537.000000	4.920219
538.000000	4.979738
539.000000	5.038111
540.000000	5.095298
541.000000	5.151322
542.000000	5.205946
543.000000	5.259223
544.000000	5.310628
545.000000	5.360466
546.000000	5.408599
547.000000	5.455293
548.000000	5.500112
549.000000	5.543000
550.000000	5.584244
551.000000	5.623907
552.000000	5.661873
553.000000	5.697713
554.000000	5.731709
555.000000	5.763889
556.000000	5.794241
557.000000	5.822579
558.000000	5.849008
559.000000	5.873177
560.000000	5.891104
561.000000	5.906484
562.000000	5.919914
563.000000	5.931562
564.000000	5.941234
565.000000	5.948770
566.000000	5.953897
567.000000	5.957166
568.000000	5.958531
569.000000	5.957833
570.000000	5.954850
571.000000	5.949890
572.000000	5.943255
573.000000	5.934465
574.000000	5.923840
575.000000	5.911360
576.000000	5.897182
577.000000	5.881635
578.000000	5.864499
579.000000	5.846037
580.000000	5.826489
581.000000	5.805949
582.000000	5.784017
583.000000	5.761207
584.000000	5.737448
585.000000	5.712816
586.000000	5.687153
587.000000	5.660417
588.000000	5.633371
589.000000	5.605800
590.000000	5.578337
591.000000	5.550301
592.000000	5.522292
593.000000	5.493703
594.000000	5.465036
595.000000	5.440904
596.000000	5.417383
597.000000	5.394232
598.000000	5.371081
599.000000	5.348038
600.000000	5.325511
601.000000	5.303697
602.000000	5.281918
603.000000	5.260579
604.000000	5.240091
605.000000	5.220425
606.000000	5.201706
607.000000	5.183297
608.000000	5.165854
609.000000	5.149553
610.000000	5.133944
611.000000	5.119223
612.000000	5.105305
613.000000	5.092188
614.000000	5.079975
615.000000	5.068069
616.000000	5.057056
617.000000	5.046435
618.000000	5.036758
619.000000	5.027859
620.000000	5.019929
621.000000	5.013411
622.000000	5.007852
623.000000	5.003286
624.000000	5.000027
625.000000	4.997358
626.000000	4.996293
627.000000	4.995967
628.000000	4.997075
629.000000	4.999534
630.000000	5.002712
631.000000	5.006868
632.000000	5.011794
633.000000	5.018104
634.000000	5.025180
635.000000	5.033340
636.000000	5.042403
637.000000	5.052311
638.000000	5.063289
639.000000	5.074761
640.000000	5.087114
641.000000	5.100109
642.000000	5.114502
643.000000	5.130101
644.000000	5.146024
645.000000	5.163026
646.000000	5.181050
647.000000	5.200002
648.000000	5.219767
649.000000	5.240392
650.000000	5.262811
651.000000	5.285959
652.000000	5.310749
653.000000	5.336293
654.000000	5.363265
655.000000	5.391317
656.000000	5.419835
657.000000	5.448446
658.000000	5.478246
659.000000	5.508781
660.000000	5.539949
661.000000	5.571099
662.000000	5.603124
663.000000	5.635826
664.000000	5.668763
665.000000	5.702511
666.000000	5.737001
667.000000	5.772772
668.000000	5.808453
669.000000	5.845100
670.000000	5.882224
671.000000	5.920255
672.000000	5.958910
673.000000	5.998353
674.000000	6.038361
675.000000	6.079344
676.000000	6.120668
677.000000	6.162154
678.000000	6.204089
679.000000	6.246760
680.000000	6.289720
681.000000	6.332860
682.000000	6.376425
683.000000	6.420666
684.000000	6.465305
685.000000	6.509764
686.000000	6.554688
687.000000	6.599663
688.000000	6.645223
689.000000	6.690424
690.000000	6.735591
691.000000	6.780860
692.000000	6.827823
693.000000	6.874827
694.000000	6.921744
695.000000	6.969000
696.000000	7.016354
697.000000	7.063802
698.000000	7.111520
699.000000	7.159725
700.000000	7.207766
701.000000	7.255655
702.000000	7.303279
703.000000	7.351618
704.000000	7.400196
705.000000	7.448513
706.000000	7.496249
707.000000	7.544194
708.000000	7.591595
709.000000	7.639235
710.000000	7.686947
711.000000	7.734702
712.000000	7.782265
713.000000	7.829908
714.000000	7.877344
715.000000	7.924959
716.000000	7.972453
717.000000	8.019116
718.000000	8.065453
719.000000	8.111793
720.000000	8.158151
721.000000	8.204267
722.000000	8.250322
723.000000	8.296304
724.000000	8.342803
725.000000	8.388512
726.000000	8.433707
727.000000	8.478395
728.000000	8.522488
729.000000	8.566391
730.000000	8.610053
731.000000	8.653540
732.000000	8.697136
733.000000	8.740325
734.000000	8.782972
735.000000	8.825245
736.000000	8.867674
737.000000	8.909570
738.000000	8.950881
739.000000	8.991789
740.000000	9.032784
741.000000	9.073727
742.000000	9.114141
743.000000	9.154637
744.000000	9.194359
745.000000	9.233514
746.000000	9.272898
747.000000	9.311773
748.000000	9.349661
749.000000	9.386960
750.000000	9.423712
751.000000	9.460864
752.000000	9.498662
753.000000	9.536069
754.000000	9.572561
755.000000	9.608549
756.000000	9.644594
757.000000	9.680524
758.000000	9.715870
759.000000	9.751008
760.000000	9.786435
761.000000	9.821554
762.000000	9.855069
763.000000	9.888882
764.000000	9.923204
765.000000	9.957513
766.000000	9.991553
767.000000	10.025204
768.000000	10.058114
769.000000	10.090474
770.000000	10.123126
771.000000	10.155511
772.000000	10.188247
773.000000	10.220818
774.000000	10.252635
775.000000	10.285359
776.000000	10.318365
777.000000	10.350545
778.000000	10.382415
779.000000	10.414819
780.000000	10.446906
781.000000	10.478971
782.000000	10.511133
783.000000	10.542838
784.000000	10.575285
785.000000	10.608130
786.000000	10.640195
787.000000	10.671007
788.000000	10.702209
789.000000	10.734063
790.000000	10.765623
791.000000	10.798017
792.000000	10.830014
793.000000	10.860615
794.000000	10.891225
795.000000	10.922886
796.000000	10.955520
797.000000	10.989379
798.000000	11.023971
799.000000	11.056285
800.000000	11.087475
801.000000	11.119956
802.000000	11.153449
803.000000	11.187017
804.000000	11.221026
805.000000	11.255093
806.000000	11.288769
807.000000	11.322830
808.000000	11.357068
809.000000	11.391815
810.000000	11.424790
811.000000	11.456781
812.000000	11.490063
813.000000	11.524696
814.000000	11.559796
815.000000	11.595316
816.000000	11.629294
817.000000	11.663457
818.000000	11.699219
819.000000	11.733591
820.000000	11.767339
821.000000	11.801201
822.000000	11.835687
823.000000	11.870494
824.000000	11.903825
825.000000	11.937697
826.000000	11.970622
827.000000	12.005729
828.000000	12.040833
829.000000	12.075022
830.000000	12.108804
831.000000	12.141071
832.000000	12.172655
833.000000	12.203659
834.000000	12.235814
835.000000	12.268268
836.000000	12.301761
837.000000	12.330924
838.000000	12.362254
839.000000	12.392976
840.000000	12.422465
841.000000	12.452413
842.000000	12.480444
843.000000	12.509579
844.000000	12.537563
845.000000	12.563045
846.000000	12.592485
847.000000	12.620981
848.000000	12.642925
849.000000	12.669931
850.000000	12.693542
851.000000	12.717258
852.000000	12.738891
853.000000	12.759851
854.000000	12.780653
855.000000	12.799170
856.000000	12.819925
857.000000	12.839805
858.000000	12.891881
859.000000	12.918441
860.000000	12.945782
861.000000	12.974029
862.000000	13.001042
863.000000	13.030146
864.000000	13.060391
865.000000	13.090613
866.000000	13.122326
867.000000	13.154907
868.000000	13.187132
869.000000	13.219694
870.000000	13.253224
871.000000	13.285590
872.000000	13.321224
873.000000	13.355101
874.000000	13.389574
875.000000	13.425902
876.000000	13.462002
877.000000	13.499413
878.000000	13.536173
879.000000	13.574074
880.000000	13.615067
881.000000	13.652691
882.000000	13.691597
883.000000	13.735836
884.000000	13.774984
885.000000	13.817314
886.000000	13.861540
887.000000	13.906936
888.000000	13.952404
889.000000	13.998468
890.000000	14.048354
891.000000	14.096641
892.000000	14.145734
893.000000	14.162143
894.000000	14.205526
895.000000	14.248720
896.000000	14.290849
897.000000	14.332677
898.000000	14.374029
899.000000	14.414223
900.000000	14.454626
901.000000	14.494409
902.000000	14.533809
903.000000	14.573069
904.000000	14.612594
905.000000	14.652306
906.000000	14.691569
907.000000	14.730866
908.000000	14.770689
909.000000	14.811271
910.000000	14.850469
911.000000	14.889949
912.000000	14.930317
913.000000	14.970094
914.000000	15.009103
915.000000	15.048297
916.000000	15.088034
917.000000	15.126829
918.000000	15.166323
919.000000	15.205991
920.000000	15.244511
921.000000	15.281649
922.000000	15.319940
923.000000	15.357806
924.000000	15.397143
925.000000	15.435031
926.000000	15.471180
927.000000	15.507891
928.000000	15.544591
929.000000	15.581143
930.000000	15.616234
931.000000	15.651866
932.000000	15.687029
933.000000	15.721037
934.000000	15.756089
935.000000	15.791640
936.000000	15.826737
937.000000	15.861591
938.000000	15.896794
939.000000	15.932031
940.000000	15.966226
941.000000	15.999563
942.000000	16.032089
943.000000	16.064103
944.000000	16.095223
945.000000	16.126883
946.000000	16.157860
947.000000	16.187811
948.000000	16.218097
949.000000	16.248186
950.000000	16.277906
951.000000	16.307683
952.000000	16.337580
953.000000	16.366534
954.000000	16.394234
955.000000	16.422674
956.000000	16.451954
957.000000	16.481337
958.000000	16.510011
959.000000	16.537420
960.000000	16.564880
961.000000	16.593583
962.000000	16.622066
963.000000	16.649617
964.000000	16.676943
965.000000	16.704597
966.000000	16.731220
967.000000	16.757031
968.000000	16.783543
969.000000	16.809777
970.000000	16.834243
971.000000	16.858669
972.000000	16.882803
973.000000	16.906917
974.000000	16.930786
975.000000	16.954066
976.000000	16.977406
977.000000	17.001477
978.000000	17.025646
979.000000	17.049931
980.000000	17.072660
981.000000	17.096003
982.000000	17.119054
983.000000	17.141249
984.000000	17.164471
985.000000	17.187357
986.000000	17.208766
987.000000	17.230043
988.000000	17.250994
989.000000	17.271380
990.000000	17.291480
991.000000	17.311274
992.000000	17.330977
993.000000	17.350674
994.000000	17.370229
995.000000	17.389214
996.000000	17.407551
997.000000	17.425783
998.000000	17.444106
999.000000	17.461600
1000.000000	17.478891
1001.000000	17.496703
1002.000000	17.515231
1003.000000	17.533183
1004.000000	17.550291
1005.000000	17.567426
1006.000000	17.585109
1007.000000	17.603006
1008.000000	17.619889
1009.000000	17.636020
1010.000000	17.652963
1011.000000	17.670354
1012.000000	17.686814
1013.000000	17.701974
1014.000000	17.716534
1015.000000	17.732126
1016.000000	17.747529
1017.000000	17.762726
1018.000000	17.777843
1019.000000	17.792626
1020.000000	17.807577
1021.000000	17.822534
1022.000000	17.837663
1023.000000	17.852871
1024.000000	17.868234
1025.000000	17.884109
1026.000000	17.899394
1027.000000	17.913869
1028.000000	17.929026
1029.000000	17.944617
1030.000000	17.960466
1031.000000	17.976483
1032.000000	17.992083
1033.000000	18.007954
1034.000000	18.024280
1035.000000	18.040840
1036.000000	18.056740
1037.000000	18.071831
1038.000000	18.087234
1039.000000	18.102803
1040.000000	18.118529
1041.000000	18.134009
1042.000000	18.149394
1043.000000	18.165243
1044.000000	18.180994
1045.000000	18.196194
1046.000000	18.210940
1047.000000	18.225926
1048.000000	18.241483
1049.000000	18.256954
1050.000000	18.272577
1051.000000	18.288060
1052.000000	18.303740
1053.000000	18.319537
1054.000000	18.335023
1055.000000	18.350426
1056.000000	18.365960
1057.000000	18.381240
1058.000000	18.396306
1059.000000	18.411929
1060.000000	18.427317
1061.000000	18.442437
1062.000000	18.457477
1063.000000	18.471931
1064.000000	18.485909
1065.000000	18.499829
1066.000000	18.513909
1067.000000	18.527711
1068.000000	18.541700
1069.000000	18.555940
1070.000000	18.570049
1071.000000	18.584546
1072.000000	18.599546
1073.000000	18.614486
1074.000000	18.629317
1075.000000	18.643323
1076.000000	18.658006
1077.000000	18.672580
1078.000000	18.686631
1079.000000	18.701600
1080.000000	18.716474
1081.000000	18.731091
1082.000000	18.746094
1083.000000	18.760851
1084.000000	18.775780
1085.000000	18.789874
1086.000000	18.803294
1087.000000	18.816526
1088.000000	18.830346
1089.000000	18.843871
1090.000000	18.856989
1091.000000	18.870374
1092.000000	18.883906
1093.000000	18.897611
1094.000000	18.910577
1095.000000	18.923234
1096.000000	18.936003
1097.000000	18.948983
1098.000000	18.961297
1099.000000	18.973100
1100.000000	18.984786
1101.000000	18.995997
1102.000000	19.007734
1103.000000	19.018729
1104.000000	19.028720
1105.000000	19.037914
1106.000000	19.047417
1107.000000	19.057026
1108.000000	19.065800
1109.000000	19.074474
1110.000000	19.083169
1111.000000	19.090891
1112.000000	19.098440
1113.000000	19.105517
1114.000000	19.111931
1115.000000	19.117917
1116.000000	19.123889
1117.000000	19.129414
1118.000000	19.135480
1119.000000	19.141471
1120.000000	19.147474
1121.000000	19.153269
1122.000000	19.158806
1123.000000	19.163343
1124.000000	19.168160
1125.000000	19.172071
1126.000000	19.175523
1127.000000	19.178297
1128.000000	19.180423
1129.000000	19.182580
1130.000000	19.183654
1131.000000	19.183640
1132.000000	19.181477
1133.000000	19.178229
1134.000000	19.175214
1135.000000	19.172494
1136.000000	19.169586
1137.000000	19.164914
1138.000000	19.159103
1139.000000	19.153609
1140.000000	19.147240
1141.000000	19.139174
1142.000000	19.129837
1143.000000	19.119934
1144.000000	19.109334
1145.000000	19.098574
1146.000000	19.087846
1147.000000	19.076883
1148.000000	19.065446
1149.000000	19.053331
1150.000000	19.041474
1151.000000	19.028811
1152.000000	19.015754
1153.000000	19.001794
1154.000000	18.986991
1155.000000	18.970974
1156.000000	18.954714
1157.000000	18.937649
1158.000000	18.918949
1159.000000	18.899389
1160.000000	18.879260
1161.000000	18.857717
1162.000000	18.835166
1163.000000	18.811940
1164.000000	18.786583
1165.000000	18.761171
1166.000000	18.735303
1167.000000	18.710494
1168.000000	18.687080
1169.000000	18.662583
1170.000000	18.636480
1171.000000	18.609789
1172.000000	18.583331
1173.000000	18.557794
1174.000000	18.530769
1175.000000	18.504974
1176.000000	18.478680
1177.000000	18.452709
1178.000000	18.427160
1179.000000	18.401380
1180.000000	18.375114
1181.000000	18.348423
1182.000000	18.321866
1183.000000	18.295460
1184.000000	18.269437
1185.000000	18.243311
1186.000000	18.216986
1187.000000	18.191186
1188.000000	18.165763
1189.000000	18.141100
1190.000000	18.118834
1191.000000	18.096626
1192.000000	18.075517
1193.000000	18.056457
1194.000000	18.038266
1195.000000	18.021874
1196.000000	18.007611
1197.000000	17.995120
1198.000000	17.984014
1199.000000	17.975543
1200.000000	17.968666
1201.000000	17.963460
1202.000000	17.959671
1203.000000	17.956006
1204.000000	17.954609
1205.000000	17.954631
1206.000000	17.955363
1207.000000	17.956849
1208.000000	17.958563
1209.000000	17.962763
1210.000000	17.967746
1211.000000	17.974051
1212.000000	17.981089
1213.000000	17.989243
1214.000000	17.998454
1215.000000	18.009051
1216.000000	18.019909
1217.000000	18.030983
1218.000000	18.043454
1219.000000	18.056623
1220.000000	18.069889
1221.000000	18.084049
1222.000000	18.098180
1223.000000	18.112334
1224.000000	18.126923
1225.000000	18.140311
1226.000000	18.154134
1227.000000	18.167854
1228.000000	18.181257
1229.000000	18.194706
1230.000000	18.207600
1231.000000	18.219846
1232.000000	18.232217
1233.000000	18.244677
1234.000000	18.255851
1235.000000	18.266109
1236.000000	18.276543
1237.000000	18.286437
1238.000000	18.296206
1239.000000	18.304543
1240.000000	18.312491
1241.000000	18.320563
1242.000000	18.328706
1243.000000	18.337246
1244.000000	18.345600
1245.000000	18.353709
1246.000000	18.361797
1247.000000	18.370177
1248.000000	18.378611
1249.000000	18.387071
1250.000000	18.395377
1251.000000	18.404217
1252.000000	18.413474
1253.000000	18.421909
1254.000000	18.430100
1255.000000	18.438657
1256.000000	18.447763
1257.000000	18.456914
1258.000000	18.466291
1259.000000	18.475386
1260.000000	18.484806
1261.000000	18.493709
1262.000000	18.502569
1263.000000	18.511397
1264.000000	18.519697
1265.000000	18.528674
1266.000000	18.537520
1267.000000	18.545446
1268.000000	18.552817
1269.000000	18.561229
1270.000000	18.570043
1271.000000	18.578283
1272.000000	18.586214
1273.000000	18.594311
1274.000000	18.602249
1275.000000	18.610074
1276.000000	18.617811
1277.000000	18.625400
1278.000000	18.632460
1279.000000	18.639431
1280.000000	18.646277
1281.000000	18.652923
1282.000000	18.658863
1283.000000	18.664497
1284.000000	18.670369
1285.000000	18.675860
1286.000000	18.680929
1287.000000	18.685511
1288.000000	18.690194
1289.000000	18.694483
1290.000000	18.698903
1291.000000	18.703094
1292.000000	18.707271
1293.000000	18.711386
1294.000000	18.714946
1295.000000	18.718237
1296.000000	18.722231
1297.000000	18.725729
1298.000000	18.729040
1299.000000	18.732671
1300.000000	18.736120
1301.000000	18.739883
1302.000000	18.743883
1303.000000	18.747666
1304.000000	18.751463
1305.000000	18.755674
1306.000000	18.760094
1307.000000	18.764226
1308.000000	18.767986
1309.000000	18.771977
1310.000000	18.775843
1311.000000	18.779411
1312.000000	18.782586
1313.000000	18.786020
1314.000000	18.788629
1315.000000	18.790011
1316.000000	18.791051
1317.000000	18.791631
1318.000000	18.791583
1319.000000	18.791003
1320.000000	18.790031
1321.000000	18.788283
1322.000000	18.785346
1323.000000	18.781777
1324.000000	18.777691
1325.000000	18.772609
1326.000000	18.766334
1327.000000	18.759023
1328.000000	18.750754
1329.000000	18.742080
1330.000000	18.732700
1331.000000	18.722443
1332.000000	18.711691
1333.000000	18.700206
1334.000000	18.687474
1335.000000	18.673631
1336.000000	18.659034
1337.000000	18.643091
1338.000000	18.626169
1339.000000	18.607411
1340.000000	18.586997
1341.000000	18.565420
1342.000000	18.543243
1343.000000	18.519809
1344.000000	18.495146
1345.000000	18.469191
1346.000000	18.441280
1347.000000	18.412943
1348.000000	18.383569
1349.000000	18.353209
1350.000000	18.320891
1351.000000	18.286863
1352.000000	18.252049
1353.000000	18.215714
1354.000000	18.178074
1355.000000	18.140949
1356.000000	18.103840
1357.000000	18.066014
1358.000000	18.027349
1359.000000	17.987260
1360.000000	17.946029
1361.000000	17.907300
1362.000000	17.871137
1363.000000	17.834294
1364.000000	17.795866
1365.000000	17.758040
1366.000000	17.718849
1367.000000	17.678020
1368.000000	17.637669
1369.000000	17.596543
1370.000000	17.552800
1371.000000	17.507183
1372.000000	17.460129
1373.000000	17.409506
1374.000000	17.354529
1375.000000	17.296123
1376.000000	17.234414
1377.000000	17.168166
1378.000000	17.098017
1379.000000	17.023389
1380.000000	16.946240
1381.000000	16.868474
1382.000000	16.791963
1383.000000	16.715091
1384.000000	16.638877
1385.000000	16.563200
1386.000000	16.487774
1387.000000	16.412669
1388.000000	16.340157
1389.000000	16.269366
1390.000000	16.196400
1391.000000	16.122189
1392.000000	16.050560
1393.000000	15.980266
1394.000000	15.910671
1395.000000	15.843577
1396.000000	15.777209
1397.000000	15.708431
1398.000000	15.637569
1399.000000	15.565757
1400.000000	15.495874
1401.000000	15.430343
1402.000000	15.364666
1403.000000	15.294911
1404.000000	15.223600
1405.000000	15.155486
1406.000000	15.088534
1407.000000	15.021777
1408.000000	14.957923
1409.000000	14.898003
1410.000000	14.840540
1411.000000	14.784500
1412.000000	14.730634
1413.000000	14.680094
1414.000000	14.634103
1415.000000	14.591386
1416.000000	14.547906
1417.000000	14.501126
1418.000000	14.454254
1419.000000	14.407157
1420.000000	14.361417
1421.000000	14.314403
1422.000000	14.265563
1423.000000	14.215234
1424.000000	14.163637
1425.000000	14.111786
1426.000000	14.060234
1427.000000	14.006214
1428.000000	13.951306
1429.000000	13.896034
1430.000000	13.838743
1431.000000	13.777329
1432.000000	13.716254
1433.000000	13.657886
1434.000000	13.601726
1435.000000	13.541934
1436.000000	13.479103
1437.000000	13.417617
1438.000000	13.360377
1439.000000	13.305377
1440.000000	13.248811
1441.000000	13.193249
1442.000000	13.139477
1443.000000	13.087043
1444.000000	13.035860
1445.000000	12.985763
1446.000000	12.938474
1447.000000	12.894209
1448.000000	12.850731
1449.000000	12.806911
1450.000000	12.763726
1451.000000	12.724060
1452.000000	12.686951
1453.000000	12.649640
1454.000000	12.612594
1455.000000	12.575629
1456.000000	12.541137
1457.000000	12.508329
1458.000000	12.475334
1459.000000	12.442411
1460.000000	12.410426
1461.000000	12.379809
1462.000000	12.349806
1463.000000	12.319620
1464.000000	12.291220
1465.000000	12.263754
1466.000000	12.236703
1467.000000	12.209034
1468.000000	12.180669
1469.000000	12.152400
1470.000000	12.125786
1471.000000	12.099563
1472.000000	12.073714
1473.000000	12.047337
1474.000000	12.021491
1475.000000	11.996654
1476.000000	11.971706
1477.000000	11.946580
1478.000000	11.922240
1479.000000	11.898157
1480.000000	11.873886
1481.000000	11.850137
1482.000000	11.826083
1483.000000	11.802583
1484.000000	11.780746
1485.000000	11.758886
1486.000000	11.736680
1487.000000	11.714789
1488.000000	11.694000
1489.000000	11.673340
1490.000000	11.653354
1491.000000	11.634089
1492.000000	11.616120
1493.000000	11.599100
1494.000000	11.582163
1495.000000	11.566934
1496.000000	11.552023
1497.000000	11.537983
1498.000000	11.525451
1499.000000	11.513417
1500.000000	11.501926
1501.000000	11.492686
1502.000000	11.484051
1503.000000	11.477451
1504.000000	11.472640
1505.000000	11.468774
1506.000000	11.466220
1507.000000	11.464691
1508.000000	11.465149
1509.000000	11.466843
1510.000000	11.469534
1511.000000	11.473466
1512.000000	11.478877
1513.000000	11.484974
1514.000000	11.492169
1515.000000	11.501329
1516.000000	11.510749
1517.000000	11.521374
1518.000000	11.533626
1519.000000	11.546529
1520.000000	11.560583
1521.000000	11.575466
1522.000000	11.590377
1523.000000	11.606357
1524.000000	11.623140
1525.000000	11.640649
1526.000000	11.658446
1527.000000	11.676657
1528.000000	11.695946
1529.000000	11.716400
1530.000000	11.736771
1531.000000	11.758000
1532.000000	11.779531
1533.000000	11.800680
1534.000000	11.822034
1535.000000	11.844234
1536.000000	11.865726
1537.000000	11.887369
1538.000000	11.908869
1539.000000	11.929514
1540.000000	11.949343
1541.000000	11.968517
1542.000000	11.988377
1543.000000	12.007660
1544.000000	12.026797
1545.000000	12.046251
1546.000000	12.065037
1547.000000	12.083594
1548.000000	12.101989
1549.000000	12.121091
1550.000000	12.140169
1551.000000	12.158794
1552.000000	12.177349
1553.000000	12.195937
1554.000000	12.214437
1555.000000	12.232589
1556.000000	12.250697
1557.000000	12.269126
1558.000000	12.287214
1559.000000	12.305051
1560.000000	12.322671
1561.000000	12.339709
1562.000000	12.355686
1563.000000	12.370409
1564.000000	12.384651
1565.000000	12.399034
1566.000000	12.411914
1567.000000	12.423757
1568.000000	12.435566
1569.000000	12.446526
1570.000000	12.456094
1571.000000	12.465437
1572.000000	12.475089
1573.000000	12.484149
1574.000000	12.493369
1575.000000	12.503046
1576.000000	12.512329
1577.000000	12.520251
1578.000000	12.527440
1579.000000	12.534529
1580.000000	12.541283
1581.000000	12.548091
1582.000000	12.555094
1583.000000	12.561600
1584.000000	12.567149
1585.000000	12.572671
1586.000000	12.578549
1587.000000	12.584591
1588.000000	12.590200
1589.000000	12.595486
1590.000000	12.600711
1591.000000	12.605903
1592.000000	12.611449
1593.000000	12.617054
1594.000000	12.623377
1595.000000	12.630297
1596.000000	12.637583
1597.000000	12.645797
1598.000000	12.654803
1599.000000	12.664517
1600.000000	12.674557
1601.000000	12.685503
1602.000000	12.698277
1603.000000	12.711991
1604.000000	12.726366
1605.000000	12.741920
1606.000000	12.758037
1607.000000	12.774023
1608.000000	12.790997
1609.000000	12.808440
1610.000000	12.825829
1611.000000	12.844086
1612.000000	12.863060
1613.000000	12.882717
1614.000000	12.902537
1615.000000	12.922860
1616.000000	12.943094
1617.000000	12.962683
1618.000000	12.982660
1619.000000	13.002603
1620.000000	13.021954
1621.000000	13.041011
1622.000000	13.059937
1623.000000	13.078289
1624.000000	13.096854
1625.000000	13.115114
1626.000000	13.133957
1627.000000	13.152260
1628.000000	13.170483
1629.000000	13.188103
1630.000000	13.205251
1631.000000	13.222637
1632.000000	13.240217
1633.000000	13.257620
1634.000000	13.274006
1635.000000	13.289909
1636.000000	13.305837
1637.000000	13.320677
1638.000000	13.335134
1639.000000	13.348460
1640.000000	13.361457
1641.000000	13.373717
1642.000000	13.386289
1643.000000	13.397723
1644.000000	13.409023
1645.000000	13.419797
1646.000000	13.429006
1647.000000	13.437854
1648.000000	13.446189
1649.000000	13.454080
1650.000000	13.461343
1651.000000	13.467957
1652.000000	13.474274
1653.000000	13.479826
1654.000000	13.484683
1655.000000	13.489034
1656.000000	13.492166
1657.000000	13.494306
1658.000000	13.496371
1659.000000	13.496951
1660.000000	13.496320
1661.000000	13.493449
1662.000000	13.488969
1663.000000	13.483057
1664.000000	13.475420
1665.000000	13.465700
1666.000000	13.455120
1667.000000	13.441991
1668.000000	13.425120
1669.000000	13.406689
1670.000000	13.386026
1671.000000	13.363529
1672.000000	13.339040
1673.000000	13.313183
1674.000000	13.285929
1675.000000	13.256589
1676.000000	13.226531
1677.000000	13.194003
1678.000000	13.160103
1679.000000	13.124037
1680.000000	13.086354
1681.000000	13.047617
1682.000000	13.006009
1683.000000	12.962420
1684.000000	12.916363
1685.000000	12.868414
1686.000000	12.820463
1687.000000	12.771620
1688.000000	12.722374
1689.000000	12.673337
1690.000000	12.626169
1691.000000	12.580826
1692.000000	12.536146
1693.000000	12.492640
1694.000000	12.451360
1695.000000	12.411197
1696.000000	12.373111
1697.000000	12.336463
1698.000000	12.300577
1699.000000	12.267040
1700.000000	12.234260
1701.000000	12.202406
1702.000000	12.172026
1703.000000	12.144206
1704.000000	12.118963
1705.000000	12.094114
1706.000000	12.070329
1707.000000	12.047729
1708.000000	12.024874
1709.000000	12.002669
1710.000000	11.981269
1711.000000	11.959660
1712.000000	11.938111
1713.000000	11.917117
1714.000000	11.895934
1715.000000	11.873923
1716.000000	11.851374
1717.000000	11.829611
1718.000000	11.807917
1719.000000	11.785906
1720.000000	11.763640
1721.000000	11.740611
1722.000000	11.717703
1723.000000	11.695380
1724.000000	11.673509
1725.000000	11.650143
1726.000000	11.626209
1727.000000	11.602114
1728.000000	11.577591
1729.000000	11.552331
1730.000000	11.528209
1731.000000	11.503806
1732.000000	11.480086
1733.000000	11.457651
1734.000000	11.434831
1735.000000	11.413677
1736.000000	11.392994
1737.000000	11.373320
1738.000000	11.355443
1739.000000	11.338674
1740.000000	11.324740
1741.000000	11.311011
1742.000000	11.298851
1743.000000	11.289029
1744.000000	11.281169
1745.000000	11.274863
1746.000000	11.270703
1747.000000	11.269297
1748.000000	11.269131
1749.000000	11.270869
1750.000000	11.276400
1751.000000	11.285183
1752.000000	11.295711
1753.000000	11.307920
1754.000000	11.322917
1755.000000	11.340146
1756.000000	11.358774
1757.000000	11.378523
1758.000000	11.397554
1759.000000	11.416083
1760.000000	11.434534
1761.000000	11.453343
1762.000000	11.472223
1763.000000	11.490780
1764.000000	11.508666
1765.000000	11.525826
1766.000000	11.543131
1767.000000	11.560137
1768.000000	11.576546
1769.000000	11.593503
1770.000000	11.609837
1771.000000	11.625446
1772.000000	11.640880
1773.000000	11.656046
1774.000000	11.669723
1775.000000	11.682969
1776.000000	11.696920
1777.000000	11.710940
1778.000000	11.723931
1779.000000	11.736497
1780.000000	11.748874
1781.000000	11.760666
1782.000000	11.772451
1783.000000	11.784089
1784.000000	11.795180
1785.000000	11.805769
1786.000000	11.815831
1787.000000	11.825906
1788.000000	11.836031
1789.000000	11.846160
1790.000000	11.856177
1791.000000	11.866034
1792.000000	11.876077
1793.000000	11.887131
1794.000000	11.897743
1795.000000	11.908489
1796.000000	11.919083
1797.000000	11.929797
1798.000000	11.940306
1799.000000	11.950566
1800.000000	11.960577
1801.000000	11.970286
1802.000000	11.980663
1803.000000	11.990454
1804.000000	11.998506
1805.000000	12.006686
1806.000000	12.015540
1807.000000	12.024843
1808.000000	12.032994
1809.000000	12.039989
1810.000000	12.045769
1811.000000	12.052177
1812.000000	12.058746
1813.000000	12.065003
1814.000000	12.070546
1815.000000	12.075640
1816.000000	12.080514
1817.000000	12.083486
1818.000000	12.084326
1819.000000	12.084589
1820.000000	12.086569
1821.000000	12.091449
1822.000000	12.098229
1823.000000	12.103654
1824.000000	12.105537
1825.000000	12.105840
1826.000000	12.106154
1827.000000	12.107286
1828.000000	12.109183
1829.000000	12.111703
1830.000000	12.114834
1831.000000	12.118991
1832.000000	12.122426
1833.000000	12.123403
1834.000000	12.122794
1835.000000	12.121994
1836.000000	12.122680
1837.000000	12.124720
1838.000000	12.127717
1839.000000	12.131131
1840.000000	12.135371
1841.000000	12.141254
1842.000000	12.149511
1843.000000	12.158223
1844.000000	12.163846
1845.000000	12.164646
1846.000000	12.161994
1847.000000	12.161254
1848.000000	12.166251
1849.000000	12.175609
1850.000000	12.183497
1851.000000	12.187414
1852.000000	12.190171
1853.000000	12.194834
1854.000000	12.201326
1855.000000	12.206600
1856.000000	12.208271
1857.000000	12.206029
1858.000000	12.203686
1859.000000	12.205894
1860.000000	12.211037
1861.000000	12.217146
1862.000000	12.221523
1863.000000	12.221963
1864.000000	12.218957
1865.000000	12.212046
1866.000000	12.200863
1867.000000	12.187697
1868.000000	12.175289
1869.000000	12.163889
1870.000000	12.153231
1871.000000	12.141854
1872.000000	12.128231
1873.000000	12.114154
1874.000000	12.100346
1875.000000	12.083354
1876.000000	12.062417
1877.000000	12.036271
1878.000000	12.007397
1879.000000	11.979040
1880.000000	11.951346
1881.000000	11.920889
1882.000000	11.883951
1883.000000	11.838711
1884.000000	11.786243
1885.000000	11.731660
1886.000000	11.677454
1887.000000	11.620449
1888.000000	11.557303
1889.000000	11.487760
1890.000000	11.412817
1891.000000	11.334840
1892.000000	11.255117
1893.000000	11.172637
1894.000000	11.083537
1895.000000	10.986960
1896.000000	10.882486
1897.000000	10.772211
1898.000000	10.659503
1899.000000	10.546363
1900.000000	10.433494
1901.000000	10.318971
1902.000000	10.201723
1903.000000	10.081137
1904.000000	9.957029
1905.000000	9.828863
1906.000000	9.698103
1907.000000	9.563980
1908.000000	9.426389
1909.000000	9.284677
1910.000000	9.141006
1911.000000	8.994969
1912.000000	8.848529
1913.000000	8.703683
1914.000000	8.561543
1915.000000	8.421906
1916.000000	8.284811
1917.000000	8.148089
1918.000000	8.011160
1919.000000	7.876277
1920.000000	7.743757
1921.000000	7.614009
1922.000000	7.489260
1923.000000	7.369660
1924.000000	7.254360
1925.000000	7.141614
1926.000000	7.031789
1927.000000	6.926266
1928.000000	6.824194
1929.000000	6.726900
1930.000000	6.635617
1931.000000	6.551434
1932.000000	6.473620
1933.000000	6.399963
1934.000000	6.330314
1935.000000	6.264257
1936.000000	6.202037
1937.000000	6.145243
1938.000000	6.094194
1939.000000	6.048157
1940.000000	6.006526
1941.000000	5.966089
1942.000000	5.929260
1943.000000	5.896023
1944.000000	5.866926
1945.000000	5.843360
1946.000000	5.824243
1947.000000	5.808903
1948.000000	5.794740
1949.000000	5.781663
1950.000000	5.771503
1951.000000	5.764614
1952.000000	5.761663
1953.000000	5.762371
1954.000000	5.765406
1955.000000	5.770069
1956.000000	5.776674
1957.000000	5.784466
1958.000000	5.793503
1959.000000	5.805246
1960.000000	5.819526
1961.000000	5.834660
1962.000000	5.851343
1963.000000	5.869440
1964.000000	5.889060
1965.000000	5.909857
1966.000000	5.931597
1967.000000	5.953149
1968.000000	5.976069
1969.000000	5.999926
1970.000000	6.024063
1971.000000	6.049240
1972.000000	6.074540
1973.000000	6.100774
1974.000000	6.126769
1975.000000	6.152843
1976.000000	6.179617
1977.000000	6.206663
1978.000000	6.234369
1979.000000	6.263266
1980.000000	6.291694
1981.000000	6.319520
1982.000000	6.347114
1983.000000	6.375451
1984.000000	6.403997
1985.000000	6.432766
1986.000000	6.461797
1987.000000	6.490743
1988.000000	6.520186
1989.000000	6.549237
1990.000000	6.578209
1991.000000	6.606406
1992.000000	6.634520
1993.000000	6.662783
1994.000000	6.690414
1995.000000	6.717514
1996.000000	6.744797
1997.000000	6.770789
1998.000000	6.796983
1999.000000	6.822823
2000.000000	6.847334
2001.000000	6.871466
2002.000000	6.896357
2003.000000	6.921514
2004.000000	6.945946
2005.000000	6.969114
2006.000000	6.991106
2007.000000	7.013291
2008.000000	7.033997
2009.000000	7.054197
2010.000000	7.072937
2011.000000	7.090563
2012.000000	7.107449
2013.000000	7.124031
2014.000000	7.138546
2015.000000	7.151546
2016.000000	7.163669
2017.000000	7.173991
2018.000000	7.182869
2019.000000	7.190363
2020.000000	7.195871
2021.000000	7.199260
2022.000000	7.201529
2023.000000	7.201083
2024.000000	7.199431
2025.000000	7.196717
2026.000000	7.192283
2027.000000	7.185803
2028.000000	7.177843
2029.000000	7.168391
2030.000000	7.157166
2031.000000	7.144369
2032.000000	7.129597
2033.000000	7.112789
2034.000000	7.094180
2035.000000	7.074337
2036.000000	7.052311
2037.000000	7.028046
2038.000000	7.001117
2039.000000	6.972640
2040.000000	6.943117
2041.000000	6.912009
2042.000000	6.878900
2043.000000	6.844209
2044.000000	6.807649
2045.000000	6.769809
2046.000000	6.731100
2047.000000	6.691340
2048.000000	6.649729
2049.000000	6.607551
2050.000000	6.564480
2051.000000	6.522163
2052.000000	6.479763
2053.000000	6.437631
2054.000000	6.396391
2055.000000	6.355923
2056.000000	6.316814
2057.000000	6.278234
2058.000000	6.241583
2059.000000	6.206537
2060.000000	6.172634
2061.000000	6.140723
2062.000000	6.111071
2063.000000	6.084234
2064.000000	6.058940
2065.000000	6.036243
2066.000000	6.015300
2067.000000	5.997237
2068.000000	5.981571
2069.000000	5.968509
2070.000000	5.957471
2071.000000	5.948711
2072.000000	5.942746
2073.000000	5.939986
2074.000000	5.939006
2075.000000	5.940037
2076.000000	5.943780
2077.000000	5.949217
2078.000000	5.957009
2079.000000	5.967086
2080.000000	5.978789
2081.000000	5.992143
2082.000000	6.006829
2083.000000	6.022800
2084.000000	6.040291
2085.000000	6.058860
2086.000000	6.077314
2087.000000	6.096134
2088.000000	6.114940
2089.000000	6.133477
2090.000000	6.152349
2091.000000	6.170480
2092.000000	6.187857
2093.000000	6.204997
2094.000000	6.220780
2095.000000	6.235631
2096.000000	6.249766
2097.000000	6.262420
2098.000000	6.273263
2099.000000	6.283274
2100.000000	6.291783
2101.000000	6.299494
2102.000000	6.306023
2103.000000	6.311297
2104.000000	6.315249
2105.000000	6.318677
2106.000000	6.320520
2107.000000	6.321166
2108.000000	6.320580
2109.000000	6.319034
2110.000000	6.317266
2111.000000	6.314306
2112.000000	6.310340
2113.000000	6.305266
2114.000000	6.299949
2115.000000	6.294580
2116.000000	6.288494
2117.000000	6.281806
2118.000000	6.274220
2119.000000	6.265751
2120.000000	6.257537
2121.000000	6.248763
2122.000000	6.239720
2123.000000	6.230646
2124.000000	6.221043
2125.000000	6.210940
2126.000000	6.200897
2127.000000	6.190451
2128.000000	6.179280
2129.000000	6.168063
2130.000000	6.156334
2131.000000	6.143609
2132.000000	6.130217
2133.000000	6.116437
2134.000000	6.101760
2135.000000	6.086197
2136.000000	6.069423
2137.000000	6.052197
2138.000000	6.034311
2139.000000	6.015051
2140.000000	5.995066
2141.000000	5.974980
2142.000000	5.953997
2143.000000	5.932380
2144.000000	5.910306
2145.000000	5.886523
2146.000000	5.862151
2147.000000	5.837406
2148.000000	5.812111
2149.000000	5.786363
2150.000000	5.759166
2151.000000	5.731046
2152.000000	5.702463
2153.000000	5.673983
2154.000000	5.645614
2155.000000	5.616486
2156.000000	5.587380
2157.000000	5.558229
2158.000000	5.528820
2159.000000	5.499314
2160.000000	5.469626
2161.000000	5.439929
2162.000000	5.410943
2163.000000	5.381946
2164.000000	5.353277
2165.000000	5.325100
2166.000000	5.296780
2167.000000	5.269194
2168.000000	5.241766
2169.000000	5.215331
2170.000000	5.189637
2171.000000	5.164960
2172.000000	5.140306
2173.000000	5.116129
2174.000000	5.093546
2175.000000	5.071497
2176.000000	5.049674
2177.000000	5.028371
2178.000000	5.007791
2179.000000	4.987566
2180.000000	4.968991
2181.000000	4.950923
2182.000000	4.933746
2183.000000	4.916723
2184.000000	4.899286
2185.000000	4.882797
2186.000000	4.867491
2187.000000	4.851926
2188.000000	4.836214
2189.000000	4.820554
2190.000000	4.803829
2191.000000	4.786831
2192.000000	4.769166
2193.000000	4.750637
2194.000000	4.731909
2195.000000	4.711529
2196.000000	4.689920
2197.000000	4.666617
2198.000000	4.642394
2199.000000	4.616671
2200.000000	4.590031
2201.000000	4.562983
2202.000000	4.534871
2203.000000	4.506197
2204.000000	4.475906
2205.000000	4.445537
2206.000000	4.414849
2207.000000	4.384329
2208.000000	4.353937
2209.000000	4.322991
2210.000000	4.293014
2211.000000	4.263183
2212.000000	4.234660
2213.000000	4.206143
2214.000000	4.179446
2215.000000	4.153134
2216.000000	4.128237
2217.000000	4.105331
2218.000000	4.083697
2219.000000	4.064214
2220.000000	4.045500
2221.000000	4.028580
2222.000000	4.014000
2223.000000	4.001414
2224.000000	3.990543
2225.000000	3.982117
2226.000000	3.975709
2227.000000	3.970671
2228.000000	3.967814
2229.000000	3.965837
2230.000000	3.967189
2231.000000	3.970226
2232.000000	3.975714
2233.000000	3.982589
2234.000000	3.990946
2235.000000	4.000331
2236.000000	4.011166
2237.000000	4.022931
2238.000000	4.035906
2239.000000	4.049920
2240.000000	4.063780
2241.000000	4.077351
2242.000000	4.090151
2243.000000	4.103251
2244.000000	4.116097
2245.000000	4.126900
2246.000000	4.137634
2247.000000	4.146769
2248.000000	4.155109
2249.000000	4.160957
2250.000000	4.165463
2251.000000	4.168594
2252.000000	4.168863
2253.000000	4.167869
2254.000000	4.164234
2255.000000	4.159309
2256.000000	4.152206
2257.000000	4.143403
2258.000000	4.132483
2259.000000	4.119917
2260.000000	4.106686
2261.000000	4.091686
2262.000000	4.076394
2263.000000	4.059434
2264.000000	4.042217
2265.000000	4.023954
2266.000000	4.005966
2267.000000	3.988163
2268.000000	3.970660
2269.000000	3.952983
2270.000000	3.934991
2271.000000	3.917654
2272.000000	3.900554
2273.000000	3.883097
2274.000000	3.866300
2275.000000	3.850860
2276.000000	3.836386
2277.000000	3.823246
2278.000000	3.809729
2279.000000	3.796726
2280.000000	3.785326
2281.000000	3.774374
2282.000000	3.764283
2283.000000	3.755009
2284.000000	3.746766
2285.000000	3.739611
2286.000000	3.733409
2287.000000	3.728069
2288.000000	3.722769
2289.000000	3.718817
2290.000000	3.716166
2291.000000	3.713774
2292.000000	3.712103
2293.000000	3.711929
2294.000000	3.712474
2295.000000	3.712791
2296.000000	3.713671
2297.000000	3.714509
2298.000000	3.716620
2299.000000	3.719163
2300.000000	3.721966
2301.000000	3.724286
2302.000000	3.726509
2303.000000	3.728880
2304.000000	3.731729
2305.000000	3.735240
2306.000000	3.738500
2307.000000	3.742563
2308.000000	3.746831
2309.000000	3.751411
2310.000000	3.756714
2311.000000	3.761711
2312.000000	3.765954
2313.000000	3.770980
2314.000000	3.776380
2315.000000	3.781646
2316.000000	3.787197
2317.000000	3.792797
2318.000000	3.798463
2319.000000	3.804383
2320.000000	3.810120
2321.000000	3.815126
2322.000000	3.819743
2323.000000	3.825140
2324.000000	3.830174
2325.000000	3.835197
2326.000000	3.840280
2327.000000	3.844991
2328.000000	3.849043
2329.000000	3.852614
2330.000000	3.856429
2331.000000	3.860797
2332.000000	3.865380
2333.000000	3.868934
2334.000000	3.872480
2335.000000	3.875474
2336.000000	3.878686
2337.000000	3.881377
2338.000000	3.883989
2339.000000	3.886429
2340.000000	3.888931
2341.000000	3.890620
2342.000000	3.891654
2343.000000	3.893640
2344.000000	3.895546
2345.000000	3.895800
2346.000000	3.896443
2347.000000	3.897311
2348.000000	3.897814
2349.000000	3.898571
2350.000000	3.899360
2351.000000	3.899880
2352.000000	3.900043
2353.000000	3.901051
2354.000000	3.902657
2355.000000	3.903766
2356.000000	3.905497
2357.000000	3.908263
2358.000000	3.910691
2359.000000	3.912849
2360.000000	3.914649
2361.000000	3.917271
2362.000000	3.919803
2363.000000	3.922371
2364.000000	3.925617
2365.000000	3.929140
2366.000000	3.932100
2367.000000	3.934897
2368.000000	3.938614
2369.000000	3.942394
2370.000000	3.945954
2371.000000	3.949503
2372.000000	3.953214
2373.000000	3.956829
2374.000000	3.960431
2375.000000	3.964006
2376.000000	3.967874
2377.000000	3.971380
2378.000000	3.974249
2379.000000	3.977051
2380.000000	3.980229
2381.000000	3.983243
2382.000000	3.986286
2383.000000	3.989091
2384.000000	3.990794
2385.000000	3.992123
2386.000000	3.993569
2387.000000	3.995360
2388.000000	3.996360
2389.000000	3.996014
2390.000000	3.995943
2391.000000	3.995200
2392.000000	3.993483
2393.000000	3.992120
2394.000000	3.991466
2395.000000	3.990483
2396.000000	3.988529
2397.000000	3.986869
2398.000000	3.985069
2399.000000	3.982374
2400.000000	3.979026
2401.000000	3.975360
2402.000000	3.971843
2403.000000	3.968083
2404.000000	3.963791
2405.000000	3.959200
2406.000000	3.953974
2407.000000	3.948323
2408.000000	3.941903
2409.000000	3.935503
2410.000000	3.928003
2411.000000	3.920006
2412.000000	3.911829
2413.000000	3.902651
2414.000000	3.892731
2415.000000	3.882109
2416.000000	3.870837
2417.000000	3.859074
2418.000000	3.846491
2419.000000	3.833806
2420.000000	3.820623
2421.000000	3.806714
2422.000000	3.791886
2423.000000	3.775969
2424.000000	3.759403
2425.000000	3.741217
2426.000000	3.722963
2427.000000	3.704849
2428.000000	3.685051
2429.000000	3.664677
2430.000000	3.644051
2431.000000	3.622834
2432.000000	3.600560
2433.000000	3.577751
2434.000000	3.554989
2435.000000	3.531369
2436.000000	3.507866
2437.000000	3.483386
2438.000000	3.457714
2439.000000	3.431891
2440.000000	3.406434
2441.000000	3.380606
2442.000000	3.354111
2443.000000	3.327546
2444.000000	3.300206
2445.000000	3.273017
2446.000000	3.245326
2447.000000	3.217563
2448.000000	3.189931
2449.000000	3.161306
2450.000000	3.132883
2451.000000	3.104571
2452.000000	3.076514
2453.000000	3.049037
2454.000000	3.021663
2455.000000	2.993920
2456.000000	2.965494
2457.000000	2.938414
2458.000000	2.911914
2459.000000	2.886303
2460.000000	2.862083
2461.000000	2.838011
2462.000000	2.813397
2463.000000	2.789551
2464.000000	2.766311
2465.000000	2.742511
2466.000000	2.720277
2467.000000	2.697917
2468.000000	2.675206
2469.000000	2.654657
2470.000000	2.634717
2471.000000	2.615331
2472.000000	2.596003
2473.000000	2.577051
2474.000000	2.558689
2475.000000	2.540609
2476.000000	2.522714
2477.000000	2.506994
2478.000000	2.491597
2479.000000	2.476326
2480.000000	2.462586
2481.000000	2.451117
2482.000000	2.438834
2483.000000	2.426146
2484.000000	2.415006
2485.000000	2.403420
2486.000000	2.394311
2487.000000	2.384703
2488.000000	2.375931
2489.000000	2.367231
2490.000000	2.361863
2491.000000	2.356566
2492.000000	2.352294
2493.000000	2.348123
2494.000000	2.342943
2495.000000	2.343134
2496.000000	2.337131
2497.000000	2.332874
2498.000000	2.330503
2499.000000	2.331763
2500.000000	2.331583
