PE UV       SUBTECH     SPECTRUM    ASCII       PEDS        4.00        
   -1
ANGSOL0005-1.Sample.ASC
24/03/07
14:30:02.00
24/03/07
14:30:02.00
Vinicio Soto Monge
Chrysina macropus. Mexico, Hidalgo. Tlanchinol. 7-28 Junio 1992.
250,000000
1
Lambda 1050
1050L1511233
PerkinElmer UV WinLab 6.3.2.0749 / 2.02.05 Lambda 900 UV/VIS/NIR, Aug  7 2015 09:38:08

0
0
3350/servo 860,8/2
0
0
UV/VIS
1
1
1
DoubleDePol,CommonBeamDepol,RBeamAtt,SBeamAtt,60mm sphere, WB InGaAs Detector
0
0
0
0
Program
Program
3350/servo 860,8/2
3350/0,2 860,8/0,2
3350/0,2 860,8/0,2
0
15.00
 
 
 
0
 
860,8
319,2
860,8
Front
100
on
S:100 R:100
0
0
0
0
 
0
 
 
 
0
 
 
0
0
0
0
0
 
 
 
 
0
0


0
0
#HDR
-1
-1
#GR
nm
%R
1.0
0.0
2500,000000
-1,000000
2251
8
20,004000
1,803500
#DATA
250.000000	nan
251.000000	nan
252.000000	nan
253.000000	nan
254.000000	nan
255.000000	nan
256.000000	nan
257.000000	nan
258.000000	nan
259.000000	nan
260.000000	nan
261.000000	nan
262.000000	nan
263.000000	nan
264.000000	nan
265.000000	nan
266.000000	nan
267.000000	nan
268.000000	nan
269.000000	nan
270.000000	nan
271.000000	nan
272.000000	nan
273.000000	nan
274.000000	nan
275.000000	nan
276.000000	nan
277.000000	nan
278.000000	nan
279.000000	nan
280.000000	nan
281.000000	nan
282.000000	nan
283.000000	nan
284.000000	2.182859
285.000000	2.177603
286.000000	2.171341
287.000000	2.166211
288.000000	2.161544
289.000000	2.156207
290.000000	2.150118
291.000000	2.145140
292.000000	2.141307
293.000000	2.139009
294.000000	2.135107
295.000000	2.132227
296.000000	2.128710
297.000000	2.124452
298.000000	2.121680
299.000000	2.119143
300.000000	2.116349
301.000000	2.114440
302.000000	2.113654
303.000000	2.111040
304.000000	2.109579
305.000000	2.107574
306.000000	2.106134
307.000000	2.104210
308.000000	2.102549
309.000000	2.102124
310.000000	2.098497
311.000000	2.097066
312.000000	2.095297
313.000000	2.092560
314.000000	2.091069
315.000000	2.089157
316.000000	2.088497
317.000000	2.092148
318.000000	2.099178
319.000000	2.099898
320.000000	2.105238
321.000000	2.111192
322.000000	2.115641
323.000000	2.119597
324.000000	2.122776
325.000000	2.128468
326.000000	2.129684
327.000000	2.128127
328.000000	2.125740
329.000000	2.129096
330.000000	2.132478
331.000000	2.131459
332.000000	2.134880
333.000000	2.138495
334.000000	2.141746
335.000000	2.143288
336.000000	2.145179
337.000000	2.145370
338.000000	2.145786
339.000000	2.146996
340.000000	2.147295
341.000000	2.149308
342.000000	2.152057
343.000000	2.153611
344.000000	2.155678
345.000000	2.157268
346.000000	2.162371
347.000000	2.164809
348.000000	2.167185
349.000000	2.169548
350.000000	2.171711
351.000000	2.169721
352.000000	2.168051
353.000000	2.165257
354.000000	2.167280
355.000000	2.163641
356.000000	2.159207
357.000000	2.154713
358.000000	2.150665
359.000000	2.148412
360.000000	2.143996
361.000000	2.143067
362.000000	2.145615
363.000000	2.149386
364.000000	2.147223
365.000000	2.145278
366.000000	2.148104
367.000000	2.147516
368.000000	2.146040
369.000000	2.145212
370.000000	2.145902
371.000000	2.143646
372.000000	2.143796
373.000000	2.146120
374.000000	2.145669
375.000000	2.147011
376.000000	2.145714
377.000000	2.140115
378.000000	2.135995
379.000000	2.130082
380.000000	2.126798
381.000000	2.120520
382.000000	2.115937
383.000000	2.112283
384.000000	2.108211
385.000000	2.105271
386.000000	2.105070
387.000000	2.101864
388.000000	2.096002
389.000000	2.092184
390.000000	2.089342
391.000000	2.087538
392.000000	2.087224
393.000000	2.085969
394.000000	2.085126
395.000000	2.085201
396.000000	2.085676
397.000000	2.085847
398.000000	2.084840
399.000000	2.084747
400.000000	2.084636
401.000000	2.084914
402.000000	2.084875
403.000000	2.085811
404.000000	2.086232
405.000000	2.088231
406.000000	2.091966
407.000000	2.094547
408.000000	2.096692
409.000000	2.101231
410.000000	2.105429
411.000000	2.110463
412.000000	2.119352
413.000000	2.128519
414.000000	2.138223
415.000000	2.148095
416.000000	2.158155
417.000000	2.168383
418.000000	2.178816
419.000000	2.189516
420.000000	2.199919
421.000000	2.210195
422.000000	2.220966
423.000000	2.231785
424.000000	2.242454
425.000000	2.253246
426.000000	2.264376
427.000000	2.275569
428.000000	2.286642
429.000000	2.298112
430.000000	2.309579
431.000000	2.320870
432.000000	2.332317
433.000000	2.343969
434.000000	2.355750
435.000000	2.367660
436.000000	2.379674
437.000000	2.391697
438.000000	2.403962
439.000000	2.416230
440.000000	2.428268
441.000000	2.440569
442.000000	2.453271
443.000000	2.466130
444.000000	2.478972
445.000000	2.492059
446.000000	2.505624
447.000000	2.519245
448.000000	2.533124
449.000000	2.547424
450.000000	2.562004
451.000000	2.576929
452.000000	2.592122
453.000000	2.607521
454.000000	2.623318
455.000000	2.639906
456.000000	2.657069
457.000000	2.674586
458.000000	2.692725
459.000000	2.711459
460.000000	2.730829
461.000000	2.750938
462.000000	2.771948
463.000000	2.793879
464.000000	2.816503
465.000000	2.840161
466.000000	2.864670
467.000000	2.889953
468.000000	2.916121
469.000000	2.943382
470.000000	2.971736
471.000000	3.000969
472.000000	3.031161
473.000000	3.062262
474.000000	3.094432
475.000000	3.127767
476.000000	3.162056
477.000000	3.197085
478.000000	3.233268
479.000000	3.270751
480.000000	3.308864
481.000000	3.347458
482.000000	3.387073
483.000000	3.427822
484.000000	3.469595
485.000000	3.512530
486.000000	3.556783
487.000000	3.602667
488.000000	3.650126
489.000000	3.698706
490.000000	3.748426
491.000000	3.799949
492.000000	3.853326
493.000000	3.908288
494.000000	3.964782
495.000000	4.023266
496.000000	4.083504
497.000000	4.145529
498.000000	4.209525
499.000000	4.275329
500.000000	4.343204
501.000000	4.413233
502.000000	4.485420
503.000000	4.559587
504.000000	4.635840
505.000000	4.714271
506.000000	4.795193
507.000000	4.878575
508.000000	4.964320
509.000000	5.052091
510.000000	5.142166
511.000000	5.234209
512.000000	5.327989
513.000000	5.423809
514.000000	5.521679
515.000000	5.621640
516.000000	5.723711
517.000000	5.827655
518.000000	5.933027
519.000000	6.039570
520.000000	6.147324
521.000000	6.256473
522.000000	6.366701
523.000000	6.477780
524.000000	6.589863
525.000000	6.702352
526.000000	6.814647
527.000000	6.926581
528.000000	7.037690
529.000000	7.148034
530.000000	7.256842
531.000000	7.364291
532.000000	7.470183
533.000000	7.574220
534.000000	7.676009
535.000000	7.775624
536.000000	7.872669
537.000000	7.967052
538.000000	8.059305
539.000000	8.149167
540.000000	8.235910
541.000000	8.319624
542.000000	8.400355
543.000000	8.478027
544.000000	8.552658
545.000000	8.623984
546.000000	8.691921
547.000000	8.756560
548.000000	8.817659
549.000000	8.874918
550.000000	8.928424
551.000000	8.978844
552.000000	9.025848
553.000000	9.069337
554.000000	9.109111
555.000000	9.145449
556.000000	9.178046
557.000000	9.206900
558.000000	9.232359
559.000000	9.254195
560.000000	9.266415
561.000000	9.275035
562.000000	9.279863
563.000000	9.281602
564.000000	9.280607
565.000000	9.276920
566.000000	9.269905
567.000000	9.259519
568.000000	9.246094
569.000000	9.229634
570.000000	9.209936
571.000000	9.186899
572.000000	9.160845
573.000000	9.131427
574.000000	9.098172
575.000000	9.061942
576.000000	9.021982
577.000000	8.978623
578.000000	8.931800
579.000000	8.881219
580.000000	8.827208
581.000000	8.770358
582.000000	8.710470
583.000000	8.648161
584.000000	8.583513
585.000000	8.516783
586.000000	8.448065
587.000000	8.377636
588.000000	8.305760
589.000000	8.233108
590.000000	8.159218
591.000000	8.084322
592.000000	8.008282
593.000000	7.930514
594.000000	7.851429
595.000000	7.777133
596.000000	7.702267
597.000000	7.626594
598.000000	7.549887
599.000000	7.472301
600.000000	7.394510
601.000000	7.316647
602.000000	7.238520
603.000000	7.161111
604.000000	7.084539
605.000000	7.008205
606.000000	6.933348
607.000000	6.859393
608.000000	6.786263
609.000000	6.715367
610.000000	6.645622
611.000000	6.577508
612.000000	6.510975
613.000000	6.446189
614.000000	6.383322
615.000000	6.322194
616.000000	6.263073
617.000000	6.206197
618.000000	6.151038
619.000000	6.097281
620.000000	6.045325
621.000000	5.994553
622.000000	5.944898
623.000000	5.896820
624.000000	5.849639
625.000000	5.803382
626.000000	5.758020
627.000000	5.713997
628.000000	5.671441
629.000000	5.630469
630.000000	5.591086
631.000000	5.552937
632.000000	5.516644
633.000000	5.482009
634.000000	5.449032
635.000000	5.417182
636.000000	5.387064
637.000000	5.358420
638.000000	5.330663
639.000000	5.303760
640.000000	5.278065
641.000000	5.253176
642.000000	5.229249
643.000000	5.206569
644.000000	5.183846
645.000000	5.162044
646.000000	5.141237
647.000000	5.120985
648.000000	5.101558
649.000000	5.083744
650.000000	5.066295
651.000000	5.049298
652.000000	5.033139
653.000000	5.017071
654.000000	5.001606
655.000000	4.986568
656.000000	4.971772
657.000000	4.957553
658.000000	4.943274
659.000000	4.929494
660.000000	4.916129
661.000000	4.902642
662.000000	4.889352
663.000000	4.876080
664.000000	4.862793
665.000000	4.850011
666.000000	4.837298
667.000000	4.824453
668.000000	4.811940
669.000000	4.799460
670.000000	4.786977
671.000000	4.774353
672.000000	4.761936
673.000000	4.749369
674.000000	4.737161
675.000000	4.725072
676.000000	4.712723
677.000000	4.700350
678.000000	4.687455
679.000000	4.674804
680.000000	4.662246
681.000000	4.649724
682.000000	4.637059
683.000000	4.624062
684.000000	4.610592
685.000000	4.597798
686.000000	4.584798
687.000000	4.571562
688.000000	4.558174
689.000000	4.544740
690.000000	4.531256
691.000000	4.517933
692.000000	4.504392
693.000000	4.491025
694.000000	4.477544
695.000000	4.463620
696.000000	4.449661
697.000000	4.435272
698.000000	4.421172
699.000000	4.407344
700.000000	4.393466
701.000000	4.379477
702.000000	4.365314
703.000000	4.351570
704.000000	4.337716
705.000000	4.323718
706.000000	4.309615
707.000000	4.295333
708.000000	4.281296
709.000000	4.267182
710.000000	4.252738
711.000000	4.238462
712.000000	4.224497
713.000000	4.210897
714.000000	4.197463
715.000000	4.184000
716.000000	4.170662
717.000000	4.157797
718.000000	4.145239
719.000000	4.132588
720.000000	4.119905
721.000000	4.107341
722.000000	4.094894
723.000000	4.082865
724.000000	4.071266
725.000000	4.060022
726.000000	4.048465
727.000000	4.037575
728.000000	4.026950
729.000000	4.016227
730.000000	4.005925
731.000000	3.996280
732.000000	3.987451
733.000000	3.978768
734.000000	3.969999
735.000000	3.961465
736.000000	3.953772
737.000000	3.946604
738.000000	3.939167
739.000000	3.932074
740.000000	3.926039
741.000000	3.920350
742.000000	3.914987
743.000000	3.909913
744.000000	3.905291
745.000000	3.901661
746.000000	3.898264
747.000000	3.895058
748.000000	3.892216
749.000000	3.889975
750.000000	3.888532
751.000000	3.886961
752.000000	3.885742
753.000000	3.885201
754.000000	3.885598
755.000000	3.886632
756.000000	3.888036
757.000000	3.890050
758.000000	3.892942
759.000000	3.895981
760.000000	3.898691
761.000000	3.902360
762.000000	3.906480
763.000000	3.911102
764.000000	3.916645
765.000000	3.922710
766.000000	3.928973
767.000000	3.935247
768.000000	3.941791
769.000000	3.949224
770.000000	3.957178
771.000000	3.965054
772.000000	3.974295
773.000000	3.984382
774.000000	3.994308
775.000000	4.004114
776.000000	4.014515
777.000000	4.026066
778.000000	4.038289
779.000000	4.051202
780.000000	4.063695
781.000000	4.076435
782.000000	4.090418
783.000000	4.105853
784.000000	4.121193
785.000000	4.136009
786.000000	4.151923
787.000000	4.168272
788.000000	4.184654
789.000000	4.201210
790.000000	4.218292
791.000000	4.235146
792.000000	4.252419
793.000000	4.270955
794.000000	4.289994
795.000000	4.309445
796.000000	4.329932
797.000000	4.350492
798.000000	4.371123
799.000000	4.391984
800.000000	4.413233
801.000000	4.435418
802.000000	4.458108
803.000000	4.480953
804.000000	4.503828
805.000000	4.526963
806.000000	4.550824
807.000000	4.573997
808.000000	4.597563
809.000000	4.623216
810.000000	4.649133
811.000000	4.675698
812.000000	4.702487
813.000000	4.728965
814.000000	4.755721
815.000000	4.782857
816.000000	4.811498
817.000000	4.839399
818.000000	4.866146
819.000000	4.893263
820.000000	4.921200
821.000000	4.948909
822.000000	4.977775
823.000000	5.007444
824.000000	5.037585
825.000000	5.066499
826.000000	5.095236
827.000000	5.125305
828.000000	5.155913
829.000000	5.185842
830.000000	5.216754
831.000000	5.247882
832.000000	5.280554
833.000000	5.313551
834.000000	5.345704
835.000000	5.377599
836.000000	5.408604
837.000000	5.440335
838.000000	5.472334
839.000000	5.505461
840.000000	5.538718
841.000000	5.572236
842.000000	5.605329
843.000000	5.638957
844.000000	5.672114
845.000000	5.704684
846.000000	5.737664
847.000000	5.770261
848.000000	5.800199
849.000000	5.832134
850.000000	5.863581
851.000000	5.891412
852.000000	5.924413
853.000000	5.955983
854.000000	5.986387
855.000000	6.020332
856.000000	6.051056
857.000000	6.084430
858.000000	6.126816
859.000000	6.161421
860.000000	6.197394
861.000000	6.235351
862.000000	6.272889
863.000000	6.309139
864.000000	6.347327
865.000000	6.385269
866.000000	6.423998
867.000000	6.461409
868.000000	6.498430
869.000000	6.537716
870.000000	6.576904
871.000000	6.616645
872.000000	6.656540
873.000000	6.697506
874.000000	6.737780
875.000000	6.778427
876.000000	6.819221
877.000000	6.861416
878.000000	6.902767
879.000000	6.944556
880.000000	6.986769
881.000000	7.029312
882.000000	7.072353
883.000000	7.118711
884.000000	7.163823
885.000000	7.210577
886.000000	7.260792
887.000000	7.306340
888.000000	7.354902
889.000000	7.405905
890.000000	7.453241
891.000000	7.504263
892.000000	7.552693
893.000000	7.591849
894.000000	7.638769
895.000000	7.687217
896.000000	7.735577
897.000000	7.783614
898.000000	7.831491
899.000000	7.879069
900.000000	7.927717
901.000000	7.976423
902.000000	8.025017
903.000000	8.075091
904.000000	8.125051
905.000000	8.176086
906.000000	8.227537
907.000000	8.279363
908.000000	8.330800
909.000000	8.382577
910.000000	8.434397
911.000000	8.487140
912.000000	8.539629
913.000000	8.593309
914.000000	8.646523
915.000000	8.700780
916.000000	8.755306
917.000000	8.810143
918.000000	8.864909
919.000000	8.919163
920.000000	8.974217
921.000000	9.029189
922.000000	9.084440
923.000000	9.138151
924.000000	9.192069
925.000000	9.246603
926.000000	9.301431
927.000000	9.355777
928.000000	9.410977
929.000000	9.466429
930.000000	9.520691
931.000000	9.574454
932.000000	9.628926
933.000000	9.683480
934.000000	9.738154
935.000000	9.792214
936.000000	9.845211
937.000000	9.898934
938.000000	9.952029
939.000000	10.004046
940.000000	10.055840
941.000000	10.107734
942.000000	10.159237
943.000000	10.210886
944.000000	10.262769
945.000000	10.314846
946.000000	10.365651
947.000000	10.417283
948.000000	10.468277
949.000000	10.519480
950.000000	10.570606
951.000000	10.620591
952.000000	10.669906
953.000000	10.719763
954.000000	10.770271
955.000000	10.819751
956.000000	10.868766
957.000000	10.918346
958.000000	10.968371
959.000000	11.017806
960.000000	11.067711
961.000000	11.117211
962.000000	11.166440
963.000000	11.215380
964.000000	11.264094
965.000000	11.312789
966.000000	11.361374
967.000000	11.409977
968.000000	11.458849
969.000000	11.507011
970.000000	11.555566
971.000000	11.604157
972.000000	11.653086
973.000000	11.701677
974.000000	11.750831
975.000000	11.800729
976.000000	11.850217
977.000000	11.899083
978.000000	11.947620
979.000000	11.996054
980.000000	12.043991
981.000000	12.092269
982.000000	12.140034
983.000000	12.187529
984.000000	12.234771
985.000000	12.282043
986.000000	12.329469
987.000000	12.377723
988.000000	12.425320
989.000000	12.471394
990.000000	12.518126
991.000000	12.565511
992.000000	12.611977
993.000000	12.658331
994.000000	12.704566
995.000000	12.750080
996.000000	12.795920
997.000000	12.842106
998.000000	12.888543
999.000000	12.934726
1000.000000	12.981157
1001.000000	13.028217
1002.000000	13.073931
1003.000000	13.119451
1004.000000	13.165320
1005.000000	13.210551
1006.000000	13.255780
1007.000000	13.300029
1008.000000	13.343883
1009.000000	13.387309
1010.000000	13.430060
1011.000000	13.473491
1012.000000	13.517414
1013.000000	13.561443
1014.000000	13.605183
1015.000000	13.649231
1016.000000	13.692974
1017.000000	13.735969
1018.000000	13.779260
1019.000000	13.822714
1020.000000	13.865943
1021.000000	13.909160
1022.000000	13.952214
1023.000000	13.995791
1024.000000	14.040031
1025.000000	14.083897
1026.000000	14.127631
1027.000000	14.171637
1028.000000	14.215743
1029.000000	14.259754
1030.000000	14.304434
1031.000000	14.349080
1032.000000	14.393320
1033.000000	14.437109
1034.000000	14.481051
1035.000000	14.524689
1036.000000	14.567860
1037.000000	14.611574
1038.000000	14.655531
1039.000000	14.699057
1040.000000	14.742611
1041.000000	14.785811
1042.000000	14.829300
1043.000000	14.873006
1044.000000	14.916589
1045.000000	14.960097
1046.000000	15.003531
1047.000000	15.046803
1048.000000	15.090091
1049.000000	15.133106
1050.000000	15.176291
1051.000000	15.220197
1052.000000	15.264023
1053.000000	15.307226
1054.000000	15.349760
1055.000000	15.392574
1056.000000	15.435543
1057.000000	15.477997
1058.000000	15.520246
1059.000000	15.562777
1060.000000	15.604994
1061.000000	15.646369
1062.000000	15.687503
1063.000000	15.729543
1064.000000	15.771097
1065.000000	15.811894
1066.000000	15.852526
1067.000000	15.893523
1068.000000	15.934563
1069.000000	15.975329
1070.000000	16.015494
1071.000000	16.055889
1072.000000	16.096331
1073.000000	16.136831
1074.000000	16.177091
1075.000000	16.217023
1076.000000	16.257011
1077.000000	16.296957
1078.000000	16.337609
1079.000000	16.378646
1080.000000	16.419811
1081.000000	16.460331
1082.000000	16.500466
1083.000000	16.540706
1084.000000	16.580746
1085.000000	16.620320
1086.000000	16.659163
1087.000000	16.698220
1088.000000	16.737609
1089.000000	16.776663
1090.000000	16.814957
1091.000000	16.853117
1092.000000	16.891660
1093.000000	16.929731
1094.000000	16.967049
1095.000000	17.003831
1096.000000	17.041169
1097.000000	17.078329
1098.000000	17.114440
1099.000000	17.150346
1100.000000	17.186669
1101.000000	17.222863
1102.000000	17.258414
1103.000000	17.293440
1104.000000	17.328331
1105.000000	17.363483
1106.000000	17.398074
1107.000000	17.432291
1108.000000	17.466134
1109.000000	17.499791
1110.000000	17.533223
1111.000000	17.566346
1112.000000	17.598866
1113.000000	17.630509
1114.000000	17.661714
1115.000000	17.691871
1116.000000	17.722223
1117.000000	17.752737
1118.000000	17.782186
1119.000000	17.811811
1120.000000	17.840674
1121.000000	17.868846
1122.000000	17.896606
1123.000000	17.923851
1124.000000	17.950920
1125.000000	17.977911
1126.000000	18.003160
1127.000000	18.028106
1128.000000	18.053174
1129.000000	18.077694
1130.000000	18.101203
1131.000000	18.122960
1132.000000	18.143351
1133.000000	18.162266
1134.000000	18.181480
1135.000000	18.199329
1136.000000	18.217574
1137.000000	18.233643
1138.000000	18.248100
1139.000000	18.261663
1140.000000	18.273463
1141.000000	18.284486
1142.000000	18.295037
1143.000000	18.304537
1144.000000	18.314249
1145.000000	18.323286
1146.000000	18.331860
1147.000000	18.339886
1148.000000	18.347514
1149.000000	18.354211
1150.000000	18.360466
1151.000000	18.366154
1152.000000	18.370023
1153.000000	18.373849
1154.000000	18.375789
1155.000000	18.377203
1156.000000	18.377897
1157.000000	18.377511
1158.000000	18.375377
1159.000000	18.372534
1160.000000	18.367937
1161.000000	18.363509
1162.000000	18.357320
1163.000000	18.349251
1164.000000	18.339703
1165.000000	18.329323
1166.000000	18.318986
1167.000000	18.308580
1168.000000	18.297469
1169.000000	18.284640
1170.000000	18.271051
1171.000000	18.255557
1172.000000	18.241780
1173.000000	18.228277
1174.000000	18.214383
1175.000000	18.201000
1176.000000	18.187729
1177.000000	18.174003
1178.000000	18.160654
1179.000000	18.146423
1180.000000	18.132454
1181.000000	18.117937
1182.000000	18.103894
1183.000000	18.089503
1184.000000	18.074514
1185.000000	18.060054
1186.000000	18.046357
1187.000000	18.033637
1188.000000	18.021469
1189.000000	18.011069
1190.000000	18.001937
1191.000000	17.994354
1192.000000	17.988203
1193.000000	17.985183
1194.000000	17.982880
1195.000000	17.982083
1196.000000	17.982371
1197.000000	17.984877
1198.000000	17.988709
1199.000000	17.994640
1200.000000	18.003011
1201.000000	18.012594
1202.000000	18.024089
1203.000000	18.037117
1204.000000	18.051463
1205.000000	18.067846
1206.000000	18.086086
1207.000000	18.104623
1208.000000	18.123794
1209.000000	18.144174
1210.000000	18.165406
1211.000000	18.187603
1212.000000	18.210349
1213.000000	18.233203
1214.000000	18.256606
1215.000000	18.280531
1216.000000	18.305614
1217.000000	18.330709
1218.000000	18.355871
1219.000000	18.381569
1220.000000	18.406817
1221.000000	18.431551
1222.000000	18.456920
1223.000000	18.481577
1224.000000	18.505509
1225.000000	18.529131
1226.000000	18.552031
1227.000000	18.574200
1228.000000	18.594786
1229.000000	18.615311
1230.000000	18.635323
1231.000000	18.654920
1232.000000	18.673297
1233.000000	18.691834
1234.000000	18.709589
1235.000000	18.726546
1236.000000	18.743389
1237.000000	18.759357
1238.000000	18.775663
1239.000000	18.791254
1240.000000	18.806123
1241.000000	18.820534
1242.000000	18.834849
1243.000000	18.848957
1244.000000	18.863420
1245.000000	18.877903
1246.000000	18.891977
1247.000000	18.906631
1248.000000	18.921177
1249.000000	18.936211
1250.000000	18.951420
1251.000000	18.966209
1252.000000	18.981091
1253.000000	18.996771
1254.000000	19.013160
1255.000000	19.030460
1256.000000	19.047849
1257.000000	19.065026
1258.000000	19.081526
1259.000000	19.098146
1260.000000	19.114871
1261.000000	19.131629
1262.000000	19.148734
1263.000000	19.165897
1264.000000	19.182691
1265.000000	19.200380
1266.000000	19.218023
1267.000000	19.234989
1268.000000	19.251214
1269.000000	19.268163
1270.000000	19.285854
1271.000000	19.303123
1272.000000	19.319769
1273.000000	19.336466
1274.000000	19.353749
1275.000000	19.370463
1276.000000	19.386523
1277.000000	19.402371
1278.000000	19.418369
1279.000000	19.433931
1280.000000	19.449249
1281.000000	19.464577
1282.000000	19.479297
1283.000000	19.493917
1284.000000	19.508586
1285.000000	19.522603
1286.000000	19.536609
1287.000000	19.550734
1288.000000	19.563889
1289.000000	19.576814
1290.000000	19.589754
1291.000000	19.602646
1292.000000	19.615260
1293.000000	19.628700
1294.000000	19.642340
1295.000000	19.655303
1296.000000	19.668000
1297.000000	19.680811
1298.000000	19.693837
1299.000000	19.707374
1300.000000	19.720323
1301.000000	19.732837
1302.000000	19.745786
1303.000000	19.759086
1304.000000	19.771743
1305.000000	19.783123
1306.000000	19.794423
1307.000000	19.806309
1308.000000	19.818243
1309.000000	19.829806
1310.000000	19.840709
1311.000000	19.850866
1312.000000	19.860697
1313.000000	19.870060
1314.000000	19.878349
1315.000000	19.885957
1316.000000	19.892034
1317.000000	19.896700
1318.000000	19.900671
1319.000000	19.903803
1320.000000	19.906974
1321.000000	19.909497
1322.000000	19.910723
1323.000000	19.910729
1324.000000	19.909717
1325.000000	19.907494
1326.000000	19.903689
1327.000000	19.898829
1328.000000	19.893003
1329.000000	19.885863
1330.000000	19.877300
1331.000000	19.867569
1332.000000	19.856197
1333.000000	19.843326
1334.000000	19.828949
1335.000000	19.813414
1336.000000	19.796377
1337.000000	19.777494
1338.000000	19.757649
1339.000000	19.736314
1340.000000	19.713266
1341.000000	19.688277
1342.000000	19.661249
1343.000000	19.631937
1344.000000	19.600649
1345.000000	19.567580
1346.000000	19.533054
1347.000000	19.496677
1348.000000	19.458469
1349.000000	19.418240
1350.000000	19.375817
1351.000000	19.331874
1352.000000	19.285877
1353.000000	19.238103
1354.000000	19.189317
1355.000000	19.140563
1356.000000	19.090946
1357.000000	19.040329
1358.000000	18.989097
1359.000000	18.936863
1360.000000	18.883334
1361.000000	18.831229
1362.000000	18.781309
1363.000000	18.730874
1364.000000	18.679703
1365.000000	18.628943
1366.000000	18.578203
1367.000000	18.525983
1368.000000	18.473569
1369.000000	18.419771
1370.000000	18.362914
1371.000000	18.305357
1372.000000	18.246709
1373.000000	18.184609
1374.000000	18.117926
1375.000000	18.047763
1376.000000	17.975383
1377.000000	17.897794
1378.000000	17.816631
1379.000000	17.731020
1380.000000	17.643326
1381.000000	17.554637
1382.000000	17.467706
1383.000000	17.381249
1384.000000	17.296383
1385.000000	17.211083
1386.000000	17.126189
1387.000000	17.042426
1388.000000	16.961991
1389.000000	16.881677
1390.000000	16.797940
1391.000000	16.712811
1392.000000	16.628614
1393.000000	16.545886
1394.000000	16.462854
1395.000000	16.380451
1396.000000	16.298563
1397.000000	16.213534
1398.000000	16.125309
1399.000000	16.035209
1400.000000	15.945774
1401.000000	15.857220
1402.000000	15.767417
1403.000000	15.673954
1404.000000	15.578623
1405.000000	15.485714
1406.000000	15.391711
1407.000000	15.297589
1408.000000	15.204337
1409.000000	15.114271
1410.000000	15.026189
1411.000000	14.937583
1412.000000	14.852386
1413.000000	14.769757
1414.000000	14.690297
1415.000000	14.613446
1416.000000	14.535637
1417.000000	14.454897
1418.000000	14.373100
1419.000000	14.290583
1420.000000	14.209637
1421.000000	14.126923
1422.000000	14.043511
1423.000000	13.956697
1424.000000	13.868557
1425.000000	13.781300
1426.000000	13.694049
1427.000000	13.605586
1428.000000	13.516026
1429.000000	13.426694
1430.000000	13.336929
1431.000000	13.243457
1432.000000	13.150800
1433.000000	13.061171
1434.000000	12.973466
1435.000000	12.884949
1436.000000	12.794251
1437.000000	12.706694
1438.000000	12.623271
1439.000000	12.542563
1440.000000	12.462277
1441.000000	12.384629
1442.000000	12.309094
1443.000000	12.235691
1444.000000	12.164089
1445.000000	12.095414
1446.000000	12.030603
1447.000000	11.968457
1448.000000	11.907557
1449.000000	11.848366
1450.000000	11.790417
1451.000000	11.736674
1452.000000	11.685531
1453.000000	11.635617
1454.000000	11.585620
1455.000000	11.535414
1456.000000	11.488677
1457.000000	11.442969
1458.000000	11.399486
1459.000000	11.357106
1460.000000	11.315851
1461.000000	11.276214
1462.000000	11.237326
1463.000000	11.198880
1464.000000	11.161109
1465.000000	11.123689
1466.000000	11.087629
1467.000000	11.051783
1468.000000	11.015994
1469.000000	10.980309
1470.000000	10.945611
1471.000000	10.912669
1472.000000	10.879254
1473.000000	10.845620
1474.000000	10.812949
1475.000000	10.780171
1476.000000	10.747551
1477.000000	10.715366
1478.000000	10.683529
1479.000000	10.652577
1480.000000	10.621869
1481.000000	10.592037
1482.000000	10.562551
1483.000000	10.534037
1484.000000	10.506669
1485.000000	10.480063
1486.000000	10.452409
1487.000000	10.424991
1488.000000	10.399703
1489.000000	10.375834
1490.000000	10.353363
1491.000000	10.331194
1492.000000	10.310794
1493.000000	10.289894
1494.000000	10.270443
1495.000000	10.252137
1496.000000	10.235123
1497.000000	10.219423
1498.000000	10.205314
1499.000000	10.192414
1500.000000	10.180837
1501.000000	10.171526
1502.000000	10.163640
1503.000000	10.157626
1504.000000	10.153360
1505.000000	10.150254
1506.000000	10.148583
1507.000000	10.148729
1508.000000	10.150374
1509.000000	10.154134
1510.000000	10.160343
1511.000000	10.168206
1512.000000	10.177800
1513.000000	10.189437
1514.000000	10.202020
1515.000000	10.215289
1516.000000	10.229580
1517.000000	10.245074
1518.000000	10.262183
1519.000000	10.281163
1520.000000	10.300706
1521.000000	10.321360
1522.000000	10.343206
1523.000000	10.365717
1524.000000	10.389409
1525.000000	10.414363
1526.000000	10.440026
1527.000000	10.465734
1528.000000	10.492497
1529.000000	10.519889
1530.000000	10.548000
1531.000000	10.576231
1532.000000	10.605183
1533.000000	10.634494
1534.000000	10.664040
1535.000000	10.693820
1536.000000	10.722871
1537.000000	10.751680
1538.000000	10.780626
1539.000000	10.809943
1540.000000	10.838651
1541.000000	10.866597
1542.000000	10.894349
1543.000000	10.922000
1544.000000	10.948723
1545.000000	10.974689
1546.000000	10.999914
1547.000000	11.024620
1548.000000	11.049143
1549.000000	11.073503
1550.000000	11.098206
1551.000000	11.122634
1552.000000	11.147360
1553.000000	11.172049
1554.000000	11.195786
1555.000000	11.219577
1556.000000	11.243520
1557.000000	11.267123
1558.000000	11.289803
1559.000000	11.311706
1560.000000	11.332797
1561.000000	11.353420
1562.000000	11.373551
1563.000000	11.393051
1564.000000	11.411266
1565.000000	11.428414
1566.000000	11.445206
1567.000000	11.461074
1568.000000	11.475723
1569.000000	11.489657
1570.000000	11.502580
1571.000000	11.514874
1572.000000	11.526666
1573.000000	11.537903
1574.000000	11.548331
1575.000000	11.558343
1576.000000	11.568480
1577.000000	11.578234
1578.000000	11.587637
1579.000000	11.596663
1580.000000	11.606026
1581.000000	11.615557
1582.000000	11.624154
1583.000000	11.632169
1584.000000	11.639900
1585.000000	11.647231
1586.000000	11.654423
1587.000000	11.661491
1588.000000	11.668206
1589.000000	11.675031
1590.000000	11.681797
1591.000000	11.688860
1592.000000	11.695829
1593.000000	11.702851
1594.000000	11.710369
1595.000000	11.718040
1596.000000	11.726489
1597.000000	11.735829
1598.000000	11.746177
1599.000000	11.757609
1600.000000	11.770249
1601.000000	11.783634
1602.000000	11.798326
1603.000000	11.814249
1604.000000	11.831246
1605.000000	11.849669
1606.000000	11.869026
1607.000000	11.889291
1608.000000	11.910697
1609.000000	11.932546
1610.000000	11.954854
1611.000000	11.977974
1612.000000	12.001471
1613.000000	12.025669
1614.000000	12.050274
1615.000000	12.074506
1616.000000	12.099306
1617.000000	12.124474
1618.000000	12.149726
1619.000000	12.175006
1620.000000	12.200560
1621.000000	12.225549
1622.000000	12.249886
1623.000000	12.274051
1624.000000	12.297774
1625.000000	12.321314
1626.000000	12.344366
1627.000000	12.367474
1628.000000	12.390914
1629.000000	12.414034
1630.000000	12.436977
1631.000000	12.459863
1632.000000	12.482397
1633.000000	12.504109
1634.000000	12.525391
1635.000000	12.546443
1636.000000	12.566874
1637.000000	12.585863
1638.000000	12.603711
1639.000000	12.620966
1640.000000	12.637194
1641.000000	12.653069
1642.000000	12.668451
1643.000000	12.682394
1644.000000	12.696626
1645.000000	12.710123
1646.000000	12.722897
1647.000000	12.734860
1648.000000	12.746691
1649.000000	12.757269
1650.000000	12.767406
1651.000000	12.776666
1652.000000	12.785557
1653.000000	12.793266
1654.000000	12.800000
1655.000000	12.805431
1656.000000	12.809423
1657.000000	12.811906
1658.000000	12.812860
1659.000000	12.813120
1660.000000	12.811523
1661.000000	12.808326
1662.000000	12.803160
1663.000000	12.795511
1664.000000	12.785917
1665.000000	12.774217
1666.000000	12.759580
1667.000000	12.742786
1668.000000	12.722109
1669.000000	12.699197
1670.000000	12.672694
1671.000000	12.644751
1672.000000	12.614791
1673.000000	12.583151
1674.000000	12.549274
1675.000000	12.513723
1676.000000	12.475986
1677.000000	12.435529
1678.000000	12.394154
1679.000000	12.349597
1680.000000	12.302980
1681.000000	12.253831
1682.000000	12.201906
1683.000000	12.146680
1684.000000	12.089677
1685.000000	12.030971
1686.000000	11.970217
1687.000000	11.909683
1688.000000	11.849811
1689.000000	11.791349
1690.000000	11.734580
1691.000000	11.680960
1692.000000	11.630446
1693.000000	11.582980
1694.000000	11.537406
1695.000000	11.494320
1696.000000	11.453337
1697.000000	11.414680
1698.000000	11.377346
1699.000000	11.341646
1700.000000	11.308374
1701.000000	11.277697
1702.000000	11.248060
1703.000000	11.221857
1704.000000	11.198066
1705.000000	11.176440
1706.000000	11.155097
1707.000000	11.134666
1708.000000	11.115374
1709.000000	11.095900
1710.000000	11.076520
1711.000000	11.057343
1712.000000	11.038217
1713.000000	11.017934
1714.000000	10.997977
1715.000000	10.977534
1716.000000	10.956406
1717.000000	10.935629
1718.000000	10.913983
1719.000000	10.892720
1720.000000	10.870049
1721.000000	10.847106
1722.000000	10.822517
1723.000000	10.797920
1724.000000	10.772806
1725.000000	10.746437
1726.000000	10.719206
1727.000000	10.690440
1728.000000	10.660503
1729.000000	10.629871
1730.000000	10.599714
1731.000000	10.569289
1732.000000	10.539357
1733.000000	10.510937
1734.000000	10.482814
1735.000000	10.454851
1736.000000	10.427111
1737.000000	10.401266
1738.000000	10.376649
1739.000000	10.353077
1740.000000	10.331697
1741.000000	10.312417
1742.000000	10.295723
1743.000000	10.280769
1744.000000	10.269151
1745.000000	10.260483
1746.000000	10.254406
1747.000000	10.251729
1748.000000	10.252363
1749.000000	10.255751
1750.000000	10.262180
1751.000000	10.271700
1752.000000	10.283934
1753.000000	10.299549
1754.000000	10.316986
1755.000000	10.337597
1756.000000	10.360963
1757.000000	10.385774
1758.000000	10.410154
1759.000000	10.434154
1760.000000	10.458769
1761.000000	10.482414
1762.000000	10.505371
1763.000000	10.527446
1764.000000	10.549334
1765.000000	10.569329
1766.000000	10.589974
1767.000000	10.609089
1768.000000	10.627663
1769.000000	10.646800
1770.000000	10.665171
1771.000000	10.683580
1772.000000	10.701217
1773.000000	10.718466
1774.000000	10.734537
1775.000000	10.750314
1776.000000	10.764711
1777.000000	10.778569
1778.000000	10.792611
1779.000000	10.806026
1780.000000	10.818689
1781.000000	10.830843
1782.000000	10.841860
1783.000000	10.851529
1784.000000	10.860717
1785.000000	10.870129
1786.000000	10.879117
1787.000000	10.888040
1788.000000	10.897003
1789.000000	10.906003
1790.000000	10.914769
1791.000000	10.923183
1792.000000	10.932086
1793.000000	10.941689
1794.000000	10.951749
1795.000000	10.961409
1796.000000	10.971226
1797.000000	10.980997
1798.000000	10.991031
1799.000000	11.000714
1800.000000	11.011191
1801.000000	11.021746
1802.000000	11.032717
1803.000000	11.042660
1804.000000	11.051226
1805.000000	11.060406
1806.000000	11.069449
1807.000000	11.078831
1808.000000	11.087760
1809.000000	11.095580
1810.000000	11.102091
1811.000000	11.109889
1812.000000	11.117734
1813.000000	11.124046
1814.000000	11.129571
1815.000000	11.134620
1816.000000	11.139486
1817.000000	11.143757
1818.000000	11.146863
1819.000000	11.148803
1820.000000	11.151509
1821.000000	11.157146
1822.000000	11.164351
1823.000000	11.170151
1824.000000	11.173237
1825.000000	11.175243
1826.000000	11.176860
1827.000000	11.178974
1828.000000	11.181977
1829.000000	11.185334
1830.000000	11.189414
1831.000000	11.194469
1832.000000	11.199531
1833.000000	11.202660
1834.000000	11.203840
1835.000000	11.203980
1836.000000	11.204126
1837.000000	11.205914
1838.000000	11.209023
1839.000000	11.212763
1840.000000	11.217097
1841.000000	11.223026
1842.000000	11.231069
1843.000000	11.239431
1844.000000	11.245671
1845.000000	11.248160
1846.000000	11.247911
1847.000000	11.248954
1848.000000	11.254683
1849.000000	11.263351
1850.000000	11.271306
1851.000000	11.275883
1852.000000	11.279126
1853.000000	11.284166
1854.000000	11.290514
1855.000000	11.295771
1856.000000	11.297974
1857.000000	11.296714
1858.000000	11.295611
1859.000000	11.298100
1860.000000	11.302383
1861.000000	11.307046
1862.000000	11.310143
1863.000000	11.310089
1864.000000	11.305957
1865.000000	11.297817
1866.000000	11.285980
1867.000000	11.272009
1868.000000	11.257917
1869.000000	11.243783
1870.000000	11.230446
1871.000000	11.216143
1872.000000	11.198966
1873.000000	11.180623
1874.000000	11.161194
1875.000000	11.138334
1876.000000	11.111006
1877.000000	11.078329
1878.000000	11.041714
1879.000000	11.004114
1880.000000	10.965823
1881.000000	10.924349
1882.000000	10.876503
1883.000000	10.820549
1884.000000	10.757603
1885.000000	10.691194
1886.000000	10.623420
1887.000000	10.551877
1888.000000	10.474154
1889.000000	10.389863
1890.000000	10.300337
1891.000000	10.206137
1892.000000	10.108720
1893.000000	10.007683
1894.000000	9.900020
1895.000000	9.785689
1896.000000	9.663997
1897.000000	9.537246
1898.000000	9.406454
1899.000000	9.274863
1900.000000	9.141843
1901.000000	9.007031
1902.000000	8.869683
1903.000000	8.729594
1904.000000	8.586943
1905.000000	8.441117
1906.000000	8.292189
1907.000000	8.141314
1908.000000	7.987609
1909.000000	7.831143
1910.000000	7.673371
1911.000000	7.514834
1912.000000	7.356763
1913.000000	7.201046
1914.000000	7.048029
1915.000000	6.897840
1916.000000	6.750466
1917.000000	6.605234
1918.000000	6.461454
1919.000000	6.320834
1920.000000	6.183960
1921.000000	6.051111
1922.000000	5.922611
1923.000000	5.799551
1924.000000	5.682077
1925.000000	5.568020
1926.000000	5.458160
1927.000000	5.353386
1928.000000	5.252917
1929.000000	5.158843
1930.000000	5.070957
1931.000000	4.990294
1932.000000	4.915231
1933.000000	4.845237
1934.000000	4.779897
1935.000000	4.718763
1936.000000	4.661183
1937.000000	4.609046
1938.000000	4.562654
1939.000000	4.521040
1940.000000	4.482406
1941.000000	4.447663
1942.000000	4.415446
1943.000000	4.386863
1944.000000	4.362300
1945.000000	4.342100
1946.000000	4.325663
1947.000000	4.311777
1948.000000	4.299754
1949.000000	4.290089
1950.000000	4.282480
1951.000000	4.277571
1952.000000	4.274749
1953.000000	4.275649
1954.000000	4.278766
1955.000000	4.282549
1956.000000	4.287849
1957.000000	4.294634
1958.000000	4.302589
1959.000000	4.312160
1960.000000	4.324211
1961.000000	4.337837
1962.000000	4.352189
1963.000000	4.368283
1964.000000	4.384371
1965.000000	4.401529
1966.000000	4.418980
1967.000000	4.437426
1968.000000	4.456900
1969.000000	4.476966
1970.000000	4.498269
1971.000000	4.520971
1972.000000	4.543877
1973.000000	4.566226
1974.000000	4.589134
1975.000000	4.612963
1976.000000	4.636263
1977.000000	4.659963
1978.000000	4.683843
1979.000000	4.709111
1980.000000	4.733977
1981.000000	4.758691
1982.000000	4.783929
1983.000000	4.809403
1984.000000	4.833931
1985.000000	4.859300
1986.000000	4.884597
1987.000000	4.910849
1988.000000	4.936377
1989.000000	4.961783
1990.000000	4.987197
1991.000000	5.012529
1992.000000	5.038386
1993.000000	5.064489
1994.000000	5.089257
1995.000000	5.114380
1996.000000	5.139214
1997.000000	5.164183
1998.000000	5.188209
1999.000000	5.212037
2000.000000	5.235429
2001.000000	5.258717
2002.000000	5.281680
2003.000000	5.305137
2004.000000	5.328123
2005.000000	5.350231
2006.000000	5.371474
2007.000000	5.392434
2008.000000	5.412523
2009.000000	5.431757
2010.000000	5.449654
2011.000000	5.467443
2012.000000	5.484606
2013.000000	5.501729
2014.000000	5.516740
2015.000000	5.530263
2016.000000	5.542903
2017.000000	5.554226
2018.000000	5.564220
2019.000000	5.572894
2020.000000	5.580340
2021.000000	5.586194
2022.000000	5.590743
2023.000000	5.593631
2024.000000	5.594886
2025.000000	5.594666
2026.000000	5.592211
2027.000000	5.588237
2028.000000	5.582766
2029.000000	5.577486
2030.000000	5.569840
2031.000000	5.560329
2032.000000	5.548831
2033.000000	5.535897
2034.000000	5.521231
2035.000000	5.504694
2036.000000	5.486323
2037.000000	5.466174
2038.000000	5.443946
2039.000000	5.419654
2040.000000	5.394277
2041.000000	5.367937
2042.000000	5.339643
2043.000000	5.310626
2044.000000	5.279569
2045.000000	5.247471
2046.000000	5.213886
2047.000000	5.180280
2048.000000	5.145249
2049.000000	5.109437
2050.000000	5.073763
2051.000000	5.037691
2052.000000	5.002194
2053.000000	4.966817
2054.000000	4.932206
2055.000000	4.898257
2056.000000	4.865051
2057.000000	4.832574
2058.000000	4.801640
2059.000000	4.772240
2060.000000	4.745343
2061.000000	4.720374
2062.000000	4.697000
2063.000000	4.674991
2064.000000	4.654483
2065.000000	4.635966
2066.000000	4.619574
2067.000000	4.605214
2068.000000	4.592700
2069.000000	4.582471
2070.000000	4.574689
2071.000000	4.568943
2072.000000	4.564611
2073.000000	4.562637
2074.000000	4.562789
2075.000000	4.564191
2076.000000	4.567746
2077.000000	4.573617
2078.000000	4.580580
2079.000000	4.589980
2080.000000	4.601011
2081.000000	4.612986
2082.000000	4.625720
2083.000000	4.639454
2084.000000	4.654491
2085.000000	4.670183
2086.000000	4.686174
2087.000000	4.701954
2088.000000	4.718054
2089.000000	4.734043
2090.000000	4.748809
2091.000000	4.763394
2092.000000	4.777597
2093.000000	4.791214
2094.000000	4.803863
2095.000000	4.815117
2096.000000	4.825534
2097.000000	4.834740
2098.000000	4.843049
2099.000000	4.850583
2100.000000	4.857083
2101.000000	4.862457
2102.000000	4.867149
2103.000000	4.871366
2104.000000	4.874406
2105.000000	4.875960
2106.000000	4.876854
2107.000000	4.877511
2108.000000	4.877506
2109.000000	4.876723
2110.000000	4.875763
2111.000000	4.873697
2112.000000	4.870829
2113.000000	4.867809
2114.000000	4.863669
2115.000000	4.859171
2116.000000	4.854677
2117.000000	4.849514
2118.000000	4.844331
2119.000000	4.838800
2120.000000	4.832649
2121.000000	4.826751
2122.000000	4.820800
2123.000000	4.814000
2124.000000	4.806714
2125.000000	4.799860
2126.000000	4.792746
2127.000000	4.785306
2128.000000	4.777143
2129.000000	4.768234
2130.000000	4.759257
2131.000000	4.750054
2132.000000	4.740649
2133.000000	4.730420
2134.000000	4.719080
2135.000000	4.707400
2136.000000	4.695066
2137.000000	4.681534
2138.000000	4.667066
2139.000000	4.652034
2140.000000	4.636549
2141.000000	4.620397
2142.000000	4.603891
2143.000000	4.586549
2144.000000	4.568274
2145.000000	4.548806
2146.000000	4.528374
2147.000000	4.507217
2148.000000	4.485471
2149.000000	4.463143
2150.000000	4.440506
2151.000000	4.417091
2152.000000	4.392943
2153.000000	4.367711
2154.000000	4.341969
2155.000000	4.317014
2156.000000	4.291931
2157.000000	4.265869
2158.000000	4.239869
2159.000000	4.214654
2160.000000	4.189229
2161.000000	4.164334
2162.000000	4.139383
2163.000000	4.115043
2164.000000	4.091351
2165.000000	4.067609
2166.000000	4.043797
2167.000000	4.020117
2168.000000	3.997237
2169.000000	3.974600
2170.000000	3.952011
2171.000000	3.930089
2172.000000	3.908969
2173.000000	3.888797
2174.000000	3.869526
2175.000000	3.850691
2176.000000	3.832474
2177.000000	3.814563
2178.000000	3.796460
2179.000000	3.779911
2180.000000	3.764903
2181.000000	3.750083
2182.000000	3.735826
2183.000000	3.722291
2184.000000	3.709517
2185.000000	3.696194
2186.000000	3.683163
2187.000000	3.670569
2188.000000	3.658274
2189.000000	3.646354
2190.000000	3.633417
2191.000000	3.620063
2192.000000	3.607177
2193.000000	3.593663
2194.000000	3.579391
2195.000000	3.563949
2196.000000	3.547563
2197.000000	3.530126
2198.000000	3.511803
2199.000000	3.492257
2200.000000	3.472234
2201.000000	3.451800
2202.000000	3.430174
2203.000000	3.408037
2204.000000	3.385180
2205.000000	3.362997
2206.000000	3.340720
2207.000000	3.318626
2208.000000	3.295829
2209.000000	3.273166
2210.000000	3.250969
2211.000000	3.229371
2212.000000	3.208329
2213.000000	3.188723
2214.000000	3.169480
2215.000000	3.150246
2216.000000	3.132283
2217.000000	3.115946
2218.000000	3.100646
2219.000000	3.086129
2220.000000	3.074069
2221.000000	3.063131
2222.000000	3.053080
2223.000000	3.044829
2224.000000	3.037617
2225.000000	3.033040
2226.000000	3.029403
2227.000000	3.026940
2228.000000	3.025591
2229.000000	3.025574
2230.000000	3.027726
2231.000000	3.030980
2232.000000	3.035800
2233.000000	3.042360
2234.000000	3.050140
2235.000000	3.058577
2236.000000	3.067754
2237.000000	3.077903
2238.000000	3.088914
2239.000000	3.100760
2240.000000	3.112217
2241.000000	3.123603
2242.000000	3.134506
2243.000000	3.145229
2244.000000	3.155009
2245.000000	3.164057
2246.000000	3.172154
2247.000000	3.179011
2248.000000	3.184894
2249.000000	3.189580
2250.000000	3.192137
2251.000000	3.193746
2252.000000	3.193240
2253.000000	3.190931
2254.000000	3.187311
2255.000000	3.181771
2256.000000	3.175789
2257.000000	3.168766
2258.000000	3.159389
2259.000000	3.148657
2260.000000	3.136734
2261.000000	3.124869
2262.000000	3.112086
2263.000000	3.098803
2264.000000	3.084603
2265.000000	3.070006
2266.000000	3.055506
2267.000000	3.040997
2268.000000	3.025657
2269.000000	3.010943
2270.000000	2.996320
2271.000000	2.981980
2272.000000	2.968966
2273.000000	2.954954
2274.000000	2.941903
2275.000000	2.929080
2276.000000	2.917074
2277.000000	2.905797
2278.000000	2.895263
2279.000000	2.885637
2280.000000	2.876520
2281.000000	2.868006
2282.000000	2.860337
2283.000000	2.852897
2284.000000	2.846243
2285.000000	2.841763
2286.000000	2.837517
2287.000000	2.834017
2288.000000	2.831366
2289.000000	2.829263
2290.000000	2.827974
2291.000000	2.826694
2292.000000	2.826291
2293.000000	2.826543
2294.000000	2.828000
2295.000000	2.830369
2296.000000	2.831834
2297.000000	2.833411
2298.000000	2.836249
2299.000000	2.839166
2300.000000	2.841997
2301.000000	2.845500
2302.000000	2.849337
2303.000000	2.853397
2304.000000	2.856883
2305.000000	2.860954
2306.000000	2.865140
2307.000000	2.868997
2308.000000	2.874200
2309.000000	2.878774
2310.000000	2.883357
2311.000000	2.887629
2312.000000	2.892449
2313.000000	2.896937
2314.000000	2.901723
2315.000000	2.907143
2316.000000	2.912874
2317.000000	2.918183
2318.000000	2.923340
2319.000000	2.928031
2320.000000	2.932460
2321.000000	2.937086
2322.000000	2.941706
2323.000000	2.946254
2324.000000	2.950740
2325.000000	2.954526
2326.000000	2.958071
2327.000000	2.961517
2328.000000	2.965380
2329.000000	2.968811
2330.000000	2.970823
2331.000000	2.973346
2332.000000	2.976109
2333.000000	2.978557
2334.000000	2.981069
2335.000000	2.983563
2336.000000	2.985060
2337.000000	2.986434
2338.000000	2.988183
2339.000000	2.990091
2340.000000	2.991397
2341.000000	2.992640
2342.000000	2.993877
2343.000000	2.995023
2344.000000	2.996409
2345.000000	2.997780
2346.000000	2.999474
2347.000000	3.000534
2348.000000	3.002166
2349.000000	3.003654
2350.000000	3.005074
2351.000000	3.006171
2352.000000	3.007509
2353.000000	3.009580
2354.000000	3.012300
2355.000000	3.015091
2356.000000	3.017800
2357.000000	3.020834
2358.000000	3.023729
2359.000000	3.026631
2360.000000	3.030320
2361.000000	3.034391
2362.000000	3.038269
2363.000000	3.042283
2364.000000	3.046477
2365.000000	3.050977
2366.000000	3.055597
2367.000000	3.060111
2368.000000	3.064486
2369.000000	3.069146
2370.000000	3.073937
2371.000000	3.078883
2372.000000	3.083403
2373.000000	3.087669
2374.000000	3.091983
2375.000000	3.096640
2376.000000	3.101294
2377.000000	3.105389
2378.000000	3.109249
2379.000000	3.113131
2380.000000	3.117254
2381.000000	3.120971
2382.000000	3.124337
2383.000000	3.127591
2384.000000	3.130409
2385.000000	3.132543
2386.000000	3.134409
2387.000000	3.136191
2388.000000	3.137837
2389.000000	3.138860
2390.000000	3.139303
2391.000000	3.139546
2392.000000	3.139597
2393.000000	3.139474
2394.000000	3.139726
2395.000000	3.139851
2396.000000	3.139563
2397.000000	3.139091
2398.000000	3.138474
2399.000000	3.137166
2400.000000	3.135637
2401.000000	3.133743
2402.000000	3.131574
2403.000000	3.129451
2404.000000	3.126737
2405.000000	3.123577
2406.000000	3.120291
2407.000000	3.116717
2408.000000	3.112546
2409.000000	3.107289
2410.000000	3.101380
2411.000000	3.095623
2412.000000	3.089417
2413.000000	3.081886
2414.000000	3.074169
2415.000000	3.065580
2416.000000	3.056746
2417.000000	3.047111
2418.000000	3.036843
2419.000000	3.026506
2420.000000	3.015149
2421.000000	3.003194
2422.000000	2.991091
2423.000000	2.978223
2424.000000	2.964606
2425.000000	2.950563
2426.000000	2.936303
2427.000000	2.921226
2428.000000	2.905846
2429.000000	2.889649
2430.000000	2.872649
2431.000000	2.855480
2432.000000	2.838140
2433.000000	2.820097
2434.000000	2.801526
2435.000000	2.782723
2436.000000	2.763600
2437.000000	2.744166
2438.000000	2.723951
2439.000000	2.703769
2440.000000	2.682446
2441.000000	2.660780
2442.000000	2.638740
2443.000000	2.616509
2444.000000	2.594569
2445.000000	2.572791
2446.000000	2.550077
2447.000000	2.527677
2448.000000	2.506000
2449.000000	2.483563
2450.000000	2.460369
2451.000000	2.437806
2452.000000	2.415943
2453.000000	2.393426
2454.000000	2.370754
2455.000000	2.349003
2456.000000	2.327389
2457.000000	2.305723
2458.000000	2.284966
2459.000000	2.265349
2460.000000	2.246083
2461.000000	2.225991
2462.000000	2.206780
2463.000000	2.188260
2464.000000	2.170263
2465.000000	2.151246
2466.000000	2.131937
2467.000000	2.114283
2468.000000	2.096191
2469.000000	2.079294
2470.000000	2.063517
2471.000000	2.048277
2472.000000	2.032777
2473.000000	2.018174
2474.000000	2.003794
2475.000000	1.991177
2476.000000	1.979160
2477.000000	1.968151
2478.000000	1.956514
2479.000000	1.945714
2480.000000	1.934860
2481.000000	1.924854
2482.000000	1.917971
2483.000000	1.910206
2484.000000	1.903026
2485.000000	1.897146
2486.000000	1.890197
2487.000000	1.885060
2488.000000	1.880483
2489.000000	1.877743
2490.000000	1.873500
2491.000000	1.871903
2492.000000	1.870629
2493.000000	1.872854
2494.000000	1.871029
2495.000000	1.870583
2496.000000	1.867734
2497.000000	1.867743
2498.000000	1.867220
2499.000000	1.870663
2500.000000	1.874826
