PE UV       SUBTECH     SPECTRUM    ASCII       PEDS        4.00        
   -1
ANGSOL0013-3.Sample.ASC
24/03/07
14:17:16.00
24/03/07
14:17:16.00
Vinicio Soto Monge
Chrysina cupreomarginata. San Jose, Costa Rica. P.N. Braulio Carrillo. ET. Zurqui tunel. 1500 m. 20 setiembre 85. M Chavarria D.
250,000000
1
Lambda 1050
1050L1511233
PerkinElmer UV WinLab 6.3.2.0749 / 2.02.05 Lambda 900 UV/VIS/NIR, Aug  7 2015 09:38:08

0
0
3350/servo 860,8/2
0
0
UV/VIS
1
1
1
DoubleDePol,CommonBeamDepol,RBeamAtt,SBeamAtt,60mm sphere, WB InGaAs Detector
0
0
0
0
Program
Program
3350/servo 860,8/2
3350/0,2 860,8/0,2
3350/0,2 860,8/0,2
0
15.00
 
 
 
0
 
860,8
319,2
860,8
Front
100
on
S:100 R:100
0
0
0
0
 
0
 
 
 
0
 
 
0
0
0
0
0
 
 
 
 
0
0


0
0
#HDR
-1
-1
#GR
nm
%R
1.0
0.0
2500,000000
-1,000000
2251
8
19,827500
1,626300
#DATA
250.000000	nan
251.000000	nan
252.000000	nan
253.000000	nan
254.000000	nan
255.000000	nan
256.000000	nan
257.000000	nan
258.000000	nan
259.000000	nan
260.000000	nan
261.000000	nan
262.000000	nan
263.000000	nan
264.000000	nan
265.000000	nan
266.000000	nan
267.000000	nan
268.000000	nan
269.000000	nan
270.000000	nan
271.000000	nan
272.000000	nan
273.000000	nan
274.000000	nan
275.000000	nan
276.000000	nan
277.000000	nan
278.000000	nan
279.000000	nan
280.000000	nan
281.000000	nan
282.000000	nan
283.000000	nan
284.000000	2.076419
285.000000	2.072847
286.000000	2.068050
287.000000	2.065155
288.000000	2.060888
289.000000	2.058035
290.000000	2.055567
291.000000	2.051270
292.000000	2.047429
293.000000	2.044217
294.000000	2.041041
295.000000	2.036030
296.000000	2.032153
297.000000	2.026877
298.000000	2.023281
299.000000	2.019906
300.000000	2.016264
301.000000	2.012261
302.000000	2.008605
303.000000	2.004403
304.000000	2.002167
305.000000	1.999445
306.000000	1.997294
307.000000	1.994922
308.000000	1.993534
309.000000	1.990714
310.000000	1.989242
311.000000	1.986077
312.000000	1.985597
313.000000	1.982822
314.000000	1.980568
315.000000	1.978221
316.000000	1.979921
317.000000	2.001182
318.000000	2.018592
319.000000	2.034791
320.000000	2.053452
321.000000	2.061167
322.000000	2.070592
323.000000	2.077889
324.000000	2.090861
325.000000	2.104567
326.000000	2.108033
327.000000	2.107339
328.000000	2.112975
329.000000	2.119327
330.000000	2.128402
331.000000	2.137472
332.000000	2.140919
333.000000	2.144261
334.000000	2.150318
335.000000	2.157843
336.000000	2.162049
337.000000	2.167292
338.000000	2.170039
339.000000	2.175180
340.000000	2.180080
341.000000	2.182036
342.000000	2.185584
343.000000	2.187388
344.000000	2.189305
345.000000	2.191838
346.000000	2.194931
347.000000	2.194766
348.000000	2.195910
349.000000	2.195980
350.000000	2.197897
351.000000	2.195962
352.000000	2.173338
353.000000	2.154839
354.000000	2.138726
355.000000	2.120374
356.000000	2.111474
357.000000	2.101784
358.000000	2.093591
359.000000	2.077720
360.000000	2.059499
361.000000	2.052467
362.000000	2.049851
363.000000	2.041398
364.000000	2.031006
365.000000	2.017848
366.000000	2.004349
367.000000	1.998071
368.000000	1.989074
369.000000	1.978879
370.000000	1.969791
371.000000	1.960016
372.000000	1.948759
373.000000	1.937472
374.000000	1.924454
375.000000	1.910610
376.000000	1.904255
377.000000	1.892558
378.000000	1.881209
379.000000	1.871658
380.000000	1.861402
381.000000	1.849940
382.000000	1.841461
383.000000	1.831795
384.000000	1.823605
385.000000	1.814649
386.000000	1.806292
387.000000	1.798566
388.000000	1.790788
389.000000	1.781935
390.000000	1.772308
391.000000	1.765073
392.000000	1.756899
393.000000	1.749565
394.000000	1.744620
395.000000	1.741658
396.000000	1.739130
397.000000	1.736257
398.000000	1.733758
399.000000	1.732354
400.000000	1.733484
401.000000	1.733286
402.000000	1.733824
403.000000	1.737325
404.000000	1.740892
405.000000	1.743964
406.000000	1.751881
407.000000	1.761813
408.000000	1.774826
409.000000	1.787874
410.000000	1.803611
411.000000	1.815870
412.000000	1.833783
413.000000	1.853345
414.000000	1.874494
415.000000	1.897607
416.000000	1.922654
417.000000	1.949558
418.000000	1.978369
419.000000	2.009245
420.000000	2.041933
421.000000	2.076685
422.000000	2.113609
423.000000	2.152621
424.000000	2.193634
425.000000	2.236793
426.000000	2.282255
427.000000	2.329591
428.000000	2.378816
429.000000	2.429638
430.000000	2.482205
431.000000	2.536597
432.000000	2.592640
433.000000	2.650413
434.000000	2.709606
435.000000	2.770221
436.000000	2.832325
437.000000	2.895695
438.000000	2.960230
439.000000	3.025824
440.000000	3.092222
441.000000	3.159273
442.000000	3.227045
443.000000	3.295306
444.000000	3.363758
445.000000	3.432449
446.000000	3.501841
447.000000	3.571613
448.000000	3.640944
449.000000	3.709754
450.000000	3.777787
451.000000	3.845290
452.000000	3.912464
453.000000	3.978854
454.000000	4.044100
455.000000	4.108254
456.000000	4.171194
457.000000	4.232751
458.000000	4.292857
459.000000	4.351276
460.000000	4.407726
461.000000	4.462289
462.000000	4.514871
463.000000	4.565384
464.000000	4.613909
465.000000	4.659961
466.000000	4.703532
467.000000	4.744669
468.000000	4.783323
469.000000	4.819622
470.000000	4.853485
471.000000	4.884863
472.000000	4.913602
473.000000	4.939545
474.000000	4.963055
475.000000	4.984640
476.000000	5.004607
477.000000	5.023257
478.000000	5.040944
479.000000	5.057908
480.000000	5.074069
481.000000	5.089325
482.000000	5.104332
483.000000	5.120292
484.000000	5.137871
485.000000	5.157865
486.000000	5.180567
487.000000	5.205896
488.000000	5.234218
489.000000	5.266001
490.000000	5.301252
491.000000	5.340041
492.000000	5.382454
493.000000	5.428719
494.000000	5.479319
495.000000	5.533980
496.000000	5.592445
497.000000	5.654683
498.000000	5.720389
499.000000	5.789306
500.000000	5.861555
501.000000	5.936992
502.000000	6.015040
503.000000	6.095501
504.000000	6.178408
505.000000	6.263478
506.000000	6.350303
507.000000	6.438998
508.000000	6.529266
509.000000	6.620430
510.000000	6.711680
511.000000	6.802975
512.000000	6.893869
513.000000	6.983963
514.000000	7.073131
515.000000	7.161521
516.000000	7.249023
517.000000	7.335467
518.000000	7.420560
519.000000	7.503684
520.000000	7.584502
521.000000	7.662650
522.000000	7.738574
523.000000	7.812577
524.000000	7.884928
525.000000	7.956551
526.000000	8.027963
527.000000	8.099711
528.000000	8.172200
529.000000	8.245563
530.000000	8.320659
531.000000	8.397911
532.000000	8.478065
533.000000	8.561537
534.000000	8.648855
535.000000	8.740093
536.000000	8.835714
537.000000	8.936619
538.000000	9.043171
539.000000	9.155386
540.000000	9.273297
541.000000	9.397447
542.000000	9.527583
543.000000	9.663753
544.000000	9.806166
545.000000	9.954888
546.000000	10.109591
547.000000	10.269971
548.000000	10.435917
549.000000	10.607294
550.000000	10.783628
551.000000	10.964684
552.000000	11.149932
553.000000	11.338783
554.000000	11.531293
555.000000	11.726982
556.000000	11.925668
557.000000	12.126370
558.000000	12.329131
559.000000	12.533156
560.000000	12.726343
561.000000	12.918202
562.000000	13.108964
563.000000	13.297898
564.000000	13.484559
565.000000	13.668130
566.000000	13.848336
567.000000	14.023958
568.000000	14.195256
569.000000	14.361907
570.000000	14.523604
571.000000	14.679633
572.000000	14.829650
573.000000	14.973438
574.000000	15.110695
575.000000	15.241507
576.000000	15.365507
577.000000	15.482612
578.000000	15.592389
579.000000	15.695671
580.000000	15.791960
581.000000	15.881315
582.000000	15.963467
583.000000	16.038531
584.000000	16.107020
585.000000	16.168679
586.000000	16.223814
587.000000	16.273624
588.000000	16.318149
589.000000	16.357924
590.000000	16.393320
591.000000	16.424974
592.000000	16.453525
593.000000	16.478217
594.000000	16.500167
595.000000	16.531001
596.000000	16.560200
597.000000	16.587436
598.000000	16.612585
599.000000	16.635503
600.000000	16.656408
601.000000	16.675102
602.000000	16.691908
603.000000	16.705858
604.000000	16.717692
605.000000	16.726622
606.000000	16.731888
607.000000	16.734231
608.000000	16.732119
609.000000	16.726222
610.000000	16.715647
611.000000	16.700720
612.000000	16.681044
613.000000	16.657859
614.000000	16.630559
615.000000	16.600066
616.000000	16.566278
617.000000	16.530575
618.000000	16.492992
619.000000	16.453664
620.000000	16.413360
621.000000	16.371928
622.000000	16.328608
623.000000	16.284317
624.000000	16.237411
625.000000	16.188386
626.000000	16.136276
627.000000	16.080723
628.000000	16.021885
629.000000	15.958633
630.000000	15.890318
631.000000	15.816582
632.000000	15.737639
633.000000	15.652661
634.000000	15.561602
635.000000	15.464785
636.000000	15.362346
637.000000	15.254818
638.000000	15.142243
639.000000	15.024066
640.000000	14.902091
641.000000	14.777483
642.000000	14.650133
643.000000	14.522393
644.000000	14.394497
645.000000	14.268329
646.000000	14.144010
647.000000	14.022886
648.000000	13.905165
649.000000	13.792085
650.000000	13.683542
651.000000	13.580585
652.000000	13.482365
653.000000	13.389557
654.000000	13.301048
655.000000	13.216896
656.000000	13.136682
657.000000	13.060163
658.000000	12.986363
659.000000	12.916386
660.000000	12.848796
661.000000	12.784145
662.000000	12.722971
663.000000	12.665054
664.000000	12.611290
665.000000	12.561197
666.000000	12.516222
667.000000	12.476297
668.000000	12.442347
669.000000	12.414982
670.000000	12.394601
671.000000	12.380877
672.000000	12.374345
673.000000	12.375587
674.000000	12.384951
675.000000	12.401793
676.000000	12.426078
677.000000	12.457097
678.000000	12.494612
679.000000	12.537859
680.000000	12.585983
681.000000	12.638899
682.000000	12.695426
683.000000	12.754751
684.000000	12.815566
685.000000	12.878066
686.000000	12.940691
687.000000	13.003057
688.000000	13.064751
689.000000	13.126469
690.000000	13.187113
691.000000	13.246993
692.000000	13.306442
693.000000	13.365837
694.000000	13.424446
695.000000	13.483095
696.000000	13.541627
697.000000	13.599776
698.000000	13.657287
699.000000	13.714454
700.000000	13.772069
701.000000	13.829294
702.000000	13.885444
703.000000	13.940983
704.000000	13.996025
705.000000	14.049351
706.000000	14.101849
707.000000	14.152898
708.000000	14.202066
709.000000	14.248720
710.000000	14.293064
711.000000	14.334985
712.000000	14.374914
713.000000	14.411853
714.000000	14.445508
715.000000	14.476120
716.000000	14.503302
717.000000	14.527665
718.000000	14.549640
719.000000	14.569226
720.000000	14.585535
721.000000	14.600184
722.000000	14.613958
723.000000	14.626019
724.000000	14.636881
725.000000	14.645465
726.000000	14.654373
727.000000	14.663187
728.000000	14.671831
729.000000	14.681257
730.000000	14.691412
731.000000	14.702213
732.000000	14.713979
733.000000	14.727559
734.000000	14.741653
735.000000	14.756484
736.000000	14.772433
737.000000	14.788939
738.000000	14.805821
739.000000	14.822852
740.000000	14.840155
741.000000	14.857111
742.000000	14.873493
743.000000	14.890030
744.000000	14.906745
745.000000	14.923535
746.000000	14.940497
747.000000	14.956786
748.000000	14.973529
749.000000	14.991548
750.000000	15.010552
751.000000	15.031192
752.000000	15.053434
753.000000	15.076602
754.000000	15.100988
755.000000	15.127675
756.000000	15.155804
757.000000	15.185216
758.000000	15.216290
759.000000	15.248280
760.000000	15.283704
761.000000	15.319050
762.000000	15.353768
763.000000	15.388500
764.000000	15.422442
765.000000	15.455207
766.000000	15.486744
767.000000	15.517221
768.000000	15.546652
769.000000	15.574870
770.000000	15.601597
771.000000	15.626526
772.000000	15.650645
773.000000	15.674438
774.000000	15.696382
775.000000	15.717507
776.000000	15.739389
777.000000	15.761683
778.000000	15.783392
779.000000	15.805582
780.000000	15.827899
781.000000	15.849866
782.000000	15.872493
783.000000	15.895259
784.000000	15.916155
785.000000	15.936246
786.000000	15.955400
787.000000	15.972282
788.000000	15.988409
789.000000	16.003312
790.000000	16.017197
791.000000	16.030608
792.000000	16.043383
793.000000	16.054997
794.000000	16.065210
795.000000	16.075255
796.000000	16.086368
797.000000	16.099515
798.000000	16.113084
799.000000	16.127765
800.000000	16.143925
801.000000	16.161714
802.000000	16.180128
803.000000	16.199104
804.000000	16.220097
805.000000	16.242477
806.000000	16.266306
807.000000	16.292232
808.000000	16.318434
809.000000	16.346113
810.000000	16.375325
811.000000	16.404071
812.000000	16.432382
813.000000	16.461890
814.000000	16.491486
815.000000	16.522114
816.000000	16.553711
817.000000	16.585910
818.000000	16.618564
819.000000	16.652943
820.000000	16.687962
821.000000	16.724033
822.000000	16.762909
823.000000	16.803432
824.000000	16.845412
825.000000	16.887098
826.000000	16.927564
827.000000	16.969093
828.000000	17.011253
829.000000	17.054072
830.000000	17.095306
831.000000	17.136413
832.000000	17.175549
833.000000	17.212514
834.000000	17.246976
835.000000	17.280552
836.000000	17.314438
837.000000	17.346701
838.000000	17.379211
839.000000	17.409637
840.000000	17.438066
841.000000	17.466224
842.000000	17.492821
843.000000	17.517792
844.000000	17.542853
845.000000	17.565451
846.000000	17.587217
847.000000	17.611289
848.000000	17.632691
849.000000	17.654861
850.000000	17.673857
851.000000	17.687022
852.000000	17.702078
853.000000	17.713616
854.000000	17.722462
855.000000	17.730904
856.000000	17.732690
857.000000	17.748812
858.000000	17.760499
859.000000	17.783627
860.000000	17.807441
861.000000	17.833034
862.000000	17.858380
863.000000	17.884608
864.000000	17.912092
865.000000	17.941245
866.000000	17.969647
867.000000	17.998945
868.000000	18.030024
869.000000	18.063033
870.000000	18.096337
871.000000	18.128732
872.000000	18.162677
873.000000	18.196182
874.000000	18.231174
875.000000	18.267354
876.000000	18.303805
877.000000	18.339866
878.000000	18.378054
879.000000	18.416464
880.000000	18.457046
881.000000	18.499241
882.000000	18.539519
883.000000	18.582274
884.000000	18.624084
885.000000	18.668651
886.000000	18.718883
887.000000	18.767184
888.000000	18.818507
889.000000	18.872582
890.000000	18.927097
891.000000	18.987877
892.000000	19.033034
893.000000	19.081133
894.000000	19.117336
895.000000	19.153603
896.000000	19.188821
897.000000	19.223682
898.000000	19.257906
899.000000	19.291170
900.000000	19.323386
901.000000	19.355785
902.000000	19.388303
903.000000	19.421075
904.000000	19.454068
905.000000	19.486341
906.000000	19.518479
907.000000	19.550233
908.000000	19.581256
909.000000	19.611641
910.000000	19.641421
911.000000	19.669604
912.000000	19.697649
913.000000	19.724631
914.000000	19.749975
915.000000	19.773892
916.000000	19.796097
917.000000	19.816979
918.000000	19.836810
919.000000	19.855722
920.000000	19.873321
921.000000	19.889747
922.000000	19.904715
923.000000	19.919122
924.000000	19.932856
925.000000	19.944897
926.000000	19.955261
927.000000	19.964750
928.000000	19.974435
929.000000	19.982370
930.000000	19.988615
931.000000	19.993529
932.000000	19.996297
933.000000	19.997768
934.000000	19.997805
935.000000	19.997112
936.000000	19.993993
937.000000	19.989164
938.000000	19.982675
939.000000	19.974230
940.000000	19.964266
941.000000	19.952997
942.000000	19.940435
943.000000	19.927282
944.000000	19.912654
945.000000	19.897869
946.000000	19.882945
947.000000	19.867166
948.000000	19.850793
949.000000	19.834724
950.000000	19.818364
951.000000	19.801319
952.000000	19.783935
953.000000	19.766053
954.000000	19.747974
955.000000	19.729385
956.000000	19.710966
957.000000	19.692163
958.000000	19.672679
959.000000	19.652790
960.000000	19.633751
961.000000	19.615319
962.000000	19.597090
963.000000	19.578315
964.000000	19.560240
965.000000	19.543010
966.000000	19.526231
967.000000	19.510312
968.000000	19.494530
969.000000	19.479756
970.000000	19.465236
971.000000	19.452130
972.000000	19.439406
973.000000	19.427220
974.000000	19.416330
975.000000	19.406722
976.000000	19.397600
977.000000	19.389064
978.000000	19.381006
979.000000	19.373964
980.000000	19.366911
981.000000	19.359705
982.000000	19.353001
983.000000	19.346116
984.000000	19.339021
985.000000	19.332281
986.000000	19.326002
987.000000	19.320129
988.000000	19.314493
989.000000	19.309084
990.000000	19.304314
991.000000	19.299406
992.000000	19.294825
993.000000	19.290472
994.000000	19.286028
995.000000	19.281899
996.000000	19.277830
997.000000	19.273822
998.000000	19.269451
999.000000	19.265092
1000.000000	19.260621
1001.000000	19.256350
1002.000000	19.251795
1003.000000	19.246960
1004.000000	19.241517
1005.000000	19.235981
1006.000000	19.230352
1007.000000	19.224474
1008.000000	19.218350
1009.000000	19.211612
1010.000000	19.204514
1011.000000	19.197307
1012.000000	19.190192
1013.000000	19.182663
1014.000000	19.174484
1015.000000	19.166505
1016.000000	19.159214
1017.000000	19.152189
1018.000000	19.145452
1019.000000	19.138917
1020.000000	19.132680
1021.000000	19.126763
1022.000000	19.121538
1023.000000	19.116748
1024.000000	19.112115
1025.000000	19.107845
1026.000000	19.104057
1027.000000	19.100590
1028.000000	19.097595
1029.000000	19.095245
1030.000000	19.093069
1031.000000	19.091198
1032.000000	19.089858
1033.000000	19.089507
1034.000000	19.089793
1035.000000	19.090564
1036.000000	19.091994
1037.000000	19.094126
1038.000000	19.097169
1039.000000	19.101006
1040.000000	19.105342
1041.000000	19.110469
1042.000000	19.116455
1043.000000	19.122951
1044.000000	19.130094
1045.000000	19.138006
1046.000000	19.146586
1047.000000	19.155966
1048.000000	19.166034
1049.000000	19.176722
1050.000000	19.187744
1051.000000	19.199079
1052.000000	19.210707
1053.000000	19.222660
1054.000000	19.234919
1055.000000	19.247614
1056.000000	19.260505
1057.000000	19.273410
1058.000000	19.286742
1059.000000	19.300222
1060.000000	19.313389
1061.000000	19.326376
1062.000000	19.339733
1063.000000	19.353259
1064.000000	19.366398
1065.000000	19.379494
1066.000000	19.392328
1067.000000	19.405073
1068.000000	19.417572
1069.000000	19.429775
1070.000000	19.441733
1071.000000	19.453321
1072.000000	19.464997
1073.000000	19.476533
1074.000000	19.487748
1075.000000	19.498911
1076.000000	19.509285
1077.000000	19.519194
1078.000000	19.529196
1079.000000	19.538935
1080.000000	19.548278
1081.000000	19.557280
1082.000000	19.565860
1083.000000	19.574038
1084.000000	19.581620
1085.000000	19.588700
1086.000000	19.595448
1087.000000	19.601690
1088.000000	19.607494
1089.000000	19.612876
1090.000000	19.617752
1091.000000	19.622711
1092.000000	19.627164
1093.000000	19.630982
1094.000000	19.634476
1095.000000	19.637955
1096.000000	19.640952
1097.000000	19.643470
1098.000000	19.645923
1099.000000	19.648197
1100.000000	19.650330
1101.000000	19.652537
1102.000000	19.654490
1103.000000	19.656290
1104.000000	19.657896
1105.000000	19.659274
1106.000000	19.660886
1107.000000	19.662070
1108.000000	19.663079
1109.000000	19.663999
1110.000000	19.664226
1111.000000	19.664306
1112.000000	19.664705
1113.000000	19.664779
1114.000000	19.664841
1115.000000	19.665025
1116.000000	19.665269
1117.000000	19.665331
1118.000000	19.665500
1119.000000	19.665974
1120.000000	19.666492
1121.000000	19.666967
1122.000000	19.667767
1123.000000	19.669042
1124.000000	19.670450
1125.000000	19.671470
1126.000000	19.671650
1127.000000	19.672455
1128.000000	19.672939
1129.000000	19.673553
1130.000000	19.674065
1131.000000	19.673820
1132.000000	19.672935
1133.000000	19.670861
1134.000000	19.668681
1135.000000	19.667155
1136.000000	19.665993
1137.000000	19.663516
1138.000000	19.659787
1139.000000	19.655484
1140.000000	19.650622
1141.000000	19.645214
1142.000000	19.639705
1143.000000	19.633098
1144.000000	19.626320
1145.000000	19.620123
1146.000000	19.613998
1147.000000	19.607022
1148.000000	19.600265
1149.000000	19.592730
1150.000000	19.584681
1151.000000	19.576265
1152.000000	19.567060
1153.000000	19.557665
1154.000000	19.547330
1155.000000	19.536724
1156.000000	19.525136
1157.000000	19.512691
1158.000000	19.498230
1159.000000	19.482987
1160.000000	19.467281
1161.000000	19.450589
1162.000000	19.432602
1163.000000	19.413727
1164.000000	19.393082
1165.000000	19.371121
1166.000000	19.349229
1167.000000	19.327523
1168.000000	19.305808
1169.000000	19.282926
1170.000000	19.258801
1171.000000	19.232663
1172.000000	19.207405
1173.000000	19.182481
1174.000000	19.157882
1175.000000	19.132844
1176.000000	19.107498
1177.000000	19.082014
1178.000000	19.056406
1179.000000	19.030580
1180.000000	19.003325
1181.000000	18.975908
1182.000000	18.948650
1183.000000	18.920644
1184.000000	18.892626
1185.000000	18.865119
1186.000000	18.837506
1187.000000	18.810738
1188.000000	18.783321
1189.000000	18.756971
1190.000000	18.730913
1191.000000	18.706180
1192.000000	18.682156
1193.000000	18.660075
1194.000000	18.639272
1195.000000	18.619511
1196.000000	18.601464
1197.000000	18.584693
1198.000000	18.569530
1199.000000	18.556117
1200.000000	18.544362
1201.000000	18.533584
1202.000000	18.523816
1203.000000	18.515422
1204.000000	18.508509
1205.000000	18.502472
1206.000000	18.498801
1207.000000	18.495745
1208.000000	18.494033
1209.000000	18.492861
1210.000000	18.493127
1211.000000	18.494257
1212.000000	18.496252
1213.000000	18.499724
1214.000000	18.503829
1215.000000	18.509194
1216.000000	18.515550
1217.000000	18.522343
1218.000000	18.530132
1219.000000	18.539028
1220.000000	18.547979
1221.000000	18.557183
1222.000000	18.566259
1223.000000	18.576070
1224.000000	18.586004
1225.000000	18.596365
1226.000000	18.606500
1227.000000	18.616473
1228.000000	18.626056
1229.000000	18.635363
1230.000000	18.644512
1231.000000	18.653562
1232.000000	18.662027
1233.000000	18.670326
1234.000000	18.678553
1235.000000	18.686180
1236.000000	18.693839
1237.000000	18.700900
1238.000000	18.707827
1239.000000	18.714957
1240.000000	18.721982
1241.000000	18.728410
1242.000000	18.734635
1243.000000	18.740342
1244.000000	18.746414
1245.000000	18.752631
1246.000000	18.758759
1247.000000	18.764589
1248.000000	18.770349
1249.000000	18.776307
1250.000000	18.782644
1251.000000	18.788467
1252.000000	18.794757
1253.000000	18.801034
1254.000000	18.807181
1255.000000	18.813446
1256.000000	18.819987
1257.000000	18.826846
1258.000000	18.834260
1259.000000	18.841694
1260.000000	18.848847
1261.000000	18.855896
1262.000000	18.862835
1263.000000	18.869949
1264.000000	18.877210
1265.000000	18.884494
1266.000000	18.891505
1267.000000	18.898642
1268.000000	18.905398
1269.000000	18.912174
1270.000000	18.919224
1271.000000	18.925973
1272.000000	18.932692
1273.000000	18.938884
1274.000000	18.944668
1275.000000	18.950250
1276.000000	18.955550
1277.000000	18.960666
1278.000000	18.965737
1279.000000	18.970117
1280.000000	18.973949
1281.000000	18.977598
1282.000000	18.980821
1283.000000	18.983712
1284.000000	18.986053
1285.000000	18.988087
1286.000000	18.990045
1287.000000	18.991517
1288.000000	18.992677
1289.000000	18.993570
1290.000000	18.994291
1291.000000	18.994889
1292.000000	18.994933
1293.000000	18.994518
1294.000000	18.994210
1295.000000	18.993676
1296.000000	18.993066
1297.000000	18.992767
1298.000000	18.992261
1299.000000	18.991323
1300.000000	18.990233
1301.000000	18.989167
1302.000000	18.988086
1303.000000	18.986893
1304.000000	18.985442
1305.000000	18.984080
1306.000000	18.982896
1307.000000	18.981681
1308.000000	18.980384
1309.000000	18.978657
1310.000000	18.976603
1311.000000	18.974374
1312.000000	18.972124
1313.000000	18.969284
1314.000000	18.966021
1315.000000	18.962777
1316.000000	18.959150
1317.000000	18.955309
1318.000000	18.951029
1319.000000	18.946083
1320.000000	18.940157
1321.000000	18.933507
1322.000000	18.926180
1323.000000	18.918109
1324.000000	18.909536
1325.000000	18.900490
1326.000000	18.890743
1327.000000	18.880673
1328.000000	18.869963
1329.000000	18.858167
1330.000000	18.845530
1331.000000	18.832071
1332.000000	18.817963
1333.000000	18.803182
1334.000000	18.787475
1335.000000	18.771067
1336.000000	18.753776
1337.000000	18.735800
1338.000000	18.717446
1339.000000	18.698207
1340.000000	18.677933
1341.000000	18.656909
1342.000000	18.634871
1343.000000	18.611857
1344.000000	18.588391
1345.000000	18.563892
1346.000000	18.538127
1347.000000	18.511477
1348.000000	18.484671
1349.000000	18.457117
1350.000000	18.427810
1351.000000	18.397185
1352.000000	18.365518
1353.000000	18.332873
1354.000000	18.300257
1355.000000	18.268406
1356.000000	18.236753
1357.000000	18.204799
1358.000000	18.171989
1359.000000	18.138559
1360.000000	18.104105
1361.000000	18.070934
1362.000000	18.039915
1363.000000	18.008163
1364.000000	17.976059
1365.000000	17.944407
1366.000000	17.912235
1367.000000	17.878169
1368.000000	17.844089
1369.000000	17.809263
1370.000000	17.772494
1371.000000	17.734200
1372.000000	17.694008
1373.000000	17.650289
1374.000000	17.602727
1375.000000	17.551088
1376.000000	17.495627
1377.000000	17.436049
1378.000000	17.372589
1379.000000	17.304323
1380.000000	17.232877
1381.000000	17.160419
1382.000000	17.089277
1383.000000	17.018361
1384.000000	16.948103
1385.000000	16.877508
1386.000000	16.806850
1387.000000	16.737484
1388.000000	16.670293
1389.000000	16.603756
1390.000000	16.535521
1391.000000	16.466419
1392.000000	16.399403
1393.000000	16.333271
1394.000000	16.267725
1395.000000	16.204268
1396.000000	16.142196
1397.000000	16.077427
1398.000000	16.010597
1399.000000	15.942823
1400.000000	15.876593
1401.000000	15.814070
1402.000000	15.751310
1403.000000	15.684900
1404.000000	15.617857
1405.000000	15.553120
1406.000000	15.489097
1407.000000	15.425525
1408.000000	15.364210
1409.000000	15.306415
1410.000000	15.251744
1411.000000	15.199142
1412.000000	15.148335
1413.000000	15.100491
1414.000000	15.057623
1415.000000	15.017905
1416.000000	14.977598
1417.000000	14.933815
1418.000000	14.889390
1419.000000	14.844530
1420.000000	14.800471
1421.000000	14.755950
1422.000000	14.708770
1423.000000	14.659436
1424.000000	14.609011
1425.000000	14.558721
1426.000000	14.507842
1427.000000	14.454411
1428.000000	14.400933
1429.000000	14.346021
1430.000000	14.289202
1431.000000	14.228773
1432.000000	14.168927
1433.000000	14.111342
1434.000000	14.054594
1435.000000	13.995290
1436.000000	13.932726
1437.000000	13.871747
1438.000000	13.814886
1439.000000	13.759609
1440.000000	13.703534
1441.000000	13.648439
1442.000000	13.594421
1443.000000	13.541828
1444.000000	13.489345
1445.000000	13.438514
1446.000000	13.390401
1447.000000	13.344865
1448.000000	13.300089
1449.000000	13.255218
1450.000000	13.211148
1451.000000	13.170252
1452.000000	13.131798
1453.000000	13.093300
1454.000000	13.055164
1455.000000	13.017645
1456.000000	12.981552
1457.000000	12.947396
1458.000000	12.913856
1459.000000	12.880159
1460.000000	12.847654
1461.000000	12.816433
1462.000000	12.785739
1463.000000	12.755035
1464.000000	12.725370
1465.000000	12.696485
1466.000000	12.668726
1467.000000	12.640874
1468.000000	12.612930
1469.000000	12.585464
1470.000000	12.559068
1471.000000	12.533210
1472.000000	12.508046
1473.000000	12.482512
1474.000000	12.457106
1475.000000	12.431989
1476.000000	12.406789
1477.000000	12.382451
1478.000000	12.358288
1479.000000	12.335431
1480.000000	12.312263
1481.000000	12.288793
1482.000000	12.266369
1483.000000	12.244768
1484.000000	12.223780
1485.000000	12.202973
1486.000000	12.181996
1487.000000	12.161888
1488.000000	12.142787
1489.000000	12.123973
1490.000000	12.105727
1491.000000	12.088474
1492.000000	12.071807
1493.000000	12.055619
1494.000000	12.040813
1495.000000	12.026263
1496.000000	12.012402
1497.000000	11.999975
1498.000000	11.988530
1499.000000	11.978419
1500.000000	11.969225
1501.000000	11.960969
1502.000000	11.953871
1503.000000	11.948523
1504.000000	11.944306
1505.000000	11.941116
1506.000000	11.939019
1507.000000	11.937828
1508.000000	11.938109
1509.000000	11.939736
1510.000000	11.943056
1511.000000	11.948115
1512.000000	11.954032
1513.000000	11.961024
1514.000000	11.968830
1515.000000	11.977710
1516.000000	11.987485
1517.000000	11.997891
1518.000000	12.009805
1519.000000	12.022974
1520.000000	12.037215
1521.000000	12.052325
1522.000000	12.068002
1523.000000	12.084631
1524.000000	12.102331
1525.000000	12.120502
1526.000000	12.139157
1527.000000	12.158490
1528.000000	12.178910
1529.000000	12.200207
1530.000000	12.222039
1531.000000	12.244145
1532.000000	12.266482
1533.000000	12.289168
1534.000000	12.311917
1535.000000	12.334632
1536.000000	12.357370
1537.000000	12.380166
1538.000000	12.402670
1539.000000	12.424882
1540.000000	12.446995
1541.000000	12.468523
1542.000000	12.489967
1543.000000	12.511165
1544.000000	12.531842
1545.000000	12.551948
1546.000000	12.571810
1547.000000	12.591510
1548.000000	12.611090
1549.000000	12.630390
1550.000000	12.649513
1551.000000	12.668472
1552.000000	12.687511
1553.000000	12.706449
1554.000000	12.724891
1555.000000	12.742660
1556.000000	12.759879
1557.000000	12.777010
1558.000000	12.793772
1559.000000	12.809929
1560.000000	12.825826
1561.000000	12.841236
1562.000000	12.856326
1563.000000	12.870625
1564.000000	12.883857
1565.000000	12.896519
1566.000000	12.908531
1567.000000	12.919714
1568.000000	12.930022
1569.000000	12.939618
1570.000000	12.948955
1571.000000	12.957822
1572.000000	12.965894
1573.000000	12.973686
1574.000000	12.981365
1575.000000	12.988352
1576.000000	12.995161
1577.000000	13.001551
1578.000000	13.007393
1579.000000	13.013326
1580.000000	13.019205
1581.000000	13.024499
1582.000000	13.029610
1583.000000	13.034385
1584.000000	13.038921
1585.000000	13.043519
1586.000000	13.047797
1587.000000	13.051544
1588.000000	13.054656
1589.000000	13.057537
1590.000000	13.060660
1591.000000	13.064033
1592.000000	13.067209
1593.000000	13.070357
1594.000000	13.073786
1595.000000	13.077550
1596.000000	13.081498
1597.000000	13.085714
1598.000000	13.090100
1599.000000	13.095159
1600.000000	13.101030
1601.000000	13.107610
1602.000000	13.114811
1603.000000	13.122823
1604.000000	13.131558
1605.000000	13.140768
1606.000000	13.150348
1607.000000	13.160330
1608.000000	13.170634
1609.000000	13.181114
1610.000000	13.192109
1611.000000	13.203638
1612.000000	13.215417
1613.000000	13.227671
1614.000000	13.239777
1615.000000	13.251505
1616.000000	13.263430
1617.000000	13.275438
1618.000000	13.287334
1619.000000	13.298880
1620.000000	13.310504
1621.000000	13.322092
1622.000000	13.333599
1623.000000	13.344789
1624.000000	13.356090
1625.000000	13.367202
1626.000000	13.377806
1627.000000	13.388652
1628.000000	13.399321
1629.000000	13.409827
1630.000000	13.420363
1631.000000	13.430534
1632.000000	13.440652
1633.000000	13.450966
1634.000000	13.460417
1635.000000	13.469154
1636.000000	13.477584
1637.000000	13.485756
1638.000000	13.493598
1639.000000	13.500790
1640.000000	13.507472
1641.000000	13.513688
1642.000000	13.519715
1643.000000	13.525645
1644.000000	13.531443
1645.000000	13.537032
1646.000000	13.542235
1647.000000	13.547020
1648.000000	13.551424
1649.000000	13.555711
1650.000000	13.559986
1651.000000	13.564128
1652.000000	13.567509
1653.000000	13.570270
1654.000000	13.572462
1655.000000	13.574109
1656.000000	13.574952
1657.000000	13.574936
1658.000000	13.574274
1659.000000	13.572462
1660.000000	13.570290
1661.000000	13.567415
1662.000000	13.562838
1663.000000	13.556706
1664.000000	13.549255
1665.000000	13.540367
1666.000000	13.530365
1667.000000	13.518728
1668.000000	13.504077
1669.000000	13.488701
1670.000000	13.471965
1671.000000	13.453677
1672.000000	13.433744
1673.000000	13.412496
1674.000000	13.390336
1675.000000	13.366505
1676.000000	13.341597
1677.000000	13.315323
1678.000000	13.287560
1679.000000	13.257975
1680.000000	13.227056
1681.000000	13.194245
1682.000000	13.160027
1683.000000	13.124195
1684.000000	13.086950
1685.000000	13.048064
1686.000000	13.008072
1687.000000	12.967787
1688.000000	12.927703
1689.000000	12.888119
1690.000000	12.849228
1691.000000	12.811495
1692.000000	12.775492
1693.000000	12.741439
1694.000000	12.708334
1695.000000	12.675975
1696.000000	12.644906
1697.000000	12.615345
1698.000000	12.587657
1699.000000	12.560857
1700.000000	12.534866
1701.000000	12.510115
1702.000000	12.486592
1703.000000	12.465590
1704.000000	12.445479
1705.000000	12.426290
1706.000000	12.408668
1707.000000	12.391286
1708.000000	12.374189
1709.000000	12.357451
1710.000000	12.341310
1711.000000	12.325366
1712.000000	12.309966
1713.000000	12.294301
1714.000000	12.278828
1715.000000	12.263260
1716.000000	12.247499
1717.000000	12.231904
1718.000000	12.215875
1719.000000	12.199399
1720.000000	12.183363
1721.000000	12.167129
1722.000000	12.151035
1723.000000	12.134747
1724.000000	12.118320
1725.000000	12.101310
1726.000000	12.083981
1727.000000	12.066138
1728.000000	12.047311
1729.000000	12.029027
1730.000000	12.010650
1731.000000	11.992272
1732.000000	11.974106
1733.000000	11.955940
1734.000000	11.938604
1735.000000	11.921939
1736.000000	11.905580
1737.000000	11.889730
1738.000000	11.874876
1739.000000	11.860809
1740.000000	11.847798
1741.000000	11.835587
1742.000000	11.825198
1743.000000	11.816291
1744.000000	11.808428
1745.000000	11.802335
1746.000000	11.797895
1747.000000	11.794520
1748.000000	11.793369
1749.000000	11.794170
1750.000000	11.796538
1751.000000	11.801022
1752.000000	11.806646
1753.000000	11.814576
1754.000000	11.824722
1755.000000	11.836268
1756.000000	11.849026
1757.000000	11.862509
1758.000000	11.876173
1759.000000	11.889871
1760.000000	11.903348
1761.000000	11.916818
1762.000000	11.929936
1763.000000	11.942819
1764.000000	11.955407
1765.000000	11.967827
1766.000000	11.979778
1767.000000	11.991610
1768.000000	12.003022
1769.000000	12.014541
1770.000000	12.025773
1771.000000	12.036945
1772.000000	12.047825
1773.000000	12.057926
1774.000000	12.067671
1775.000000	12.077449
1776.000000	12.086890
1777.000000	12.095809
1778.000000	12.104466
1779.000000	12.113099
1780.000000	12.121480
1781.000000	12.129177
1782.000000	12.136537
1783.000000	12.143176
1784.000000	12.149456
1785.000000	12.155486
1786.000000	12.161589
1787.000000	12.167969
1788.000000	12.173866
1789.000000	12.179166
1790.000000	12.184289
1791.000000	12.189274
1792.000000	12.194123
1793.000000	12.199272
1794.000000	12.205061
1795.000000	12.211120
1796.000000	12.217118
1797.000000	12.222953
1798.000000	12.228687
1799.000000	12.233584
1800.000000	12.238013
1801.000000	12.242910
1802.000000	12.247601
1803.000000	12.252170
1804.000000	12.255681
1805.000000	12.258888
1806.000000	12.262322
1807.000000	12.266021
1808.000000	12.269450
1809.000000	12.271756
1810.000000	12.273266
1811.000000	12.274545
1812.000000	12.276258
1813.000000	12.277766
1814.000000	12.278569
1815.000000	12.278762
1816.000000	12.279134
1817.000000	12.278937
1818.000000	12.277110
1819.000000	12.274000
1820.000000	12.272046
1821.000000	12.272470
1822.000000	12.274402
1823.000000	12.275206
1824.000000	12.273710
1825.000000	12.270885
1826.000000	12.267981
1827.000000	12.265488
1828.000000	12.263642
1829.000000	12.261975
1830.000000	12.260812
1831.000000	12.260430
1832.000000	12.259790
1833.000000	12.257623
1834.000000	12.254150
1835.000000	12.250335
1836.000000	12.246855
1837.000000	12.244658
1838.000000	12.243201
1839.000000	12.241873
1840.000000	12.241589
1841.000000	12.242480
1842.000000	12.245227
1843.000000	12.248219
1844.000000	12.249080
1845.000000	12.246259
1846.000000	12.240795
1847.000000	12.236416
1848.000000	12.236199
1849.000000	12.239758
1850.000000	12.242724
1851.000000	12.242452
1852.000000	12.240308
1853.000000	12.239512
1854.000000	12.240524
1855.000000	12.240680
1856.000000	12.237882
1857.000000	12.231652
1858.000000	12.225362
1859.000000	12.222580
1860.000000	12.222356
1861.000000	12.222596
1862.000000	12.221763
1863.000000	12.218488
1864.000000	12.212062
1865.000000	12.201751
1866.000000	12.187811
1867.000000	12.172130
1868.000000	12.156383
1869.000000	12.140975
1870.000000	12.126482
1871.000000	12.112225
1872.000000	12.096231
1873.000000	12.079701
1874.000000	12.062926
1875.000000	12.043558
1876.000000	12.021184
1877.000000	11.994505
1878.000000	11.965490
1879.000000	11.936684
1880.000000	11.908016
1881.000000	11.877422
1882.000000	11.841853
1883.000000	11.799189
1884.000000	11.750250
1885.000000	11.699036
1886.000000	11.647739
1887.000000	11.594550
1888.000000	11.536587
1889.000000	11.473167
1890.000000	11.405642
1891.000000	11.334989
1892.000000	11.262785
1893.000000	11.188316
1894.000000	11.107886
1895.000000	11.021117
1896.000000	10.928265
1897.000000	10.830222
1898.000000	10.729161
1899.000000	10.627128
1900.000000	10.524889
1901.000000	10.421257
1902.000000	10.315482
1903.000000	10.207601
1904.000000	10.097263
1905.000000	9.983454
1906.000000	9.866330
1907.000000	9.746412
1908.000000	9.623243
1909.000000	9.497151
1910.000000	9.369111
1911.000000	9.239170
1912.000000	9.108648
1913.000000	8.979333
1914.000000	8.851487
1915.000000	8.725497
1916.000000	8.602090
1917.000000	8.479210
1918.000000	8.356357
1919.000000	8.234680
1920.000000	8.115443
1921.000000	7.998481
1922.000000	7.885034
1923.000000	7.776053
1924.000000	7.670392
1925.000000	7.567990
1926.000000	7.467970
1927.000000	7.370961
1928.000000	7.277589
1929.000000	7.188731
1930.000000	7.105242
1931.000000	7.027332
1932.000000	6.954909
1933.000000	6.886908
1934.000000	6.822534
1935.000000	6.760999
1936.000000	6.703868
1937.000000	6.650916
1938.000000	6.602228
1939.000000	6.558434
1940.000000	6.518555
1941.000000	6.481306
1942.000000	6.447578
1943.000000	6.417007
1944.000000	6.390115
1945.000000	6.367663
1946.000000	6.349068
1947.000000	6.333755
1948.000000	6.320776
1949.000000	6.309807
1950.000000	6.300566
1951.000000	6.293842
1952.000000	6.290321
1953.000000	6.290665
1954.000000	6.293141
1955.000000	6.297479
1956.000000	6.303918
1957.000000	6.311603
1958.000000	6.320670
1959.000000	6.331869
1960.000000	6.344208
1961.000000	6.358672
1962.000000	6.374152
1963.000000	6.390468
1964.000000	6.408408
1965.000000	6.426867
1966.000000	6.445549
1967.000000	6.465925
1968.000000	6.487128
1969.000000	6.508652
1970.000000	6.531258
1971.000000	6.554601
1972.000000	6.578273
1973.000000	6.602707
1974.000000	6.626911
1975.000000	6.650880
1976.000000	6.675070
1977.000000	6.699556
1978.000000	6.724598
1979.000000	6.750073
1980.000000	6.775671
1981.000000	6.800784
1982.000000	6.825761
1983.000000	6.850065
1984.000000	6.874770
1985.000000	6.900490
1986.000000	6.925548
1987.000000	6.950770
1988.000000	6.975491
1989.000000	7.000370
1990.000000	7.024150
1991.000000	7.047968
1992.000000	7.071783
1993.000000	7.095542
1994.000000	7.118886
1995.000000	7.142224
1996.000000	7.165073
1997.000000	7.187819
1998.000000	7.209776
1999.000000	7.231469
2000.000000	7.252903
2001.000000	7.274456
2002.000000	7.295244
2003.000000	7.315980
2004.000000	7.336566
2005.000000	7.356966
2006.000000	7.376410
2007.000000	7.395811
2008.000000	7.413865
2009.000000	7.431571
2010.000000	7.448151
2011.000000	7.463990
2012.000000	7.479117
2013.000000	7.493480
2014.000000	7.506919
2015.000000	7.519265
2016.000000	7.530990
2017.000000	7.541761
2018.000000	7.551677
2019.000000	7.559863
2020.000000	7.566725
2021.000000	7.572785
2022.000000	7.577391
2023.000000	7.581153
2024.000000	7.583668
2025.000000	7.584952
2026.000000	7.584210
2027.000000	7.582394
2028.000000	7.579174
2029.000000	7.574953
2030.000000	7.569190
2031.000000	7.561463
2032.000000	7.552637
2033.000000	7.542771
2034.000000	7.530875
2035.000000	7.517468
2036.000000	7.502896
2037.000000	7.486277
2038.000000	7.467949
2039.000000	7.448044
2040.000000	7.426523
2041.000000	7.403601
2042.000000	7.379352
2043.000000	7.353791
2044.000000	7.326718
2045.000000	7.298812
2046.000000	7.269991
2047.000000	7.240096
2048.000000	7.209654
2049.000000	7.178461
2050.000000	7.146641
2051.000000	7.114762
2052.000000	7.082892
2053.000000	7.051217
2054.000000	7.020121
2055.000000	6.989290
2056.000000	6.959477
2057.000000	6.931061
2058.000000	6.903338
2059.000000	6.876999
2060.000000	6.852330
2061.000000	6.828996
2062.000000	6.807067
2063.000000	6.786590
2064.000000	6.768003
2065.000000	6.751123
2066.000000	6.736407
2067.000000	6.723347
2068.000000	6.711852
2069.000000	6.702065
2070.000000	6.694343
2071.000000	6.688333
2072.000000	6.684183
2073.000000	6.681815
2074.000000	6.681228
2075.000000	6.682316
2076.000000	6.685523
2077.000000	6.690066
2078.000000	6.696072
2079.000000	6.703697
2080.000000	6.712538
2081.000000	6.722235
2082.000000	6.733088
2083.000000	6.744799
2084.000000	6.757169
2085.000000	6.770188
2086.000000	6.783628
2087.000000	6.797072
2088.000000	6.810608
2089.000000	6.824020
2090.000000	6.837195
2091.000000	6.849784
2092.000000	6.861486
2093.000000	6.872199
2094.000000	6.881950
2095.000000	6.890690
2096.000000	6.898441
2097.000000	6.905277
2098.000000	6.910896
2099.000000	6.915250
2100.000000	6.918857
2101.000000	6.921478
2102.000000	6.922633
2103.000000	6.922933
2104.000000	6.922706
2105.000000	6.921321
2106.000000	6.918936
2107.000000	6.915921
2108.000000	6.912293
2109.000000	6.907738
2110.000000	6.902361
2111.000000	6.895849
2112.000000	6.888564
2113.000000	6.881064
2114.000000	6.872692
2115.000000	6.863940
2116.000000	6.855090
2117.000000	6.845497
2118.000000	6.835175
2119.000000	6.824543
2120.000000	6.813359
2121.000000	6.801885
2122.000000	6.790298
2123.000000	6.778069
2124.000000	6.765576
2125.000000	6.752551
2126.000000	6.739004
2127.000000	6.725326
2128.000000	6.711311
2129.000000	6.696757
2130.000000	6.681844
2131.000000	6.666644
2132.000000	6.650866
2133.000000	6.634585
2134.000000	6.617577
2135.000000	6.599954
2136.000000	6.581710
2137.000000	6.562691
2138.000000	6.542936
2139.000000	6.522282
2140.000000	6.500899
2141.000000	6.479019
2142.000000	6.456416
2143.000000	6.432897
2144.000000	6.409150
2145.000000	6.384896
2146.000000	6.359799
2147.000000	6.334385
2148.000000	6.308422
2149.000000	6.281688
2150.000000	6.254482
2151.000000	6.226578
2152.000000	6.198357
2153.000000	6.169761
2154.000000	6.140943
2155.000000	6.112426
2156.000000	6.083613
2157.000000	6.054445
2158.000000	6.025423
2159.000000	5.996180
2160.000000	5.967292
2161.000000	5.938700
2162.000000	5.910189
2163.000000	5.882175
2164.000000	5.854434
2165.000000	5.826909
2166.000000	5.799511
2167.000000	5.772796
2168.000000	5.746754
2169.000000	5.721463
2170.000000	5.696220
2171.000000	5.671402
2172.000000	5.647334
2173.000000	5.624234
2174.000000	5.601562
2175.000000	5.579556
2176.000000	5.558270
2177.000000	5.537330
2178.000000	5.517057
2179.000000	5.497361
2180.000000	5.478204
2181.000000	5.459529
2182.000000	5.441089
2183.000000	5.422997
2184.000000	5.405713
2185.000000	5.389005
2186.000000	5.372395
2187.000000	5.355942
2188.000000	5.339399
2189.000000	5.322572
2190.000000	5.304652
2191.000000	5.285919
2192.000000	5.266646
2193.000000	5.246179
2194.000000	5.224761
2195.000000	5.202674
2196.000000	5.178547
2197.000000	5.152931
2198.000000	5.125844
2199.000000	5.097277
2200.000000	5.067656
2201.000000	5.036479
2202.000000	5.004618
2203.000000	4.971610
2204.000000	4.936959
2205.000000	4.901921
2206.000000	4.866830
2207.000000	4.831542
2208.000000	4.796123
2209.000000	4.760814
2210.000000	4.725910
2211.000000	4.691147
2212.000000	4.657551
2213.000000	4.624725
2214.000000	4.593104
2215.000000	4.562638
2216.000000	4.533746
2217.000000	4.506075
2218.000000	4.479610
2219.000000	4.454750
2220.000000	4.431285
2221.000000	4.409442
2222.000000	4.388997
2223.000000	4.370866
2224.000000	4.354792
2225.000000	4.341220
2226.000000	4.329866
2227.000000	4.320350
2228.000000	4.313187
2229.000000	4.308703
2230.000000	4.305491
2231.000000	4.304990
2232.000000	4.306648
2233.000000	4.310322
2234.000000	4.316202
2235.000000	4.323350
2236.000000	4.332547
2237.000000	4.342434
2238.000000	4.353382
2239.000000	4.366530
2240.000000	4.379824
2241.000000	4.393064
2242.000000	4.406493
2243.000000	4.419724
2244.000000	4.433203
2245.000000	4.446076
2246.000000	4.457805
2247.000000	4.468669
2248.000000	4.478027
2249.000000	4.486083
2250.000000	4.493170
2251.000000	4.498070
2252.000000	4.501772
2253.000000	4.504339
2254.000000	4.505083
2255.000000	4.504217
2256.000000	4.501774
2257.000000	4.498468
2258.000000	4.493076
2259.000000	4.486634
2260.000000	4.478296
2261.000000	4.469218
2262.000000	4.459494
2263.000000	4.449077
2264.000000	4.437410
2265.000000	4.425722
2266.000000	4.413983
2267.000000	4.402229
2268.000000	4.390252
2269.000000	4.377709
2270.000000	4.365926
2271.000000	4.354181
2272.000000	4.342739
2273.000000	4.331828
2274.000000	4.320743
2275.000000	4.310792
2276.000000	4.301582
2277.000000	4.292303
2278.000000	4.283603
2279.000000	4.275512
2280.000000	4.268062
2281.000000	4.261664
2282.000000	4.255463
2283.000000	4.250366
2284.000000	4.245640
2285.000000	4.241088
2286.000000	4.237605
2287.000000	4.234623
2288.000000	4.232383
2289.000000	4.230232
2290.000000	4.228935
2291.000000	4.228764
2292.000000	4.228706
2293.000000	4.229050
2294.000000	4.230178
2295.000000	4.232230
2296.000000	4.233955
2297.000000	4.236123
2298.000000	4.238716
2299.000000	4.241712
2300.000000	4.244750
2301.000000	4.247820
2302.000000	4.250810
2303.000000	4.253748
2304.000000	4.257418
2305.000000	4.261050
2306.000000	4.265131
2307.000000	4.269246
2308.000000	4.273671
2309.000000	4.278347
2310.000000	4.283070
2311.000000	4.287796
2312.000000	4.293584
2313.000000	4.299081
2314.000000	4.304669
2315.000000	4.310592
2316.000000	4.316678
2317.000000	4.323242
2318.000000	4.329736
2319.000000	4.335700
2320.000000	4.341984
2321.000000	4.348245
2322.000000	4.354272
2323.000000	4.359855
2324.000000	4.365918
2325.000000	4.371589
2326.000000	4.376627
2327.000000	4.380968
2328.000000	4.385935
2329.000000	4.390106
2330.000000	4.393870
2331.000000	4.397586
2332.000000	4.400513
2333.000000	4.403032
2334.000000	4.405417
2335.000000	4.407755
2336.000000	4.409448
2337.000000	4.410571
2338.000000	4.411993
2339.000000	4.413049
2340.000000	4.413719
2341.000000	4.413855
2342.000000	4.413586
2343.000000	4.412891
2344.000000	4.411945
2345.000000	4.410650
2346.000000	4.409120
2347.000000	4.407225
2348.000000	4.405443
2349.000000	4.403410
2350.000000	4.401350
2351.000000	4.399045
2352.000000	4.396439
2353.000000	4.394352
2354.000000	4.392841
2355.000000	4.390963
2356.000000	4.389430
2357.000000	4.388343
2358.000000	4.387260
2359.000000	4.385934
2360.000000	4.384915
2361.000000	4.384372
2362.000000	4.384073
2363.000000	4.383350
2364.000000	4.382914
2365.000000	4.382853
2366.000000	4.382876
2367.000000	4.383311
2368.000000	4.383896
2369.000000	4.384330
2370.000000	4.384695
2371.000000	4.385359
2372.000000	4.386600
2373.000000	4.387473
2374.000000	4.388028
2375.000000	4.388809
2376.000000	4.389876
2377.000000	4.391020
2378.000000	4.391953
2379.000000	4.392535
2380.000000	4.393075
2381.000000	4.393767
2382.000000	4.394169
2383.000000	4.394485
2384.000000	4.394215
2385.000000	4.393100
2386.000000	4.392021
2387.000000	4.390949
2388.000000	4.388990
2389.000000	4.386411
2390.000000	4.383717
2391.000000	4.380509
2392.000000	4.377099
2393.000000	4.373733
2394.000000	4.370229
2395.000000	4.366146
2396.000000	4.361429
2397.000000	4.356752
2398.000000	4.352301
2399.000000	4.347430
2400.000000	4.342150
2401.000000	4.336746
2402.000000	4.331054
2403.000000	4.324636
2404.000000	4.317692
2405.000000	4.310515
2406.000000	4.303211
2407.000000	4.295243
2408.000000	4.286730
2409.000000	4.277590
2410.000000	4.267888
2411.000000	4.257468
2412.000000	4.246243
2413.000000	4.234696
2414.000000	4.222539
2415.000000	4.209857
2416.000000	4.196659
2417.000000	4.182969
2418.000000	4.168435
2419.000000	4.152984
2420.000000	4.136902
2421.000000	4.119597
2422.000000	4.101274
2423.000000	4.082770
2424.000000	4.064002
2425.000000	4.044964
2426.000000	4.025545
2427.000000	4.005450
2428.000000	3.984879
2429.000000	3.963796
2430.000000	3.942418
2431.000000	3.920501
2432.000000	3.898567
2433.000000	3.875770
2434.000000	3.852569
2435.000000	3.829050
2436.000000	3.805274
2437.000000	3.780950
2438.000000	3.756785
2439.000000	3.732470
2440.000000	3.707521
2441.000000	3.681824
2442.000000	3.656415
2443.000000	3.630676
2444.000000	3.604912
2445.000000	3.578695
2446.000000	3.552158
2447.000000	3.525664
2448.000000	3.499344
2449.000000	3.473165
2450.000000	3.447036
2451.000000	3.420730
2452.000000	3.394156
2453.000000	3.367492
2454.000000	3.341988
2455.000000	3.316659
2456.000000	3.292572
2457.000000	3.268886
2458.000000	3.245248
2459.000000	3.221297
2460.000000	3.197816
2461.000000	3.174175
2462.000000	3.150811
2463.000000	3.127963
2464.000000	3.105323
2465.000000	3.082814
2466.000000	3.061338
2467.000000	3.039372
2468.000000	3.018865
2469.000000	2.997910
2470.000000	2.977190
2471.000000	2.958045
2472.000000	2.939022
2473.000000	2.919722
2474.000000	2.901440
2475.000000	2.884272
2476.000000	2.867544
2477.000000	2.850943
2478.000000	2.834443
2479.000000	2.818229
2480.000000	2.804165
2481.000000	2.791066
2482.000000	2.777458
2483.000000	2.764364
2484.000000	2.752779
2485.000000	2.739949
2486.000000	2.730512
2487.000000	2.719708
2488.000000	2.711488
2489.000000	2.704544
2490.000000	2.695963
2491.000000	2.688632
2492.000000	2.680755
2493.000000	2.674913
2494.000000	2.670586
2495.000000	2.667150
2496.000000	2.662611
2497.000000	2.660167
2498.000000	2.657191
2499.000000	2.656444
2500.000000	2.656050
