PE UV       SUBTECH     SPECTRUM    ASCII       PEDS        4.00        
   -1
ANGSOL0003-1.Sample.ASC
24/03/07
10:15:07.00
24/03/07
10:15:07.00
Vinicio Soto Monge

250,000000
1
Lambda 1050
1050L1511233
PerkinElmer UV WinLab 6.3.2.0749 / 2.02.05 Lambda 900 UV/VIS/NIR, Aug  7 2015 09:38:08

0
0
3350/servo 860,8/2
0
0
UV/VIS
1
1
1
DoubleDePol,CommonBeamDepol,RBeamAtt,SBeamAtt,60mm sphere, WB InGaAs Detector
0
0
0
0
Program
Program
3350/servo 860,8/2
3350/0,2 860,8/0,2
3350/0,2 860,8/0,2
0
15.00
 
 
 
0
 
860,8
319,2
860,8
Front
100
on
S:100 R:100
0
0
0
0
 
0
 
 
 
0
 
 
0
0
0
0
0
 
 
 
 
0
0


0
0
#HDR
-1
-1
#GR
nm
%R
1.0
0.0
2500,000000
-1,000000
2251
8
20,293700
1,991500
#DATA
250.000000	nan
251.000000	nan
252.000000	nan
253.000000	nan
254.000000	nan
255.000000	nan
256.000000	nan
257.000000	nan
258.000000	nan
259.000000	nan
260.000000	nan
261.000000	nan
262.000000	nan
263.000000	nan
264.000000	nan
265.000000	nan
266.000000	nan
267.000000	nan
268.000000	nan
269.000000	nan
270.000000	nan
271.000000	nan
272.000000	nan
273.000000	nan
274.000000	nan
275.000000	nan
276.000000	nan
277.000000	nan
278.000000	nan
279.000000	nan
280.000000	nan
281.000000	nan
282.000000	nan
283.000000	nan
284.000000	2.786732
285.000000	2.779725
286.000000	2.773967
287.000000	2.768078
288.000000	2.762309
289.000000	2.757691
290.000000	2.754303
291.000000	2.750268
292.000000	2.745391
293.000000	2.739910
294.000000	2.735155
295.000000	2.726870
296.000000	2.724241
297.000000	2.719698
298.000000	2.713779
299.000000	2.710489
300.000000	2.708509
301.000000	2.705279
302.000000	2.701355
303.000000	2.700703
304.000000	2.699801
305.000000	2.698372
306.000000	2.692923
307.000000	2.690019
308.000000	2.687960
309.000000	2.687262
310.000000	2.684698
311.000000	2.684555
312.000000	2.682475
313.000000	2.680645
314.000000	2.680126
315.000000	2.675708
316.000000	2.677176
317.000000	2.697706
318.000000	2.707585
319.000000	2.731341
320.000000	2.761880
321.000000	2.770201
322.000000	2.781619
323.000000	2.785751
324.000000	2.787903
325.000000	2.794788
326.000000	2.801075
327.000000	2.803657
328.000000	2.812497
329.000000	2.824083
330.000000	2.833067
331.000000	2.834238
332.000000	2.842573
333.000000	2.851560
334.000000	2.857801
335.000000	2.864883
336.000000	2.865800
337.000000	2.869792
338.000000	2.869885
339.000000	2.874425
340.000000	2.881386
341.000000	2.887465
342.000000	2.894598
343.000000	2.900019
344.000000	2.898257
345.000000	2.902579
346.000000	2.906245
347.000000	2.913707
348.000000	2.915741
349.000000	2.922658
350.000000	2.927943
351.000000	2.930718
352.000000	2.916711
353.000000	2.910678
354.000000	2.892478
355.000000	2.863759
356.000000	2.855928
357.000000	2.848986
358.000000	2.848796
359.000000	2.849906
360.000000	2.844904
361.000000	2.839995
362.000000	2.836895
363.000000	2.829934
364.000000	2.823811
365.000000	2.819096
366.000000	2.817341
367.000000	2.808745
368.000000	2.803141
369.000000	2.799067
370.000000	2.793080
371.000000	2.790584
372.000000	2.785937
373.000000	2.783323
374.000000	2.780269
375.000000	2.777630
376.000000	2.775553
377.000000	2.764952
378.000000	2.755768
379.000000	2.752370
380.000000	2.744554
381.000000	2.735609
382.000000	2.723640
383.000000	2.716525
384.000000	2.705934
385.000000	2.699146
386.000000	2.690846
387.000000	2.680155
388.000000	2.673409
389.000000	2.666219
390.000000	2.662564
391.000000	2.658919
392.000000	2.651607
393.000000	2.645130
394.000000	2.638295
395.000000	2.633347
396.000000	2.630898
397.000000	2.630644
398.000000	2.628631
399.000000	2.623733
400.000000	2.622050
401.000000	2.622709
402.000000	2.623254
403.000000	2.622208
404.000000	2.622065
405.000000	2.620955
406.000000	2.623726
407.000000	2.628517
408.000000	2.631886
409.000000	2.632513
410.000000	2.631922
411.000000	2.634346
412.000000	2.642957
413.000000	2.652327
414.000000	2.661944
415.000000	2.671658
416.000000	2.681272
417.000000	2.691301
418.000000	2.701484
419.000000	2.711878
420.000000	2.722347
421.000000	2.733110
422.000000	2.744081
423.000000	2.755166
424.000000	2.766298
425.000000	2.777551
426.000000	2.789582
427.000000	2.802035
428.000000	2.814366
429.000000	2.826271
430.000000	2.837918
431.000000	2.850067
432.000000	2.863007
433.000000	2.875997
434.000000	2.888865
435.000000	2.901873
436.000000	2.915630
437.000000	2.929952
438.000000	2.944270
439.000000	2.958771
440.000000	2.973555
441.000000	2.988904
442.000000	3.004143
443.000000	3.019074
444.000000	3.034405
445.000000	3.050170
446.000000	3.066576
447.000000	3.083949
448.000000	3.101676
449.000000	3.119571
450.000000	3.137910
451.000000	3.156919
452.000000	3.176698
453.000000	3.197060
454.000000	3.217938
455.000000	3.239983
456.000000	3.262973
457.000000	3.286605
458.000000	3.311507
459.000000	3.337358
460.000000	3.364026
461.000000	3.392054
462.000000	3.421475
463.000000	3.452067
464.000000	3.484438
465.000000	3.518496
466.000000	3.553706
467.000000	3.589880
468.000000	3.627812
469.000000	3.667795
470.000000	3.709332
471.000000	3.752109
472.000000	3.796417
473.000000	3.842824
474.000000	3.891361
475.000000	3.941545
476.000000	3.993309
477.000000	4.046962
478.000000	4.102732
479.000000	4.160228
480.000000	4.219388
481.000000	4.279680
482.000000	4.340928
483.000000	4.403845
484.000000	4.468917
485.000000	4.536441
486.000000	4.606110
487.000000	4.677964
488.000000	4.752177
489.000000	4.828445
490.000000	4.907044
491.000000	4.988389
492.000000	5.072037
493.000000	5.157740
494.000000	5.245984
495.000000	5.336267
496.000000	5.428171
497.000000	5.521908
498.000000	5.617944
499.000000	5.715581
500.000000	5.814531
501.000000	5.915186
502.000000	6.017341
503.000000	6.120825
504.000000	6.225980
505.000000	6.332808
506.000000	6.441118
507.000000	6.550602
508.000000	6.661333
509.000000	6.773506
510.000000	6.886632
511.000000	7.001383
512.000000	7.117774
513.000000	7.235497
514.000000	7.354370
515.000000	7.474252
516.000000	7.596010
517.000000	7.719505
518.000000	7.843494
519.000000	7.967616
520.000000	8.091110
521.000000	8.214079
522.000000	8.336138
523.000000	8.456579
524.000000	8.575716
525.000000	8.692662
526.000000	8.807242
527.000000	8.919712
528.000000	9.030034
529.000000	9.137951
530.000000	9.244295
531.000000	9.348638
532.000000	9.450624
533.000000	9.550488
534.000000	9.648586
535.000000	9.744522
536.000000	9.838081
537.000000	9.928703
538.000000	10.016225
539.000000	10.100334
540.000000	10.181328
541.000000	10.259387
542.000000	10.334097
543.000000	10.404945
544.000000	10.470514
545.000000	10.532185
546.000000	10.589795
547.000000	10.642543
548.000000	10.689286
549.000000	10.730863
550.000000	10.767484
551.000000	10.798703
552.000000	10.824135
553.000000	10.844869
554.000000	10.860470
555.000000	10.871129
556.000000	10.876410
557.000000	10.876646
558.000000	10.872189
559.000000	10.863030
560.000000	10.842317
561.000000	10.816279
562.000000	10.785415
563.000000	10.749861
564.000000	10.709734
565.000000	10.664524
566.000000	10.614876
567.000000	10.561062
568.000000	10.502341
569.000000	10.438913
570.000000	10.370676
571.000000	10.298260
572.000000	10.222225
573.000000	10.143533
574.000000	10.062048
575.000000	9.977827
576.000000	9.891523
577.000000	9.803396
578.000000	9.714206
579.000000	9.625102
580.000000	9.534591
581.000000	9.442346
582.000000	9.348960
583.000000	9.255230
584.000000	9.160379
585.000000	9.064977
586.000000	8.968722
587.000000	8.873313
588.000000	8.778387
589.000000	8.683417
590.000000	8.589265
591.000000	8.495846
592.000000	8.403688
593.000000	8.312550
594.000000	8.222923
595.000000	8.140818
596.000000	8.060984
597.000000	7.982482
598.000000	7.905845
599.000000	7.830669
600.000000	7.757258
601.000000	7.685598
602.000000	7.615685
603.000000	7.547842
604.000000	7.482372
605.000000	7.418994
606.000000	7.356901
607.000000	7.297193
608.000000	7.238917
609.000000	7.181400
610.000000	7.125232
611.000000	7.070000
612.000000	7.015411
613.000000	6.960952
614.000000	6.906973
615.000000	6.854414
616.000000	6.803324
617.000000	6.753448
618.000000	6.704993
619.000000	6.658866
620.000000	6.613762
621.000000	6.570721
622.000000	6.528217
623.000000	6.486561
624.000000	6.446424
625.000000	6.406953
626.000000	6.369193
627.000000	6.332482
628.000000	6.297046
629.000000	6.262569
630.000000	6.229951
631.000000	6.197655
632.000000	6.167221
633.000000	6.137463
634.000000	6.109238
635.000000	6.081679
636.000000	6.055362
637.000000	6.029755
638.000000	6.005193
639.000000	5.980394
640.000000	5.956394
641.000000	5.933361
642.000000	5.910689
643.000000	5.888103
644.000000	5.866971
645.000000	5.846025
646.000000	5.825273
647.000000	5.805132
648.000000	5.785748
649.000000	5.766295
650.000000	5.747239
651.000000	5.728051
652.000000	5.709132
653.000000	5.690779
654.000000	5.671877
655.000000	5.653613
656.000000	5.635145
657.000000	5.616788
658.000000	5.598423
659.000000	5.580263
660.000000	5.562375
661.000000	5.544207
662.000000	5.525406
663.000000	5.506798
664.000000	5.488377
665.000000	5.470055
666.000000	5.452146
667.000000	5.434082
668.000000	5.416248
669.000000	5.397572
670.000000	5.379347
671.000000	5.360349
672.000000	5.341132
673.000000	5.321501
674.000000	5.302241
675.000000	5.283540
676.000000	5.264667
677.000000	5.245343
678.000000	5.226449
679.000000	5.207426
680.000000	5.188424
681.000000	5.169387
682.000000	5.150081
683.000000	5.130732
684.000000	5.111701
685.000000	5.092331
686.000000	5.073619
687.000000	5.054693
688.000000	5.035355
689.000000	5.016403
690.000000	4.997097
691.000000	4.978357
692.000000	4.959849
693.000000	4.941266
694.000000	4.922873
695.000000	4.904448
696.000000	4.886116
697.000000	4.868120
698.000000	4.850365
699.000000	4.832609
700.000000	4.815441
701.000000	4.798251
702.000000	4.780814
703.000000	4.763871
704.000000	4.747590
705.000000	4.731392
706.000000	4.715677
707.000000	4.700396
708.000000	4.685243
709.000000	4.670506
710.000000	4.655743
711.000000	4.641579
712.000000	4.627740
713.000000	4.614099
714.000000	4.600718
715.000000	4.587585
716.000000	4.574663
717.000000	4.562321
718.000000	4.550341
719.000000	4.539001
720.000000	4.528109
721.000000	4.516816
722.000000	4.506125
723.000000	4.496508
724.000000	4.487524
725.000000	4.478949
726.000000	4.470435
727.000000	4.462615
728.000000	4.455296
729.000000	4.448450
730.000000	4.442023
731.000000	4.435951
732.000000	4.430358
733.000000	4.425167
734.000000	4.420014
735.000000	4.414880
736.000000	4.410383
737.000000	4.406534
738.000000	4.402982
739.000000	4.399874
740.000000	4.397629
741.000000	4.395928
742.000000	4.394396
743.000000	4.393268
744.000000	4.392659
745.000000	4.392391
746.000000	4.392054
747.000000	4.391882
748.000000	4.392333
749.000000	4.393569
750.000000	4.395237
751.000000	4.397213
752.000000	4.399845
753.000000	4.402713
754.000000	4.406043
755.000000	4.410132
756.000000	4.414343
757.000000	4.419097
758.000000	4.424644
759.000000	4.430108
760.000000	4.435865
761.000000	4.442192
762.000000	4.448468
763.000000	4.455221
764.000000	4.462357
765.000000	4.469894
766.000000	4.477556
767.000000	4.485616
768.000000	4.494646
769.000000	4.504829
770.000000	4.515678
771.000000	4.526731
772.000000	4.537991
773.000000	4.549041
774.000000	4.560996
775.000000	4.573514
776.000000	4.585941
777.000000	4.599472
778.000000	4.613103
779.000000	4.627640
780.000000	4.642682
781.000000	4.658600
782.000000	4.675926
783.000000	4.693256
784.000000	4.711044
785.000000	4.729455
786.000000	4.747554
787.000000	4.765482
788.000000	4.784211
789.000000	4.803528
790.000000	4.822598
791.000000	4.842241
792.000000	4.862989
793.000000	4.882607
794.000000	4.903506
795.000000	4.925501
796.000000	4.947267
797.000000	4.970071
798.000000	4.994179
799.000000	5.019489
800.000000	5.044241
801.000000	5.069269
802.000000	5.096520
803.000000	5.123682
804.000000	5.150210
805.000000	5.177758
806.000000	5.206334
807.000000	5.235221
808.000000	5.264231
809.000000	5.293626
810.000000	5.323473
811.000000	5.354219
812.000000	5.385230
813.000000	5.417708
814.000000	5.449836
815.000000	5.481721
816.000000	5.513222
817.000000	5.543756
818.000000	5.576990
819.000000	5.609791
820.000000	5.642417
821.000000	5.674924
822.000000	5.710661
823.000000	5.745854
824.000000	5.780570
825.000000	5.815408
826.000000	5.850637
827.000000	5.887158
828.000000	5.923661
829.000000	5.960662
830.000000	5.997434
831.000000	6.034832
832.000000	6.070526
833.000000	6.110030
834.000000	6.145244
835.000000	6.178037
836.000000	6.216990
837.000000	6.253589
838.000000	6.287389
839.000000	6.322768
840.000000	6.358015
841.000000	6.395642
842.000000	6.433230
843.000000	6.469214
844.000000	6.505141
845.000000	6.536710
846.000000	6.570997
847.000000	6.602724
848.000000	6.630981
849.000000	6.666091
850.000000	6.697034
851.000000	6.731285
852.000000	6.762944
853.000000	6.785669
854.000000	6.816554
855.000000	6.848840
856.000000	6.887230
857.000000	6.926780
858.000000	7.018824
859.000000	7.062380
860.000000	7.106862
861.000000	7.152078
862.000000	7.195619
863.000000	7.240112
864.000000	7.284275
865.000000	7.328486
866.000000	7.372804
867.000000	7.418145
868.000000	7.458000
869.000000	7.501159
870.000000	7.547105
871.000000	7.586908
872.000000	7.627564
873.000000	7.671330
874.000000	7.712237
875.000000	7.752288
876.000000	7.789342
877.000000	7.826296
878.000000	7.865925
879.000000	7.904475
880.000000	7.945953
881.000000	7.984955
882.000000	8.025826
883.000000	8.069339
884.000000	8.105589
885.000000	8.146577
886.000000	8.185050
887.000000	8.225980
888.000000	8.273425
889.000000	8.313195
890.000000	8.351200
891.000000	8.384772
892.000000	8.414458
893.000000	8.392526
894.000000	8.419049
895.000000	8.444851
896.000000	8.470997
897.000000	8.496357
898.000000	8.522000
899.000000	8.547146
900.000000	8.572763
901.000000	8.598326
902.000000	8.625080
903.000000	8.652751
904.000000	8.680769
905.000000	8.710391
906.000000	8.740777
907.000000	8.771089
908.000000	8.801300
909.000000	8.833606
910.000000	8.866700
911.000000	8.900406
912.000000	8.934794
913.000000	8.968691
914.000000	9.004106
915.000000	9.041334
916.000000	9.079220
917.000000	9.116763
918.000000	9.155569
919.000000	9.194691
920.000000	9.233589
921.000000	9.273074
922.000000	9.313880
923.000000	9.355486
924.000000	9.397029
925.000000	9.439120
926.000000	9.481611
927.000000	9.524451
928.000000	9.567063
929.000000	9.610323
930.000000	9.654723
931.000000	9.698249
932.000000	9.742403
933.000000	9.786923
934.000000	9.832029
935.000000	9.877249
936.000000	9.923646
937.000000	9.969051
938.000000	10.015166
939.000000	10.061540
940.000000	10.107097
941.000000	10.152543
942.000000	10.198080
943.000000	10.243760
944.000000	10.290066
945.000000	10.336049
946.000000	10.382754
947.000000	10.429817
948.000000	10.477489
949.000000	10.524751
950.000000	10.571797
951.000000	10.618097
952.000000	10.664946
953.000000	10.711909
954.000000	10.759217
955.000000	10.807023
956.000000	10.854840
957.000000	10.902420
958.000000	10.949946
959.000000	10.997771
960.000000	11.046197
961.000000	11.094866
962.000000	11.143489
963.000000	11.192220
964.000000	11.240874
965.000000	11.289403
966.000000	11.338251
967.000000	11.387540
968.000000	11.437026
969.000000	11.486420
970.000000	11.535651
971.000000	11.583866
972.000000	11.632323
973.000000	11.680571
974.000000	11.729326
975.000000	11.778474
976.000000	11.828214
977.000000	11.878577
978.000000	11.929240
979.000000	11.979423
980.000000	12.029360
981.000000	12.078797
982.000000	12.127866
983.000000	12.177006
984.000000	12.225917
985.000000	12.274714
986.000000	12.324123
987.000000	12.373926
988.000000	12.423320
989.000000	12.472600
990.000000	12.521900
991.000000	12.570823
992.000000	12.619674
993.000000	12.668386
994.000000	12.717263
995.000000	12.766451
996.000000	12.814903
997.000000	12.863694
998.000000	12.912646
999.000000	12.961286
1000.000000	13.009620
1001.000000	13.057831
1002.000000	13.105826
1003.000000	13.153989
1004.000000	13.202089
1005.000000	13.250023
1006.000000	13.298329
1007.000000	13.346740
1008.000000	13.394937
1009.000000	13.442149
1010.000000	13.489329
1011.000000	13.536820
1012.000000	13.584043
1013.000000	13.630846
1014.000000	13.677537
1015.000000	13.724103
1016.000000	13.770806
1017.000000	13.818311
1018.000000	13.865717
1019.000000	13.912931
1020.000000	13.960157
1021.000000	14.007034
1022.000000	14.053594
1023.000000	14.100151
1024.000000	14.146889
1025.000000	14.193631
1026.000000	14.240943
1027.000000	14.288569
1028.000000	14.336129
1029.000000	14.383403
1030.000000	14.429860
1031.000000	14.476394
1032.000000	14.523343
1033.000000	14.569580
1034.000000	14.615991
1035.000000	14.662654
1036.000000	14.709740
1037.000000	14.756980
1038.000000	14.804031
1039.000000	14.850869
1040.000000	14.897286
1041.000000	14.943349
1042.000000	14.990071
1043.000000	15.036843
1044.000000	15.083511
1045.000000	15.130243
1046.000000	15.176391
1047.000000	15.222226
1048.000000	15.268089
1049.000000	15.314103
1050.000000	15.360594
1051.000000	15.406406
1052.000000	15.451469
1053.000000	15.496614
1054.000000	15.542434
1055.000000	15.587880
1056.000000	15.633031
1057.000000	15.677931
1058.000000	15.722391
1059.000000	15.766831
1060.000000	15.811263
1061.000000	15.855583
1062.000000	15.899529
1063.000000	15.943420
1064.000000	15.987277
1065.000000	16.031440
1066.000000	16.075657
1067.000000	16.119206
1068.000000	16.163149
1069.000000	16.206971
1070.000000	16.250426
1071.000000	16.293894
1072.000000	16.337551
1073.000000	16.380731
1074.000000	16.423446
1075.000000	16.466649
1076.000000	16.509580
1077.000000	16.551863
1078.000000	16.593817
1079.000000	16.636049
1080.000000	16.678454
1081.000000	16.720543
1082.000000	16.762394
1083.000000	16.804529
1084.000000	16.846723
1085.000000	16.888211
1086.000000	16.929920
1087.000000	16.971731
1088.000000	17.013460
1089.000000	17.054303
1090.000000	17.094946
1091.000000	17.135149
1092.000000	17.176054
1093.000000	17.216571
1094.000000	17.256766
1095.000000	17.296429
1096.000000	17.335431
1097.000000	17.374317
1098.000000	17.413114
1099.000000	17.451317
1100.000000	17.489291
1101.000000	17.526803
1102.000000	17.564197
1103.000000	17.601060
1104.000000	17.637506
1105.000000	17.673600
1106.000000	17.709520
1107.000000	17.744323
1108.000000	17.779220
1109.000000	17.813957
1110.000000	17.847643
1111.000000	17.880986
1112.000000	17.913763
1113.000000	17.946634
1114.000000	17.979417
1115.000000	18.011226
1116.000000	18.042403
1117.000000	18.074043
1118.000000	18.104629
1119.000000	18.134503
1120.000000	18.164151
1121.000000	18.193763
1122.000000	18.222617
1123.000000	18.250629
1124.000000	18.278394
1125.000000	18.306249
1126.000000	18.332726
1127.000000	18.358577
1128.000000	18.383740
1129.000000	18.409094
1130.000000	18.434226
1131.000000	18.457409
1132.000000	18.479054
1133.000000	18.498731
1134.000000	18.518194
1135.000000	18.537603
1136.000000	18.556434
1137.000000	18.574331
1138.000000	18.590849
1139.000000	18.606106
1140.000000	18.620951
1141.000000	18.634186
1142.000000	18.647663
1143.000000	18.659931
1144.000000	18.670743
1145.000000	18.682443
1146.000000	18.693374
1147.000000	18.703280
1148.000000	18.712269
1149.000000	18.720603
1150.000000	18.727731
1151.000000	18.734734
1152.000000	18.740337
1153.000000	18.744946
1154.000000	18.748957
1155.000000	18.752326
1156.000000	18.754506
1157.000000	18.755823
1158.000000	18.755426
1159.000000	18.753683
1160.000000	18.750357
1161.000000	18.746634
1162.000000	18.740923
1163.000000	18.734306
1164.000000	18.725820
1165.000000	18.716197
1166.000000	18.706197
1167.000000	18.696086
1168.000000	18.685643
1169.000000	18.674131
1170.000000	18.661014
1171.000000	18.648429
1172.000000	18.634014
1173.000000	18.620574
1174.000000	18.607383
1175.000000	18.594017
1176.000000	18.580151
1177.000000	18.566097
1178.000000	18.552129
1179.000000	18.538666
1180.000000	18.524660
1181.000000	18.510557
1182.000000	18.497551
1183.000000	18.483554
1184.000000	18.469229
1185.000000	18.456360
1186.000000	18.443357
1187.000000	18.430889
1188.000000	18.419183
1189.000000	18.408374
1190.000000	18.398280
1191.000000	18.388840
1192.000000	18.381606
1193.000000	18.376009
1194.000000	18.372220
1195.000000	18.369931
1196.000000	18.369526
1197.000000	18.371203
1198.000000	18.374594
1199.000000	18.379386
1200.000000	18.385791
1201.000000	18.394480
1202.000000	18.404803
1203.000000	18.416666
1204.000000	18.429980
1205.000000	18.444423
1206.000000	18.459249
1207.000000	18.475940
1208.000000	18.493543
1209.000000	18.512046
1210.000000	18.530897
1211.000000	18.550743
1212.000000	18.571600
1213.000000	18.593411
1214.000000	18.615760
1215.000000	18.637843
1216.000000	18.660340
1217.000000	18.682506
1218.000000	18.706351
1219.000000	18.730163
1220.000000	18.753649
1221.000000	18.777963
1222.000000	18.802214
1223.000000	18.826723
1224.000000	18.850289
1225.000000	18.873794
1226.000000	18.896843
1227.000000	18.918457
1228.000000	18.939891
1229.000000	18.960829
1230.000000	18.980849
1231.000000	19.000197
1232.000000	19.019120
1233.000000	19.037340
1234.000000	19.055154
1235.000000	19.071891
1236.000000	19.088254
1237.000000	19.104557
1238.000000	19.120794
1239.000000	19.136326
1240.000000	19.151834
1241.000000	19.166149
1242.000000	19.180674
1243.000000	19.195020
1244.000000	19.209569
1245.000000	19.223791
1246.000000	19.238683
1247.000000	19.252740
1248.000000	19.266474
1249.000000	19.280960
1250.000000	19.295729
1251.000000	19.310811
1252.000000	19.326266
1253.000000	19.341686
1254.000000	19.357497
1255.000000	19.373554
1256.000000	19.389203
1257.000000	19.404923
1258.000000	19.420954
1259.000000	19.437009
1260.000000	19.452797
1261.000000	19.469671
1262.000000	19.486446
1263.000000	19.503266
1264.000000	19.520109
1265.000000	19.537331
1266.000000	19.554189
1267.000000	19.570794
1268.000000	19.587549
1269.000000	19.603891
1270.000000	19.620546
1271.000000	19.637634
1272.000000	19.654049
1273.000000	19.670094
1274.000000	19.686091
1275.000000	19.701849
1276.000000	19.717877
1277.000000	19.733789
1278.000000	19.748849
1279.000000	19.764177
1280.000000	19.779717
1281.000000	19.794320
1282.000000	19.808906
1283.000000	19.823157
1284.000000	19.836491
1285.000000	19.849414
1286.000000	19.862360
1287.000000	19.875217
1288.000000	19.887863
1289.000000	19.900374
1290.000000	19.912434
1291.000000	19.924211
1292.000000	19.936066
1293.000000	19.947640
1294.000000	19.959583
1295.000000	19.971874
1296.000000	19.983874
1297.000000	19.996140
1298.000000	20.008331
1299.000000	20.020331
1300.000000	20.031723
1301.000000	20.043474
1302.000000	20.055586
1303.000000	20.067466
1304.000000	20.079994
1305.000000	20.092049
1306.000000	20.102889
1307.000000	20.113734
1308.000000	20.124437
1309.000000	20.134671
1310.000000	20.144571
1311.000000	20.154089
1312.000000	20.163314
1313.000000	20.172189
1314.000000	20.179889
1315.000000	20.186551
1316.000000	20.192334
1317.000000	20.197414
1318.000000	20.202469
1319.000000	20.207200
1320.000000	20.211314
1321.000000	20.213854
1322.000000	20.214963
1323.000000	20.214771
1324.000000	20.213546
1325.000000	20.211351
1326.000000	20.208677
1327.000000	20.205006
1328.000000	20.199951
1329.000000	20.193397
1330.000000	20.185306
1331.000000	20.175891
1332.000000	20.165169
1333.000000	20.153206
1334.000000	20.139917
1335.000000	20.125549
1336.000000	20.109503
1337.000000	20.091634
1338.000000	20.072766
1339.000000	20.051834
1340.000000	20.029017
1341.000000	20.004883
1342.000000	19.979243
1343.000000	19.952314
1344.000000	19.923889
1345.000000	19.893711
1346.000000	19.861700
1347.000000	19.827697
1348.000000	19.791963
1349.000000	19.755111
1350.000000	19.716174
1351.000000	19.675180
1352.000000	19.631854
1353.000000	19.585763
1354.000000	19.538389
1355.000000	19.491003
1356.000000	19.444363
1357.000000	19.396940
1358.000000	19.348657
1359.000000	19.300220
1360.000000	19.250531
1361.000000	19.200966
1362.000000	19.153843
1363.000000	19.107109
1364.000000	19.058834
1365.000000	19.010937
1366.000000	18.962351
1367.000000	18.911291
1368.000000	18.859889
1369.000000	18.808566
1370.000000	18.755211
1371.000000	18.701157
1372.000000	18.646014
1373.000000	18.586769
1374.000000	18.523583
1375.000000	18.456640
1376.000000	18.386217
1377.000000	18.311843
1378.000000	18.233960
1379.000000	18.151434
1380.000000	18.066037
1381.000000	17.978183
1382.000000	17.891357
1383.000000	17.805514
1384.000000	17.720746
1385.000000	17.635997
1386.000000	17.551957
1387.000000	17.469037
1388.000000	17.388111
1389.000000	17.308649
1390.000000	17.227649
1391.000000	17.145209
1392.000000	17.064400
1393.000000	16.984317
1394.000000	16.904203
1395.000000	16.824991
1396.000000	16.746760
1397.000000	16.666037
1398.000000	16.582380
1399.000000	16.497446
1400.000000	16.412574
1401.000000	16.330446
1402.000000	16.248306
1403.000000	16.163291
1404.000000	16.074689
1405.000000	15.988271
1406.000000	15.901823
1407.000000	15.814386
1408.000000	15.727766
1409.000000	15.644080
1410.000000	15.563329
1411.000000	15.484311
1412.000000	15.405491
1413.000000	15.328694
1414.000000	15.256269
1415.000000	15.186386
1416.000000	15.117440
1417.000000	15.045454
1418.000000	14.971754
1419.000000	14.896886
1420.000000	14.822251
1421.000000	14.747083
1422.000000	14.670371
1423.000000	14.591971
1424.000000	14.511669
1425.000000	14.431589
1426.000000	14.350369
1427.000000	14.266871
1428.000000	14.182569
1429.000000	14.097660
1430.000000	14.011806
1431.000000	13.922874
1432.000000	13.833717
1433.000000	13.746517
1434.000000	13.661909
1435.000000	13.576129
1436.000000	13.486874
1437.000000	13.400174
1438.000000	13.316757
1439.000000	13.235846
1440.000000	13.155220
1441.000000	13.075760
1442.000000	12.998757
1443.000000	12.925320
1444.000000	12.852774
1445.000000	12.782683
1446.000000	12.715814
1447.000000	12.652423
1448.000000	12.591186
1449.000000	12.530437
1450.000000	12.471489
1451.000000	12.415569
1452.000000	12.363674
1453.000000	12.312914
1454.000000	12.261749
1455.000000	12.212146
1456.000000	12.164257
1457.000000	12.117851
1458.000000	12.073180
1459.000000	12.029177
1460.000000	11.985711
1461.000000	11.944354
1462.000000	11.904046
1463.000000	11.864537
1464.000000	11.825574
1465.000000	11.787497
1466.000000	11.750957
1467.000000	11.713597
1468.000000	11.676597
1469.000000	11.640006
1470.000000	11.604723
1471.000000	11.570894
1472.000000	11.537149
1473.000000	11.503200
1474.000000	11.469651
1475.000000	11.436349
1476.000000	11.403726
1477.000000	11.370851
1478.000000	11.338557
1479.000000	11.307606
1480.000000	11.276860
1481.000000	11.246280
1482.000000	11.217571
1483.000000	11.188829
1484.000000	11.161511
1485.000000	11.134474
1486.000000	11.107180
1487.000000	11.079629
1488.000000	11.053429
1489.000000	11.029577
1490.000000	11.006591
1491.000000	10.984103
1492.000000	10.963003
1493.000000	10.941989
1494.000000	10.922251
1495.000000	10.904120
1496.000000	10.886643
1497.000000	10.871006
1498.000000	10.856531
1499.000000	10.843480
1500.000000	10.831737
1501.000000	10.821111
1502.000000	10.813246
1503.000000	10.807646
1504.000000	10.803509
1505.000000	10.800623
1506.000000	10.799169
1507.000000	10.799720
1508.000000	10.802049
1509.000000	10.806426
1510.000000	10.812580
1511.000000	10.820480
1512.000000	10.830394
1513.000000	10.841194
1514.000000	10.853097
1515.000000	10.866169
1516.000000	10.880280
1517.000000	10.894920
1518.000000	10.911191
1519.000000	10.928543
1520.000000	10.946866
1521.000000	10.966357
1522.000000	10.987460
1523.000000	11.009703
1524.000000	11.031891
1525.000000	11.054737
1526.000000	11.079180
1527.000000	11.104243
1528.000000	11.130040
1529.000000	11.156866
1530.000000	11.184400
1531.000000	11.212554
1532.000000	11.240489
1533.000000	11.269094
1534.000000	11.298431
1535.000000	11.327903
1536.000000	11.357289
1537.000000	11.386074
1538.000000	11.413817
1539.000000	11.440889
1540.000000	11.467666
1541.000000	11.493849
1542.000000	11.519340
1543.000000	11.544726
1544.000000	11.569891
1545.000000	11.594431
1546.000000	11.618417
1547.000000	11.642160
1548.000000	11.665954
1549.000000	11.689589
1550.000000	11.712949
1551.000000	11.735911
1552.000000	11.759234
1553.000000	11.782757
1554.000000	11.805706
1555.000000	11.828309
1556.000000	11.850700
1557.000000	11.872437
1558.000000	11.893780
1559.000000	11.914637
1560.000000	11.934897
1561.000000	11.954194
1562.000000	11.973026
1563.000000	11.991709
1564.000000	12.009180
1565.000000	12.025409
1566.000000	12.041023
1567.000000	12.055557
1568.000000	12.068494
1569.000000	12.080317
1570.000000	12.091869
1571.000000	12.102737
1572.000000	12.112597
1573.000000	12.122240
1574.000000	12.132194
1575.000000	12.141737
1576.000000	12.151054
1577.000000	12.159809
1578.000000	12.168189
1579.000000	12.176583
1580.000000	12.184529
1581.000000	12.191971
1582.000000	12.199294
1583.000000	12.206151
1584.000000	12.212683
1585.000000	12.219077
1586.000000	12.225434
1587.000000	12.231420
1588.000000	12.236986
1589.000000	12.242263
1590.000000	12.247197
1591.000000	12.252371
1592.000000	12.257831
1593.000000	12.263546
1594.000000	12.269683
1595.000000	12.276103
1596.000000	12.283183
1597.000000	12.290660
1598.000000	12.298994
1599.000000	12.308403
1600.000000	12.318874
1601.000000	12.330806
1602.000000	12.344017
1603.000000	12.358131
1604.000000	12.373494
1605.000000	12.390123
1606.000000	12.407660
1607.000000	12.426806
1608.000000	12.446563
1609.000000	12.466283
1610.000000	12.486829
1611.000000	12.508323
1612.000000	12.529866
1613.000000	12.551634
1614.000000	12.573977
1615.000000	12.596666
1616.000000	12.619811
1617.000000	12.642754
1618.000000	12.665880
1619.000000	12.688960
1620.000000	12.712246
1621.000000	12.735234
1622.000000	12.757566
1623.000000	12.780029
1624.000000	12.802831
1625.000000	12.825743
1626.000000	12.848689
1627.000000	12.871320
1628.000000	12.893300
1629.000000	12.915163
1630.000000	12.936709
1631.000000	12.958300
1632.000000	12.980129
1633.000000	13.000914
1634.000000	13.021031
1635.000000	13.040277
1636.000000	13.058397
1637.000000	13.076160
1638.000000	13.094111
1639.000000	13.111289
1640.000000	13.127494
1641.000000	13.143380
1642.000000	13.157366
1643.000000	13.171354
1644.000000	13.185060
1645.000000	13.198237
1646.000000	13.210806
1647.000000	13.223231
1648.000000	13.235440
1649.000000	13.246820
1650.000000	13.257294
1651.000000	13.267111
1652.000000	13.276934
1653.000000	13.285914
1654.000000	13.293943
1655.000000	13.300417
1656.000000	13.305714
1657.000000	13.309923
1658.000000	13.313234
1659.000000	13.315429
1660.000000	13.316086
1661.000000	13.314797
1662.000000	13.312003
1663.000000	13.308051
1664.000000	13.302203
1665.000000	13.294126
1666.000000	13.283549
1667.000000	13.270711
1668.000000	13.254303
1669.000000	13.236083
1670.000000	13.215837
1671.000000	13.193609
1672.000000	13.169180
1673.000000	13.142586
1674.000000	13.113246
1675.000000	13.082000
1676.000000	13.049703
1677.000000	13.015080
1678.000000	12.977611
1679.000000	12.937997
1680.000000	12.895377
1681.000000	12.850069
1682.000000	12.801786
1683.000000	12.751240
1684.000000	12.697863
1685.000000	12.642126
1686.000000	12.584720
1687.000000	12.525809
1688.000000	12.466889
1689.000000	12.409883
1690.000000	12.353980
1691.000000	12.299517
1692.000000	12.247731
1693.000000	12.197954
1694.000000	12.150006
1695.000000	12.104434
1696.000000	12.060643
1697.000000	12.018226
1698.000000	11.977140
1699.000000	11.937897
1700.000000	11.900969
1701.000000	11.866169
1702.000000	11.832266
1703.000000	11.801163
1704.000000	11.771611
1705.000000	11.743597
1706.000000	11.716494
1707.000000	11.689909
1708.000000	11.664274
1709.000000	11.639086
1710.000000	11.614026
1711.000000	11.588271
1712.000000	11.563580
1713.000000	11.538971
1714.000000	11.514666
1715.000000	11.489611
1716.000000	11.464460
1717.000000	11.439523
1718.000000	11.413569
1719.000000	11.387511
1720.000000	11.361814
1721.000000	11.335886
1722.000000	11.309103
1723.000000	11.282271
1724.000000	11.254011
1725.000000	11.225520
1726.000000	11.196580
1727.000000	11.167323
1728.000000	11.137100
1729.000000	11.106894
1730.000000	11.076411
1731.000000	11.046503
1732.000000	11.016849
1733.000000	10.987794
1734.000000	10.959151
1735.000000	10.931383
1736.000000	10.903823
1737.000000	10.878097
1738.000000	10.854623
1739.000000	10.832494
1740.000000	10.811529
1741.000000	10.792886
1742.000000	10.777320
1743.000000	10.763163
1744.000000	10.751520
1745.000000	10.742757
1746.000000	10.736757
1747.000000	10.733231
1748.000000	10.732566
1749.000000	10.733969
1750.000000	10.739657
1751.000000	10.747777
1752.000000	10.758626
1753.000000	10.772854
1754.000000	10.789629
1755.000000	10.809263
1756.000000	10.830949
1757.000000	10.854749
1758.000000	10.878049
1759.000000	10.901226
1760.000000	10.924537
1761.000000	10.947714
1762.000000	10.970060
1763.000000	10.991369
1764.000000	11.011694
1765.000000	11.031714
1766.000000	11.050871
1767.000000	11.069257
1768.000000	11.087340
1769.000000	11.105574
1770.000000	11.123149
1771.000000	11.140217
1772.000000	11.156820
1773.000000	11.172103
1774.000000	11.186780
1775.000000	11.201634
1776.000000	11.215491
1777.000000	11.228229
1778.000000	11.240691
1779.000000	11.252680
1780.000000	11.263303
1781.000000	11.273469
1782.000000	11.284017
1783.000000	11.293603
1784.000000	11.302986
1785.000000	11.311886
1786.000000	11.320700
1787.000000	11.329454
1788.000000	11.337691
1789.000000	11.346397
1790.000000	11.354606
1791.000000	11.362840
1792.000000	11.370831
1793.000000	11.379911
1794.000000	11.390280
1795.000000	11.400571
1796.000000	11.410760
1797.000000	11.420809
1798.000000	11.430666
1799.000000	11.440023
1800.000000	11.449303
1801.000000	11.459240
1802.000000	11.469814
1803.000000	11.479966
1804.000000	11.488949
1805.000000	11.497403
1806.000000	11.506154
1807.000000	11.514849
1808.000000	11.523517
1809.000000	11.530817
1810.000000	11.536960
1811.000000	11.543580
1812.000000	11.550337
1813.000000	11.556711
1814.000000	11.562640
1815.000000	11.568677
1816.000000	11.574343
1817.000000	11.579031
1818.000000	11.582663
1819.000000	11.584649
1820.000000	11.587011
1821.000000	11.592237
1822.000000	11.599063
1823.000000	11.605397
1824.000000	11.609626
1825.000000	11.611931
1826.000000	11.613483
1827.000000	11.615914
1828.000000	11.618914
1829.000000	11.621717
1830.000000	11.624929
1831.000000	11.629343
1832.000000	11.633606
1833.000000	11.637097
1834.000000	11.639417
1835.000000	11.640406
1836.000000	11.641529
1837.000000	11.644426
1838.000000	11.648406
1839.000000	11.652909
1840.000000	11.658386
1841.000000	11.665131
1842.000000	11.673803
1843.000000	11.683169
1844.000000	11.690977
1845.000000	11.695157
1846.000000	11.696051
1847.000000	11.697303
1848.000000	11.703034
1849.000000	11.713154
1850.000000	11.722886
1851.000000	11.729286
1852.000000	11.733069
1853.000000	11.737517
1854.000000	11.744077
1855.000000	11.750226
1856.000000	11.753489
1857.000000	11.753951
1858.000000	11.753640
1859.000000	11.755594
1860.000000	11.760457
1861.000000	11.765843
1862.000000	11.769894
1863.000000	11.771351
1864.000000	11.768706
1865.000000	11.762611
1866.000000	11.753277
1867.000000	11.741631
1868.000000	11.729760
1869.000000	11.717477
1870.000000	11.705897
1871.000000	11.694420
1872.000000	11.680229
1873.000000	11.664460
1874.000000	11.647411
1875.000000	11.627566
1876.000000	11.603900
1877.000000	11.574740
1878.000000	11.541271
1879.000000	11.506423
1880.000000	11.471637
1881.000000	11.434643
1882.000000	11.392200
1883.000000	11.341689
1884.000000	11.283006
1885.000000	11.220026
1886.000000	11.156260
1887.000000	11.090280
1888.000000	11.019106
1889.000000	10.941520
1890.000000	10.858154
1891.000000	10.770237
1892.000000	10.678674
1893.000000	10.583640
1894.000000	10.482797
1895.000000	10.374700
1896.000000	10.259931
1897.000000	10.139463
1898.000000	10.015274
1899.000000	9.890069
1900.000000	9.763857
1901.000000	9.634911
1902.000000	9.503214
1903.000000	9.368523
1904.000000	9.231323
1905.000000	9.090623
1906.000000	8.945851
1907.000000	8.798134
1908.000000	8.647589
1909.000000	8.494417
1910.000000	8.338997
1911.000000	8.182540
1912.000000	8.027220
1913.000000	7.873474
1914.000000	7.721714
1915.000000	7.571866
1916.000000	7.424420
1917.000000	7.278780
1918.000000	7.134571
1919.000000	6.991991
1920.000000	6.853040
1921.000000	6.717560
1922.000000	6.585800
1923.000000	6.459474
1924.000000	6.338117
1925.000000	6.220146
1926.000000	6.105531
1927.000000	5.995689
1928.000000	5.890483
1929.000000	5.791020
1930.000000	5.697020
1931.000000	5.608931
1932.000000	5.527611
1933.000000	5.450674
1934.000000	5.377966
1935.000000	5.308857
1936.000000	5.244249
1937.000000	5.184920
1938.000000	5.129889
1939.000000	5.079903
1940.000000	5.034757
1941.000000	4.992420
1942.000000	4.953417
1943.000000	4.917700
1944.000000	4.886291
1945.000000	4.859500
1946.000000	4.836703
1947.000000	4.816506
1948.000000	4.798629
1949.000000	4.783163
1950.000000	4.769711
1951.000000	4.759534
1952.000000	4.752426
1953.000000	4.748214
1954.000000	4.747077
1955.000000	4.747974
1956.000000	4.749860
1957.000000	4.754143
1958.000000	4.760386
1959.000000	4.767700
1960.000000	4.778029
1961.000000	4.790303
1962.000000	4.803114
1963.000000	4.817689
1964.000000	4.832394
1965.000000	4.848937
1966.000000	4.866340
1967.000000	4.884800
1968.000000	4.904046
1969.000000	4.924777
1970.000000	4.946703
1971.000000	4.969817
1972.000000	4.992777
1973.000000	5.016874
1974.000000	5.040923
1975.000000	5.064837
1976.000000	5.089877
1977.000000	5.115117
1978.000000	5.141246
1979.000000	5.167786
1980.000000	5.194606
1981.000000	5.221797
1982.000000	5.248529
1983.000000	5.275360
1984.000000	5.302300
1985.000000	5.330320
1986.000000	5.357800
1987.000000	5.385363
1988.000000	5.413386
1989.000000	5.441577
1990.000000	5.469203
1991.000000	5.496000
1992.000000	5.523420
1993.000000	5.549409
1994.000000	5.576354
1995.000000	5.602331
1996.000000	5.628694
1997.000000	5.655060
1998.000000	5.681063
1999.000000	5.707406
2000.000000	5.733229
2001.000000	5.759057
2002.000000	5.784046
2003.000000	5.809706
2004.000000	5.834420
2005.000000	5.858129
2006.000000	5.881640
2007.000000	5.904840
2008.000000	5.927317
2009.000000	5.948909
2010.000000	5.970291
2011.000000	5.990657
2012.000000	6.010697
2013.000000	6.030071
2014.000000	6.047517
2015.000000	6.064637
2016.000000	6.080177
2017.000000	6.094871
2018.000000	6.108360
2019.000000	6.120494
2020.000000	6.131086
2021.000000	6.140900
2022.000000	6.149094
2023.000000	6.155169
2024.000000	6.160171
2025.000000	6.163937
2026.000000	6.167026
2027.000000	6.167411
2028.000000	6.166917
2029.000000	6.164060
2030.000000	6.160291
2031.000000	6.154534
2032.000000	6.147323
2033.000000	6.138551
2034.000000	6.127800
2035.000000	6.115666
2036.000000	6.101737
2037.000000	6.085849
2038.000000	6.068134
2039.000000	6.048477
2040.000000	6.027677
2041.000000	6.004489
2042.000000	5.980003
2043.000000	5.954174
2044.000000	5.927594
2045.000000	5.898757
2046.000000	5.868809
2047.000000	5.837931
2048.000000	5.805211
2049.000000	5.772563
2050.000000	5.739389
2051.000000	5.706329
2052.000000	5.673540
2053.000000	5.640943
2054.000000	5.608523
2055.000000	5.576803
2056.000000	5.545989
2057.000000	5.516654
2058.000000	5.488571
2059.000000	5.461429
2060.000000	5.435643
2061.000000	5.411391
2062.000000	5.388991
2063.000000	5.368777
2064.000000	5.350609
2065.000000	5.334103
2066.000000	5.319877
2067.000000	5.307514
2068.000000	5.296560
2069.000000	5.287631
2070.000000	5.281051
2071.000000	5.276826
2072.000000	5.273969
2073.000000	5.273580
2074.000000	5.275694
2075.000000	5.279680
2076.000000	5.286214
2077.000000	5.294646
2078.000000	5.304677
2079.000000	5.316037
2080.000000	5.329006
2081.000000	5.343620
2082.000000	5.359469
2083.000000	5.377146
2084.000000	5.395520
2085.000000	5.413817
2086.000000	5.432706
2087.000000	5.451751
2088.000000	5.470843
2089.000000	5.489943
2090.000000	5.508554
2091.000000	5.526706
2092.000000	5.544514
2093.000000	5.561769
2094.000000	5.578123
2095.000000	5.593697
2096.000000	5.608800
2097.000000	5.623017
2098.000000	5.635560
2099.000000	5.647386
2100.000000	5.658860
2101.000000	5.669183
2102.000000	5.678377
2103.000000	5.686397
2104.000000	5.693797
2105.000000	5.700103
2106.000000	5.705620
2107.000000	5.711046
2108.000000	5.715591
2109.000000	5.719037
2110.000000	5.721803
2111.000000	5.723546
2112.000000	5.724734
2113.000000	5.725726
2114.000000	5.726711
2115.000000	5.727317
2116.000000	5.727180
2117.000000	5.726514
2118.000000	5.725317
2119.000000	5.724394
2120.000000	5.723683
2121.000000	5.722491
2122.000000	5.721146
2123.000000	5.720083
2124.000000	5.719360
2125.000000	5.718477
2126.000000	5.716840
2127.000000	5.715214
2128.000000	5.713220
2129.000000	5.710566
2130.000000	5.708294
2131.000000	5.705277
2132.000000	5.701229
2133.000000	5.696883
2134.000000	5.691803
2135.000000	5.685477
2136.000000	5.678743
2137.000000	5.671669
2138.000000	5.663894
2139.000000	5.655329
2140.000000	5.645569
2141.000000	5.635331
2142.000000	5.624114
2143.000000	5.611909
2144.000000	5.598954
2145.000000	5.585606
2146.000000	5.571817
2147.000000	5.557143
2148.000000	5.540963
2149.000000	5.523260
2150.000000	5.504629
2151.000000	5.485629
2152.000000	5.466209
2153.000000	5.446331
2154.000000	5.425703
2155.000000	5.404637
2156.000000	5.382840
2157.000000	5.360331
2158.000000	5.337194
2159.000000	5.313574
2160.000000	5.289894
2161.000000	5.266134
2162.000000	5.241929
2163.000000	5.216940
2164.000000	5.192260
2165.000000	5.166989
2166.000000	5.141900
2167.000000	5.117391
2168.000000	5.093317
2169.000000	5.069320
2170.000000	5.045714
2171.000000	5.021789
2172.000000	4.998077
2173.000000	4.974877
2174.000000	4.951940
2175.000000	4.929520
2176.000000	4.906834
2177.000000	4.885080
2178.000000	4.864151
2179.000000	4.843423
2180.000000	4.822463
2181.000000	4.801566
2182.000000	4.781314
2183.000000	4.761623
2184.000000	4.742669
2185.000000	4.724397
2186.000000	4.706129
2187.000000	4.687491
2188.000000	4.668577
2189.000000	4.649497
2190.000000	4.629600
2191.000000	4.609631
2192.000000	4.588797
2193.000000	4.567511
2194.000000	4.545246
2195.000000	4.521840
2196.000000	4.497383
2197.000000	4.470877
2198.000000	4.444657
2199.000000	4.417506
2200.000000	4.389111
2201.000000	4.359737
2202.000000	4.329140
2203.000000	4.298249
2204.000000	4.267040
2205.000000	4.234997
2206.000000	4.203557
2207.000000	4.172191
2208.000000	4.140657
2209.000000	4.109760
2210.000000	4.079583
2211.000000	4.050523
2212.000000	4.021640
2213.000000	3.993229
2214.000000	3.966071
2215.000000	3.940600
2216.000000	3.916443
2217.000000	3.893409
2218.000000	3.871591
2219.000000	3.851351
2220.000000	3.832920
2221.000000	3.816009
2222.000000	3.800649
2223.000000	3.787763
2224.000000	3.776237
2225.000000	3.766737
2226.000000	3.759494
2227.000000	3.754409
2228.000000	3.750240
2229.000000	3.748449
2230.000000	3.749023
2231.000000	3.751334
2232.000000	3.756774
2233.000000	3.763020
2234.000000	3.771451
2235.000000	3.781234
2236.000000	3.791494
2237.000000	3.803920
2238.000000	3.816231
2239.000000	3.829766
2240.000000	3.843971
2241.000000	3.857963
2242.000000	3.871886
2243.000000	3.886017
2244.000000	3.899477
2245.000000	3.912549
2246.000000	3.924274
2247.000000	3.935280
2248.000000	3.945106
2249.000000	3.954243
2250.000000	3.961809
2251.000000	3.967720
2252.000000	3.971691
2253.000000	3.974923
2254.000000	3.977071
2255.000000	3.977163
2256.000000	3.976069
2257.000000	3.973260
2258.000000	3.968780
2259.000000	3.963649
2260.000000	3.957526
2261.000000	3.949614
2262.000000	3.940951
2263.000000	3.932771
2264.000000	3.924037
2265.000000	3.914077
2266.000000	3.905009
2267.000000	3.894883
2268.000000	3.885571
2269.000000	3.875923
2270.000000	3.866229
2271.000000	3.857780
2272.000000	3.849203
2273.000000	3.842146
2274.000000	3.834837
2275.000000	3.828237
2276.000000	3.821966
2277.000000	3.816760
2278.000000	3.812840
2279.000000	3.809663
2280.000000	3.806851
2281.000000	3.804889
2282.000000	3.803780
2283.000000	3.803737
2284.000000	3.804077
2285.000000	3.804954
2286.000000	3.806826
2287.000000	3.810280
2288.000000	3.814183
2289.000000	3.818206
2290.000000	3.822671
2291.000000	3.827591
2292.000000	3.834277
2293.000000	3.841526
2294.000000	3.849151
2295.000000	3.857666
2296.000000	3.866794
2297.000000	3.876389
2298.000000	3.885771
2299.000000	3.895700
2300.000000	3.906491
2301.000000	3.916391
2302.000000	3.926966
2303.000000	3.937500
2304.000000	3.947969
2305.000000	3.959094
2306.000000	3.970114
2307.000000	3.981154
2308.000000	3.991769
2309.000000	4.003000
2310.000000	4.014629
2311.000000	4.026683
2312.000000	4.038551
2313.000000	4.049557
2314.000000	4.061049
2315.000000	4.072369
2316.000000	4.083866
2317.000000	4.095663
2318.000000	4.107877
2319.000000	4.119211
2320.000000	4.130280
2321.000000	4.141629
2322.000000	4.152726
2323.000000	4.163714
2324.000000	4.174320
2325.000000	4.185503
2326.000000	4.196637
2327.000000	4.207563
2328.000000	4.218071
2329.000000	4.228329
2330.000000	4.238017
2331.000000	4.247617
2332.000000	4.256800
2333.000000	4.266469
2334.000000	4.275597
2335.000000	4.284151
2336.000000	4.293254
2337.000000	4.302577
2338.000000	4.311603
2339.000000	4.320883
2340.000000	4.329989
2341.000000	4.339120
2342.000000	4.348277
2343.000000	4.356900
2344.000000	4.365091
2345.000000	4.373183
2346.000000	4.380689
2347.000000	4.388374
2348.000000	4.396714
2349.000000	4.404634
2350.000000	4.412657
2351.000000	4.420923
2352.000000	4.428811
2353.000000	4.436374
2354.000000	4.445297
2355.000000	4.454537
2356.000000	4.463217
2357.000000	4.471791
2358.000000	4.480763
2359.000000	4.490323
2360.000000	4.499014
2361.000000	4.507529
2362.000000	4.516191
2363.000000	4.524889
2364.000000	4.533720
2365.000000	4.542843
2366.000000	4.551917
2367.000000	4.560920
2368.000000	4.569614
2369.000000	4.578420
2370.000000	4.587803
2371.000000	4.596737
2372.000000	4.605146
2373.000000	4.613586
2374.000000	4.621703
2375.000000	4.629909
2376.000000	4.637603
2377.000000	4.644634
2378.000000	4.651703
2379.000000	4.659054
2380.000000	4.666080
2381.000000	4.672943
2382.000000	4.679297
2383.000000	4.685057
2384.000000	4.690703
2385.000000	4.695906
2386.000000	4.700814
2387.000000	4.705666
2388.000000	4.709846
2389.000000	4.712866
2390.000000	4.715820
2391.000000	4.719114
2392.000000	4.721806
2393.000000	4.723983
2394.000000	4.725620
2395.000000	4.727923
2396.000000	4.730049
2397.000000	4.731226
2398.000000	4.731846
2399.000000	4.732051
2400.000000	4.731540
2401.000000	4.730794
2402.000000	4.730306
2403.000000	4.729120
2404.000000	4.727397
2405.000000	4.725049
2406.000000	4.722083
2407.000000	4.718371
2408.000000	4.714009
2409.000000	4.708794
2410.000000	4.703051
2411.000000	4.697057
2412.000000	4.690186
2413.000000	4.683057
2414.000000	4.674980
2415.000000	4.666334
2416.000000	4.657503
2417.000000	4.647714
2418.000000	4.637331
2419.000000	4.625426
2420.000000	4.612406
2421.000000	4.597960
2422.000000	4.582729
2423.000000	4.566923
2424.000000	4.550746
2425.000000	4.534289
2426.000000	4.516663
2427.000000	4.498449
2428.000000	4.479369
2429.000000	4.460586
2430.000000	4.440643
2431.000000	4.420200
2432.000000	4.399723
2433.000000	4.379120
2434.000000	4.357834
2435.000000	4.336191
2436.000000	4.314169
2437.000000	4.292054
2438.000000	4.269777
2439.000000	4.246200
2440.000000	4.222349
2441.000000	4.198563
2442.000000	4.173800
2443.000000	4.149286
2444.000000	4.124620
2445.000000	4.099671
2446.000000	4.074286
2447.000000	4.049394
2448.000000	4.024080
2449.000000	3.998157
2450.000000	3.972569
2451.000000	3.947149
2452.000000	3.921386
2453.000000	3.895966
2454.000000	3.872246
2455.000000	3.848966
2456.000000	3.826520
2457.000000	3.803340
2458.000000	3.780294
2459.000000	3.757117
2460.000000	3.733874
2461.000000	3.711640
2462.000000	3.690577
2463.000000	3.669346
2464.000000	3.646406
2465.000000	3.624534
2466.000000	3.602271
2467.000000	3.581206
2468.000000	3.559817
2469.000000	3.539569
2470.000000	3.518574
2471.000000	3.499460
2472.000000	3.479683
2473.000000	3.460306
2474.000000	3.441060
2475.000000	3.424383
2476.000000	3.407711
2477.000000	3.391166
2478.000000	3.376420
2479.000000	3.360254
2480.000000	3.344923
2481.000000	3.331657
2482.000000	3.318209
2483.000000	3.303049
2484.000000	3.289597
2485.000000	3.277991
2486.000000	3.265591
2487.000000	3.255454
2488.000000	3.244983
2489.000000	3.235409
2490.000000	3.226623
2491.000000	3.218829
2492.000000	3.214309
2493.000000	3.206594
2494.000000	3.202229
2495.000000	3.195580
2496.000000	3.190909
2497.000000	3.187374
2498.000000	3.184063
2499.000000	3.183089
2500.000000	3.179809
