PE UV       SUBTECH     SPECTRUM    ASCII       PEDS        4.00        
   -1
4-C. CUPREOMARGINATA MV 23-15.ASC
23/11/21
15:21:32.00
23/11/21
15:21:32.00
Vinicio Soto Monge

250,000000
1
Lambda 1050
1050L1511233
PerkinElmer UV WinLab 6.3.2.0749 / 2.02.05 Lambda 900 UV/VIS/NIR, Aug  7 2015 09:38:08

0
0
3350/servo 860,8/2
0
0
UV/VIS
1
1
1
DoubleDePol,CommonBeamDepol,RBeamAtt,SBeamAtt,60mm sphere, WB InGaAs Detector
0
0
0
0
Program
Program
3350/servo 860,8/2
3350/0,4 860,8/0,4
3350/0,4 860,8/0,4
0
20.00
 
 
 
0
 
860,8
319,2
860,8
Front
100
on
S:100 R:100
0
0
0
0
 
0
 
 
 
0
 
 
0
0
0
0
0
 
 
 
 
0
0


0
0
#HDR
-1
-1
#GR
nm
%R
1.0
0.0
2200,000000
-1,000000
1951
8
105,982360
6,136157
#DATA
284.000000	6.637100
285.000000	6.619275
286.000000	6.603475
287.000000	6.587961
288.000000	6.572881
289.000000	6.559737
290.000000	6.547668
291.000000	6.535999
292.000000	6.525558
293.000000	6.515227
294.000000	6.506243
295.000000	6.497124
296.000000	6.488999
297.000000	6.478293
298.000000	6.470759
299.000000	6.463188
300.000000	6.455394
301.000000	6.447255
302.000000	6.440738
303.000000	6.434180
304.000000	6.427975
305.000000	6.421820
306.000000	6.416887
307.000000	6.409773
308.000000	6.404547
309.000000	6.398234
310.000000	6.393116
311.000000	6.389427
312.000000	6.382974
313.000000	6.375589
314.000000	6.368531
315.000000	6.362572
316.000000	6.354909
317.000000	6.341219
318.000000	6.327689
319.000000	6.315095
320.000000	6.302632
321.000000	6.290538
322.000000	6.279948
323.000000	6.266403
324.000000	6.251177
325.000000	6.238738
326.000000	6.223157
327.000000	6.209276
328.000000	6.194513
329.000000	6.179471
330.000000	6.162617
331.000000	6.148898
332.000000	6.133672
333.000000	6.117703
334.000000	6.103803
335.000000	6.089787
336.000000	6.077818
337.000000	6.063858
338.000000	6.050182
339.000000	6.038215
340.000000	6.025280
341.000000	6.012070
342.000000	6.000671
343.000000	5.989879
344.000000	5.978610
345.000000	5.968382
346.000000	5.960558
347.000000	5.953310
348.000000	5.946975
349.000000	5.940364
350.000000	5.933941
351.000000	5.929425
352.000000	5.930983
353.000000	5.934414
354.000000	5.938548
355.000000	5.944474
356.000000	5.952042
357.000000	5.960605
358.000000	5.974241
359.000000	5.989566
360.000000	6.004205
361.000000	6.023166
362.000000	6.043226
363.000000	6.067016
364.000000	6.092776
365.000000	6.123299
366.000000	6.154400
367.000000	6.191461
368.000000	6.231648
369.000000	6.273405
370.000000	6.317529
371.000000	6.364335
372.000000	6.418182
373.000000	6.476287
374.000000	6.536357
375.000000	6.601550
376.000000	6.674010
377.000000	6.756037
378.000000	6.842306
379.000000	6.934552
380.000000	7.031085
381.000000	7.130394
382.000000	7.236156
383.000000	7.346933
384.000000	7.463505
385.000000	7.585546
386.000000	7.711801
387.000000	7.842344
388.000000	7.976556
389.000000	8.115802
390.000000	8.258268
391.000000	8.404286
392.000000	8.552735
393.000000	8.704167
394.000000	8.859395
395.000000	9.016912
396.000000	9.176570
397.000000	9.337585
398.000000	9.499517
399.000000	9.662406
400.000000	9.825693
401.000000	9.989213
402.000000	10.150829
403.000000	10.311299
404.000000	10.470856
405.000000	10.630007
406.000000	10.786284
407.000000	10.939886
408.000000	11.090107
409.000000	11.237434
410.000000	11.381903
411.000000	11.520075
412.000000	11.649041
413.000000	11.772854
414.000000	11.891375
415.000000	12.005041
416.000000	12.113044
417.000000	12.215465
418.000000	12.312683
419.000000	12.404816
420.000000	12.492414
421.000000	12.575293
422.000000	12.653734
423.000000	12.728374
424.000000	12.799263
425.000000	12.866683
426.000000	12.930884
427.000000	12.992239
428.000000	13.051330
429.000000	13.108725
430.000000	13.165068
431.000000	13.221303
432.000000	13.277347
433.000000	13.333884
434.000000	13.391549
435.000000	13.450852
436.000000	13.512558
437.000000	13.577077
438.000000	13.644648
439.000000	13.715337
440.000000	13.790155
441.000000	13.870438
442.000000	13.955278
443.000000	14.044955
444.000000	14.139961
445.000000	14.241139
446.000000	14.348407
447.000000	14.460878
448.000000	14.578939
449.000000	14.702999
450.000000	14.832486
451.000000	14.967632
452.000000	15.108601
453.000000	15.254839
454.000000	15.406260
455.000000	15.562066
456.000000	15.722117
457.000000	15.886800
458.000000	16.055353
459.000000	16.227680
460.000000	16.403308
461.000000	16.582424
462.000000	16.764829
463.000000	16.949853
464.000000	17.137239
465.000000	17.326682
466.000000	17.517807
467.000000	17.710862
468.000000	17.905065
469.000000	18.100000
470.000000	18.295563
471.000000	18.491505
472.000000	18.687812
473.000000	18.884506
474.000000	19.081632
475.000000	19.278724
476.000000	19.475384
477.000000	19.672530
478.000000	19.870834
479.000000	20.070130
480.000000	20.269968
481.000000	20.471424
482.000000	20.675308
483.000000	20.883176
484.000000	21.095944
485.000000	21.314361
486.000000	21.539121
487.000000	21.770485
488.000000	22.008321
489.000000	22.254160
490.000000	22.508095
491.000000	22.771983
492.000000	23.045883
493.000000	23.330744
494.000000	23.627498
495.000000	23.937044
496.000000	24.259178
497.000000	24.595105
498.000000	24.946064
499.000000	25.312448
500.000000	25.696010
501.000000	26.097069
502.000000	26.516538
503.000000	26.955530
504.000000	27.414807
505.000000	27.895018
506.000000	28.396927
507.000000	28.920892
508.000000	29.466950
509.000000	30.035182
510.000000	30.626115
511.000000	31.239613
512.000000	31.876392
513.000000	32.535843
514.000000	33.217098
515.000000	33.919265
516.000000	34.641077
517.000000	35.382035
518.000000	36.139400
519.000000	36.911620
520.000000	37.697237
521.000000	38.494467
522.000000	39.301834
523.000000	40.119324
524.000000	40.943426
525.000000	41.772715
526.000000	42.605134
527.000000	43.439040
528.000000	44.272852
529.000000	45.104727
530.000000	45.933687
531.000000	46.758248
532.000000	47.576664
533.000000	48.387296
534.000000	49.188706
535.000000	49.978527
536.000000	50.754917
537.000000	51.515262
538.000000	52.258850
539.000000	52.983472
540.000000	53.687610
541.000000	54.370159
542.000000	55.028880
543.000000	55.662825
544.000000	56.272005
545.000000	56.854433
546.000000	57.412013
547.000000	57.943403
548.000000	58.448217
549.000000	58.926442
550.000000	59.379938
551.000000	59.810486
552.000000	60.218597
553.000000	60.606256
554.000000	60.973991
555.000000	61.321809
556.000000	61.651052
557.000000	61.963538
558.000000	62.257050
559.000000	62.535076
560.000000	62.800297
561.000000	63.050295
562.000000	63.285646
563.000000	63.507510
564.000000	63.715129
565.000000	63.908338
566.000000	64.088670
567.000000	64.257500
568.000000	64.414827
569.000000	64.561141
570.000000	64.696535
571.000000	64.822708
572.000000	64.942436
573.000000	65.054542
574.000000	65.162178
575.000000	65.265018
576.000000	65.362098
577.000000	65.456099
578.000000	65.548004
579.000000	65.636255
580.000000	65.720749
581.000000	65.799071
582.000000	65.871337
583.000000	65.936418
584.000000	65.995588
585.000000	66.046600
586.000000	66.089654
587.000000	66.122416
588.000000	66.143643
589.000000	66.154298
590.000000	66.153962
591.000000	66.142775
592.000000	66.121470
593.000000	66.091764
594.000000	66.053368
595.000000	66.004383
596.000000	65.948241
597.000000	65.885290
598.000000	65.817150
599.000000	65.744586
600.000000	65.668119
601.000000	65.589612
602.000000	65.508512
603.000000	65.426621
604.000000	65.344714
605.000000	65.263336
606.000000	65.183436
607.000000	65.104581
608.000000	65.027893
609.000000	64.951581
610.000000	64.879160
611.000000	64.810747
612.000000	64.748845
613.000000	64.692399
614.000000	64.643933
615.000000	64.605420
616.000000	64.577382
617.000000	64.561154
618.000000	64.557676
619.000000	64.566348
620.000000	64.590361
621.000000	64.629092
622.000000	64.683766
623.000000	64.753814
624.000000	64.838920
625.000000	64.941166
626.000000	65.060217
627.000000	65.192974
628.000000	65.339425
629.000000	65.499166
630.000000	65.671697
631.000000	65.856724
632.000000	66.053072
633.000000	66.260992
634.000000	66.479099
635.000000	66.706433
636.000000	66.943138
637.000000	67.187808
638.000000	67.438180
639.000000	67.694491
640.000000	67.956300
641.000000	68.223521
642.000000	68.494628
643.000000	68.769248
644.000000	69.047333
645.000000	69.325886
646.000000	69.606639
647.000000	69.886415
648.000000	70.164984
649.000000	70.441192
650.000000	70.715415
651.000000	70.985955
652.000000	71.251395
653.000000	71.513142
654.000000	71.771850
655.000000	72.024546
656.000000	72.269404
657.000000	72.507789
658.000000	72.740866
659.000000	72.968724
660.000000	73.191966
661.000000	73.408842
662.000000	73.620974
663.000000	73.829546
664.000000	74.034299
665.000000	74.236456
666.000000	74.434810
667.000000	74.632356
668.000000	74.825058
669.000000	75.017320
670.000000	75.209572
671.000000	75.397478
672.000000	75.583829
673.000000	75.771427
674.000000	75.958193
675.000000	76.143031
676.000000	76.327541
677.000000	76.512535
678.000000	76.695347
679.000000	76.876674
680.000000	77.058818
681.000000	77.239457
682.000000	77.419903
683.000000	77.600579
684.000000	77.782364
685.000000	77.963837
686.000000	78.145355
687.000000	78.327484
688.000000	78.507418
689.000000	78.688169
690.000000	78.869077
691.000000	79.051612
692.000000	79.233809
693.000000	79.415120
694.000000	79.596919
695.000000	79.776488
696.000000	79.954861
697.000000	80.132391
698.000000	80.308366
699.000000	80.483253
700.000000	80.657469
701.000000	80.830757
702.000000	80.999402
703.000000	81.165679
704.000000	81.329162
705.000000	81.490683
706.000000	81.651575
707.000000	81.808982
708.000000	81.963206
709.000000	82.114748
710.000000	82.264284
711.000000	82.411900
712.000000	82.556064
713.000000	82.697921
714.000000	82.839561
715.000000	82.977501
716.000000	83.114479
717.000000	83.247712
718.000000	83.377253
719.000000	83.502381
720.000000	83.626089
721.000000	83.750078
722.000000	83.869876
723.000000	83.988211
724.000000	84.104229
725.000000	84.219190
726.000000	84.331838
727.000000	84.444311
728.000000	84.555992
729.000000	84.664518
730.000000	84.773004
731.000000	84.881952
732.000000	84.989556
733.000000	85.096457
734.000000	85.201429
735.000000	85.302722
736.000000	85.403168
737.000000	85.506135
738.000000	85.609384
739.000000	85.709934
740.000000	85.808008
741.000000	85.902631
742.000000	85.997923
743.000000	86.093283
744.000000	86.188401
745.000000	86.282845
746.000000	86.374439
747.000000	86.464652
748.000000	86.557658
749.000000	86.647958
750.000000	86.736260
751.000000	86.824884
752.000000	86.913867
753.000000	87.005776
754.000000	87.097011
755.000000	87.183743
756.000000	87.269212
757.000000	87.356259
758.000000	87.442870
759.000000	87.525753
760.000000	87.606086
761.000000	87.686603
762.000000	87.766576
763.000000	87.846985
764.000000	87.927676
765.000000	88.006860
766.000000	88.084563
767.000000	88.161320
768.000000	88.236581
769.000000	88.310200
770.000000	88.384832
771.000000	88.460020
772.000000	88.534575
773.000000	88.608319
774.000000	88.682263
775.000000	88.757565
776.000000	88.831138
777.000000	88.904550
778.000000	88.977520
779.000000	89.049210
780.000000	89.120523
781.000000	89.192153
782.000000	89.261564
783.000000	89.327785
784.000000	89.392508
785.000000	89.457023
786.000000	89.521638
787.000000	89.585721
788.000000	89.641913
789.000000	89.697237
790.000000	89.754589
791.000000	89.812413
792.000000	89.868005
793.000000	89.922878
794.000000	89.975849
795.000000	90.029520
796.000000	90.080350
797.000000	90.128830
798.000000	90.178739
799.000000	90.228814
800.000000	90.277721
801.000000	90.325196
802.000000	90.370330
803.000000	90.414578
804.000000	90.459735
805.000000	90.504445
806.000000	90.547229
807.000000	90.588222
808.000000	90.630452
809.000000	90.675170
810.000000	90.716198
811.000000	90.761506
812.000000	90.801236
813.000000	90.838376
814.000000	90.878127
815.000000	90.916694
816.000000	90.954431
817.000000	90.994938
818.000000	91.030223
819.000000	91.066117
820.000000	91.107124
821.000000	91.144020
822.000000	91.180825
823.000000	91.218699
824.000000	91.251569
825.000000	91.282892
826.000000	91.312719
827.000000	91.349541
828.000000	91.385784
829.000000	91.423149
830.000000	91.454627
831.000000	91.483117
832.000000	91.516758
833.000000	91.545386
834.000000	91.572826
835.000000	91.596119
836.000000	91.616369
837.000000	91.639704
838.000000	91.667691
839.000000	91.690531
840.000000	91.714250
841.000000	91.742302
842.000000	91.763035
843.000000	91.783726
844.000000	91.799890
845.000000	91.823661
846.000000	91.841217
847.000000	91.862286
848.000000	91.881914
849.000000	91.901130
850.000000	91.921290
851.000000	91.946698
852.000000	91.962262
853.000000	91.991089
854.000000	92.008349
855.000000	92.031536
856.000000	92.056798
857.000000	92.071012
858.000000	92.093361
859.000000	92.174144
860.000000	92.248572
861.000000	92.317513
862.000000	92.349291
863.000000	92.398613
864.000000	92.471112
865.000000	92.527457
866.000000	92.564693
867.000000	92.624570
868.000000	92.698280
869.000000	92.747232
870.000000	92.821782
871.000000	92.896955
872.000000	92.947285
873.000000	93.002242
874.000000	93.075778
875.000000	93.169445
876.000000	93.214896
877.000000	93.285623
878.000000	93.358972
879.000000	93.434252
880.000000	93.511968
881.000000	93.570163
882.000000	93.617487
883.000000	93.692903
884.000000	93.768228
885.000000	93.844426
886.000000	93.911450
887.000000	93.980966
888.000000	94.068678
889.000000	94.145055
890.000000	94.214654
891.000000	94.266885
892.000000	94.326889
893.000000	94.396821
894.000000	94.433821
895.000000	94.457841
896.000000	94.486691
897.000000	94.530180
898.000000	94.580729
899.000000	94.616019
900.000000	94.658547
901.000000	94.718990
902.000000	94.749669
903.000000	94.756042
904.000000	94.795307
905.000000	94.830753
906.000000	94.853166
907.000000	94.902517
908.000000	94.947987
909.000000	94.983413
910.000000	95.006048
911.000000	95.041889
912.000000	95.025313
913.000000	95.049685
914.000000	95.079885
915.000000	95.092551
916.000000	95.125891
917.000000	95.183921
918.000000	95.207463
919.000000	95.218399
920.000000	95.239306
921.000000	95.253456
922.000000	95.272685
923.000000	95.279300
924.000000	95.291537
925.000000	95.322222
926.000000	95.374337
927.000000	95.409801
928.000000	95.428270
929.000000	95.428792
930.000000	95.440036
931.000000	95.469461
932.000000	95.504165
933.000000	95.546113
934.000000	95.584899
935.000000	95.612379
936.000000	95.641102
937.000000	95.664904
938.000000	95.700318
939.000000	95.733819
940.000000	95.754467
941.000000	95.787594
942.000000	95.821856
943.000000	95.846658
944.000000	95.882163
945.000000	95.884164
946.000000	95.918450
947.000000	96.009305
948.000000	96.037823
949.000000	96.048219
950.000000	96.079181
951.000000	96.106984
952.000000	96.118316
953.000000	96.134633
954.000000	96.168937
955.000000	96.188378
956.000000	96.240757
957.000000	96.278816
958.000000	96.321339
959.000000	96.366791
960.000000	96.372824
961.000000	96.355012
962.000000	96.388550
963.000000	96.414430
964.000000	96.440874
965.000000	96.503247
966.000000	96.506200
967.000000	96.517459
968.000000	96.521160
969.000000	96.508710
970.000000	96.522886
971.000000	96.535041
972.000000	96.549899
973.000000	96.559032
974.000000	96.586118
975.000000	96.597775
976.000000	96.612125
977.000000	96.624045
978.000000	96.644735
979.000000	96.636054
980.000000	96.662494
981.000000	96.690702
982.000000	96.690895
983.000000	96.707943
984.000000	96.732766
985.000000	96.754154
986.000000	96.773337
987.000000	96.787354
988.000000	96.824361
989.000000	96.868073
990.000000	96.894458
991.000000	96.895588
992.000000	96.918390
993.000000	96.920741
994.000000	96.925403
995.000000	96.949780
996.000000	97.001662
997.000000	97.012147
998.000000	97.060676
999.000000	97.120092
1000.000000	97.116835
1001.000000	97.139956
1002.000000	97.157334
1003.000000	97.162222
1004.000000	97.181406
1005.000000	97.203457
1006.000000	97.214470
1007.000000	97.234040
1008.000000	97.276303
1009.000000	97.280515
1010.000000	97.299769
1011.000000	97.314631
1012.000000	97.329752
1013.000000	97.354513
1014.000000	97.380591
1015.000000	97.395880
1016.000000	97.401604
1017.000000	97.402669
1018.000000	97.405640
1019.000000	97.411410
1020.000000	97.411986
1021.000000	97.449212
1022.000000	97.479148
1023.000000	97.481664
1024.000000	97.466493
1025.000000	97.459734
1026.000000	97.467798
1027.000000	97.498901
1028.000000	97.510120
1029.000000	97.530441
1030.000000	97.559622
1031.000000	97.570072
1032.000000	97.568480
1033.000000	97.538292
1034.000000	97.512752
1035.000000	97.529283
1036.000000	97.569789
1037.000000	97.596828
1038.000000	97.622593
1039.000000	97.653624
1040.000000	97.668621
1041.000000	97.691114
1042.000000	97.718053
1043.000000	97.741412
1044.000000	97.765512
1045.000000	97.764941
1046.000000	97.766781
1047.000000	97.795700
1048.000000	97.795812
1049.000000	97.782485
1050.000000	97.761529
1051.000000	97.763382
1052.000000	97.775926
1053.000000	97.787315
1054.000000	97.805061
1055.000000	97.846939
1056.000000	97.832581
1057.000000	97.832524
1058.000000	97.856132
1059.000000	97.874731
1060.000000	97.904256
1061.000000	97.925500
1062.000000	97.906288
1063.000000	97.899965
1064.000000	97.903458
1065.000000	97.925714
1066.000000	97.948975
1067.000000	97.980222
1068.000000	98.007833
1069.000000	98.012337
1070.000000	98.025000
1071.000000	98.000294
1072.000000	98.008623
1073.000000	97.976718
1074.000000	97.947631
1075.000000	97.938424
1076.000000	97.953511
1077.000000	97.944056
1078.000000	97.928931
1079.000000	97.922192
1080.000000	97.941668
1081.000000	97.972881
1082.000000	97.947592
1083.000000	97.965932
1084.000000	97.991088
1085.000000	98.028777
1086.000000	98.039043
1087.000000	98.057088
1088.000000	98.066010
1089.000000	98.069475
1090.000000	98.063623
1091.000000	98.075218
1092.000000	98.085100
1093.000000	98.072559
1094.000000	98.074889
1095.000000	98.095858
1096.000000	98.093192
1097.000000	98.096129
1098.000000	98.120464
1099.000000	98.146294
1100.000000	98.116431
1101.000000	98.085674
1102.000000	98.081348
1103.000000	98.093774
1104.000000	98.104290
1105.000000	98.091500
1106.000000	98.117953
1107.000000	98.126604
1108.000000	98.159963
1109.000000	98.175870
1110.000000	98.187986
1111.000000	98.202621
1112.000000	98.204654
1113.000000	98.227348
1114.000000	98.203273
1115.000000	98.209347
1116.000000	98.186144
1117.000000	98.216901
1118.000000	98.215060
1119.000000	98.224548
1120.000000	98.220903
1121.000000	98.224584
1122.000000	98.238982
1123.000000	98.266557
1124.000000	98.278702
1125.000000	98.289776
1126.000000	98.267932
1127.000000	98.286215
1128.000000	98.314593
1129.000000	98.335529
1130.000000	98.302303
1131.000000	98.301078
1132.000000	98.301989
1133.000000	98.315969
1134.000000	98.337719
1135.000000	98.321936
1136.000000	98.330459
1137.000000	98.344365
1138.000000	98.358552
1139.000000	98.363185
1140.000000	98.374168
1141.000000	98.361575
1142.000000	98.340061
1143.000000	98.316309
1144.000000	98.322521
1145.000000	98.308179
1146.000000	98.303022
1147.000000	98.313620
1148.000000	98.280220
1149.000000	98.319734
1150.000000	98.300463
1151.000000	98.310814
1152.000000	98.297375
1153.000000	98.321043
1154.000000	98.297415
1155.000000	98.334882
1156.000000	98.339819
1157.000000	98.313035
1158.000000	98.275889
1159.000000	98.262008
1160.000000	98.233093
1161.000000	98.242528
1162.000000	98.206612
1163.000000	98.185948
1164.000000	98.159546
1165.000000	98.158254
1166.000000	98.120244
1167.000000	98.129394
1168.000000	98.116965
1169.000000	98.063247
1170.000000	98.062284
1171.000000	98.059400
1172.000000	98.033348
1173.000000	98.004530
1174.000000	97.989742
1175.000000	97.948641
1176.000000	97.943070
1177.000000	97.940377
1178.000000	97.941847
1179.000000	97.946734
1180.000000	97.950718
1181.000000	97.943758
1182.000000	97.917716
1183.000000	97.930242
1184.000000	97.905728
1185.000000	97.866100
1186.000000	97.853995
1187.000000	97.839435
1188.000000	97.817836
1189.000000	97.832328
1190.000000	97.780435
1191.000000	97.775338
1192.000000	97.794605
1193.000000	97.825371
1194.000000	97.803103
1195.000000	97.780056
1196.000000	97.776579
1197.000000	97.763326
1198.000000	97.720035
1199.000000	97.714419
1200.000000	97.726970
1201.000000	97.773405
1202.000000	97.773659
1203.000000	97.761123
1204.000000	97.767230
1205.000000	97.761075
1206.000000	97.774181
1207.000000	97.775108
1208.000000	97.775123
1209.000000	97.770886
1210.000000	97.804308
1211.000000	97.817145
1212.000000	97.829437
1213.000000	97.849227
1214.000000	97.819962
1215.000000	97.832655
1216.000000	97.816772
1217.000000	97.828817
1218.000000	97.825419
1219.000000	97.833059
1220.000000	97.863036
1221.000000	97.847760
1222.000000	97.867330
1223.000000	97.848655
1224.000000	97.840636
1225.000000	97.852658
1226.000000	97.843748
1227.000000	97.857143
1228.000000	97.862278
1229.000000	97.891621
1230.000000	97.912402
1231.000000	97.921087
1232.000000	97.956732
1233.000000	98.008013
1234.000000	98.016176
1235.000000	98.012135
1236.000000	97.997591
1237.000000	97.987087
1238.000000	97.984098
1239.000000	97.966600
1240.000000	97.981891
1241.000000	97.981263
1242.000000	97.984283
1243.000000	97.976240
1244.000000	97.987739
1245.000000	97.974383
1246.000000	97.960757
1247.000000	97.953114
1248.000000	97.954467
1249.000000	97.995490
1250.000000	98.017419
1251.000000	98.033914
1252.000000	98.038714
1253.000000	98.035495
1254.000000	98.077082
1255.000000	98.130247
1256.000000	98.162154
1257.000000	98.133756
1258.000000	98.129967
1259.000000	98.137562
1260.000000	98.140675
1261.000000	98.151443
1262.000000	98.122277
1263.000000	98.089776
1264.000000	98.088248
1265.000000	98.094184
1266.000000	98.110785
1267.000000	98.103554
1268.000000	98.065514
1269.000000	98.068117
1270.000000	98.075072
1271.000000	98.061566
1272.000000	98.048536
1273.000000	98.063690
1274.000000	98.105925
1275.000000	98.099804
1276.000000	98.068658
1277.000000	98.088574
1278.000000	98.104941
1279.000000	98.101064
1280.000000	98.122163
1281.000000	98.140792
1282.000000	98.146420
1283.000000	98.146953
1284.000000	98.112976
1285.000000	98.077102
1286.000000	98.063913
1287.000000	98.070185
1288.000000	98.084533
1289.000000	98.049435
1290.000000	98.021317
1291.000000	98.012828
1292.000000	98.018455
1293.000000	98.039790
1294.000000	98.048376
1295.000000	98.063268
1296.000000	98.072713
1297.000000	98.074163
1298.000000	98.090054
1299.000000	98.081596
1300.000000	98.085529
1301.000000	98.070914
1302.000000	98.038619
1303.000000	98.034905
1304.000000	98.029596
1305.000000	98.015317
1306.000000	98.034570
1307.000000	98.042816
1308.000000	98.037826
1309.000000	98.023943
1310.000000	98.034100
1311.000000	98.069769
1312.000000	98.060720
1313.000000	98.050694
1314.000000	98.053907
1315.000000	98.040253
1316.000000	98.025198
1317.000000	98.016995
1318.000000	98.019379
1319.000000	98.036030
1320.000000	98.052716
1321.000000	98.091170
1322.000000	98.112072
1323.000000	98.093245
1324.000000	98.084804
1325.000000	98.098570
1326.000000	98.115833
1327.000000	98.131443
1328.000000	98.098176
1329.000000	98.090784
1330.000000	98.058938
1331.000000	98.046727
1332.000000	98.043751
1333.000000	98.031746
1334.000000	98.056140
1335.000000	98.045395
1336.000000	98.027981
1337.000000	98.047040
1338.000000	98.063125
1339.000000	98.066013
1340.000000	98.050565
1341.000000	98.038594
1342.000000	98.034920
1343.000000	97.995547
1344.000000	97.967148
1345.000000	97.975899
1346.000000	97.946082
1347.000000	97.946326
1348.000000	97.931685
1349.000000	97.921834
1350.000000	97.893423
1351.000000	97.850466
1352.000000	97.792479
1353.000000	97.712342
1354.000000	97.723593
1355.000000	97.762508
1356.000000	97.734297
1357.000000	97.720396
1358.000000	97.727231
1359.000000	97.730673
1360.000000	97.768601
1361.000000	97.760130
1362.000000	97.622422
1363.000000	97.587191
1364.000000	97.714758
1365.000000	97.696029
1366.000000	97.754520
1367.000000	97.940999
1368.000000	98.032219
1369.000000	98.051781
1370.000000	98.103173
1371.000000	98.062403
1372.000000	98.018134
1373.000000	97.966073
1374.000000	97.928015
1375.000000	97.908952
1376.000000	97.921830
1377.000000	97.867137
1378.000000	97.932588
1379.000000	97.830994
1380.000000	97.726791
1381.000000	97.666440
1382.000000	97.827734
1383.000000	97.886360
1384.000000	97.955129
1385.000000	97.958432
1386.000000	97.951977
1387.000000	98.080650
1388.000000	98.032605
1389.000000	97.989844
1390.000000	97.939136
1391.000000	97.953213
1392.000000	97.857291
1393.000000	97.788005
1394.000000	97.734881
1395.000000	97.658902
1396.000000	97.521110
1397.000000	97.562411
1398.000000	97.538717
1399.000000	97.401666
1400.000000	97.529678
1401.000000	97.400233
1402.000000	97.134479
1403.000000	96.932046
1404.000000	96.788338
1405.000000	96.574932
1406.000000	96.530636
1407.000000	96.447492
1408.000000	96.384139
1409.000000	96.328267
1410.000000	96.254278
1411.000000	96.127143
1412.000000	96.049236
1413.000000	95.895253
1414.000000	95.937207
1415.000000	95.949292
1416.000000	95.896685
1417.000000	95.612266
1418.000000	95.492926
1419.000000	95.305112
1420.000000	95.235038
1421.000000	95.155113
1422.000000	94.953268
1423.000000	94.976423
1424.000000	94.862008
1425.000000	94.757116
1426.000000	94.587639
1427.000000	94.517805
1428.000000	94.454158
1429.000000	94.370528
1430.000000	94.219821
1431.000000	94.227259
1432.000000	94.175798
1433.000000	94.098519
1434.000000	93.959636
1435.000000	93.688865
1436.000000	93.588267
1437.000000	93.530400
1438.000000	93.489394
1439.000000	93.472446
1440.000000	93.486161
1441.000000	93.447928
1442.000000	93.429881
1443.000000	93.382772
1444.000000	93.299551
1445.000000	93.319434
1446.000000	93.235358
1447.000000	93.206342
1448.000000	93.141100
1449.000000	93.052603
1450.000000	92.992035
1451.000000	92.940761
1452.000000	92.881885
1453.000000	92.797418
1454.000000	92.752561
1455.000000	92.677001
1456.000000	92.640613
1457.000000	92.618749
1458.000000	92.532811
1459.000000	92.480654
1460.000000	92.431066
1461.000000	92.373844
1462.000000	92.346185
1463.000000	92.276521
1464.000000	92.227579
1465.000000	92.218850
1466.000000	92.129662
1467.000000	92.055477
1468.000000	92.009960
1469.000000	91.993367
1470.000000	91.979733
1471.000000	91.947962
1472.000000	91.896120
1473.000000	91.822300
1474.000000	91.723410
1475.000000	91.657651
1476.000000	91.586882
1477.000000	91.527581
1478.000000	91.482064
1479.000000	91.444400
1480.000000	91.333791
1481.000000	91.324967
1482.000000	91.296121
1483.000000	91.280986
1484.000000	91.247746
1485.000000	91.198005
1486.000000	91.183800
1487.000000	91.140729
1488.000000	91.092929
1489.000000	91.073256
1490.000000	91.055780
1491.000000	91.015273
1492.000000	90.969989
1493.000000	90.942919
1494.000000	90.921061
1495.000000	90.879637
1496.000000	90.873038
1497.000000	90.863100
1498.000000	90.867602
1499.000000	90.858870
1500.000000	90.826272
1501.000000	90.829060
1502.000000	90.831089
1503.000000	90.812981
1504.000000	90.776803
1505.000000	90.763750
1506.000000	90.775792
1507.000000	90.787073
1508.000000	90.839923
1509.000000	90.876491
1510.000000	90.910586
1511.000000	90.938903
1512.000000	90.978031
1513.000000	91.012082
1514.000000	91.025749
1515.000000	91.048896
1516.000000	91.085464
1517.000000	91.098417
1518.000000	91.115148
1519.000000	91.144478
1520.000000	91.158785
1521.000000	91.176128
1522.000000	91.208422
1523.000000	91.245312
1524.000000	91.249780
1525.000000	91.243612
1526.000000	91.253631
1527.000000	91.290913
1528.000000	91.317703
1529.000000	91.331975
1530.000000	91.347856
1531.000000	91.387172
1532.000000	91.401829
1533.000000	91.408365
1534.000000	91.427101
1535.000000	91.469471
1536.000000	91.499867
1537.000000	91.529740
1538.000000	91.577146
1539.000000	91.604562
1540.000000	91.631936
1541.000000	91.657704
1542.000000	91.670401
1543.000000	91.666920
1544.000000	91.682638
1545.000000	91.701829
1546.000000	91.718288
1547.000000	91.738442
1548.000000	91.757977
1549.000000	91.788732
1550.000000	91.812802
1551.000000	91.834901
1552.000000	91.884355
1553.000000	91.910258
1554.000000	91.921349
1555.000000	91.953708
1556.000000	91.969001
1557.000000	91.984122
1558.000000	91.992630
1559.000000	92.016383
1560.000000	92.037441
1561.000000	92.068759
1562.000000	92.104233
1563.000000	92.132964
1564.000000	92.189375
1565.000000	92.213427
1566.000000	92.205489
1567.000000	92.225239
1568.000000	92.257145
1569.000000	92.269254
1570.000000	92.267829
1571.000000	92.289983
1572.000000	92.334704
1573.000000	92.351191
1574.000000	92.379311
1575.000000	92.400849
1576.000000	92.389560
1577.000000	92.391354
1578.000000	92.404449
1579.000000	92.435874
1580.000000	92.430766
1581.000000	92.404520
1582.000000	92.376999
1583.000000	92.357095
1584.000000	92.337204
1585.000000	92.327670
1586.000000	92.322084
1587.000000	92.307347
1588.000000	92.305287
1589.000000	92.321240
1590.000000	92.328145
1591.000000	92.328443
1592.000000	92.351167
1593.000000	92.357963
1594.000000	92.371676
1595.000000	92.382381
1596.000000	92.376849
1597.000000	92.370306
1598.000000	92.384813
1599.000000	92.383221
1600.000000	92.411197
1601.000000	92.455181
1602.000000	92.447213
1603.000000	92.456561
1604.000000	92.473650
1605.000000	92.492090
1606.000000	92.506433
1607.000000	92.528672
1608.000000	92.568595
1609.000000	92.577577
1610.000000	92.597391
1611.000000	92.618669
1612.000000	92.623252
1613.000000	92.651341
1614.000000	92.662184
1615.000000	92.708541
1616.000000	92.756109
1617.000000	92.787870
1618.000000	92.824890
1619.000000	92.872156
1620.000000	92.907155
1621.000000	92.933631
1622.000000	92.939721
1623.000000	92.943096
1624.000000	92.913335
1625.000000	92.910491
1626.000000	92.915235
1627.000000	92.928056
1628.000000	92.934338
1629.000000	92.917802
1630.000000	92.943261
1631.000000	92.983218
1632.000000	92.997012
1633.000000	92.975251
1634.000000	92.980656
1635.000000	92.996544
1636.000000	93.020257
1637.000000	93.067808
1638.000000	93.097659
1639.000000	93.094681
1640.000000	93.096491
1641.000000	93.091276
1642.000000	93.082649
1643.000000	93.046965
1644.000000	93.038974
1645.000000	93.036823
1646.000000	93.055079
1647.000000	93.088610
1648.000000	93.098572
1649.000000	93.079176
1650.000000	93.053596
1651.000000	93.074406
1652.000000	93.080714
1653.000000	93.103342
1654.000000	93.075631
1655.000000	93.028947
1656.000000	93.040106
1657.000000	93.050112
1658.000000	93.107609
1659.000000	93.157870
1660.000000	93.170727
1661.000000	93.167355
1662.000000	93.178476
1663.000000	93.183218
1664.000000	93.203017
1665.000000	93.211321
1666.000000	93.195865
1667.000000	93.165601
1668.000000	93.181442
1669.000000	93.153495
1670.000000	93.109353
1671.000000	93.061826
1672.000000	93.033069
1673.000000	92.993181
1674.000000	92.976318
1675.000000	92.930635
1676.000000	92.911773
1677.000000	92.866472
1678.000000	92.855579
1679.000000	92.833671
1680.000000	92.777258
1681.000000	92.751866
1682.000000	92.709069
1683.000000	92.639711
1684.000000	92.619969
1685.000000	92.586357
1686.000000	92.540776
1687.000000	92.514802
1688.000000	92.470563
1689.000000	92.431397
1690.000000	92.452491
1691.000000	92.389272
1692.000000	92.332214
1693.000000	92.246950
1694.000000	92.185515
1695.000000	92.129999
1696.000000	92.097153
1697.000000	92.030714
1698.000000	92.014410
1699.000000	91.974021
1700.000000	91.937082
1701.000000	91.902118
1702.000000	91.866324
1703.000000	91.829115
1704.000000	91.818947
1705.000000	91.815854
1706.000000	91.786425
1707.000000	91.734117
1708.000000	91.705303
1709.000000	91.708597
1710.000000	91.701971
1711.000000	91.667588
1712.000000	91.641023
1713.000000	91.628088
1714.000000	91.597723
1715.000000	91.597377
1716.000000	91.553500
1717.000000	91.542935
1718.000000	91.536696
1719.000000	91.469292
1720.000000	91.431546
1721.000000	91.376572
1722.000000	91.336718
1723.000000	91.305625
1724.000000	91.305463
1725.000000	91.247280
1726.000000	91.196026
1727.000000	91.159797
1728.000000	91.123469
1729.000000	91.080221
1730.000000	91.045840
1731.000000	91.043473
1732.000000	91.027679
1733.000000	90.989302
1734.000000	90.977729
1735.000000	90.947165
1736.000000	90.933070
1737.000000	90.906643
1738.000000	90.867205
1739.000000	90.849687
1740.000000	90.837568
1741.000000	90.823982
1742.000000	90.807141
1743.000000	90.800608
1744.000000	90.764289
1745.000000	90.775769
1746.000000	90.772024
1747.000000	90.779092
1748.000000	90.742984
1749.000000	90.710193
1750.000000	90.691235
1751.000000	90.692511
1752.000000	90.678053
1753.000000	90.701938
1754.000000	90.737594
1755.000000	90.754951
1756.000000	90.795861
1757.000000	90.796747
1758.000000	90.800502
1759.000000	90.802327
1760.000000	90.825722
1761.000000	90.867370
1762.000000	90.902758
1763.000000	90.897760
1764.000000	90.918848
1765.000000	90.941067
1766.000000	90.919611
1767.000000	90.904513
1768.000000	90.902457
1769.000000	90.882587
1770.000000	90.877678
1771.000000	90.871036
1772.000000	90.876037
1773.000000	90.883175
1774.000000	90.866775
1775.000000	90.832625
1776.000000	90.828539
1777.000000	90.862959
1778.000000	90.859449
1779.000000	90.844319
1780.000000	90.831600
1781.000000	90.850858
1782.000000	90.846583
1783.000000	90.861403
1784.000000	90.893506
1785.000000	90.913132
1786.000000	90.920406
1787.000000	90.913732
1788.000000	90.907664
1789.000000	90.919398
1790.000000	90.932036
1791.000000	90.925447
1792.000000	90.938469
1793.000000	90.909411
1794.000000	90.898700
1795.000000	90.880343
1796.000000	90.876523
1797.000000	90.882607
1798.000000	90.912386
1799.000000	90.936527
1800.000000	90.961584
1801.000000	90.990242
1802.000000	91.018915
1803.000000	91.036543
1804.000000	91.088118
1805.000000	91.133468
1806.000000	91.164330
1807.000000	91.178903
1808.000000	91.183262
1809.000000	91.183140
1810.000000	91.213770
1811.000000	91.239136
1812.000000	91.214334
1813.000000	91.222035
1814.000000	91.251691
1815.000000	91.247830
1816.000000	91.254775
1817.000000	91.393559
1818.000000	91.515972
1819.000000	91.593105
1820.000000	91.591338
1821.000000	91.536192
1822.000000	91.514819
1823.000000	91.495095
1824.000000	91.496172
1825.000000	91.657723
1826.000000	91.737273
1827.000000	91.714283
1828.000000	91.736392
1829.000000	91.768089
1830.000000	91.856768
1831.000000	91.873217
1832.000000	91.821776
1833.000000	91.784265
1834.000000	91.784120
1835.000000	91.844945
1836.000000	91.833005
1837.000000	91.797867
1838.000000	91.742565
1839.000000	91.617347
1840.000000	91.464440
1841.000000	91.483378
1842.000000	91.493195
1843.000000	91.473627
1844.000000	91.479209
1845.000000	91.438915
1846.000000	91.483956
1847.000000	91.605280
1848.000000	91.600106
1849.000000	91.561228
1850.000000	91.546236
1851.000000	91.481097
1852.000000	91.340344
1853.000000	91.232156
1854.000000	91.137909
1855.000000	91.117874
1856.000000	91.052878
1857.000000	90.959030
1858.000000	90.891928
1859.000000	90.867773
1860.000000	90.674233
1861.000000	90.561129
1862.000000	90.586996
1863.000000	90.711594
1864.000000	90.705803
1865.000000	90.601692
1866.000000	90.556816
1867.000000	90.610062
1868.000000	90.628640
1869.000000	90.576748
1870.000000	90.591100
1871.000000	90.568763
1872.000000	90.697127
1873.000000	90.710528
1874.000000	90.750511
1875.000000	90.773574
1876.000000	90.798466
1877.000000	90.765085
1878.000000	90.746776
1879.000000	90.694079
1880.000000	90.697768
1881.000000	90.564838
1882.000000	90.383020
1883.000000	90.359806
1884.000000	90.299457
1885.000000	90.222428
1886.000000	90.199279
1887.000000	90.109977
1888.000000	89.992674
1889.000000	89.939890
1890.000000	89.788922
1891.000000	89.810779
1892.000000	89.788711
1893.000000	89.732431
1894.000000	89.606979
1895.000000	89.465883
1896.000000	89.328829
1897.000000	89.181378
1898.000000	88.880106
1899.000000	88.686723
1900.000000	88.502462
1901.000000	88.341973
1902.000000	88.356376
1903.000000	88.169099
1904.000000	87.955940
1905.000000	87.611447
1906.000000	87.426108
1907.000000	87.047934
1908.000000	86.812282
1909.000000	86.559115
1910.000000	86.325855
1911.000000	85.900592
1912.000000	85.573494
1913.000000	85.309723
1914.000000	85.030909
1915.000000	84.706694
1916.000000	84.413626
1917.000000	84.094686
1918.000000	83.721199
1919.000000	83.496606
1920.000000	83.254598
1921.000000	82.892731
1922.000000	82.598315
1923.000000	82.343005
1924.000000	81.951670
1925.000000	81.705894
1926.000000	81.425250
1927.000000	81.120109
1928.000000	80.863988
1929.000000	80.581812
1930.000000	80.332023
1931.000000	80.088072
1932.000000	79.803146
1933.000000	79.578729
1934.000000	79.291933
1935.000000	79.092056
1936.000000	78.857406
1937.000000	78.409813
1938.000000	78.186555
1939.000000	78.012869
1940.000000	77.871418
1941.000000	77.658876
1942.000000	77.509039
1943.000000	77.356784
1944.000000	77.270241
1945.000000	77.184897
1946.000000	77.139293
1947.000000	77.073463
1948.000000	76.956406
1949.000000	76.880123
1950.000000	76.810240
1951.000000	76.765529
1952.000000	76.752644
1953.000000	76.743523
1954.000000	76.637205
1955.000000	76.594237
1956.000000	76.629824
1957.000000	76.610970
1958.000000	76.586039
1959.000000	76.662751
1960.000000	76.688322
1961.000000	76.693090
1962.000000	76.784325
1963.000000	76.810390
1964.000000	76.868622
1965.000000	76.910680
1966.000000	76.921679
1967.000000	76.985772
1968.000000	77.032839
1969.000000	77.149762
1970.000000	77.178705
1971.000000	77.236213
1972.000000	77.287971
1973.000000	77.367728
1974.000000	77.448302
1975.000000	77.500508
1976.000000	77.589046
1977.000000	77.669002
1978.000000	77.736612
1979.000000	77.780502
1980.000000	77.865303
1981.000000	77.958663
1982.000000	78.027682
1983.000000	78.126235
1984.000000	78.221267
1985.000000	78.328856
1986.000000	78.420273
1987.000000	78.502352
1988.000000	78.598188
1989.000000	78.719843
1990.000000	78.767379
1991.000000	78.834635
1992.000000	78.903471
1993.000000	78.973303
1994.000000	79.034340
1995.000000	79.109857
1996.000000	79.192181
1997.000000	79.251213
1998.000000	79.315211
1999.000000	79.351462
2000.000000	79.416698
