PE UV       SUBTECH     SPECTRUM    ASCII       PEDS        4.00        
   -1
4-PLATY 1.ASC
23/11/21
13:44:42.00
23/11/21
13:44:42.00
Vinicio Soto Monge

250,000000
1
Lambda 1050
1050L1511233
PerkinElmer UV WinLab 6.3.2.0749 / 2.02.05 Lambda 900 UV/VIS/NIR, Aug  7 2015 09:38:08

0
0
3350/servo 860,8/2
0
0
UV/VIS
1
1
1
DoubleDePol,CommonBeamDepol,RBeamAtt,SBeamAtt,60mm sphere, WB InGaAs Detector
0
0
0
0
Program
Program
3350/servo 860,8/2
3350/0,4 860,8/0,4
3350/0,4 860,8/0,4
0
20.00
 
 
 
0
 
860,8
319,2
860,8
Front
100
on
S:100 R:100
0
0
0
0
 
0
 
 
 
0
 
 
0
0
0
0
0
 
 
 
 
0
0


0
0
#HDR
-1
-1
#GR
nm
%R
1.0
0.0
2200,000000
-1,000000
1951
8
106,059630
5,652972
#DATA
284.000000	6.450564
285.000000	6.432828
286.000000	6.416935
287.000000	6.403983
288.000000	6.391499
289.000000	6.379851
290.000000	6.371976
291.000000	6.363031
292.000000	6.357209
293.000000	6.352281
294.000000	6.348946
295.000000	6.347343
296.000000	6.347891
297.000000	6.350814
298.000000	6.354143
299.000000	6.357926
300.000000	6.364675
301.000000	6.369522
302.000000	6.377120
303.000000	6.384580
304.000000	6.391789
305.000000	6.398589
306.000000	6.408350
307.000000	6.417911
308.000000	6.425751
309.000000	6.434998
310.000000	6.444787
311.000000	6.455629
312.000000	6.465677
313.000000	6.472516
314.000000	6.479640
315.000000	6.486907
316.000000	6.493577
317.000000	6.498509
318.000000	6.507865
319.000000	6.513628
320.000000	6.517866
321.000000	6.522600
322.000000	6.525749
323.000000	6.525545
324.000000	6.526401
325.000000	6.527255
326.000000	6.527402
327.000000	6.525967
328.000000	6.521434
329.000000	6.515664
330.000000	6.509736
331.000000	6.505094
332.000000	6.496696
333.000000	6.487629
334.000000	6.479927
335.000000	6.471717
336.000000	6.463962
337.000000	6.454961
338.000000	6.446025
339.000000	6.438567
340.000000	6.428978
341.000000	6.420240
342.000000	6.410479
343.000000	6.403117
344.000000	6.395335
345.000000	6.386528
346.000000	6.378970
347.000000	6.371412
348.000000	6.362592
349.000000	6.355316
350.000000	6.348908
351.000000	6.343146
352.000000	6.339246
353.000000	6.331937
354.000000	6.325076
355.000000	6.320904
356.000000	6.316344
357.000000	6.311413
358.000000	6.309752
359.000000	6.306515
360.000000	6.301458
361.000000	6.297161
362.000000	6.293005
363.000000	6.291488
364.000000	6.289657
365.000000	6.286915
366.000000	6.282739
367.000000	6.282342
368.000000	6.281556
369.000000	6.280514
370.000000	6.277428
371.000000	6.275479
372.000000	6.272897
373.000000	6.272475
374.000000	6.267567
375.000000	6.267102
376.000000	6.265679
377.000000	6.264423
378.000000	6.261764
379.000000	6.260164
380.000000	6.258157
381.000000	6.256068
382.000000	6.255156
383.000000	6.256157
384.000000	6.255971
385.000000	6.255260
386.000000	6.255747
387.000000	6.255031
388.000000	6.253725
389.000000	6.254994
390.000000	6.255101
391.000000	6.254615
392.000000	6.255499
393.000000	6.257109
394.000000	6.258919
395.000000	6.261016
396.000000	6.263425
397.000000	6.265201
398.000000	6.267523
399.000000	6.271062
400.000000	6.274976
401.000000	6.278666
402.000000	6.281135
403.000000	6.284309
404.000000	6.287806
405.000000	6.292483
406.000000	6.296954
407.000000	6.301786
408.000000	6.306016
409.000000	6.313537
410.000000	6.318961
411.000000	6.324676
412.000000	6.331665
413.000000	6.338464
414.000000	6.345774
415.000000	6.353806
416.000000	6.361870
417.000000	6.370379
418.000000	6.379463
419.000000	6.388898
420.000000	6.398941
421.000000	6.409428
422.000000	6.420658
423.000000	6.432397
424.000000	6.444799
425.000000	6.457875
426.000000	6.471250
427.000000	6.485104
428.000000	6.499283
429.000000	6.514007
430.000000	6.529273
431.000000	6.544761
432.000000	6.560969
433.000000	6.577804
434.000000	6.595016
435.000000	6.612742
436.000000	6.631035
437.000000	6.650135
438.000000	6.669779
439.000000	6.689673
440.000000	6.710442
441.000000	6.731835
442.000000	6.753629
443.000000	6.775922
444.000000	6.798511
445.000000	6.821755
446.000000	6.845387
447.000000	6.869315
448.000000	6.893736
449.000000	6.918374
450.000000	6.943283
451.000000	6.968802
452.000000	6.994744
453.000000	7.021156
454.000000	7.048123
455.000000	7.075519
456.000000	7.103072
457.000000	7.131028
458.000000	7.159381
459.000000	7.187917
460.000000	7.216953
461.000000	7.246575
462.000000	7.276777
463.000000	7.307458
464.000000	7.338922
465.000000	7.370628
466.000000	7.402871
467.000000	7.435857
468.000000	7.469448
469.000000	7.503691
470.000000	7.538418
471.000000	7.573998
472.000000	7.610371
473.000000	7.647574
474.000000	7.685753
475.000000	7.724794
476.000000	7.764690
477.000000	7.805758
478.000000	7.848195
479.000000	7.891521
480.000000	7.935688
481.000000	7.980996
482.000000	8.027260
483.000000	8.074816
484.000000	8.123871
485.000000	8.174357
486.000000	8.226340
487.000000	8.280058
488.000000	8.335231
489.000000	8.391823
490.000000	8.450384
491.000000	8.511173
492.000000	8.574075
493.000000	8.639030
494.000000	8.706517
495.000000	8.776708
496.000000	8.849324
497.000000	8.924540
498.000000	9.002928
499.000000	9.084192
500.000000	9.169003
501.000000	9.257543
502.000000	9.349706
503.000000	9.445524
504.000000	9.545457
505.000000	9.649683
506.000000	9.758111
507.000000	9.871061
508.000000	9.988886
509.000000	10.111645
510.000000	10.239281
511.000000	10.371757
512.000000	10.509316
513.000000	10.651937
514.000000	10.800063
515.000000	10.953480
516.000000	11.111712
517.000000	11.275389
518.000000	11.443820
519.000000	11.616572
520.000000	11.793872
521.000000	11.975936
522.000000	12.162006
523.000000	12.352681
524.000000	12.547505
525.000000	12.746401
526.000000	12.948905
527.000000	13.154826
528.000000	13.364094
529.000000	13.576009
530.000000	13.790584
531.000000	14.008150
532.000000	14.227989
533.000000	14.449502
534.000000	14.672638
535.000000	14.897309
536.000000	15.122862
537.000000	15.348844
538.000000	15.575329
539.000000	15.802278
540.000000	16.028835
541.000000	16.255431
542.000000	16.481299
543.000000	16.706028
544.000000	16.930149
545.000000	17.152844
546.000000	17.374848
547.000000	17.595320
548.000000	17.814036
549.000000	18.030765
550.000000	18.245868
551.000000	18.459603
552.000000	18.670701
553.000000	18.880291
554.000000	19.088767
555.000000	19.295136
556.000000	19.498949
557.000000	19.700692
558.000000	19.900407
559.000000	20.097963
560.000000	20.293280
561.000000	20.486239
562.000000	20.676980
563.000000	20.865637
564.000000	21.051753
565.000000	21.235186
566.000000	21.415834
567.000000	21.594048
568.000000	21.769429
569.000000	21.941158
570.000000	22.109502
571.000000	22.273934
572.000000	22.435176
573.000000	22.593040
574.000000	22.746270
575.000000	22.894879
576.000000	23.038094
577.000000	23.176780
578.000000	23.310696
579.000000	23.438571
580.000000	23.561231
581.000000	23.677613
582.000000	23.788002
583.000000	23.891581
584.000000	23.989468
585.000000	24.079993
586.000000	24.164227
587.000000	24.241823
588.000000	24.312099
589.000000	24.374860
590.000000	24.430318
591.000000	24.479085
592.000000	24.520797
593.000000	24.555075
594.000000	24.582695
595.000000	24.603076
596.000000	24.616186
597.000000	24.622496
598.000000	24.622411
599.000000	24.616070
600.000000	24.602937
601.000000	24.584205
602.000000	24.559461
603.000000	24.529406
604.000000	24.495353
605.000000	24.455925
606.000000	24.412573
607.000000	24.365268
608.000000	24.313940
609.000000	24.258863
610.000000	24.201433
611.000000	24.142098
612.000000	24.079950
613.000000	24.015713
614.000000	23.949717
615.000000	23.882673
616.000000	23.814511
617.000000	23.745235
618.000000	23.676249
619.000000	23.605882
620.000000	23.536459
621.000000	23.466009
622.000000	23.395928
623.000000	23.325910
624.000000	23.255579
625.000000	23.185438
626.000000	23.115446
627.000000	23.044964
628.000000	22.973901
629.000000	22.902370
630.000000	22.830179
631.000000	22.757974
632.000000	22.684744
633.000000	22.610736
634.000000	22.535948
635.000000	22.460581
636.000000	22.384288
637.000000	22.307361
638.000000	22.229367
639.000000	22.149603
640.000000	22.069067
641.000000	21.987152
642.000000	21.903572
643.000000	21.818577
644.000000	21.732925
645.000000	21.645596
646.000000	21.556896
647.000000	21.467970
648.000000	21.377952
649.000000	21.287504
650.000000	21.196771
651.000000	21.106365
652.000000	21.016876
653.000000	20.928069
654.000000	20.841551
655.000000	20.756183
656.000000	20.673348
657.000000	20.594273
658.000000	20.519278
659.000000	20.448964
660.000000	20.383819
661.000000	20.323975
662.000000	20.270791
663.000000	20.225356
664.000000	20.188073
665.000000	20.160143
666.000000	20.141579
667.000000	20.134036
668.000000	20.137241
669.000000	20.153541
670.000000	20.184119
671.000000	20.228259
672.000000	20.288246
673.000000	20.365363
674.000000	20.461234
675.000000	20.576362
676.000000	20.712623
677.000000	20.871071
678.000000	21.052926
679.000000	21.259236
680.000000	21.493270
681.000000	21.755879
682.000000	22.048005
683.000000	22.371715
684.000000	22.728212
685.000000	23.118082
686.000000	23.542742
687.000000	24.003684
688.000000	24.500841
689.000000	25.035503
690.000000	25.608304
691.000000	26.221205
692.000000	26.872223
693.000000	27.561496
694.000000	28.289765
695.000000	29.055347
696.000000	29.856853
697.000000	30.692796
698.000000	31.563187
699.000000	32.466748
700.000000	33.402040
701.000000	34.367568
702.000000	35.360704
703.000000	36.379632
704.000000	37.420428
705.000000	38.482076
706.000000	39.564690
707.000000	40.662097
708.000000	41.772757
709.000000	42.894686
710.000000	44.025679
711.000000	45.164205
712.000000	46.306274
713.000000	47.448783
714.000000	48.591868
715.000000	49.728904
716.000000	50.857658
717.000000	51.976207
718.000000	53.082677
719.000000	54.173083
720.000000	55.245824
721.000000	56.300041
722.000000	57.332338
723.000000	58.341612
724.000000	59.324027
725.000000	60.279078
726.000000	61.205494
727.000000	62.103500
728.000000	62.972206
729.000000	63.808090
730.000000	64.613509
731.000000	65.387940
732.000000	66.133225
733.000000	66.847572
734.000000	67.532323
735.000000	68.187513
736.000000	68.813909
737.000000	69.412376
738.000000	69.983121
739.000000	70.528511
740.000000	71.050899
741.000000	71.549867
742.000000	72.026327
743.000000	72.480998
744.000000	72.916827
745.000000	73.335081
746.000000	73.733867
747.000000	74.114779
748.000000	74.480848
749.000000	74.830290
750.000000	75.167047
751.000000	75.495065
752.000000	75.813080
753.000000	76.121657
754.000000	76.420098
755.000000	76.706601
756.000000	76.984499
757.000000	77.253306
758.000000	77.512587
759.000000	77.765731
760.000000	78.013420
761.000000	78.256352
762.000000	78.494494
763.000000	78.725944
764.000000	78.950611
765.000000	79.170195
766.000000	79.389302
767.000000	79.603984
768.000000	79.812237
769.000000	80.015595
770.000000	80.215788
771.000000	80.414031
772.000000	80.612352
773.000000	80.808250
774.000000	81.001109
775.000000	81.192238
776.000000	81.377245
777.000000	81.561598
778.000000	81.745703
779.000000	81.928156
780.000000	82.106025
781.000000	82.282124
782.000000	82.457067
783.000000	82.630505
784.000000	82.802683
785.000000	82.972576
786.000000	83.139563
787.000000	83.304451
788.000000	83.463833
789.000000	83.623306
790.000000	83.784082
791.000000	83.946052
792.000000	84.103835
793.000000	84.264545
794.000000	84.422160
795.000000	84.580458
796.000000	84.734643
797.000000	84.885819
798.000000	85.036315
799.000000	85.188696
800.000000	85.343056
801.000000	85.493157
802.000000	85.643288
803.000000	85.790748
804.000000	85.937872
805.000000	86.081988
806.000000	86.223357
807.000000	86.365212
808.000000	86.509160
809.000000	86.653866
810.000000	86.791717
811.000000	86.931719
812.000000	87.067202
813.000000	87.198456
814.000000	87.330850
815.000000	87.460056
816.000000	87.587101
817.000000	87.719093
818.000000	87.847368
819.000000	87.973202
820.000000	88.101907
821.000000	88.226591
822.000000	88.351501
823.000000	88.474547
824.000000	88.592235
825.000000	88.713963
826.000000	88.830923
827.000000	88.954879
828.000000	89.073251
829.000000	89.194073
830.000000	89.306511
831.000000	89.415873
832.000000	89.534337
833.000000	89.644801
834.000000	89.751145
835.000000	89.857907
836.000000	89.960593
837.000000	90.059064
838.000000	90.169786
839.000000	90.271410
840.000000	90.371926
841.000000	90.474953
842.000000	90.571309
843.000000	90.662040
844.000000	90.757382
845.000000	90.860225
846.000000	90.948453
847.000000	91.045683
848.000000	91.143395
849.000000	91.238893
850.000000	91.327210
851.000000	91.426697
852.000000	91.517102
853.000000	91.616064
854.000000	91.704258
855.000000	91.809077
856.000000	91.904644
857.000000	91.963802
858.000000	91.955799
859.000000	92.066158
860.000000	92.175219
861.000000	92.274271
862.000000	92.324493
863.000000	92.398694
864.000000	92.484294
865.000000	92.585257
866.000000	92.658288
867.000000	92.726477
868.000000	92.810571
869.000000	92.887801
870.000000	92.965655
871.000000	93.065173
872.000000	93.136229
873.000000	93.208725
874.000000	93.308090
875.000000	93.396153
876.000000	93.460817
877.000000	93.531157
878.000000	93.640336
879.000000	93.735711
880.000000	93.817476
881.000000	93.898587
882.000000	94.010282
883.000000	94.113521
884.000000	94.209411
885.000000	94.279370
886.000000	94.368996
887.000000	94.425217
888.000000	94.496330
889.000000	94.595540
890.000000	94.666616
891.000000	94.734779
892.000000	94.828191
893.000000	94.994431
894.000000	95.055419
895.000000	95.123064
896.000000	95.175722
897.000000	95.290544
898.000000	95.396780
899.000000	95.454413
900.000000	95.486205
901.000000	95.552849
902.000000	95.608394
903.000000	95.675512
904.000000	95.764088
905.000000	95.836426
906.000000	95.880666
907.000000	95.970930
908.000000	96.047935
909.000000	96.095417
910.000000	96.143117
911.000000	96.192984
912.000000	96.220129
913.000000	96.210285
914.000000	96.234511
915.000000	96.259073
916.000000	96.308933
917.000000	96.339783
918.000000	96.348640
919.000000	96.386153
920.000000	96.439363
921.000000	96.451704
922.000000	96.505448
923.000000	96.563936
924.000000	96.597883
925.000000	96.640384
926.000000	96.684698
927.000000	96.717535
928.000000	96.762252
929.000000	96.778319
930.000000	96.774535
931.000000	96.822078
932.000000	96.842110
933.000000	96.849747
934.000000	96.911927
935.000000	96.960668
936.000000	97.001837
937.000000	97.037605
938.000000	97.056636
939.000000	97.065611
940.000000	97.121598
941.000000	97.159848
942.000000	97.211551
943.000000	97.238800
944.000000	97.251594
945.000000	97.273909
946.000000	97.309825
947.000000	97.421542
948.000000	97.495299
949.000000	97.497984
950.000000	97.520869
951.000000	97.541482
952.000000	97.544044
953.000000	97.598084
954.000000	97.620490
955.000000	97.651090
956.000000	97.705840
957.000000	97.749915
958.000000	97.787280
959.000000	97.797680
960.000000	97.777810
961.000000	97.757794
962.000000	97.781250
963.000000	97.790472
964.000000	97.825226
965.000000	97.864318
966.000000	97.847300
967.000000	97.864422
968.000000	97.890943
969.000000	97.863666
970.000000	97.863749
971.000000	97.900013
972.000000	97.957881
973.000000	97.998499
974.000000	98.039462
975.000000	98.025060
976.000000	98.028139
977.000000	97.977758
978.000000	97.964351
979.000000	97.979201
980.000000	98.000737
981.000000	98.027487
982.000000	97.978820
983.000000	97.968988
984.000000	98.029747
985.000000	98.080019
986.000000	98.108638
987.000000	98.116466
988.000000	98.103660
989.000000	98.110700
990.000000	98.125845
991.000000	98.129176
992.000000	98.151308
993.000000	98.154097
994.000000	98.182119
995.000000	98.220532
996.000000	98.247366
997.000000	98.260931
998.000000	98.311483
999.000000	98.352243
1000.000000	98.375360
1001.000000	98.423195
1002.000000	98.425423
1003.000000	98.426956
1004.000000	98.449715
1005.000000	98.477142
1006.000000	98.482386
1007.000000	98.477319
1008.000000	98.503579
1009.000000	98.500792
1010.000000	98.512257
1011.000000	98.524837
1012.000000	98.559751
1013.000000	98.592177
1014.000000	98.602634
1015.000000	98.615359
1016.000000	98.626338
1017.000000	98.667341
1018.000000	98.718435
1019.000000	98.708736
1020.000000	98.706010
1021.000000	98.759530
1022.000000	98.799605
1023.000000	98.815761
1024.000000	98.827682
1025.000000	98.834998
1026.000000	98.823094
1027.000000	98.837170
1028.000000	98.844617
1029.000000	98.843238
1030.000000	98.868776
1031.000000	98.912965
1032.000000	98.922735
1033.000000	98.894341
1034.000000	98.877855
1035.000000	98.913636
1036.000000	98.941522
1037.000000	98.957671
1038.000000	98.972009
1039.000000	98.992645
1040.000000	99.021739
1041.000000	99.037826
1042.000000	99.062920
1043.000000	99.103652
1044.000000	99.139072
1045.000000	99.141404
1046.000000	99.145512
1047.000000	99.174516
1048.000000	99.203049
1049.000000	99.219042
1050.000000	99.230464
1051.000000	99.248118
1052.000000	99.239062
1053.000000	99.217183
1054.000000	99.216234
1055.000000	99.228088
1056.000000	99.189189
1057.000000	99.180164
1058.000000	99.196603
1059.000000	99.212676
1060.000000	99.227159
1061.000000	99.264720
1062.000000	99.244606
1063.000000	99.228321
1064.000000	99.226884
1065.000000	99.233454
1066.000000	99.243834
1067.000000	99.274461
1068.000000	99.283478
1069.000000	99.293937
1070.000000	99.308065
1071.000000	99.314742
1072.000000	99.352574
1073.000000	99.327343
1074.000000	99.326561
1075.000000	99.307325
1076.000000	99.302137
1077.000000	99.259537
1078.000000	99.171982
1079.000000	99.141927
1080.000000	99.171067
1081.000000	99.210889
1082.000000	99.211454
1083.000000	99.244953
1084.000000	99.273268
1085.000000	99.260256
1086.000000	99.286483
1087.000000	99.314125
1088.000000	99.342669
1089.000000	99.355604
1090.000000	99.385973
1091.000000	99.427451
1092.000000	99.427371
1093.000000	99.427871
1094.000000	99.439964
1095.000000	99.476923
1096.000000	99.453135
1097.000000	99.450160
1098.000000	99.463722
1099.000000	99.503549
1100.000000	99.504800
1101.000000	99.493959
1102.000000	99.512545
1103.000000	99.538982
1104.000000	99.543568
1105.000000	99.517352
1106.000000	99.524781
1107.000000	99.515097
1108.000000	99.556455
1109.000000	99.576869
1110.000000	99.618276
1111.000000	99.627767
1112.000000	99.660191
1113.000000	99.726580
1114.000000	99.741085
1115.000000	99.711019
1116.000000	99.654173
1117.000000	99.665609
1118.000000	99.596910
1119.000000	99.572446
1120.000000	99.612111
1121.000000	99.591229
1122.000000	99.611632
1123.000000	99.636192
1124.000000	99.663910
1125.000000	99.625804
1126.000000	99.590698
1127.000000	99.636208
1128.000000	99.679760
1129.000000	99.686902
1130.000000	99.628475
1131.000000	99.670375
1132.000000	99.654581
1133.000000	99.660344
1134.000000	99.655289
1135.000000	99.628927
1136.000000	99.606850
1137.000000	99.580266
1138.000000	99.576084
1139.000000	99.578406
1140.000000	99.564289
1141.000000	99.538710
1142.000000	99.528079
1143.000000	99.498359
1144.000000	99.486109
1145.000000	99.442953
1146.000000	99.434198
1147.000000	99.406177
1148.000000	99.370354
1149.000000	99.388895
1150.000000	99.355444
1151.000000	99.398955
1152.000000	99.384361
1153.000000	99.407721
1154.000000	99.375252
1155.000000	99.353434
1156.000000	99.316474
1157.000000	99.249311
1158.000000	99.168786
1159.000000	99.112288
1160.000000	99.052192
1161.000000	99.010748
1162.000000	98.943360
1163.000000	98.889767
1164.000000	98.835272
1165.000000	98.819956
1166.000000	98.766557
1167.000000	98.741136
1168.000000	98.689660
1169.000000	98.618292
1170.000000	98.575149
1171.000000	98.545703
1172.000000	98.495585
1173.000000	98.440256
1174.000000	98.367604
1175.000000	98.284149
1176.000000	98.230951
1177.000000	98.163719
1178.000000	98.143953
1179.000000	98.144616
1180.000000	98.121496
1181.000000	98.090948
1182.000000	98.063348
1183.000000	98.016850
1184.000000	97.939501
1185.000000	97.918511
1186.000000	97.862293
1187.000000	97.789277
1188.000000	97.731783
1189.000000	97.729202
1190.000000	97.680046
1191.000000	97.664850
1192.000000	97.650289
1193.000000	97.679556
1194.000000	97.660762
1195.000000	97.666515
1196.000000	97.668866
1197.000000	97.661765
1198.000000	97.624659
1199.000000	97.622056
1200.000000	97.599166
1201.000000	97.583039
1202.000000	97.603277
1203.000000	97.597642
1204.000000	97.594610
1205.000000	97.610783
1206.000000	97.620691
1207.000000	97.645652
1208.000000	97.654250
1209.000000	97.675653
1210.000000	97.710127
1211.000000	97.745725
1212.000000	97.784496
1213.000000	97.789359
1214.000000	97.747910
1215.000000	97.759212
1216.000000	97.739246
1217.000000	97.768273
1218.000000	97.787263
1219.000000	97.812857
1220.000000	97.820130
1221.000000	97.812388
1222.000000	97.842849
1223.000000	97.858245
1224.000000	97.877721
1225.000000	97.893217
1226.000000	97.928680
1227.000000	97.979117
1228.000000	97.984439
1229.000000	98.029348
1230.000000	98.059714
1231.000000	98.067178
1232.000000	98.082034
1233.000000	98.116791
1234.000000	98.129413
1235.000000	98.170040
1236.000000	98.178819
1237.000000	98.198426
1238.000000	98.221270
1239.000000	98.236576
1240.000000	98.265523
1241.000000	98.288801
1242.000000	98.279728
1243.000000	98.280920
1244.000000	98.311257
1245.000000	98.332070
1246.000000	98.335510
1247.000000	98.357988
1248.000000	98.378788
1249.000000	98.407413
1250.000000	98.414980
1251.000000	98.447607
1252.000000	98.435650
1253.000000	98.409548
1254.000000	98.416065
1255.000000	98.491219
1256.000000	98.546518
1257.000000	98.571040
1258.000000	98.603368
1259.000000	98.627412
1260.000000	98.659429
1261.000000	98.676464
1262.000000	98.654867
1263.000000	98.645707
1264.000000	98.658136
1265.000000	98.664919
1266.000000	98.666274
1267.000000	98.649475
1268.000000	98.628243
1269.000000	98.621535
1270.000000	98.627094
1271.000000	98.629964
1272.000000	98.590144
1273.000000	98.594220
1274.000000	98.637676
1275.000000	98.623785
1276.000000	98.599695
1277.000000	98.637345
1278.000000	98.646906
1279.000000	98.624729
1280.000000	98.647520
1281.000000	98.655338
1282.000000	98.664778
1283.000000	98.670777
1284.000000	98.654068
1285.000000	98.666351
1286.000000	98.658025
1287.000000	98.666134
1288.000000	98.743156
1289.000000	98.761983
1290.000000	98.739744
1291.000000	98.725399
1292.000000	98.714228
1293.000000	98.703423
1294.000000	98.682280
1295.000000	98.677018
1296.000000	98.658672
1297.000000	98.650250
1298.000000	98.647939
1299.000000	98.643339
1300.000000	98.652391
1301.000000	98.664356
1302.000000	98.675640
1303.000000	98.677107
1304.000000	98.683353
1305.000000	98.662480
1306.000000	98.679026
1307.000000	98.701808
1308.000000	98.698758
1309.000000	98.684873
1310.000000	98.712278
1311.000000	98.755474
1312.000000	98.760599
1313.000000	98.791821
1314.000000	98.824998
1315.000000	98.822721
1316.000000	98.813151
1317.000000	98.791471
1318.000000	98.796253
1319.000000	98.810656
1320.000000	98.795726
1321.000000	98.842070
1322.000000	98.869132
1323.000000	98.810574
1324.000000	98.772213
1325.000000	98.762600
1326.000000	98.765274
1327.000000	98.772902
1328.000000	98.764072
1329.000000	98.766841
1330.000000	98.754939
1331.000000	98.712264
1332.000000	98.709226
1333.000000	98.708063
1334.000000	98.684587
1335.000000	98.653271
1336.000000	98.625836
1337.000000	98.620910
1338.000000	98.606793
1339.000000	98.580020
1340.000000	98.558913
1341.000000	98.516111
1342.000000	98.493597
1343.000000	98.459817
1344.000000	98.383547
1345.000000	98.333620
1346.000000	98.293885
1347.000000	98.230355
1348.000000	98.175673
1349.000000	98.113799
1350.000000	98.055052
1351.000000	97.945381
1352.000000	97.883321
1353.000000	97.788587
1354.000000	97.740272
1355.000000	97.629749
1356.000000	97.595395
1357.000000	97.518982
1358.000000	97.483160
1359.000000	97.434244
1360.000000	97.441015
1361.000000	97.487447
1362.000000	97.475375
1363.000000	97.430045
1364.000000	97.285268
1365.000000	97.226325
1366.000000	97.236207
1367.000000	97.254361
1368.000000	97.186724
1369.000000	97.192989
1370.000000	97.300928
1371.000000	97.261144
1372.000000	97.166832
1373.000000	97.082497
1374.000000	97.032637
1375.000000	96.994099
1376.000000	96.989742
1377.000000	96.904052
1378.000000	96.824996
1379.000000	96.739932
1380.000000	96.414965
1381.000000	96.213377
1382.000000	96.142459
1383.000000	96.077353
1384.000000	96.144969
1385.000000	96.093270
1386.000000	96.097301
1387.000000	96.199179
1388.000000	96.169183
1389.000000	96.127503
1390.000000	96.145599
1391.000000	96.004772
1392.000000	95.774347
1393.000000	95.635663
1394.000000	95.638065
1395.000000	95.475549
1396.000000	95.219901
1397.000000	95.039165
1398.000000	94.881157
1399.000000	94.895125
1400.000000	94.782388
1401.000000	94.585640
1402.000000	94.384154
1403.000000	94.247304
1404.000000	94.151325
1405.000000	93.822105
1406.000000	93.686865
1407.000000	93.544539
1408.000000	93.383943
1409.000000	93.229343
1410.000000	93.031112
1411.000000	92.806467
1412.000000	92.635779
1413.000000	92.494653
1414.000000	92.380121
1415.000000	92.490322
1416.000000	92.427114
1417.000000	92.225825
1418.000000	92.085032
1419.000000	91.750969
1420.000000	91.559984
1421.000000	91.317651
1422.000000	90.945116
1423.000000	90.811439
1424.000000	90.551021
1425.000000	90.305681
1426.000000	90.108163
1427.000000	90.066118
1428.000000	89.952236
1429.000000	89.681294
1430.000000	89.471099
1431.000000	89.301521
1432.000000	89.129989
1433.000000	88.977248
1434.000000	88.727464
1435.000000	88.532190
1436.000000	88.375953
1437.000000	88.208182
1438.000000	88.017847
1439.000000	87.738981
1440.000000	87.619526
1441.000000	87.444263
1442.000000	87.328915
1443.000000	87.210346
1444.000000	87.035943
1445.000000	86.977957
1446.000000	86.838328
1447.000000	86.695464
1448.000000	86.546569
1449.000000	86.421179
1450.000000	86.287994
1451.000000	86.171277
1452.000000	86.073481
1453.000000	85.919283
1454.000000	85.814797
1455.000000	85.672856
1456.000000	85.616050
1457.000000	85.522526
1458.000000	85.332525
1459.000000	85.253068
1460.000000	85.174614
1461.000000	85.056989
1462.000000	84.953285
1463.000000	84.829779
1464.000000	84.735738
1465.000000	84.639265
1466.000000	84.575605
1467.000000	84.509830
1468.000000	84.438847
1469.000000	84.393154
1470.000000	84.328704
1471.000000	84.262416
1472.000000	84.170867
1473.000000	84.081188
1474.000000	83.988475
1475.000000	83.918418
1476.000000	83.825136
1477.000000	83.718448
1478.000000	83.636980
1479.000000	83.562232
1480.000000	83.427510
1481.000000	83.374247
1482.000000	83.342609
1483.000000	83.301156
1484.000000	83.209944
1485.000000	83.101749
1486.000000	83.017539
1487.000000	82.929276
1488.000000	82.825771
1489.000000	82.776949
1490.000000	82.722206
1491.000000	82.634869
1492.000000	82.568388
1493.000000	82.504931
1494.000000	82.468107
1495.000000	82.423115
1496.000000	82.408657
1497.000000	82.368474
1498.000000	82.321003
1499.000000	82.253681
1500.000000	82.213363
1501.000000	82.155956
1502.000000	82.083413
1503.000000	82.037507
1504.000000	81.981826
1505.000000	81.943172
1506.000000	81.948964
1507.000000	81.946050
1508.000000	81.993985
1509.000000	82.020066
1510.000000	81.993759
1511.000000	81.998618
1512.000000	82.016953
1513.000000	82.029156
1514.000000	82.044228
1515.000000	82.070338
1516.000000	82.112235
1517.000000	82.162454
1518.000000	82.185951
1519.000000	82.245134
1520.000000	82.303631
1521.000000	82.378959
1522.000000	82.460445
1523.000000	82.536364
1524.000000	82.578762
1525.000000	82.642476
1526.000000	82.696670
1527.000000	82.759996
1528.000000	82.843582
1529.000000	82.914965
1530.000000	82.969244
1531.000000	83.028100
1532.000000	83.107782
1533.000000	83.197744
1534.000000	83.308529
1535.000000	83.409679
1536.000000	83.493978
1537.000000	83.600678
1538.000000	83.686573
1539.000000	83.773142
1540.000000	83.862527
1541.000000	83.936443
1542.000000	84.028693
1543.000000	84.088294
1544.000000	84.149263
1545.000000	84.229075
1546.000000	84.305451
1547.000000	84.370940
1548.000000	84.439361
1549.000000	84.523148
1550.000000	84.591961
1551.000000	84.656632
1552.000000	84.714711
1553.000000	84.788346
1554.000000	84.856003
1555.000000	84.927960
1556.000000	84.961157
1557.000000	85.027580
1558.000000	85.125894
1559.000000	85.202677
1560.000000	85.261575
1561.000000	85.343077
1562.000000	85.424481
1563.000000	85.485501
1564.000000	85.557150
1565.000000	85.625387
1566.000000	85.665585
1567.000000	85.717977
1568.000000	85.771253
1569.000000	85.804248
1570.000000	85.864383
1571.000000	85.933341
1572.000000	85.984025
1573.000000	86.028769
1574.000000	86.062749
1575.000000	86.084035
1576.000000	86.079543
1577.000000	86.079692
1578.000000	86.089689
1579.000000	86.136177
1580.000000	86.159153
1581.000000	86.168434
1582.000000	86.205353
1583.000000	86.265742
1584.000000	86.288720
1585.000000	86.298824
1586.000000	86.306263
1587.000000	86.324970
1588.000000	86.368033
1589.000000	86.409751
1590.000000	86.446399
1591.000000	86.487395
1592.000000	86.516702
1593.000000	86.513713
1594.000000	86.544992
1595.000000	86.585795
1596.000000	86.610688
1597.000000	86.659166
1598.000000	86.713123
1599.000000	86.725877
1600.000000	86.781274
1601.000000	86.840677
1602.000000	86.864082
1603.000000	86.908378
1604.000000	86.978519
1605.000000	87.014911
1606.000000	87.059313
1607.000000	87.125130
1608.000000	87.205025
1609.000000	87.278577
1610.000000	87.355619
1611.000000	87.418599
1612.000000	87.496785
1613.000000	87.615207
1614.000000	87.682085
1615.000000	87.770698
1616.000000	87.842477
1617.000000	87.890017
1618.000000	87.918571
1619.000000	87.996273
1620.000000	88.065640
1621.000000	88.141492
1622.000000	88.196299
1623.000000	88.245504
1624.000000	88.249141
1625.000000	88.259579
1626.000000	88.293297
1627.000000	88.337698
1628.000000	88.376405
1629.000000	88.396168
1630.000000	88.421186
1631.000000	88.480608
1632.000000	88.495585
1633.000000	88.500487
1634.000000	88.541124
1635.000000	88.592556
1636.000000	88.645075
1637.000000	88.701860
1638.000000	88.740336
1639.000000	88.758020
1640.000000	88.783720
1641.000000	88.792517
1642.000000	88.860224
1643.000000	88.872873
1644.000000	88.885866
1645.000000	88.893892
1646.000000	88.933571
1647.000000	88.983807
1648.000000	88.974450
1649.000000	88.991980
1650.000000	88.973450
1651.000000	89.062439
1652.000000	89.076129
1653.000000	89.134871
1654.000000	89.139388
1655.000000	89.145692
1656.000000	89.145882
1657.000000	89.168108
1658.000000	89.178151
1659.000000	89.222411
1660.000000	89.262813
1661.000000	89.304055
1662.000000	89.288085
1663.000000	89.268254
1664.000000	89.288257
1665.000000	89.296617
1666.000000	89.252332
1667.000000	89.234500
1668.000000	89.234001
1669.000000	89.174223
1670.000000	89.089922
1671.000000	89.022605
1672.000000	88.956543
1673.000000	88.886845
1674.000000	88.821161
1675.000000	88.736055
1676.000000	88.688435
1677.000000	88.569201
1678.000000	88.481005
1679.000000	88.421671
1680.000000	88.360900
1681.000000	88.280649
1682.000000	88.153458
1683.000000	88.037749
1684.000000	87.919398
1685.000000	87.853001
1686.000000	87.697143
1687.000000	87.597460
1688.000000	87.495046
1689.000000	87.372700
1690.000000	87.306059
1691.000000	87.194485
1692.000000	87.059351
1693.000000	86.983101
1694.000000	86.875005
1695.000000	86.773991
1696.000000	86.649080
1697.000000	86.551846
1698.000000	86.519360
1699.000000	86.432941
1700.000000	86.384837
1701.000000	86.361002
1702.000000	86.322280
1703.000000	86.269468
1704.000000	86.245948
1705.000000	86.223485
1706.000000	86.159569
1707.000000	86.125287
1708.000000	86.088200
1709.000000	86.049286
1710.000000	86.028968
1711.000000	85.957059
1712.000000	85.868791
1713.000000	85.837998
1714.000000	85.805001
1715.000000	85.771496
1716.000000	85.712187
1717.000000	85.644227
1718.000000	85.603551
1719.000000	85.533447
1720.000000	85.429699
1721.000000	85.372177
1722.000000	85.329564
1723.000000	85.231736
1724.000000	85.184750
1725.000000	85.095759
1726.000000	85.015995
1727.000000	84.993171
1728.000000	84.900882
1729.000000	84.830203
1730.000000	84.748917
1731.000000	84.732072
1732.000000	84.701510
1733.000000	84.587036
1734.000000	84.537822
1735.000000	84.457232
1736.000000	84.390263
1737.000000	84.309775
1738.000000	84.233627
1739.000000	84.180215
1740.000000	84.145053
1741.000000	84.131786
1742.000000	84.079468
1743.000000	84.055496
1744.000000	84.042698
1745.000000	84.057766
1746.000000	84.092204
1747.000000	84.143760
1748.000000	84.111580
1749.000000	84.090309
1750.000000	84.062371
1751.000000	84.097437
1752.000000	84.148172
1753.000000	84.182266
1754.000000	84.236664
1755.000000	84.295548
1756.000000	84.360501
1757.000000	84.401134
1758.000000	84.467045
1759.000000	84.535502
1760.000000	84.607435
1761.000000	84.702225
1762.000000	84.765282
1763.000000	84.804690
1764.000000	84.865252
1765.000000	84.937382
1766.000000	84.935192
1767.000000	84.978334
1768.000000	85.048782
1769.000000	85.046654
1770.000000	85.081142
1771.000000	85.121091
1772.000000	85.185805
1773.000000	85.234111
1774.000000	85.279198
1775.000000	85.268552
1776.000000	85.287890
1777.000000	85.361961
1778.000000	85.409632
1779.000000	85.450002
1780.000000	85.462525
1781.000000	85.489825
1782.000000	85.510668
1783.000000	85.583501
1784.000000	85.631807
1785.000000	85.675399
1786.000000	85.694389
1787.000000	85.723266
1788.000000	85.753207
1789.000000	85.784527
1790.000000	85.835443
1791.000000	85.851439
1792.000000	85.900715
1793.000000	85.926089
1794.000000	85.960431
1795.000000	85.998684
1796.000000	86.024942
1797.000000	86.035796
1798.000000	86.069178
1799.000000	86.117444
1800.000000	86.171528
1801.000000	86.235232
1802.000000	86.273121
1803.000000	86.311884
1804.000000	86.402477
1805.000000	86.476115
1806.000000	86.536291
1807.000000	86.569564
1808.000000	86.594863
1809.000000	86.611373
1810.000000	86.658167
1811.000000	86.695622
1812.000000	86.677605
1813.000000	86.634229
1814.000000	86.643784
1815.000000	86.706219
1816.000000	86.754003
1817.000000	86.854749
1818.000000	86.929125
1819.000000	87.020023
1820.000000	87.114028
1821.000000	87.112044
1822.000000	87.102629
1823.000000	87.110103
1824.000000	87.145532
1825.000000	87.255624
1826.000000	87.332308
1827.000000	87.346857
1828.000000	87.377133
1829.000000	87.379297
1830.000000	87.412005
1831.000000	87.445960
1832.000000	87.479132
1833.000000	87.488765
1834.000000	87.489476
1835.000000	87.570588
1836.000000	87.652402
1837.000000	87.704189
1838.000000	87.697671
1839.000000	87.676757
1840.000000	87.658815
1841.000000	87.669681
1842.000000	87.683265
1843.000000	87.695734
1844.000000	87.708578
1845.000000	87.714889
1846.000000	87.788943
1847.000000	87.947441
1848.000000	88.044595
1849.000000	88.091973
1850.000000	88.104323
1851.000000	88.066480
1852.000000	87.964099
1853.000000	87.883839
1854.000000	87.785340
1855.000000	87.733100
1856.000000	87.747114
1857.000000	87.745036
1858.000000	87.784169
1859.000000	87.833157
1860.000000	87.751936
1861.000000	87.688234
1862.000000	87.691049
1863.000000	87.760346
1864.000000	87.782760
1865.000000	87.720299
1866.000000	87.718331
1867.000000	87.731159
1868.000000	87.727754
1869.000000	87.696274
1870.000000	87.666874
1871.000000	87.544497
1872.000000	87.564351
1873.000000	87.565992
1874.000000	87.557491
1875.000000	87.506919
1876.000000	87.499311
1877.000000	87.433446
1878.000000	87.353861
1879.000000	87.262457
1880.000000	87.223572
1881.000000	87.063981
1882.000000	86.841198
1883.000000	86.723896
1884.000000	86.552509
1885.000000	86.364478
1886.000000	86.236913
1887.000000	86.063372
1888.000000	85.889435
1889.000000	85.757251
1890.000000	85.487354
1891.000000	85.273177
1892.000000	85.061080
1893.000000	84.739893
1894.000000	84.376009
1895.000000	84.043739
1896.000000	83.681087
1897.000000	83.298378
1898.000000	82.827504
1899.000000	82.387623
1900.000000	81.953764
1901.000000	81.493250
1902.000000	81.141598
1903.000000	80.623639
1904.000000	80.150261
1905.000000	79.591557
1906.000000	79.117624
1907.000000	78.453567
1908.000000	77.893938
1909.000000	77.309242
1910.000000	76.733867
1911.000000	76.048920
1912.000000	75.467971
1913.000000	74.892095
1914.000000	74.315192
1915.000000	73.735303
1916.000000	73.144809
1917.000000	72.482533
1918.000000	71.780761
1919.000000	71.232435
1920.000000	70.660486
1921.000000	69.988075
1922.000000	69.404601
1923.000000	68.856960
1924.000000	68.220611
1925.000000	67.732061
1926.000000	67.196600
1927.000000	66.614628
1928.000000	66.119892
1929.000000	65.627616
1930.000000	65.178431
1931.000000	64.768475
1932.000000	64.347585
1933.000000	63.960156
1934.000000	63.557434
1935.000000	63.239818
1936.000000	62.881876
1937.000000	62.419921
1938.000000	62.157791
1939.000000	61.837957
1940.000000	61.553291
1941.000000	61.299798
1942.000000	61.088187
1943.000000	60.877676
1944.000000	60.702185
1945.000000	60.561895
1946.000000	60.470491
1947.000000	60.344135
1948.000000	60.241107
1949.000000	60.141146
1950.000000	60.020859
1951.000000	59.990944
1952.000000	60.021553
1953.000000	60.068035
1954.000000	60.006478
1955.000000	59.980038
1956.000000	60.087849
1957.000000	60.115223
1958.000000	60.138965
1959.000000	60.208072
1960.000000	60.256932
1961.000000	60.335864
1962.000000	60.487065
1963.000000	60.581501
1964.000000	60.723532
1965.000000	60.832585
1966.000000	60.905385
1967.000000	61.062156
1968.000000	61.192290
1969.000000	61.393705
1970.000000	61.517269
1971.000000	61.655868
1972.000000	61.787384
1973.000000	61.957761
1974.000000	62.160437
1975.000000	62.341526
1976.000000	62.527091
1977.000000	62.724191
1978.000000	62.916218
1979.000000	63.084301
1980.000000	63.239581
1981.000000	63.409371
1982.000000	63.540046
1983.000000	63.692779
1984.000000	63.877662
1985.000000	64.048403
1986.000000	64.204931
1987.000000	64.376426
1988.000000	64.541207
1989.000000	64.717433
1990.000000	64.869935
1991.000000	64.976797
1992.000000	65.167084
1993.000000	65.326360
1994.000000	65.506417
1995.000000	65.691177
1996.000000	65.863172
1997.000000	66.031901
1998.000000	66.227519
1999.000000	66.360308
2000.000000	66.510272
