PE UV       SUBTECH     SPECTRUM    ASCII       PEDS        4.00        
   -1
3-NI #2.ASC
23/11/20
15:22:41.00
23/11/20
15:22:41.00
Vinicio Soto Monge

250,000000
1
Lambda 1050
1050L1511233
PerkinElmer UV WinLab 6.3.2.0749 / 2.02.05 Lambda 900 UV/VIS/NIR, Aug  7 2015 09:38:08

0
0
3350/servo 860,8/2
0
0
UV/VIS
1
1
1
DoubleDePol,CommonBeamDepol,RBeamAtt,SBeamAtt,60mm sphere, WB InGaAs Detector
0
0
0
0
Program
Program
3350/servo 860,8/2
3350/0,4 860,8/0,4
3350/0,4 860,8/0,4
0
20.00
 
 
 
0
 
860,8
319,2
860,8
Front
100
on
S:100 R:100
0
0
0
0
 
0
 
 
 
0
 
 
0
0
0
0
0
 
 
 
 
0
0


0
0
#HDR
-1
-1
#GR
nm
%R
1.0
0.0
2200,000000
-1,000000
1951
8
98,685777
5,673864
#DATA
284.000000	8.005638
285.000000	7.968650
286.000000	7.932074
287.000000	7.900582
288.000000	7.870328
289.000000	7.840560
290.000000	7.813975
291.000000	7.789023
292.000000	7.764117
293.000000	7.739200
294.000000	7.716844
295.000000	7.695424
296.000000	7.676858
297.000000	7.660760
298.000000	7.646055
299.000000	7.629227
300.000000	7.615607
301.000000	7.601881
302.000000	7.590138
303.000000	7.577682
304.000000	7.564748
305.000000	7.553117
306.000000	7.539426
307.000000	7.526303
308.000000	7.514448
309.000000	7.500231
310.000000	7.488637
311.000000	7.475176
312.000000	7.462369
313.000000	7.451011
314.000000	7.437902
315.000000	7.424533
316.000000	7.411906
317.000000	7.396913
318.000000	7.378647
319.000000	7.362276
320.000000	7.350137
321.000000	7.334959
322.000000	7.320543
323.000000	7.301886
324.000000	7.284805
325.000000	7.263961
326.000000	7.242919
327.000000	7.222485
328.000000	7.201983
329.000000	7.180437
330.000000	7.160731
331.000000	7.137001
332.000000	7.112891
333.000000	7.088778
334.000000	7.068728
335.000000	7.044583
336.000000	7.023504
337.000000	7.002559
338.000000	6.983889
339.000000	6.962807
340.000000	6.940887
341.000000	6.920950
342.000000	6.901915
343.000000	6.883919
344.000000	6.867346
345.000000	6.850778
346.000000	6.835021
347.000000	6.816936
348.000000	6.799331
349.000000	6.782428
350.000000	6.766486
351.000000	6.749746
352.000000	6.735520
353.000000	6.724659
354.000000	6.713446
355.000000	6.698114
356.000000	6.686233
357.000000	6.670622
358.000000	6.662057
359.000000	6.652865
360.000000	6.644577
361.000000	6.633521
362.000000	6.622814
363.000000	6.612384
364.000000	6.603794
365.000000	6.593605
366.000000	6.585938
367.000000	6.578329
368.000000	6.569759
369.000000	6.558723
370.000000	6.549342
371.000000	6.539235
372.000000	6.527871
373.000000	6.516064
374.000000	6.507180
375.000000	6.497722
376.000000	6.485491
377.000000	6.473520
378.000000	6.460342
379.000000	6.448013
380.000000	6.435158
381.000000	6.421558
382.000000	6.409611
383.000000	6.398060
384.000000	6.386200
385.000000	6.373524
386.000000	6.360798
387.000000	6.348719
388.000000	6.336858
389.000000	6.323916
390.000000	6.310688
391.000000	6.298404
392.000000	6.286869
393.000000	6.273077
394.000000	6.258953
395.000000	6.246198
396.000000	6.235361
397.000000	6.224645
398.000000	6.213541
399.000000	6.200932
400.000000	6.188649
401.000000	6.176726
402.000000	6.164881
403.000000	6.153286
404.000000	6.142357
405.000000	6.132185
406.000000	6.121179
407.000000	6.110379
408.000000	6.099795
409.000000	6.088378
410.000000	6.078923
411.000000	6.071032
412.000000	6.062717
413.000000	6.054930
414.000000	6.047045
415.000000	6.039287
416.000000	6.032297
417.000000	6.025229
418.000000	6.018220
419.000000	6.011132
420.000000	6.004368
421.000000	5.998263
422.000000	5.992624
423.000000	5.987253
424.000000	5.981824
425.000000	5.976540
426.000000	5.971006
427.000000	5.965300
428.000000	5.960276
429.000000	5.955592
430.000000	5.950840
431.000000	5.946203
432.000000	5.941786
433.000000	5.937930
434.000000	5.934286
435.000000	5.930611
436.000000	5.926986
437.000000	5.923807
438.000000	5.920876
439.000000	5.918253
440.000000	5.915538
441.000000	5.913287
442.000000	5.911577
443.000000	5.909933
444.000000	5.908705
445.000000	5.907590
446.000000	5.906738
447.000000	5.906160
448.000000	5.905716
449.000000	5.905827
450.000000	5.906194
451.000000	5.906864
452.000000	5.908267
453.000000	5.910229
454.000000	5.912584
455.000000	5.915351
456.000000	5.918509
457.000000	5.922157
458.000000	5.926680
459.000000	5.932321
460.000000	5.938858
461.000000	5.946693
462.000000	5.956049
463.000000	5.966613
464.000000	5.978752
465.000000	5.992977
466.000000	6.009428
467.000000	6.028064
468.000000	6.049171
469.000000	6.073606
470.000000	6.101448
471.000000	6.133124
472.000000	6.168940
473.000000	6.209265
474.000000	6.254641
475.000000	6.305839
476.000000	6.363306
477.000000	6.427702
478.000000	6.499787
479.000000	6.580061
480.000000	6.668710
481.000000	6.765884
482.000000	6.872062
483.000000	6.988452
484.000000	7.115403
485.000000	7.253277
486.000000	7.402688
487.000000	7.563739
488.000000	7.737046
489.000000	7.923297
490.000000	8.123183
491.000000	8.336398
492.000000	8.563061
493.000000	8.802833
494.000000	9.056200
495.000000	9.322228
496.000000	9.600417
497.000000	9.889864
498.000000	10.190077
499.000000	10.500213
500.000000	10.818722
501.000000	11.144439
502.000000	11.476810
503.000000	11.814411
504.000000	12.156162
505.000000	12.500967
506.000000	12.847263
507.000000	13.193735
508.000000	13.538816
509.000000	13.880827
510.000000	14.218308
511.000000	14.549285
512.000000	14.872185
513.000000	15.185359
514.000000	15.487250
515.000000	15.776567
516.000000	16.051648
517.000000	16.310729
518.000000	16.552205
519.000000	16.774887
520.000000	16.977577
521.000000	17.158929
522.000000	17.318340
523.000000	17.454466
524.000000	17.566203
525.000000	17.652807
526.000000	17.714340
527.000000	17.750608
528.000000	17.762116
529.000000	17.748282
530.000000	17.709789
531.000000	17.647267
532.000000	17.561322
533.000000	17.452690
534.000000	17.322318
535.000000	17.171349
536.000000	17.001600
537.000000	16.813731
538.000000	16.608768
539.000000	16.387828
540.000000	16.151895
541.000000	15.902770
542.000000	15.641902
543.000000	15.370327
544.000000	15.089695
545.000000	14.801350
546.000000	14.507058
547.000000	14.207937
548.000000	13.905469
549.000000	13.600744
550.000000	13.294957
551.000000	12.989882
552.000000	12.687035
553.000000	12.387242
554.000000	12.091366
555.000000	11.800311
556.000000	11.515618
557.000000	11.237405
558.000000	10.966659
559.000000	10.704146
560.000000	10.449639
561.000000	10.203783
562.000000	9.966972
563.000000	9.738891
564.000000	9.519719
565.000000	9.309795
566.000000	9.108930
567.000000	8.917768
568.000000	8.735543
569.000000	8.562281
570.000000	8.398101
571.000000	8.242349
572.000000	8.094881
573.000000	7.955610
574.000000	7.824129
575.000000	7.700547
576.000000	7.584188
577.000000	7.474737
578.000000	7.372616
579.000000	7.277086
580.000000	7.187653
581.000000	7.103878
582.000000	7.025924
583.000000	6.953052
584.000000	6.885420
585.000000	6.822865
586.000000	6.765406
587.000000	6.712486
588.000000	6.664299
589.000000	6.620313
590.000000	6.580650
591.000000	6.544236
592.000000	6.511707
593.000000	6.482390
594.000000	6.456456
595.000000	6.433925
596.000000	6.414465
597.000000	6.397595
598.000000	6.383505
599.000000	6.372291
600.000000	6.363120
601.000000	6.356487
602.000000	6.352132
603.000000	6.350045
604.000000	6.350096
605.000000	6.351875
606.000000	6.355249
607.000000	6.360670
608.000000	6.367623
609.000000	6.376179
610.000000	6.386185
611.000000	6.398122
612.000000	6.411462
613.000000	6.426047
614.000000	6.442016
615.000000	6.459705
616.000000	6.478583
617.000000	6.498481
618.000000	6.519892
619.000000	6.542676
620.000000	6.566290
621.000000	6.590767
622.000000	6.617067
623.000000	6.644051
624.000000	6.672039
625.000000	6.700875
626.000000	6.731244
627.000000	6.762570
628.000000	6.794935
629.000000	6.827895
630.000000	6.862360
631.000000	6.897973
632.000000	6.934568
633.000000	6.972204
634.000000	7.010532
635.000000	7.050373
636.000000	7.091154
637.000000	7.132845
638.000000	7.175374
639.000000	7.218955
640.000000	7.263503
641.000000	7.309260
642.000000	7.355836
643.000000	7.403690
644.000000	7.452302
645.000000	7.502386
646.000000	7.552993
647.000000	7.604790
648.000000	7.657822
649.000000	7.711725
650.000000	7.766218
651.000000	7.822385
652.000000	7.879527
653.000000	7.938046
654.000000	7.997200
655.000000	8.057577
656.000000	8.119236
657.000000	8.181263
658.000000	8.244548
659.000000	8.309127
660.000000	8.375204
661.000000	8.441844
662.000000	8.509678
663.000000	8.578824
664.000000	8.649009
665.000000	8.719996
666.000000	8.792100
667.000000	8.865504
668.000000	8.939949
669.000000	9.015623
670.000000	9.092335
671.000000	9.169747
672.000000	9.248309
673.000000	9.328524
674.000000	9.409673
675.000000	9.492203
676.000000	9.575637
677.000000	9.660066
678.000000	9.745523
679.000000	9.832833
680.000000	9.920834
681.000000	10.009962
682.000000	10.099853
683.000000	10.190614
684.000000	10.282719
685.000000	10.376225
686.000000	10.470224
687.000000	10.565112
688.000000	10.660209
689.000000	10.756972
690.000000	10.854990
691.000000	10.954454
692.000000	11.055145
693.000000	11.156933
694.000000	11.260193
695.000000	11.364215
696.000000	11.469625
697.000000	11.575559
698.000000	11.682240
699.000000	11.790573
700.000000	11.900282
701.000000	12.011005
702.000000	12.122521
703.000000	12.235106
704.000000	12.348687
705.000000	12.463551
706.000000	12.579822
707.000000	12.696817
708.000000	12.814405
709.000000	12.933611
710.000000	13.053803
711.000000	13.174873
712.000000	13.297450
713.000000	13.421345
714.000000	13.546127
715.000000	13.672065
716.000000	13.799129
717.000000	13.927508
718.000000	14.057200
719.000000	14.187592
720.000000	14.318884
721.000000	14.451404
722.000000	14.585237
723.000000	14.721389
724.000000	14.858598
725.000000	14.996185
726.000000	15.134632
727.000000	15.273727
728.000000	15.413786
729.000000	15.554734
730.000000	15.697042
731.000000	15.839721
732.000000	15.983501
733.000000	16.128557
734.000000	16.274184
735.000000	16.421136
736.000000	16.569260
737.000000	16.718188
738.000000	16.868631
739.000000	17.019926
740.000000	17.172496
741.000000	17.325540
742.000000	17.479506
743.000000	17.635282
744.000000	17.791057
745.000000	17.948070
746.000000	18.106621
747.000000	18.265235
748.000000	18.424690
749.000000	18.585285
750.000000	18.746709
751.000000	18.909254
752.000000	19.072270
753.000000	19.236944
754.000000	19.403177
755.000000	19.569889
756.000000	19.737723
757.000000	19.906526
758.000000	20.075151
759.000000	20.244496
760.000000	20.414842
761.000000	20.585934
762.000000	20.758915
763.000000	20.934090
764.000000	21.109845
765.000000	21.285799
766.000000	21.463565
767.000000	21.642164
768.000000	21.820203
769.000000	21.999904
770.000000	22.180730
771.000000	22.362705
772.000000	22.545984
773.000000	22.728471
774.000000	22.912674
775.000000	23.097183
776.000000	23.283193
777.000000	23.470215
778.000000	23.657277
779.000000	23.845634
780.000000	24.034709
781.000000	24.222958
782.000000	24.412967
783.000000	24.603800
784.000000	24.794661
785.000000	24.987133
786.000000	25.180073
787.000000	25.374241
788.000000	25.566708
789.000000	25.759830
790.000000	25.954963
791.000000	26.152390
792.000000	26.348922
793.000000	26.546402
794.000000	26.744505
795.000000	26.942886
796.000000	27.142312
797.000000	27.342505
798.000000	27.543348
799.000000	27.743981
800.000000	27.945549
801.000000	28.147767
802.000000	28.351730
803.000000	28.558461
804.000000	28.764873
805.000000	28.970575
806.000000	29.176533
807.000000	29.382030
808.000000	29.588449
809.000000	29.795761
810.000000	30.003722
811.000000	30.210987
812.000000	30.420014
813.000000	30.629967
814.000000	30.837950
815.000000	31.048381
816.000000	31.260530
817.000000	31.473232
818.000000	31.686224
819.000000	31.899140
820.000000	32.111643
821.000000	32.326003
822.000000	32.539193
823.000000	32.755405
824.000000	32.970010
825.000000	33.184014
826.000000	33.395627
827.000000	33.611087
828.000000	33.828396
829.000000	34.045373
830.000000	34.261868
831.000000	34.475122
832.000000	34.687702
833.000000	34.903430
834.000000	35.119347
835.000000	35.336702
836.000000	35.553033
837.000000	35.769269
838.000000	35.986792
839.000000	36.206615
840.000000	36.425270
841.000000	36.642404
842.000000	36.863827
843.000000	37.078589
844.000000	37.300740
845.000000	37.524938
846.000000	37.744360
847.000000	37.967758
848.000000	38.186088
849.000000	38.408667
850.000000	38.627339
851.000000	38.846906
852.000000	39.065539
853.000000	39.283850
854.000000	39.501753
855.000000	39.719620
856.000000	39.944092
857.000000	40.158053
858.000000	40.347029
859.000000	40.569387
860.000000	40.801547
861.000000	41.045099
862.000000	41.255512
863.000000	41.436089
864.000000	41.685774
865.000000	41.907783
866.000000	42.110299
867.000000	42.337058
868.000000	42.549108
869.000000	42.750208
870.000000	42.960667
871.000000	43.164068
872.000000	43.386584
873.000000	43.588646
874.000000	43.772128
875.000000	43.996036
876.000000	44.207530
877.000000	44.419504
878.000000	44.643175
879.000000	44.850481
880.000000	45.058175
881.000000	45.266393
882.000000	45.454979
883.000000	45.670160
884.000000	45.869139
885.000000	46.098694
886.000000	46.280230
887.000000	46.483225
888.000000	46.671928
889.000000	46.917875
890.000000	47.131733
891.000000	47.340138
892.000000	47.545916
893.000000	47.765653
894.000000	47.979452
895.000000	48.171704
896.000000	48.355677
897.000000	48.557645
898.000000	48.804787
899.000000	48.974558
900.000000	49.188548
901.000000	49.411969
902.000000	49.595806
903.000000	49.812153
904.000000	50.026052
905.000000	50.235353
906.000000	50.450217
907.000000	50.639008
908.000000	50.876810
909.000000	51.121366
910.000000	51.318561
911.000000	51.518162
912.000000	51.716359
913.000000	51.938703
914.000000	52.161523
915.000000	52.366854
916.000000	52.566318
917.000000	52.779622
918.000000	52.998423
919.000000	53.211201
920.000000	53.379421
921.000000	53.613761
922.000000	53.808798
923.000000	54.045245
924.000000	54.195216
925.000000	54.406396
926.000000	54.621846
927.000000	54.839925
928.000000	55.066079
929.000000	55.250667
930.000000	55.457644
931.000000	55.661707
932.000000	55.855922
933.000000	56.051321
934.000000	56.254554
935.000000	56.438567
936.000000	56.615713
937.000000	56.835807
938.000000	57.005755
939.000000	57.195758
940.000000	57.382546
941.000000	57.574779
942.000000	57.775263
943.000000	57.964038
944.000000	58.151278
945.000000	58.346582
946.000000	58.546619
947.000000	58.754542
948.000000	58.910866
949.000000	59.075832
950.000000	59.248095
951.000000	59.423893
952.000000	59.588617
953.000000	59.753471
954.000000	59.963769
955.000000	60.148995
956.000000	60.328829
957.000000	60.538109
958.000000	60.691161
959.000000	60.874530
960.000000	61.055333
961.000000	61.199742
962.000000	61.362424
963.000000	61.532364
964.000000	61.713028
965.000000	61.895737
966.000000	62.086035
967.000000	62.282589
968.000000	62.452632
969.000000	62.618307
970.000000	62.797457
971.000000	63.009016
972.000000	63.192792
973.000000	63.402575
974.000000	63.602064
975.000000	63.814825
976.000000	64.009644
977.000000	64.205641
978.000000	64.369348
979.000000	64.524206
980.000000	64.688123
981.000000	64.861191
982.000000	65.041021
983.000000	65.242314
984.000000	65.433298
985.000000	65.625358
986.000000	65.847234
987.000000	66.077383
988.000000	66.256600
989.000000	66.411379
990.000000	66.594473
991.000000	66.767846
992.000000	66.938346
993.000000	67.134307
994.000000	67.340854
995.000000	67.522548
996.000000	67.730969
997.000000	67.912478
998.000000	68.072597
999.000000	68.245001
1000.000000	68.396821
1001.000000	68.547171
1002.000000	68.713266
1003.000000	68.876875
1004.000000	69.047258
1005.000000	69.212347
1006.000000	69.342361
1007.000000	69.485392
1008.000000	69.652564
1009.000000	69.821958
1010.000000	69.980256
1011.000000	70.136975
1012.000000	70.284221
1013.000000	70.434779
1014.000000	70.621026
1015.000000	70.788938
1016.000000	70.956344
1017.000000	71.116673
1018.000000	71.256889
1019.000000	71.399529
1020.000000	71.543241
1021.000000	71.673957
1022.000000	71.811432
1023.000000	71.971014
1024.000000	72.134887
1025.000000	72.280436
1026.000000	72.426716
1027.000000	72.581363
1028.000000	72.717987
1029.000000	72.827162
1030.000000	72.952547
1031.000000	73.086629
1032.000000	73.240579
1033.000000	73.394741
1034.000000	73.530914
1035.000000	73.678101
1036.000000	73.836644
1037.000000	73.986614
1038.000000	74.127045
1039.000000	74.282978
1040.000000	74.439245
1041.000000	74.602475
1042.000000	74.770458
1043.000000	74.937130
1044.000000	75.081289
1045.000000	75.219182
1046.000000	75.374950
1047.000000	75.514163
1048.000000	75.650691
1049.000000	75.772732
1050.000000	75.892294
1051.000000	76.001146
1052.000000	76.127093
1053.000000	76.266447
1054.000000	76.397397
1055.000000	76.546044
1056.000000	76.666048
1057.000000	76.780205
1058.000000	76.905640
1059.000000	77.021499
1060.000000	77.163526
1061.000000	77.286682
1062.000000	77.414693
1063.000000	77.557858
1064.000000	77.701298
1065.000000	77.827888
1066.000000	77.949843
1067.000000	78.076900
1068.000000	78.201164
1069.000000	78.347583
1070.000000	78.489940
1071.000000	78.607910
1072.000000	78.710498
1073.000000	78.851155
1074.000000	78.960893
1075.000000	79.071937
1076.000000	79.197711
1077.000000	79.305538
1078.000000	79.364036
1079.000000	79.460317
1080.000000	79.576095
1081.000000	79.674642
1082.000000	79.790977
1083.000000	79.910719
1084.000000	80.025924
1085.000000	80.148226
1086.000000	80.294000
1087.000000	80.397841
1088.000000	80.538026
1089.000000	80.660781
1090.000000	80.777555
1091.000000	80.881420
1092.000000	81.006966
1093.000000	81.098904
1094.000000	81.223763
1095.000000	81.356940
1096.000000	81.481575
1097.000000	81.598067
1098.000000	81.702420
1099.000000	81.836859
1100.000000	81.921127
1101.000000	82.041181
1102.000000	82.165533
1103.000000	82.288627
1104.000000	82.414673
1105.000000	82.501518
1106.000000	82.626274
1107.000000	82.755726
1108.000000	82.857274
1109.000000	82.991943
1110.000000	83.088675
1111.000000	83.189901
1112.000000	83.282553
1113.000000	83.401262
1114.000000	83.511612
1115.000000	83.588998
1116.000000	83.690319
1117.000000	83.778367
1118.000000	83.914598
1119.000000	84.020399
1120.000000	84.128066
1121.000000	84.233583
1122.000000	84.365932
1123.000000	84.470896
1124.000000	84.592376
1125.000000	84.701381
1126.000000	84.815830
1127.000000	84.948364
1128.000000	85.093048
1129.000000	85.182093
1130.000000	85.240579
1131.000000	85.342914
1132.000000	85.419244
1133.000000	85.523263
1134.000000	85.625351
1135.000000	85.743564
1136.000000	85.843930
1137.000000	85.923020
1138.000000	86.023613
1139.000000	86.085276
1140.000000	86.199976
1141.000000	86.257907
1142.000000	86.333986
1143.000000	86.405804
1144.000000	86.485825
1145.000000	86.588755
1146.000000	86.693960
1147.000000	86.781482
1148.000000	86.878874
1149.000000	86.960834
1150.000000	87.043034
1151.000000	87.132244
1152.000000	87.264222
1153.000000	87.301369
1154.000000	87.362178
1155.000000	87.463549
1156.000000	87.543285
1157.000000	87.601160
1158.000000	87.651391
1159.000000	87.694470
1160.000000	87.752973
1161.000000	87.843691
1162.000000	87.870384
1163.000000	87.911965
1164.000000	87.959608
1165.000000	88.032695
1166.000000	88.081589
1167.000000	88.146537
1168.000000	88.168811
1169.000000	88.192548
1170.000000	88.241639
1171.000000	88.275956
1172.000000	88.314819
1173.000000	88.360061
1174.000000	88.441719
1175.000000	88.482644
1176.000000	88.511550
1177.000000	88.565634
1178.000000	88.621387
1179.000000	88.694551
1180.000000	88.761710
1181.000000	88.812758
1182.000000	88.852739
1183.000000	88.888517
1184.000000	88.925060
1185.000000	89.005505
1186.000000	89.025049
1187.000000	89.022166
1188.000000	89.098696
1189.000000	89.148553
1190.000000	89.170744
1191.000000	89.202770
1192.000000	89.243313
1193.000000	89.268440
1194.000000	89.324241
1195.000000	89.359878
1196.000000	89.385285
1197.000000	89.430316
1198.000000	89.491146
1199.000000	89.548251
1200.000000	89.622946
1201.000000	89.695816
1202.000000	89.750508
1203.000000	89.867348
1204.000000	89.914951
1205.000000	89.975663
1206.000000	90.057023
1207.000000	90.125748
1208.000000	90.183993
1209.000000	90.222242
1210.000000	90.292678
1211.000000	90.401773
1212.000000	90.477907
1213.000000	90.569876
1214.000000	90.616441
1215.000000	90.680278
1216.000000	90.733897
1217.000000	90.818154
1218.000000	90.888156
1219.000000	90.953030
1220.000000	91.012632
1221.000000	91.108661
1222.000000	91.214471
1223.000000	91.279229
1224.000000	91.342684
1225.000000	91.421149
1226.000000	91.506436
1227.000000	91.588619
1228.000000	91.690437
1229.000000	91.749350
1230.000000	91.811293
1231.000000	91.887432
1232.000000	91.953295
1233.000000	92.006651
1234.000000	92.076478
1235.000000	92.124458
1236.000000	92.179429
1237.000000	92.236272
1238.000000	92.263060
1239.000000	92.335170
1240.000000	92.408442
1241.000000	92.456441
1242.000000	92.509899
1243.000000	92.561564
1244.000000	92.630224
1245.000000	92.661750
1246.000000	92.680683
1247.000000	92.720070
1248.000000	92.784791
1249.000000	92.848367
1250.000000	92.891797
1251.000000	92.944548
1252.000000	92.996477
1253.000000	93.048958
1254.000000	93.125507
1255.000000	93.193552
1256.000000	93.250485
1257.000000	93.279972
1258.000000	93.318290
1259.000000	93.400568
1260.000000	93.455419
1261.000000	93.469402
1262.000000	93.452969
1263.000000	93.464977
1264.000000	93.511430
1265.000000	93.552625
1266.000000	93.582896
1267.000000	93.611659
1268.000000	93.637949
1269.000000	93.690535
1270.000000	93.736766
1271.000000	93.757804
1272.000000	93.789485
1273.000000	93.843878
1274.000000	93.903037
1275.000000	93.947991
1276.000000	93.973569
1277.000000	94.039618
1278.000000	94.088001
1279.000000	94.112545
1280.000000	94.165903
1281.000000	94.235534
1282.000000	94.277446
1283.000000	94.301477
1284.000000	94.328107
1285.000000	94.360000
1286.000000	94.374100
1287.000000	94.414410
1288.000000	94.470511
1289.000000	94.504532
1290.000000	94.513784
1291.000000	94.537992
1292.000000	94.571912
1293.000000	94.595984
1294.000000	94.617791
1295.000000	94.635473
1296.000000	94.668801
1297.000000	94.752355
1298.000000	94.814069
1299.000000	94.872894
1300.000000	94.933330
1301.000000	94.980652
1302.000000	95.030921
1303.000000	95.073002
1304.000000	95.113771
1305.000000	95.149543
1306.000000	95.200005
1307.000000	95.263363
1308.000000	95.292245
1309.000000	95.323369
1310.000000	95.348913
1311.000000	95.403689
1312.000000	95.419906
1313.000000	95.455256
1314.000000	95.512579
1315.000000	95.561333
1316.000000	95.585381
1317.000000	95.627734
1318.000000	95.641608
1319.000000	95.626443
1320.000000	95.637502
1321.000000	95.686235
1322.000000	95.709403
1323.000000	95.729402
1324.000000	95.754933
1325.000000	95.766853
1326.000000	95.782519
1327.000000	95.809454
1328.000000	95.856267
1329.000000	95.873294
1330.000000	95.894273
1331.000000	95.937721
1332.000000	95.953568
1333.000000	95.972774
1334.000000	95.990473
1335.000000	96.005726
1336.000000	96.053402
1337.000000	96.112769
1338.000000	96.179324
1339.000000	96.203451
1340.000000	96.238418
1341.000000	96.272578
1342.000000	96.270894
1343.000000	96.301822
1344.000000	96.307251
1345.000000	96.326051
1346.000000	96.329336
1347.000000	96.314629
1348.000000	96.310656
1349.000000	96.316950
1350.000000	96.306179
1351.000000	96.242713
1352.000000	96.183690
1353.000000	96.174794
1354.000000	96.246635
1355.000000	96.306080
1356.000000	96.334127
1357.000000	96.362885
1358.000000	96.293535
1359.000000	96.257496
1360.000000	96.309193
1361.000000	96.384558
1362.000000	96.334510
1363.000000	96.254030
1364.000000	96.215515
1365.000000	96.075081
1366.000000	96.064754
1367.000000	96.080465
1368.000000	95.993965
1369.000000	96.031396
1370.000000	96.127884
1371.000000	96.131921
1372.000000	96.063513
1373.000000	95.945424
1374.000000	95.929966
1375.000000	95.884180
1376.000000	95.892052
1377.000000	95.886285
1378.000000	95.837249
1379.000000	95.692579
1380.000000	95.398417
1381.000000	95.227441
1382.000000	95.241394
1383.000000	95.248812
1384.000000	95.310388
1385.000000	95.311955
1386.000000	95.299431
1387.000000	95.526315
1388.000000	95.513287
1389.000000	95.517652
1390.000000	95.484246
1391.000000	95.442270
1392.000000	95.278833
1393.000000	95.279360
1394.000000	95.369942
1395.000000	95.247089
1396.000000	94.945776
1397.000000	94.876106
1398.000000	94.854960
1399.000000	94.809855
1400.000000	94.922047
1401.000000	94.802948
1402.000000	94.728780
1403.000000	94.702878
1404.000000	94.669564
1405.000000	94.471582
1406.000000	94.362094
1407.000000	94.268787
1408.000000	94.230139
1409.000000	94.125928
1410.000000	94.011068
1411.000000	93.872500
1412.000000	93.723194
1413.000000	93.646593
1414.000000	93.700153
1415.000000	93.846645
1416.000000	93.879042
1417.000000	93.766712
1418.000000	93.700791
1419.000000	93.476067
1420.000000	93.322820
1421.000000	93.229835
1422.000000	92.883718
1423.000000	92.792453
1424.000000	92.617535
1425.000000	92.450990
1426.000000	92.304762
1427.000000	92.276585
1428.000000	92.176610
1429.000000	91.953803
1430.000000	91.863297
1431.000000	91.909904
1432.000000	91.823140
1433.000000	91.717710
1434.000000	91.597821
1435.000000	91.443273
1436.000000	91.348856
1437.000000	91.236735
1438.000000	91.171295
1439.000000	90.965092
1440.000000	90.866868
1441.000000	90.709317
1442.000000	90.660577
1443.000000	90.556092
1444.000000	90.435240
1445.000000	90.438385
1446.000000	90.344015
1447.000000	90.285463
1448.000000	90.177598
1449.000000	90.098986
1450.000000	90.081909
1451.000000	90.008038
1452.000000	89.894310
1453.000000	89.735516
1454.000000	89.686742
1455.000000	89.618437
1456.000000	89.591923
1457.000000	89.549569
1458.000000	89.476176
1459.000000	89.360239
1460.000000	89.266394
1461.000000	89.206580
1462.000000	89.130525
1463.000000	89.048974
1464.000000	88.974012
1465.000000	88.911953
1466.000000	88.846148
1467.000000	88.807279
1468.000000	88.770085
1469.000000	88.788844
1470.000000	88.744984
1471.000000	88.725990
1472.000000	88.658874
1473.000000	88.563326
1474.000000	88.490991
1475.000000	88.448397
1476.000000	88.424636
1477.000000	88.359834
1478.000000	88.329505
1479.000000	88.315473
1480.000000	88.193335
1481.000000	88.158436
1482.000000	88.112679
1483.000000	88.069027
1484.000000	87.978992
1485.000000	87.895275
1486.000000	87.849493
1487.000000	87.819490
1488.000000	87.783720
1489.000000	87.712842
1490.000000	87.672255
1491.000000	87.633918
1492.000000	87.620444
1493.000000	87.548914
1494.000000	87.529633
1495.000000	87.528216
1496.000000	87.495984
1497.000000	87.490795
1498.000000	87.479082
1499.000000	87.468796
1500.000000	87.467543
1501.000000	87.456229
1502.000000	87.407976
1503.000000	87.381700
1504.000000	87.323667
1505.000000	87.293150
1506.000000	87.305856
1507.000000	87.296629
1508.000000	87.316509
1509.000000	87.350463
1510.000000	87.332804
1511.000000	87.347733
1512.000000	87.366619
1513.000000	87.400972
1514.000000	87.395680
1515.000000	87.424664
1516.000000	87.453852
1517.000000	87.466526
1518.000000	87.481231
1519.000000	87.523347
1520.000000	87.537077
1521.000000	87.550363
1522.000000	87.588556
1523.000000	87.617627
1524.000000	87.665830
1525.000000	87.726547
1526.000000	87.752628
1527.000000	87.791953
1528.000000	87.854032
1529.000000	87.896909
1530.000000	87.922904
1531.000000	87.965996
1532.000000	88.019186
1533.000000	88.062751
1534.000000	88.107304
1535.000000	88.142114
1536.000000	88.195997
1537.000000	88.271224
1538.000000	88.308520
1539.000000	88.327528
1540.000000	88.377971
1541.000000	88.423382
1542.000000	88.486164
1543.000000	88.542157
1544.000000	88.585797
1545.000000	88.658674
1546.000000	88.699453
1547.000000	88.736323
1548.000000	88.773471
1549.000000	88.833843
1550.000000	88.872484
1551.000000	88.900921
1552.000000	88.973550
1553.000000	89.035740
1554.000000	89.079068
1555.000000	89.153347
1556.000000	89.248405
1557.000000	89.304408
1558.000000	89.347096
1559.000000	89.394171
1560.000000	89.430927
1561.000000	89.459345
1562.000000	89.456278
1563.000000	89.481286
1564.000000	89.523981
1565.000000	89.566979
1566.000000	89.594730
1567.000000	89.623716
1568.000000	89.664929
1569.000000	89.687019
1570.000000	89.691948
1571.000000	89.701150
1572.000000	89.730123
1573.000000	89.783904
1574.000000	89.834241
1575.000000	89.864686
1576.000000	89.853769
1577.000000	89.852391
1578.000000	89.852961
1579.000000	89.871901
1580.000000	89.898062
1581.000000	89.960505
1582.000000	89.988459
1583.000000	90.004663
1584.000000	90.021309
1585.000000	90.049100
1586.000000	90.088521
1587.000000	90.118431
1588.000000	90.146652
1589.000000	90.160551
1590.000000	90.157204
1591.000000	90.155941
1592.000000	90.177339
1593.000000	90.218456
1594.000000	90.242564
1595.000000	90.242485
1596.000000	90.267162
1597.000000	90.301318
1598.000000	90.337427
1599.000000	90.378643
1600.000000	90.412137
1601.000000	90.448700
1602.000000	90.449616
1603.000000	90.481932
1604.000000	90.544715
1605.000000	90.601206
1606.000000	90.663073
1607.000000	90.707265
1608.000000	90.756110
1609.000000	90.806730
1610.000000	90.839081
1611.000000	90.904080
1612.000000	90.961582
1613.000000	91.024433
1614.000000	91.049530
1615.000000	91.101022
1616.000000	91.104462
1617.000000	91.131567
1618.000000	91.151298
1619.000000	91.147893
1620.000000	91.162803
1621.000000	91.171793
1622.000000	91.216545
1623.000000	91.230412
1624.000000	91.245284
1625.000000	91.270967
1626.000000	91.290924
1627.000000	91.311324
1628.000000	91.336850
1629.000000	91.372633
1630.000000	91.413911
1631.000000	91.438760
1632.000000	91.513875
1633.000000	91.529668
1634.000000	91.546957
1635.000000	91.578742
1636.000000	91.623787
1637.000000	91.706601
1638.000000	91.752457
1639.000000	91.745848
1640.000000	91.738577
1641.000000	91.743841
1642.000000	91.752484
1643.000000	91.754332
1644.000000	91.785009
1645.000000	91.820282
1646.000000	91.817240
1647.000000	91.831109
1648.000000	91.850404
1649.000000	91.849665
1650.000000	91.848642
1651.000000	91.874702
1652.000000	91.918655
1653.000000	91.972879
1654.000000	92.028545
1655.000000	92.083049
1656.000000	92.102676
1657.000000	92.070956
1658.000000	92.093139
1659.000000	92.096782
1660.000000	92.078903
1661.000000	92.091597
1662.000000	92.110720
1663.000000	92.134283
1664.000000	92.150999
1665.000000	92.179902
1666.000000	92.197396
1667.000000	92.125926
1668.000000	92.124469
1669.000000	92.122307
1670.000000	92.094438
1671.000000	92.040848
1672.000000	91.922098
1673.000000	91.843641
1674.000000	91.821060
1675.000000	91.798867
1676.000000	91.759882
1677.000000	91.742513
1678.000000	91.705805
1679.000000	91.649896
1680.000000	91.562375
1681.000000	91.519837
1682.000000	91.447025
1683.000000	91.364769
1684.000000	91.309069
1685.000000	91.213066
1686.000000	91.121527
1687.000000	91.000849
1688.000000	90.882649
1689.000000	90.800617
1690.000000	90.693377
1691.000000	90.641777
1692.000000	90.575119
1693.000000	90.500279
1694.000000	90.432720
1695.000000	90.373587
1696.000000	90.295588
1697.000000	90.213921
1698.000000	90.125320
1699.000000	90.031029
1700.000000	89.922861
1701.000000	89.850269
1702.000000	89.799304
1703.000000	89.708958
1704.000000	89.658719
1705.000000	89.610837
1706.000000	89.584702
1707.000000	89.589028
1708.000000	89.531967
1709.000000	89.467702
1710.000000	89.427989
1711.000000	89.396025
1712.000000	89.337096
1713.000000	89.290107
1714.000000	89.204343
1715.000000	89.197920
1716.000000	89.127148
1717.000000	89.057997
1718.000000	88.987431
1719.000000	88.911537
1720.000000	88.859254
1721.000000	88.825415
1722.000000	88.760460
1723.000000	88.703563
1724.000000	88.618500
1725.000000	88.560867
1726.000000	88.498820
1727.000000	88.447004
1728.000000	88.387048
1729.000000	88.319396
1730.000000	88.287426
1731.000000	88.234899
1732.000000	88.168572
1733.000000	88.104163
1734.000000	88.050769
1735.000000	88.004916
1736.000000	87.969492
1737.000000	87.916267
1738.000000	87.887629
1739.000000	87.842775
1740.000000	87.813418
1741.000000	87.741969
1742.000000	87.662908
1743.000000	87.662255
1744.000000	87.640036
1745.000000	87.596059
1746.000000	87.545051
1747.000000	87.539346
1748.000000	87.497539
1749.000000	87.504661
1750.000000	87.485203
1751.000000	87.505273
1752.000000	87.521962
1753.000000	87.550360
1754.000000	87.579760
1755.000000	87.597233
1756.000000	87.599407
1757.000000	87.668799
1758.000000	87.717735
1759.000000	87.756941
1760.000000	87.799563
1761.000000	87.800945
1762.000000	87.810438
1763.000000	87.839202
1764.000000	87.894063
1765.000000	87.918334
1766.000000	87.953296
1767.000000	87.984171
1768.000000	88.019434
1769.000000	88.027784
1770.000000	88.073914
1771.000000	88.082119
1772.000000	88.104364
1773.000000	88.115190
1774.000000	88.149982
1775.000000	88.164589
1776.000000	88.217145
1777.000000	88.279733
1778.000000	88.302418
1779.000000	88.321643
1780.000000	88.376530
1781.000000	88.438141
1782.000000	88.453455
1783.000000	88.510653
1784.000000	88.582934
1785.000000	88.647890
1786.000000	88.680451
1787.000000	88.708917
1788.000000	88.760983
1789.000000	88.799504
1790.000000	88.840241
1791.000000	88.866188
1792.000000	88.852840
1793.000000	88.854619
1794.000000	88.885562
1795.000000	88.894388
1796.000000	88.926731
1797.000000	88.953278
1798.000000	88.979211
1799.000000	89.043033
1800.000000	89.091903
1801.000000	89.096797
1802.000000	89.120042
1803.000000	89.118922
1804.000000	89.167693
1805.000000	89.219967
1806.000000	89.273854
1807.000000	89.330234
1808.000000	89.383186
1809.000000	89.403135
1810.000000	89.463416
1811.000000	89.479984
1812.000000	89.498775
1813.000000	89.491444
1814.000000	89.539784
1815.000000	89.589519
1816.000000	89.568080
1817.000000	89.657449
1818.000000	89.770887
1819.000000	89.839854
1820.000000	89.930816
1821.000000	89.942002
1822.000000	89.963897
1823.000000	89.952134
1824.000000	89.966279
1825.000000	90.037996
1826.000000	90.125863
1827.000000	90.154990
1828.000000	90.163266
1829.000000	90.173426
1830.000000	90.255078
1831.000000	90.338410
1832.000000	90.391845
1833.000000	90.368564
1834.000000	90.332397
1835.000000	90.386279
1836.000000	90.482426
1837.000000	90.510232
1838.000000	90.493779
1839.000000	90.432142
1840.000000	90.357879
1841.000000	90.379089
1842.000000	90.437548
1843.000000	90.476787
1844.000000	90.485876
1845.000000	90.460768
1846.000000	90.494655
1847.000000	90.630185
1848.000000	90.703567
1849.000000	90.709437
1850.000000	90.679962
1851.000000	90.672956
1852.000000	90.612538
1853.000000	90.540722
1854.000000	90.453087
1855.000000	90.427367
1856.000000	90.550945
1857.000000	90.603590
1858.000000	90.620705
1859.000000	90.658132
1860.000000	90.588212
1861.000000	90.507509
1862.000000	90.537315
1863.000000	90.578439
1864.000000	90.545970
1865.000000	90.439131
1866.000000	90.381636
1867.000000	90.358211
1868.000000	90.370061
1869.000000	90.376061
1870.000000	90.394520
1871.000000	90.260290
1872.000000	90.310117
1873.000000	90.370461
1874.000000	90.403078
1875.000000	90.413668
1876.000000	90.430787
1877.000000	90.360430
1878.000000	90.252665
1879.000000	90.140271
1880.000000	90.069378
1881.000000	89.954367
1882.000000	89.722361
1883.000000	89.640984
1884.000000	89.524162
1885.000000	89.370852
1886.000000	89.309115
1887.000000	89.153626
1888.000000	88.941553
1889.000000	88.811452
1890.000000	88.545409
1891.000000	88.258783
1892.000000	88.020682
1893.000000	87.802207
1894.000000	87.522735
1895.000000	87.267991
1896.000000	86.983612
1897.000000	86.636455
1898.000000	86.332441
1899.000000	86.070032
1900.000000	85.754000
1901.000000	85.338310
1902.000000	85.001289
1903.000000	84.621415
1904.000000	84.274653
1905.000000	83.753304
1906.000000	83.398428
1907.000000	82.861700
1908.000000	82.381625
1909.000000	81.917438
1910.000000	81.438834
1911.000000	80.836573
1912.000000	80.318568
1913.000000	79.877076
1914.000000	79.418898
1915.000000	78.960656
1916.000000	78.445160
1917.000000	77.943725
1918.000000	77.332555
1919.000000	76.869027
1920.000000	76.436297
1921.000000	75.899800
1922.000000	75.444560
1923.000000	75.023461
1924.000000	74.541027
1925.000000	74.085089
1926.000000	73.620958
1927.000000	73.163461
1928.000000	72.722710
1929.000000	72.325678
1930.000000	71.972104
1931.000000	71.631683
1932.000000	71.267847
1933.000000	70.894962
1934.000000	70.511444
1935.000000	70.210680
1936.000000	69.945220
1937.000000	69.636586
1938.000000	69.405978
1939.000000	69.093322
1940.000000	68.886744
1941.000000	68.651813
1942.000000	68.462720
1943.000000	68.267850
1944.000000	68.126673
1945.000000	67.989899
1946.000000	67.911113
1947.000000	67.769250
1948.000000	67.657239
1949.000000	67.565191
1950.000000	67.449295
1951.000000	67.396040
1952.000000	67.405096
1953.000000	67.426695
1954.000000	67.346235
1955.000000	67.299912
1956.000000	67.329745
1957.000000	67.330019
1958.000000	67.358503
1959.000000	67.368583
1960.000000	67.422072
1961.000000	67.471899
1962.000000	67.540538
1963.000000	67.610885
1964.000000	67.690649
1965.000000	67.733792
1966.000000	67.786603
1967.000000	67.905480
1968.000000	67.984013
1969.000000	68.121230
1970.000000	68.234752
1971.000000	68.353198
1972.000000	68.418520
1973.000000	68.529726
1974.000000	68.639095
1975.000000	68.751814
1976.000000	68.890994
1977.000000	69.019866
1978.000000	69.159856
1979.000000	69.276308
1980.000000	69.409196
1981.000000	69.514011
1982.000000	69.670681
1983.000000	69.803062
1984.000000	69.965892
1985.000000	70.143090
1986.000000	70.305125
1987.000000	70.417232
1988.000000	70.559021
1989.000000	70.761289
1990.000000	70.929877
1991.000000	71.080464
1992.000000	71.204145
1993.000000	71.310921
1994.000000	71.447531
1995.000000	71.560745
1996.000000	71.685111
1997.000000	71.814131
1998.000000	71.969688
1999.000000	72.077489
2000.000000	72.221111
