PE UV       SUBTECH     SPECTRUM    ASCII       PEDS        4.00        
   -1
3-NI #001.ASC
23/11/20
16:23:20.00
23/11/20
16:23:20.00
Vinicio Soto Monge

250,000000
1
Lambda 1050
1050L1511233
PerkinElmer UV WinLab 6.3.2.0749 / 2.02.05 Lambda 900 UV/VIS/NIR, Aug  7 2015 09:38:08

0
0
3350/servo 860,8/2
0
0
UV/VIS
1
1
1
DoubleDePol,CommonBeamDepol,RBeamAtt,SBeamAtt,60mm sphere, WB InGaAs Detector
0
0
0
0
Program
Program
3350/servo 860,8/2
3350/0,4 860,8/0,4
3350/0,4 860,8/0,4
0
20.00
 
 
 
0
 
860,8
319,2
860,8
Front
100
on
S:100 R:100
0
0
0
0
 
0
 
 
 
0
 
 
0
0
0
0
0
 
 
 
 
0
0


0
0
#HDR
-1
-1
#GR
nm
%R
1.0
0.0
2200,000000
-1,000000
1951
8
100,873198
7,473757
#DATA
284.000000	7.890996
285.000000	7.866180
286.000000	7.843086
287.000000	7.822131
288.000000	7.803699
289.000000	7.785543
290.000000	7.768330
291.000000	7.752251
292.000000	7.734909
293.000000	7.718903
294.000000	7.703898
295.000000	7.688660
296.000000	7.676032
297.000000	7.663234
298.000000	7.650059
299.000000	7.637585
300.000000	7.627107
301.000000	7.616456
302.000000	7.607328
303.000000	7.598407
304.000000	7.588488
305.000000	7.579530
306.000000	7.569367
307.000000	7.557206
308.000000	7.549061
309.000000	7.537557
310.000000	7.527654
311.000000	7.516335
312.000000	7.504342
313.000000	7.494144
314.000000	7.483335
315.000000	7.472226
316.000000	7.460060
317.000000	7.447797
318.000000	7.438816
319.000000	7.425827
320.000000	7.417057
321.000000	7.408101
322.000000	7.398497
323.000000	7.384440
324.000000	7.373623
325.000000	7.360213
326.000000	7.347910
327.000000	7.337419
328.000000	7.326729
329.000000	7.314395
330.000000	7.303646
331.000000	7.290931
332.000000	7.278245
333.000000	7.265167
334.000000	7.253780
335.000000	7.237154
336.000000	7.222746
337.000000	7.211185
338.000000	7.197180
339.000000	7.182984
340.000000	7.169272
341.000000	7.156214
342.000000	7.144487
343.000000	7.131615
344.000000	7.122811
345.000000	7.112342
346.000000	7.100731
347.000000	7.089113
348.000000	7.077767
349.000000	7.066965
350.000000	7.057157
351.000000	7.048141
352.000000	7.038511
353.000000	7.028690
354.000000	7.021487
355.000000	7.010903
356.000000	7.000135
357.000000	6.989463
358.000000	6.983319
359.000000	6.975093
360.000000	6.968424
361.000000	6.960138
362.000000	6.950236
363.000000	6.939978
364.000000	6.931364
365.000000	6.922530
366.000000	6.914350
367.000000	6.906249
368.000000	6.900635
369.000000	6.890651
370.000000	6.885024
371.000000	6.878867
372.000000	6.869801
373.000000	6.863627
374.000000	6.856699
375.000000	6.850629
376.000000	6.841128
377.000000	6.829878
378.000000	6.817312
379.000000	6.804521
380.000000	6.791057
381.000000	6.779095
382.000000	6.767348
383.000000	6.754754
384.000000	6.742434
385.000000	6.728576
386.000000	6.714720
387.000000	6.701557
388.000000	6.686888
389.000000	6.673171
390.000000	6.658849
391.000000	6.644577
392.000000	6.630832
393.000000	6.615948
394.000000	6.600883
395.000000	6.587312
396.000000	6.573974
397.000000	6.562214
398.000000	6.550044
399.000000	6.536841
400.000000	6.523537
401.000000	6.510482
402.000000	6.498071
403.000000	6.483616
404.000000	6.472342
405.000000	6.459990
406.000000	6.447043
407.000000	6.433482
408.000000	6.419445
409.000000	6.407287
410.000000	6.394735
411.000000	6.384771
412.000000	6.377631
413.000000	6.370629
414.000000	6.363499
415.000000	6.356602
416.000000	6.350006
417.000000	6.343722
418.000000	6.337472
419.000000	6.331075
420.000000	6.325413
421.000000	6.319741
422.000000	6.314158
423.000000	6.308528
424.000000	6.303173
425.000000	6.298055
426.000000	6.292846
427.000000	6.287773
428.000000	6.282655
429.000000	6.277767
430.000000	6.272874
431.000000	6.268097
432.000000	6.263496
433.000000	6.258990
434.000000	6.254442
435.000000	6.249981
436.000000	6.245589
437.000000	6.241189
438.000000	6.236945
439.000000	6.232631
440.000000	6.228412
441.000000	6.224562
442.000000	6.220757
443.000000	6.216907
444.000000	6.213169
445.000000	6.209222
446.000000	6.205235
447.000000	6.201356
448.000000	6.197737
449.000000	6.193935
450.000000	6.189797
451.000000	6.185805
452.000000	6.182217
453.000000	6.178555
454.000000	6.174819
455.000000	6.170994
456.000000	6.167101
457.000000	6.163220
458.000000	6.159694
459.000000	6.156240
460.000000	6.152783
461.000000	6.149367
462.000000	6.146172
463.000000	6.142972
464.000000	6.139541
465.000000	6.136345
466.000000	6.133181
467.000000	6.129890
468.000000	6.126810
469.000000	6.124015
470.000000	6.121454
471.000000	6.119085
472.000000	6.117020
473.000000	6.115274
474.000000	6.113911
475.000000	6.112448
476.000000	6.110933
477.000000	6.110217
478.000000	6.110168
479.000000	6.110385
480.000000	6.111157
481.000000	6.112563
482.000000	6.114652
483.000000	6.117422
484.000000	6.121002
485.000000	6.125365
486.000000	6.130298
487.000000	6.135903
488.000000	6.142622
489.000000	6.150516
490.000000	6.159302
491.000000	6.168921
492.000000	6.179587
493.000000	6.190913
494.000000	6.203335
495.000000	6.216997
496.000000	6.232197
497.000000	6.248913
498.000000	6.267320
499.000000	6.287678
500.000000	6.309678
501.000000	6.333634
502.000000	6.360145
503.000000	6.389074
504.000000	6.420392
505.000000	6.454504
506.000000	6.491482
507.000000	6.531287
508.000000	6.573667
509.000000	6.618900
510.000000	6.667231
511.000000	6.718881
512.000000	6.773212
513.000000	6.830556
514.000000	6.891199
515.000000	6.955017
516.000000	7.021583
517.000000	7.090817
518.000000	7.163071
519.000000	7.238168
520.000000	7.316160
521.000000	7.397249
522.000000	7.481157
523.000000	7.567773
524.000000	7.657051
525.000000	7.748905
526.000000	7.843387
527.000000	7.940326
528.000000	8.040105
529.000000	8.142180
530.000000	8.246298
531.000000	8.352457
532.000000	8.460489
533.000000	8.569926
534.000000	8.680521
535.000000	8.792163
536.000000	8.904659
537.000000	9.017457
538.000000	9.129738
539.000000	9.241848
540.000000	9.352997
541.000000	9.462834
542.000000	9.571244
543.000000	9.677880
544.000000	9.782106
545.000000	9.883859
546.000000	9.982648
547.000000	10.078401
548.000000	10.170723
549.000000	10.258872
550.000000	10.342990
551.000000	10.423339
552.000000	10.499727
553.000000	10.572073
554.000000	10.640426
555.000000	10.704690
556.000000	10.764939
557.000000	10.821377
558.000000	10.874267
559.000000	10.923644
560.000000	10.969581
561.000000	11.012624
562.000000	11.052733
563.000000	11.089849
564.000000	11.124264
565.000000	11.156112
566.000000	11.185314
567.000000	11.212452
568.000000	11.237375
569.000000	11.260486
570.000000	11.281716
571.000000	11.300876
572.000000	11.318358
573.000000	11.334566
574.000000	11.349386
575.000000	11.362822
576.000000	11.375190
577.000000	11.386424
578.000000	11.396878
579.000000	11.407012
580.000000	11.416182
581.000000	11.424367
582.000000	11.432434
583.000000	11.440155
584.000000	11.448547
585.000000	11.456508
586.000000	11.464845
587.000000	11.473569
588.000000	11.482767
589.000000	11.492239
590.000000	11.501988
591.000000	11.511940
592.000000	11.521940
593.000000	11.531647
594.000000	11.541591
595.000000	11.551679
596.000000	11.561521
597.000000	11.570753
598.000000	11.580008
599.000000	11.588880
600.000000	11.597607
601.000000	11.605710
602.000000	11.614056
603.000000	11.622468
604.000000	11.631009
605.000000	11.639776
606.000000	11.649445
607.000000	11.659874
608.000000	11.671230
609.000000	11.683951
610.000000	11.698153
611.000000	11.714141
612.000000	11.732275
613.000000	11.752445
614.000000	11.774989
615.000000	11.801074
616.000000	11.830152
617.000000	11.862218
618.000000	11.898243
619.000000	11.937134
620.000000	11.980097
621.000000	12.026977
622.000000	12.077854
623.000000	12.132982
624.000000	12.192312
625.000000	12.256207
626.000000	12.324355
627.000000	12.397105
628.000000	12.474958
629.000000	12.556850
630.000000	12.643596
631.000000	12.735347
632.000000	12.831937
633.000000	12.933442
634.000000	13.039809
635.000000	13.150947
636.000000	13.267198
637.000000	13.387533
638.000000	13.512321
639.000000	13.641944
640.000000	13.776255
641.000000	13.914745
642.000000	14.057199
643.000000	14.204640
644.000000	14.355864
645.000000	14.511306
646.000000	14.670712
647.000000	14.833752
648.000000	15.000590
649.000000	15.171629
650.000000	15.346140
651.000000	15.525105
652.000000	15.707653
653.000000	15.893251
654.000000	16.083005
655.000000	16.276150
656.000000	16.472334
657.000000	16.671571
658.000000	16.873496
659.000000	17.078410
660.000000	17.285866
661.000000	17.496333
662.000000	17.709098
663.000000	17.924291
664.000000	18.142592
665.000000	18.363302
666.000000	18.585918
667.000000	18.811139
668.000000	19.038753
669.000000	19.268251
670.000000	19.499796
671.000000	19.733173
672.000000	19.968719
673.000000	20.206387
674.000000	20.445402
675.000000	20.686016
676.000000	20.928410
677.000000	21.171854
678.000000	21.416439
679.000000	21.662939
680.000000	21.911182
681.000000	22.160695
682.000000	22.411916
683.000000	22.665242
684.000000	22.918888
685.000000	23.173030
686.000000	23.428006
687.000000	23.683519
688.000000	23.940057
689.000000	24.197919
690.000000	24.456817
691.000000	24.717565
692.000000	24.978995
693.000000	25.240731
694.000000	25.503820
695.000000	25.767394
696.000000	26.032541
697.000000	26.298513
698.000000	26.564442
699.000000	26.830797
700.000000	27.098278
701.000000	27.366851
702.000000	27.636185
703.000000	27.905009
704.000000	28.174793
705.000000	28.444359
706.000000	28.715365
707.000000	28.986910
708.000000	29.259032
709.000000	29.531496
710.000000	29.804077
711.000000	30.077364
712.000000	30.351911
713.000000	30.626735
714.000000	30.901724
715.000000	31.176004
716.000000	31.450677
717.000000	31.725999
718.000000	32.001077
719.000000	32.276538
720.000000	32.553169
721.000000	32.830457
722.000000	33.107788
723.000000	33.385137
724.000000	33.662473
725.000000	33.938824
726.000000	34.214125
727.000000	34.490689
728.000000	34.768326
729.000000	35.045178
730.000000	35.323198
731.000000	35.600724
732.000000	35.877921
733.000000	36.154926
734.000000	36.430684
735.000000	36.707334
736.000000	36.984123
737.000000	37.260138
738.000000	37.537531
739.000000	37.813988
740.000000	38.090674
741.000000	38.366797
742.000000	38.642445
743.000000	38.918088
744.000000	39.192650
745.000000	39.467431
746.000000	39.742012
747.000000	40.015786
748.000000	40.290870
749.000000	40.565766
750.000000	40.840277
751.000000	41.115133
752.000000	41.389672
753.000000	41.663400
754.000000	41.936090
755.000000	42.208223
756.000000	42.480030
757.000000	42.751541
758.000000	43.022238
759.000000	43.290473
760.000000	43.559302
761.000000	43.829029
762.000000	44.097778
763.000000	44.365954
764.000000	44.634290
765.000000	44.901921
766.000000	45.169186
767.000000	45.435416
768.000000	45.701129
769.000000	45.969341
770.000000	46.234976
771.000000	46.498948
772.000000	46.762658
773.000000	47.025600
774.000000	47.288548
775.000000	47.551131
776.000000	47.813066
777.000000	48.074788
778.000000	48.335144
779.000000	48.594524
780.000000	48.855376
781.000000	49.113793
782.000000	49.372054
783.000000	49.627809
784.000000	49.883205
785.000000	50.139203
786.000000	50.392782
787.000000	50.644369
788.000000	50.894142
789.000000	51.146046
790.000000	51.398054
791.000000	51.649428
792.000000	51.898257
793.000000	52.146530
794.000000	52.395875
795.000000	52.643220
796.000000	52.892262
797.000000	53.139770
798.000000	53.385856
799.000000	53.630967
800.000000	53.875734
801.000000	54.120494
802.000000	54.364638
803.000000	54.608819
804.000000	54.851113
805.000000	55.091024
806.000000	55.331773
807.000000	55.570504
808.000000	55.808431
809.000000	56.045346
810.000000	56.280693
811.000000	56.515699
812.000000	56.750150
813.000000	56.984894
814.000000	57.220458
815.000000	57.453410
816.000000	57.684689
817.000000	57.916501
818.000000	58.147163
819.000000	58.374840
820.000000	58.602668
821.000000	58.831784
822.000000	59.056714
823.000000	59.284221
824.000000	59.506051
825.000000	59.724994
826.000000	59.944268
827.000000	60.165976
828.000000	60.386312
829.000000	60.608232
830.000000	60.830715
831.000000	61.046606
832.000000	61.263138
833.000000	61.478982
834.000000	61.692617
835.000000	61.910822
836.000000	62.121831
837.000000	62.330242
838.000000	62.542355
839.000000	62.752072
840.000000	62.959252
841.000000	63.165477
842.000000	63.367687
843.000000	63.565696
844.000000	63.776262
845.000000	63.985488
846.000000	64.186988
847.000000	64.390097
848.000000	64.588503
849.000000	64.785186
850.000000	64.973680
851.000000	65.170929
852.000000	65.366539
853.000000	65.563425
854.000000	65.754607
855.000000	65.940276
856.000000	66.135201
857.000000	66.328830
858.000000	66.540377
859.000000	66.774489
860.000000	66.993034
861.000000	67.238869
862.000000	67.444740
863.000000	67.639132
864.000000	67.856080
865.000000	68.077699
866.000000	68.272605
867.000000	68.490480
868.000000	68.690781
869.000000	68.890922
870.000000	69.100519
871.000000	69.289858
872.000000	69.486912
873.000000	69.721864
874.000000	69.917218
875.000000	70.122563
876.000000	70.325130
877.000000	70.524852
878.000000	70.732414
879.000000	70.918078
880.000000	71.097761
881.000000	71.296766
882.000000	71.491700
883.000000	71.696022
884.000000	71.903952
885.000000	72.110997
886.000000	72.290140
887.000000	72.483275
888.000000	72.668477
889.000000	72.885019
890.000000	73.069626
891.000000	73.238431
892.000000	73.412695
893.000000	73.582396
894.000000	73.729091
895.000000	73.887454
896.000000	74.019352
897.000000	74.182317
898.000000	74.345607
899.000000	74.474495
900.000000	74.630794
901.000000	74.795854
902.000000	74.941914
903.000000	75.096031
904.000000	75.251615
905.000000	75.381829
906.000000	75.527879
907.000000	75.672116
908.000000	75.790759
909.000000	75.956946
910.000000	76.090481
911.000000	76.226463
912.000000	76.377629
913.000000	76.527238
914.000000	76.708554
915.000000	76.862871
916.000000	77.000779
917.000000	77.131832
918.000000	77.253923
919.000000	77.380425
920.000000	77.512305
921.000000	77.676790
922.000000	77.791347
923.000000	77.918312
924.000000	78.008794
925.000000	78.162373
926.000000	78.318982
927.000000	78.465100
928.000000	78.569317
929.000000	78.673855
930.000000	78.804077
931.000000	78.916480
932.000000	79.019694
933.000000	79.159984
934.000000	79.297616
935.000000	79.403852
936.000000	79.543047
937.000000	79.651278
938.000000	79.755544
939.000000	79.897093
940.000000	80.046766
941.000000	80.187643
942.000000	80.338610
943.000000	80.439428
944.000000	80.544563
945.000000	80.678152
946.000000	80.826370
947.000000	80.956498
948.000000	81.050796
949.000000	81.118720
950.000000	81.224178
951.000000	81.318884
952.000000	81.401075
953.000000	81.523818
954.000000	81.636263
955.000000	81.720762
956.000000	81.807023
957.000000	81.917213
958.000000	82.015957
959.000000	82.137700
960.000000	82.222556
961.000000	82.314836
962.000000	82.428253
963.000000	82.554955
964.000000	82.672850
965.000000	82.781034
966.000000	82.879896
967.000000	82.995912
968.000000	83.073128
969.000000	83.177118
970.000000	83.290355
971.000000	83.365100
972.000000	83.476980
973.000000	83.587150
974.000000	83.651397
975.000000	83.736504
976.000000	83.843338
977.000000	83.926783
978.000000	84.015531
979.000000	84.090777
980.000000	84.160393
981.000000	84.215731
982.000000	84.297711
983.000000	84.398540
984.000000	84.496407
985.000000	84.594232
986.000000	84.714201
987.000000	84.846386
988.000000	84.938902
989.000000	85.025718
990.000000	85.116659
991.000000	85.217132
992.000000	85.335254
993.000000	85.458775
994.000000	85.553460
995.000000	85.656861
996.000000	85.766486
997.000000	85.860258
998.000000	85.953177
999.000000	86.064743
1000.000000	86.174835
1001.000000	86.282178
1002.000000	86.369095
1003.000000	86.465888
1004.000000	86.536502
1005.000000	86.598358
1006.000000	86.674173
1007.000000	86.759744
1008.000000	86.870767
1009.000000	86.962896
1010.000000	87.033851
1011.000000	87.118685
1012.000000	87.183821
1013.000000	87.264293
1014.000000	87.362630
1015.000000	87.453652
1016.000000	87.550755
1017.000000	87.634949
1018.000000	87.725609
1019.000000	87.803331
1020.000000	87.879576
1021.000000	87.938788
1022.000000	87.997019
1023.000000	88.071755
1024.000000	88.163036
1025.000000	88.254458
1026.000000	88.309432
1027.000000	88.369529
1028.000000	88.421272
1029.000000	88.458054
1030.000000	88.533392
1031.000000	88.589136
1032.000000	88.631152
1033.000000	88.686726
1034.000000	88.730234
1035.000000	88.746033
1036.000000	88.802667
1037.000000	88.877344
1038.000000	88.954874
1039.000000	89.051421
1040.000000	89.135021
1041.000000	89.205654
1042.000000	89.276508
1043.000000	89.355488
1044.000000	89.444645
1045.000000	89.524585
1046.000000	89.568940
1047.000000	89.651404
1048.000000	89.758147
1049.000000	89.824527
1050.000000	89.870962
1051.000000	89.906387
1052.000000	89.960673
1053.000000	90.019845
1054.000000	90.088187
1055.000000	90.162888
1056.000000	90.227927
1057.000000	90.294198
1058.000000	90.336258
1059.000000	90.353607
1060.000000	90.402435
1061.000000	90.462922
1062.000000	90.510199
1063.000000	90.547235
1064.000000	90.628037
1065.000000	90.666456
1066.000000	90.718850
1067.000000	90.787796
1068.000000	90.839763
1069.000000	90.911292
1070.000000	91.000402
1071.000000	91.051146
1072.000000	91.082041
1073.000000	91.115020
1074.000000	91.158672
1075.000000	91.207314
1076.000000	91.285510
1077.000000	91.328059
1078.000000	91.338122
1079.000000	91.368768
1080.000000	91.413938
1081.000000	91.455785
1082.000000	91.487973
1083.000000	91.521732
1084.000000	91.579261
1085.000000	91.646939
1086.000000	91.723011
1087.000000	91.752503
1088.000000	91.784410
1089.000000	91.822127
1090.000000	91.857933
1091.000000	91.909486
1092.000000	91.966772
1093.000000	92.037344
1094.000000	92.123707
1095.000000	92.186374
1096.000000	92.244527
1097.000000	92.289642
1098.000000	92.360928
1099.000000	92.415665
1100.000000	92.453956
1101.000000	92.478166
1102.000000	92.526119
1103.000000	92.564453
1104.000000	92.614829
1105.000000	92.619863
1106.000000	92.662013
1107.000000	92.726677
1108.000000	92.782737
1109.000000	92.856112
1110.000000	92.865275
1111.000000	92.882974
1112.000000	92.915529
1113.000000	92.961189
1114.000000	93.002967
1115.000000	93.033849
1116.000000	93.074483
1117.000000	93.104136
1118.000000	93.138603
1119.000000	93.158237
1120.000000	93.205235
1121.000000	93.259136
1122.000000	93.353429
1123.000000	93.448131
1124.000000	93.516240
1125.000000	93.565855
1126.000000	93.582208
1127.000000	93.615034
1128.000000	93.651388
1129.000000	93.699406
1130.000000	93.719508
1131.000000	93.741930
1132.000000	93.765916
1133.000000	93.790682
1134.000000	93.855357
1135.000000	93.900786
1136.000000	93.961147
1137.000000	93.981737
1138.000000	94.039562
1139.000000	94.035383
1140.000000	94.079893
1141.000000	94.108113
1142.000000	94.129656
1143.000000	94.134840
1144.000000	94.130498
1145.000000	94.205561
1146.000000	94.251033
1147.000000	94.271748
1148.000000	94.324318
1149.000000	94.352866
1150.000000	94.368595
1151.000000	94.406112
1152.000000	94.468506
1153.000000	94.474339
1154.000000	94.491096
1155.000000	94.503805
1156.000000	94.532983
1157.000000	94.522393
1158.000000	94.481872
1159.000000	94.433940
1160.000000	94.419275
1161.000000	94.456136
1162.000000	94.469655
1163.000000	94.450836
1164.000000	94.419647
1165.000000	94.449266
1166.000000	94.459044
1167.000000	94.480506
1168.000000	94.445364
1169.000000	94.365759
1170.000000	94.323079
1171.000000	94.320712
1172.000000	94.319187
1173.000000	94.312506
1174.000000	94.351349
1175.000000	94.347663
1176.000000	94.330792
1177.000000	94.332472
1178.000000	94.354245
1179.000000	94.348662
1180.000000	94.353806
1181.000000	94.373121
1182.000000	94.399916
1183.000000	94.385857
1184.000000	94.417784
1185.000000	94.440011
1186.000000	94.416870
1187.000000	94.383606
1188.000000	94.397945
1189.000000	94.394186
1190.000000	94.401252
1191.000000	94.359809
1192.000000	94.344821
1193.000000	94.331891
1194.000000	94.378952
1195.000000	94.398053
1196.000000	94.387812
1197.000000	94.385742
1198.000000	94.431039
1199.000000	94.465515
1200.000000	94.478423
1201.000000	94.500904
1202.000000	94.490113
1203.000000	94.544682
1204.000000	94.592258
1205.000000	94.649644
1206.000000	94.675615
1207.000000	94.697033
1208.000000	94.706853
1209.000000	94.695649
1210.000000	94.719403
1211.000000	94.781058
1212.000000	94.815430
1213.000000	94.844200
1214.000000	94.861402
1215.000000	94.866144
1216.000000	94.868911
1217.000000	94.887336
1218.000000	94.930238
1219.000000	94.914655
1220.000000	94.921106
1221.000000	94.972044
1222.000000	95.024721
1223.000000	95.047825
1224.000000	95.076912
1225.000000	95.088615
1226.000000	95.153243
1227.000000	95.199949
1228.000000	95.251595
1229.000000	95.251783
1230.000000	95.287632
1231.000000	95.335952
1232.000000	95.369496
1233.000000	95.369399
1234.000000	95.382221
1235.000000	95.406720
1236.000000	95.449991
1237.000000	95.520149
1238.000000	95.561712
1239.000000	95.595799
1240.000000	95.631520
1241.000000	95.649252
1242.000000	95.670007
1243.000000	95.698920
1244.000000	95.740084
1245.000000	95.781998
1246.000000	95.792340
1247.000000	95.818541
1248.000000	95.866496
1249.000000	95.900173
1250.000000	95.918849
1251.000000	95.954775
1252.000000	95.978427
1253.000000	95.962620
1254.000000	95.982958
1255.000000	96.021442
1256.000000	96.047970
1257.000000	96.057287
1258.000000	96.075036
1259.000000	96.105387
1260.000000	96.140731
1261.000000	96.111684
1262.000000	96.094281
1263.000000	96.117290
1264.000000	96.149638
1265.000000	96.161910
1266.000000	96.146589
1267.000000	96.142507
1268.000000	96.168544
1269.000000	96.187859
1270.000000	96.196399
1271.000000	96.168788
1272.000000	96.163245
1273.000000	96.186653
1274.000000	96.225668
1275.000000	96.245808
1276.000000	96.254661
1277.000000	96.291269
1278.000000	96.304776
1279.000000	96.313293
1280.000000	96.323335
1281.000000	96.342642
1282.000000	96.347842
1283.000000	96.340052
1284.000000	96.358929
1285.000000	96.389480
1286.000000	96.384327
1287.000000	96.393713
1288.000000	96.421926
1289.000000	96.446649
1290.000000	96.474135
1291.000000	96.483381
1292.000000	96.496009
1293.000000	96.518967
1294.000000	96.518948
1295.000000	96.533868
1296.000000	96.557725
1297.000000	96.585270
1298.000000	96.595713
1299.000000	96.615085
1300.000000	96.629110
1301.000000	96.654565
1302.000000	96.679516
1303.000000	96.696497
1304.000000	96.717344
1305.000000	96.721572
1306.000000	96.778218
1307.000000	96.816179
1308.000000	96.815749
1309.000000	96.827090
1310.000000	96.831514
1311.000000	96.851352
1312.000000	96.868744
1313.000000	96.893308
1314.000000	96.912993
1315.000000	96.920916
1316.000000	96.913027
1317.000000	96.922674
1318.000000	96.911865
1319.000000	96.898499
1320.000000	96.894465
1321.000000	96.927366
1322.000000	96.936953
1323.000000	96.948606
1324.000000	96.967762
1325.000000	96.951334
1326.000000	96.940836
1327.000000	96.943774
1328.000000	96.940171
1329.000000	96.964347
1330.000000	96.974342
1331.000000	96.993432
1332.000000	97.021054
1333.000000	97.058152
1334.000000	97.077335
1335.000000	97.079430
1336.000000	97.108688
1337.000000	97.137044
1338.000000	97.152534
1339.000000	97.150340
1340.000000	97.144378
1341.000000	97.124392
1342.000000	97.132608
1343.000000	97.133880
1344.000000	97.115490
1345.000000	97.102381
1346.000000	97.053544
1347.000000	97.001543
1348.000000	96.970425
1349.000000	96.968219
1350.000000	96.959268
1351.000000	96.900885
1352.000000	96.853670
1353.000000	96.822536
1354.000000	96.854133
1355.000000	96.864597
1356.000000	96.886383
1357.000000	96.888885
1358.000000	96.791911
1359.000000	96.715748
1360.000000	96.759202
1361.000000	96.849819
1362.000000	96.754651
1363.000000	96.669770
1364.000000	96.555292
1365.000000	96.373448
1366.000000	96.350901
1367.000000	96.360116
1368.000000	96.237898
1369.000000	96.270810
1370.000000	96.380802
1371.000000	96.340560
1372.000000	96.260921
1373.000000	96.142731
1374.000000	96.135912
1375.000000	96.105239
1376.000000	96.112812
1377.000000	95.998770
1378.000000	95.930304
1379.000000	95.764692
1380.000000	95.426777
1381.000000	95.244097
1382.000000	95.246424
1383.000000	95.248820
1384.000000	95.336598
1385.000000	95.325192
1386.000000	95.328067
1387.000000	95.500378
1388.000000	95.511949
1389.000000	95.532526
1390.000000	95.515899
1391.000000	95.452668
1392.000000	95.264486
1393.000000	95.280583
1394.000000	95.395287
1395.000000	95.215446
1396.000000	94.848301
1397.000000	94.806260
1398.000000	94.766757
1399.000000	94.773995
1400.000000	94.901151
1401.000000	94.758809
1402.000000	94.637802
1403.000000	94.607952
1404.000000	94.596915
1405.000000	94.382418
1406.000000	94.319528
1407.000000	94.218084
1408.000000	94.222110
1409.000000	94.109939
1410.000000	94.024317
1411.000000	93.882914
1412.000000	93.805343
1413.000000	93.785407
1414.000000	93.878536
1415.000000	94.080450
1416.000000	94.155705
1417.000000	94.085466
1418.000000	94.068727
1419.000000	93.836886
1420.000000	93.723369
1421.000000	93.617092
1422.000000	93.355062
1423.000000	93.282046
1424.000000	93.126539
1425.000000	92.974999
1426.000000	92.827631
1427.000000	92.842889
1428.000000	92.756480
1429.000000	92.555861
1430.000000	92.535755
1431.000000	92.635790
1432.000000	92.552838
1433.000000	92.488831
1434.000000	92.391914
1435.000000	92.266456
1436.000000	92.243740
1437.000000	92.187511
1438.000000	92.154205
1439.000000	91.971771
1440.000000	91.877143
1441.000000	91.768736
1442.000000	91.776230
1443.000000	91.685542
1444.000000	91.606470
1445.000000	91.643503
1446.000000	91.586542
1447.000000	91.543002
1448.000000	91.441768
1449.000000	91.352206
1450.000000	91.316707
1451.000000	91.256168
1452.000000	91.140834
1453.000000	90.977921
1454.000000	90.912591
1455.000000	90.853417
1456.000000	90.846076
1457.000000	90.758363
1458.000000	90.667036
1459.000000	90.563009
1460.000000	90.467855
1461.000000	90.422045
1462.000000	90.351006
1463.000000	90.258447
1464.000000	90.189104
1465.000000	90.130750
1466.000000	90.092969
1467.000000	90.082363
1468.000000	90.072002
1469.000000	90.074309
1470.000000	90.046201
1471.000000	90.010576
1472.000000	89.938945
1473.000000	89.869911
1474.000000	89.784597
1475.000000	89.733799
1476.000000	89.700540
1477.000000	89.622634
1478.000000	89.558888
1479.000000	89.530887
1480.000000	89.410034
1481.000000	89.391096
1482.000000	89.356976
1483.000000	89.305568
1484.000000	89.227967
1485.000000	89.187656
1486.000000	89.171291
1487.000000	89.155360
1488.000000	89.109082
1489.000000	89.102001
1490.000000	89.075352
1491.000000	89.031364
1492.000000	89.031900
1493.000000	88.993230
1494.000000	88.984394
1495.000000	89.007288
1496.000000	88.996022
1497.000000	89.027893
1498.000000	89.069838
1499.000000	89.061677
1500.000000	89.051319
1501.000000	89.057146
1502.000000	89.055941
1503.000000	89.030837
1504.000000	89.035424
1505.000000	89.019627
1506.000000	89.027124
1507.000000	89.039214
1508.000000	89.061973
1509.000000	89.083340
1510.000000	89.107814
1511.000000	89.116074
1512.000000	89.147785
1513.000000	89.185706
1514.000000	89.198740
1515.000000	89.223460
1516.000000	89.243313
1517.000000	89.279388
1518.000000	89.340680
1519.000000	89.425885
1520.000000	89.461496
1521.000000	89.484361
1522.000000	89.519073
1523.000000	89.583168
1524.000000	89.624058
1525.000000	89.653618
1526.000000	89.689348
1527.000000	89.755661
1528.000000	89.837610
1529.000000	89.886800
1530.000000	89.914733
1531.000000	89.950731
1532.000000	89.987270
1533.000000	90.011079
1534.000000	90.042712
1535.000000	90.075993
1536.000000	90.097804
1537.000000	90.143402
1538.000000	90.184789
1539.000000	90.199956
1540.000000	90.230161
1541.000000	90.271754
1542.000000	90.315708
1543.000000	90.333586
1544.000000	90.380197
1545.000000	90.440989
1546.000000	90.482288
1547.000000	90.522214
1548.000000	90.570804
1549.000000	90.610195
1550.000000	90.623423
1551.000000	90.640511
1552.000000	90.690863
1553.000000	90.720421
1554.000000	90.748930
1555.000000	90.802487
1556.000000	90.866619
1557.000000	90.903063
1558.000000	90.916078
1559.000000	90.942736
1560.000000	90.985988
1561.000000	91.017926
1562.000000	91.012743
1563.000000	91.006669
1564.000000	91.018269
1565.000000	91.051868
1566.000000	91.062033
1567.000000	91.070428
1568.000000	91.084212
1569.000000	91.095798
1570.000000	91.098918
1571.000000	91.106083
1572.000000	91.149306
1573.000000	91.193537
1574.000000	91.229822
1575.000000	91.261883
1576.000000	91.255737
1577.000000	91.248693
1578.000000	91.261179
1579.000000	91.271923
1580.000000	91.294199
1581.000000	91.329311
1582.000000	91.348269
1583.000000	91.364471
1584.000000	91.402450
1585.000000	91.425194
1586.000000	91.445785
1587.000000	91.451443
1588.000000	91.459142
1589.000000	91.464605
1590.000000	91.460474
1591.000000	91.444918
1592.000000	91.460525
1593.000000	91.493260
1594.000000	91.500707
1595.000000	91.493761
1596.000000	91.500968
1597.000000	91.521417
1598.000000	91.562572
1599.000000	91.590904
1600.000000	91.611869
1601.000000	91.648936
1602.000000	91.669768
1603.000000	91.730939
1604.000000	91.789337
1605.000000	91.830719
1606.000000	91.873974
1607.000000	91.889895
1608.000000	91.932416
1609.000000	91.949680
1610.000000	91.965261
1611.000000	92.023790
1612.000000	92.052357
1613.000000	92.096869
1614.000000	92.111594
1615.000000	92.142847
1616.000000	92.166780
1617.000000	92.192070
1618.000000	92.213496
1619.000000	92.231565
1620.000000	92.253713
1621.000000	92.279755
1622.000000	92.316003
1623.000000	92.319807
1624.000000	92.314495
1625.000000	92.323248
1626.000000	92.350249
1627.000000	92.367709
1628.000000	92.362271
1629.000000	92.382428
1630.000000	92.423646
1631.000000	92.454452
1632.000000	92.489309
1633.000000	92.502281
1634.000000	92.536061
1635.000000	92.567271
1636.000000	92.601647
1637.000000	92.659097
1638.000000	92.669095
1639.000000	92.671774
1640.000000	92.681209
1641.000000	92.713462
1642.000000	92.738698
1643.000000	92.732336
1644.000000	92.751966
1645.000000	92.752757
1646.000000	92.728988
1647.000000	92.761673
1648.000000	92.796238
1649.000000	92.819048
1650.000000	92.834652
1651.000000	92.858460
1652.000000	92.888067
1653.000000	92.926105
1654.000000	92.946690
1655.000000	92.967168
1656.000000	92.979358
1657.000000	92.959501
1658.000000	92.992755
1659.000000	93.021591
1660.000000	93.025005
1661.000000	93.052617
1662.000000	93.043420
1663.000000	93.099727
1664.000000	93.089844
1665.000000	93.108062
1666.000000	93.096882
1667.000000	93.080776
1668.000000	93.055902
1669.000000	93.023214
1670.000000	92.983689
1671.000000	92.948713
1672.000000	92.858996
1673.000000	92.799961
1674.000000	92.780566
1675.000000	92.749302
1676.000000	92.701882
1677.000000	92.647138
1678.000000	92.605141
1679.000000	92.561675
1680.000000	92.523237
1681.000000	92.494326
1682.000000	92.431710
1683.000000	92.337483
1684.000000	92.279872
1685.000000	92.190781
1686.000000	92.105712
1687.000000	91.994468
1688.000000	91.907120
1689.000000	91.806587
1690.000000	91.733158
1691.000000	91.670557
1692.000000	91.624354
1693.000000	91.534558
1694.000000	91.449385
1695.000000	91.384429
1696.000000	91.313341
1697.000000	91.256674
1698.000000	91.166011
1699.000000	91.120493
1700.000000	91.045192
1701.000000	91.020841
1702.000000	90.961714
1703.000000	90.897188
1704.000000	90.865367
1705.000000	90.822083
1706.000000	90.797185
1707.000000	90.778250
1708.000000	90.734024
1709.000000	90.684099
1710.000000	90.650611
1711.000000	90.626777
1712.000000	90.602836
1713.000000	90.585652
1714.000000	90.529098
1715.000000	90.522522
1716.000000	90.490643
1717.000000	90.446944
1718.000000	90.418583
1719.000000	90.352539
1720.000000	90.313493
1721.000000	90.294369
1722.000000	90.255041
1723.000000	90.223657
1724.000000	90.196697
1725.000000	90.178261
1726.000000	90.139976
1727.000000	90.100070
1728.000000	90.079593
1729.000000	90.066100
1730.000000	90.060513
1731.000000	90.035155
1732.000000	90.001379
1733.000000	89.940170
1734.000000	89.915063
1735.000000	89.864673
1736.000000	89.810645
1737.000000	89.772559
1738.000000	89.788528
1739.000000	89.745606
1740.000000	89.740261
1741.000000	89.671440
1742.000000	89.629937
1743.000000	89.631152
1744.000000	89.621533
1745.000000	89.624852
1746.000000	89.594261
1747.000000	89.588409
1748.000000	89.552056
1749.000000	89.539982
1750.000000	89.512349
1751.000000	89.521626
1752.000000	89.551059
1753.000000	89.550489
1754.000000	89.580580
1755.000000	89.603828
1756.000000	89.619198
1757.000000	89.681107
1758.000000	89.700269
1759.000000	89.739558
1760.000000	89.750232
1761.000000	89.764491
1762.000000	89.792482
1763.000000	89.810666
1764.000000	89.823039
1765.000000	89.849912
1766.000000	89.853333
1767.000000	89.874679
1768.000000	89.935251
1769.000000	89.931465
1770.000000	89.966138
1771.000000	89.993394
1772.000000	90.005670
1773.000000	89.975289
1774.000000	90.031657
1775.000000	90.052163
1776.000000	90.118294
1777.000000	90.169510
1778.000000	90.199226
1779.000000	90.218445
1780.000000	90.236244
1781.000000	90.281334
1782.000000	90.302198
1783.000000	90.336061
1784.000000	90.393307
1785.000000	90.440995
1786.000000	90.461975
1787.000000	90.477657
1788.000000	90.531831
1789.000000	90.561602
1790.000000	90.571783
1791.000000	90.573759
1792.000000	90.565328
1793.000000	90.566638
1794.000000	90.573540
1795.000000	90.595634
1796.000000	90.632641
1797.000000	90.648306
1798.000000	90.683408
1799.000000	90.719715
1800.000000	90.729561
1801.000000	90.755562
1802.000000	90.783620
1803.000000	90.766302
1804.000000	90.795213
1805.000000	90.847169
1806.000000	90.895634
1807.000000	90.948189
1808.000000	90.995374
1809.000000	90.987266
1810.000000	91.005400
1811.000000	90.995628
1812.000000	90.970469
1813.000000	90.915489
1814.000000	90.924952
1815.000000	90.964870
1816.000000	90.917473
1817.000000	90.969720
1818.000000	91.085935
1819.000000	91.175374
1820.000000	91.277729
1821.000000	91.298194
1822.000000	91.296383
1823.000000	91.283074
1824.000000	91.298905
1825.000000	91.420446
1826.000000	91.523461
1827.000000	91.541380
1828.000000	91.540420
1829.000000	91.525498
1830.000000	91.592553
1831.000000	91.673061
1832.000000	91.688093
1833.000000	91.620612
1834.000000	91.581208
1835.000000	91.643740
1836.000000	91.716931
1837.000000	91.718196
1838.000000	91.682989
1839.000000	91.599605
1840.000000	91.492812
1841.000000	91.482211
1842.000000	91.495440
1843.000000	91.490047
1844.000000	91.490667
1845.000000	91.471204
1846.000000	91.502051
1847.000000	91.661630
1848.000000	91.757185
1849.000000	91.772219
1850.000000	91.746643
1851.000000	91.749353
1852.000000	91.669783
1853.000000	91.568254
1854.000000	91.468195
1855.000000	91.459250
1856.000000	91.538213
1857.000000	91.524007
1858.000000	91.513243
1859.000000	91.531992
1860.000000	91.423515
1861.000000	91.327182
1862.000000	91.357471
1863.000000	91.378334
1864.000000	91.329599
1865.000000	91.213114
1866.000000	91.136712
1867.000000	91.089350
1868.000000	91.117175
1869.000000	91.134591
1870.000000	91.138935
1871.000000	91.016061
1872.000000	91.115557
1873.000000	91.184873
1874.000000	91.247903
1875.000000	91.277379
1876.000000	91.275931
1877.000000	91.241995
1878.000000	91.188651
1879.000000	91.148813
1880.000000	91.163532
1881.000000	91.079374
1882.000000	90.879559
1883.000000	90.840570
1884.000000	90.750264
1885.000000	90.614703
1886.000000	90.581485
1887.000000	90.485208
1888.000000	90.344634
1889.000000	90.262012
1890.000000	90.023528
1891.000000	89.840565
1892.000000	89.720310
1893.000000	89.588696
1894.000000	89.401314
1895.000000	89.215381
1896.000000	88.996731
1897.000000	88.748137
1898.000000	88.530687
1899.000000	88.372254
1900.000000	88.170088
1901.000000	87.866978
1902.000000	87.680975
1903.000000	87.381281
1904.000000	87.121106
1905.000000	86.712853
1906.000000	86.433719
1907.000000	85.956801
1908.000000	85.604246
1909.000000	85.258419
1910.000000	84.927285
1911.000000	84.484698
1912.000000	84.101996
1913.000000	83.797007
1914.000000	83.416457
1915.000000	83.041275
1916.000000	82.621866
1917.000000	82.263796
1918.000000	81.782264
1919.000000	81.470288
1920.000000	81.150042
1921.000000	80.751057
1922.000000	80.395964
1923.000000	80.056956
1924.000000	79.660511
1925.000000	79.290991
1926.000000	78.899188
1927.000000	78.503216
1928.000000	78.159230
1929.000000	77.858723
1930.000000	77.575705
1931.000000	77.294818
1932.000000	76.989886
1933.000000	76.741225
1934.000000	76.453852
1935.000000	76.238185
1936.000000	76.006113
1937.000000	75.747250
1938.000000	75.603962
1939.000000	75.347331
1940.000000	75.191982
1941.000000	75.021858
1942.000000	74.922353
1943.000000	74.781522
1944.000000	74.696114
1945.000000	74.584615
1946.000000	74.535446
1947.000000	74.446055
1948.000000	74.343178
1949.000000	74.291167
1950.000000	74.208158
1951.000000	74.211488
1952.000000	74.207530
1953.000000	74.226044
1954.000000	74.120353
1955.000000	74.120721
1956.000000	74.171274
1957.000000	74.194598
1958.000000	74.245467
1959.000000	74.304071
1960.000000	74.406192
1961.000000	74.478692
1962.000000	74.601683
1963.000000	74.657245
1964.000000	74.709467
1965.000000	74.754653
1966.000000	74.868500
1967.000000	74.970372
1968.000000	75.036223
1969.000000	75.159329
1970.000000	75.232836
1971.000000	75.351902
1972.000000	75.432196
1973.000000	75.514084
1974.000000	75.642168
1975.000000	75.761508
1976.000000	75.875492
1977.000000	75.987421
1978.000000	76.085978
1979.000000	76.155659
1980.000000	76.285504
1981.000000	76.393710
1982.000000	76.523541
1983.000000	76.650010
1984.000000	76.771460
1985.000000	76.900214
1986.000000	77.017335
1987.000000	77.125476
1988.000000	77.255734
1989.000000	77.430454
1990.000000	77.556857
1991.000000	77.659377
1992.000000	77.770543
1993.000000	77.851882
1994.000000	77.941295
1995.000000	78.015328
1996.000000	78.109307
1997.000000	78.196015
1998.000000	78.313425
1999.000000	78.403645
2000.000000	78.523923
