Time1=100ms:Average1=5:Objective=10X:Aperture=1: (11/28/2018 11:05:41 AM)
11/28/2018 11:05:41 AM
Reflectance
10X
Ap#: 1
Avg1: 5.000000
Avg2: 0.000000
Int.Time1:100.000000

420.190645	12.270854
420.624620	12.092827
421.058582	11.953845
421.492531	11.814828
421.926468	11.683580
422.360391	11.553550
422.794301	11.437780
423.228199	11.335605
423.662083	11.249123
424.095955	11.168591
424.529813	11.089606
424.963658	11.031606
425.397491	10.955712
425.831310	10.892584
426.265116	10.832180
426.698909	10.777024
427.132689	10.736657
427.566455	10.698501
428.000209	10.660078
428.433949	10.606564
428.867676	10.568120
429.301389	10.513920
429.735090	10.492850
430.168777	10.461275
430.602451	10.427151
431.036111	10.376135
431.469759	10.347209
431.903392	10.310605
432.337013	10.269904
432.770620	10.242614
433.204213	10.213215
433.637794	10.201434
434.071360	10.192796
434.504914	10.169705
434.938453	10.158478
435.371979	10.139948
435.805492	10.136215
436.238991	10.118766
436.672477	10.114081
437.105949	10.115014
437.539407	10.108105
437.972852	10.101821
438.406283	10.079275
438.839700	10.070222
439.273104	10.057537
439.706494	10.038619
440.139871	10.025655
440.573233	10.005487
441.006582	9.982611
441.439917	9.976377
441.873238	9.967682
442.306546	9.949439
442.739839	9.946837
443.173119	9.930705
443.606385	9.921864
444.039636	9.912933
444.472874	9.912003
444.906099	9.901956
445.339309	9.898905
445.772505	9.907233
446.205687	9.910835
446.638855	9.911276
447.072009	9.908542
447.505149	9.910587
447.938275	9.911485
448.371387	9.912934
448.804485	9.915591
449.237569	9.909111
449.670638	9.909597
450.103694	9.901592
450.536735	9.888732
450.969762	9.880352
451.402774	9.876039
451.835773	9.873250
452.268757	9.867424
452.701727	9.859253
453.134683	9.854558
453.567624	9.854034
454.000551	9.854693
454.433464	9.855645
454.866362	9.843105
455.299246	9.832194
455.732116	9.826859
456.164971	9.819005
456.597811	9.801888
457.030638	9.795164
457.463449	9.780595
457.896246	9.775545
458.329029	9.767930
458.761797	9.764055
459.194551	9.752048
459.627290	9.741982
460.060014	9.730542
460.492724	9.720598
460.925419	9.710301
461.358099	9.710988
461.790765	9.704077
462.223416	9.701633
462.656052	9.705299
463.088674	9.709970
463.521281	9.718481
463.953873	9.727632
464.386450	9.744144
464.819012	9.764299
465.251560	9.786457
465.684093	9.810517
466.116611	9.832721
466.549114	9.857286
466.981602	9.876519
467.414075	9.896695
467.846533	9.915711
468.278977	9.932321
468.711405	9.952841
469.143818	9.970830
469.576216	9.989800
470.008600	10.013202
470.440968	10.032842
470.873321	10.060506
471.305659	10.086808
471.737982	10.113397
472.170289	10.135749
472.602582	10.164613
473.034859	10.189182
473.467122	10.223627
473.899369	10.254324
474.331600	10.278246
474.763817	10.298696
475.196018	10.324094
475.628204	10.360119
476.060375	10.389234
476.492530	10.425875
476.924670	10.464447
477.356795	10.503039
477.788904	10.539442
478.220998	10.580791
478.653076	10.627216
479.085139	10.675420
479.517186	10.731066
479.949219	10.786759
480.381235	10.846167
480.813236	10.902663
481.245221	10.968886
481.677191	11.040044
482.109146	11.115552
482.541084	11.196244
482.973008	11.279486
483.404915	11.369246
483.836807	11.465486
484.268683	11.572179
484.700544	11.677551
485.132388	11.793956
485.564217	11.917610
485.996031	12.045155
486.427828	12.182788
486.859610	12.318619
487.291376	12.454272
487.723126	12.604752
488.154860	12.751052
488.586579	12.897719
489.018281	13.032853
489.449968	13.167518
489.881639	13.298158
490.313293	13.427016
490.744932	13.560050
491.176555	13.691228
491.608162	13.814773
492.039753	13.936008
492.471328	14.057747
492.902886	14.174976
493.334429	14.290901
493.765956	14.397770
494.197466	14.508818
494.628960	14.617865
495.060439	14.719767
495.491901	14.813545
495.923347	14.908512
496.354776	14.995533
496.786190	15.081726
497.217587	15.161299
497.648968	15.237533
498.080332	15.313913
498.511681	15.379452
498.943013	15.447537
499.374328	15.514659
499.805628	15.574980
500.236911	15.639344
500.668177	15.709452
501.099427	15.769989
501.530661	15.838950
501.961878	15.904184
502.393079	15.973827
502.824264	16.049104
503.255431	16.118181
503.686583	16.188743
504.117717	16.254413
504.548835	16.314181
504.979937	16.381140
505.411022	16.446251
505.842090	16.512573
506.273142	16.575997
506.704177	16.646178
507.135195	16.725029
507.566197	16.806014
507.997182	16.890254
508.428150	16.988406
508.859102	17.100687
509.290036	17.217467
509.720954	17.350383
510.151855	17.490714
510.582739	17.643831
511.013607	17.808877
511.444457	17.982399
511.875291	18.170827
512.306107	18.367398
512.736907	18.577075
513.167690	18.803660
513.598456	19.041862
514.029205	19.299443
514.459936	19.571552
514.890651	19.862353
515.321349	20.179220
515.752030	20.528961
516.182693	20.910566
516.613340	21.330099
517.043969	21.790105
517.474582	22.295717
517.905177	22.845327
518.335755	23.436228
518.766315	24.075979
519.196859	24.755837
519.627385	25.479882
520.057894	26.231233
520.488386	27.015982
520.918860	27.837417
521.349318	28.693075
521.779757	29.585614
522.210180	30.511922
522.640585	31.465096
523.070973	32.455797
523.501343	33.475333
523.931696	34.521419
524.362031	35.585298
524.792349	36.684675
525.222650	37.807128
525.652933	38.951895
526.083198	40.133115
526.513446	41.330858
526.943677	42.560604
527.373890	43.801595
527.804085	45.073156
528.234262	46.361265
528.664422	47.672719
529.094565	48.990805
529.524689	50.315723
529.954796	51.651619
530.384885	52.985725
530.814957	54.321090
531.245011	55.654383
531.675047	56.976004
532.105065	58.283852
532.535065	59.596597
532.965048	60.901749
533.395013	62.196722
533.824959	63.478121
534.254888	64.752637
534.684799	66.045268
535.114693	67.324346
535.544568	68.570609
535.974425	69.801702
536.404264	71.013246
536.834086	72.201927
537.263889	73.363628
537.693674	74.500301
538.123441	75.612199
538.553190	76.699231
538.982921	77.762583
539.412634	78.778144
539.842329	79.777845
540.272006	80.736777
540.701664	81.658074
541.131304	82.547177
541.560926	83.395706
541.990530	84.210160
542.420116	84.983986
542.849683	85.714375
543.279232	86.400436
543.708763	87.054983
544.138275	87.665822
544.567769	88.257194
544.997245	88.805928
545.426702	89.328750
545.856141	89.817214
546.285562	90.292943
546.714964	90.735807
547.144347	91.170911
547.573713	91.588519
548.003059	91.980751
548.432387	92.373643
548.861697	92.748724
549.290988	93.115258
549.720260	93.455167
550.149514	93.790605
550.578750	94.117222
551.007966	94.440216
551.437164	94.738609
551.866344	95.031641
552.295504	95.311585
552.724646	95.587555
553.153769	95.847970
553.582874	96.102006
554.011960	96.353949
554.441027	96.583555
554.870075	96.818808
555.299104	97.050449
555.728115	97.280377
556.157106	97.502360
556.586079	97.716154
557.015033	97.916912
557.443968	98.106631
557.872884	98.290594
558.301781	98.492088
558.730659	98.658097
559.159518	98.824492
559.588358	98.976825
560.017180	99.136125
560.445982	99.291114
560.874765	99.430262
561.303528	99.555429
561.732273	99.662701
562.160999	99.760823
562.589705	99.853001
563.018393	99.938553
563.447061	100.018809
563.875710	100.077497
564.304340	100.140285
564.732950	100.202228
565.161542	100.243516
565.590114	100.298629
566.018666	100.340931
566.447200	100.382753
566.875714	100.426338
567.304208	100.469715
567.732684	100.504320
568.161140	100.534991
568.589576	100.562472
569.017993	100.586235
569.446391	100.600812
569.874769	100.634642
570.303128	100.656305
570.731467	100.676150
571.159787	100.666938
571.588087	100.648319
572.016368	100.647817
572.444629	100.633619
572.872870	100.615839
573.301092	100.596619
573.729294	100.560638
574.157476	100.542966
574.585639	100.510034
575.013782	100.486418
575.441906	100.470366
575.870009	100.443111
576.298093	100.430665
576.726157	100.410488
577.154202	100.405393
577.582226	100.400552
578.010231	100.408165
578.438216	100.422230
578.866181	100.426803
579.294126	100.439801
579.722051	100.461759
580.149957	100.482954
580.577842	100.490243
581.005707	100.512399
581.433553	100.522736
581.861378	100.522997
582.289184	100.518405
582.716969	100.512278
583.144734	100.499174
583.572479	100.489195
584.000205	100.471275
584.427910	100.460807
584.855594	100.422854
585.283259	100.393017
585.710904	100.347608
586.138528	100.293664
586.566132	100.226413
586.993716	100.158387
587.421280	100.070385
587.848823	99.979716
588.276346	99.869172
588.703849	99.744362
589.131332	99.620948
589.558794	99.466323
589.986236	99.318990
590.413657	99.145750
590.841058	98.951888
591.268438	98.748597
591.695799	98.547687
592.123138	98.331815
592.550458	98.100942
592.977756	97.860249
593.405034	97.604616
593.832292	97.360721
594.259529	97.107559
594.686746	96.856175
595.113942	96.607336
595.541117	96.358444
595.968272	96.110227
596.395406	95.852098
596.822519	95.602623
597.249612	95.352454
597.676684	95.114102
598.103735	94.893279
598.530766	94.660590
598.957775	94.450146
599.384764	94.230503
599.811733	94.027108
600.238680	93.820285
600.665606	93.613307
601.092512	93.419355
601.519397	93.208907
601.946261	93.012480
602.373104	92.810440
602.799926	92.602498
603.226727	92.369823
603.653507	92.141029
604.080266	91.905851
604.507004	91.641902
604.933721	91.351396
605.360417	91.052576
605.787092	90.728343
606.213746	90.385498
606.640379	90.009138
607.066991	89.601349
607.493581	89.177372
607.920150	88.708953
608.346699	88.197061
608.773226	87.649161
609.199731	87.072694
609.626216	86.460383
610.052679	85.795114
610.479121	85.112517
610.905542	84.373278
611.331941	83.595713
611.758319	82.773435
612.184676	81.906523
612.611011	81.001432
613.037325	80.042535
613.463617	79.052401
613.889888	78.006396
614.316138	76.914580
614.742366	75.795078
615.168573	74.629019
615.594758	73.423781
616.020921	72.197684
616.447063	70.950159
616.873184	69.687892
617.299283	68.404222
617.725360	67.127034
618.151416	65.844338
618.577450	64.570794
619.003462	63.316834
619.429453	62.074978
619.855422	60.867112
620.281369	59.693779
620.707295	58.548452
621.133199	57.454229
621.559081	56.407226
621.984941	55.407055
622.410779	54.460269
622.836596	53.557294
623.262391	52.714460
623.688163	51.915806
624.113914	51.172767
624.539644	50.483365
624.965351	49.844354
625.391036	49.250182
625.816699	48.702957
626.242340	48.204757
626.667960	47.743108
627.093557	47.324525
627.519132	46.941890
627.944685	46.596904
628.370216	46.295976
628.795725	46.033658
629.221212	45.808384
629.646677	45.615317
630.072119	45.454997
630.497540	45.330579
630.922938	45.240268
631.348314	45.190582
631.773668	45.163778
632.198999	45.162209
632.624308	45.194344
633.049595	45.249757
633.474860	45.324551
633.900102	45.424388
634.325322	45.541807
634.750520	45.681303
635.175695	45.841327
635.600848	46.015442
636.025978	46.214315
636.451086	46.436350
636.876171	46.673922
637.301234	46.936550
637.726275	47.215075
638.151293	47.521834
638.576288	47.857187
639.001261	48.223486
639.426211	48.626764
639.851139	49.058243
640.276044	49.536654
640.700927	50.055763
641.125787	50.613762
641.550624	51.198492
641.975438	51.821799
642.400230	52.478294
642.824999	53.165107
643.249745	53.887335
643.674469	54.635334
644.099169	55.397379
644.523847	56.175261
644.948502	56.965123
645.373135	57.770156
645.797744	58.571294
646.222330	59.373581
646.646894	60.168823
647.071435	60.950717
647.495953	61.712444
647.920447	62.454117
648.344919	63.168135
648.769368	63.855197
649.193794	64.503261
649.618197	65.121772
650.042576	65.700288
650.466933	66.246760
650.891267	66.749697
651.315577	67.206789
651.739864	67.622210
652.164129	67.990774
652.588370	68.306981
653.012587	68.571823
653.436782	68.773987
653.860953	68.939111
654.285102	69.054267
654.709226	69.123916
655.133328	69.141639
655.557406	69.119025
655.981461	69.060851
656.405493	68.962820
656.829501	68.815450
657.253486	68.628248
657.677448	68.412006
658.101386	68.172545
658.525301	67.901526
658.949192	67.602132
659.373060	67.284400
659.796904	66.947822
660.220725	66.594734
660.644522	66.229441
661.068296	65.849643
661.492046	65.461288
661.915772	65.068712
662.339475	64.678574
662.763154	64.280367
663.186810	63.883795
663.610442	63.484201
664.034050	63.090144
664.457635	62.699842
664.881196	62.313232
665.304733	61.927212
665.728247	61.549648
666.151736	61.183386
666.575202	60.829987
666.998644	60.475355
667.422062	60.131805
667.845457	59.801166
668.268827	59.482114
668.692174	59.170097
669.115496	58.864405
669.538795	58.559787
669.962070	58.283078
670.385321	58.015866
670.808547	57.751915
671.231750	57.496201
671.654929	57.250524
672.078084	57.017701
672.501214	56.789658
672.924321	56.569624
673.347404	56.363118
673.770462	56.166861
674.193496	55.986378
674.616506	55.819291
675.039492	55.657644
675.462454	55.502135
675.885391	55.351566
676.308305	55.220600
676.731194	55.099569
677.154058	54.989544
677.576899	54.887027
677.999715	54.794519
678.422507	54.708725
678.845274	54.635490
679.268017	54.581130
679.690736	54.524482
680.113430	54.477985
680.536100	54.438255
680.958746	54.408730
681.381367	54.381156
681.803963	54.366487
682.226535	54.358542
682.649083	54.359940
683.071605	54.359712
683.494104	54.361052
683.916578	54.377875
684.339027	54.399435
684.761451	54.428632
685.183851	54.470032
685.606227	54.513594
686.028577	54.569400
686.450903	54.635041
686.873204	54.709792
687.295481	54.786987
687.717733	54.875023
688.139959	54.978684
688.562162	55.098623
688.984339	55.232052
689.406492	55.374343
689.828619	55.527429
690.250722	55.690323
690.672800	55.866523
691.094853	56.048256
691.516881	56.250860
691.938884	56.454492
692.360863	56.663527
692.782816	56.890201
693.204744	57.116702
693.626647	57.351154
694.048526	57.585329
694.470379	57.826519
694.892207	58.068076
695.314010	58.310971
695.735788	58.557130
696.157540	58.800645
696.579268	59.052430
697.000970	59.293372
697.422648	59.534474
697.844300	59.770059
698.265926	59.997854
698.687528	60.226766
699.109104	60.453273
699.530655	60.665370
699.952181	60.882216
