Time1=100ms:Average1=5:Objective=10X:Aperture=1: (11/21/2018 10:08:31 AM)
11/21/2018 10:08:31 AM
Reflectance
10X
Ap#: 1
Avg1: 5.000000
Avg2: 0.000000
Int.Time1:100.000000

420.190645	12.655887
420.624620	12.503860
421.058582	12.355611
421.492531	12.207434
421.926468	12.083630
422.360391	11.965933
422.794301	11.854302
423.228199	11.768591
423.662083	11.707705
424.095955	11.657489
424.529813	11.607639
424.963658	11.551140
425.397491	11.536132
425.831310	11.499568
426.265116	11.454835
426.698909	11.431116
427.132689	11.422325
427.566455	11.381024
428.000209	11.381270
428.433949	11.385177
428.867676	11.377856
429.301389	11.363028
429.735090	11.370618
430.168777	11.359528
430.602451	11.349666
431.036111	11.313831
431.469759	11.315405
431.903392	11.293148
432.337013	11.278139
432.770620	11.246627
433.204213	11.226136
433.637794	11.226889
434.071360	11.227062
434.504914	11.216569
434.938453	11.216174
435.371979	11.219094
435.805492	11.208958
436.238991	11.196592
436.672477	11.189570
437.105949	11.190493
437.539407	11.184103
437.972852	11.157514
438.406283	11.137690
438.839700	11.090376
439.273104	11.069564
439.706494	11.064702
440.139871	11.039234
440.573233	11.001791
441.006582	10.983385
441.439917	10.953902
441.873238	10.912548
442.306546	10.874864
442.739839	10.833991
443.173119	10.787072
443.606385	10.742717
444.039636	10.704495
444.472874	10.685641
444.906099	10.648264
445.339309	10.619244
445.772505	10.605292
446.205687	10.594556
446.638855	10.572591
447.072009	10.545313
447.505149	10.524636
447.938275	10.511073
448.371387	10.484663
448.804485	10.470963
449.237569	10.462479
449.670638	10.468376
450.103694	10.443310
450.536735	10.412870
450.969762	10.399716
451.402774	10.388874
451.835773	10.373151
452.268757	10.367221
452.701727	10.355379
453.134683	10.343767
453.567624	10.331423
454.000551	10.325307
454.433464	10.317457
454.866362	10.298796
455.299246	10.293756
455.732116	10.286526
456.164971	10.280426
456.597811	10.279359
457.030638	10.273016
457.463449	10.264079
457.896246	10.251534
458.329029	10.240341
458.761797	10.238351
459.194551	10.216805
459.627290	10.198097
460.060014	10.184908
460.492724	10.171665
460.925419	10.152122
461.358099	10.131565
461.790765	10.117050
462.223416	10.096719
462.656052	10.068723
463.088674	10.034967
463.521281	10.019139
463.953873	9.993021
464.386450	9.960960
464.819012	9.935770
465.251560	9.906519
465.684093	9.871632
466.116611	9.838619
466.549114	9.805913
466.981602	9.769639
467.414075	9.728922
467.846533	9.691270
468.278977	9.650267
468.711405	9.601957
469.143818	9.556243
469.576216	9.505486
470.008600	9.452783
470.440968	9.410747
470.873321	9.360841
471.305659	9.304782
471.737982	9.254976
472.170289	9.193768
472.602582	9.141216
473.034859	9.091225
473.467122	9.044837
473.899369	9.000353
474.331600	8.957959
474.763817	8.915797
475.196018	8.879796
475.628204	8.843106
476.060375	8.814235
476.492530	8.789309
476.924670	8.762670
477.356795	8.742327
477.788904	8.734294
478.220998	8.718423
478.653076	8.718895
479.085139	8.721372
479.517186	8.734640
479.949219	8.749740
480.381235	8.773882
480.813236	8.810223
481.245221	8.851920
481.677191	8.899410
482.109146	8.957414
482.541084	9.019373
482.973008	9.092223
483.404915	9.171700
483.836807	9.252248
484.268683	9.353580
484.700544	9.468500
485.132388	9.586518
485.564217	9.712056
485.996031	9.851963
486.427828	9.999489
486.859610	10.146229
487.291376	10.296999
487.723126	10.451880
488.154860	10.608760
488.586579	10.766795
489.018281	10.927986
489.449968	11.098849
489.881639	11.266794
490.313293	11.436336
490.744932	11.614084
491.176555	11.787055
491.608162	11.971133
492.039753	12.152493
492.471328	12.328960
492.902886	12.499095
493.334429	12.665314
493.765956	12.830394
494.197466	12.989559
494.628960	13.143354
495.060439	13.294175
495.491901	13.439519
495.923347	13.579033
496.354776	13.709018
496.786190	13.838246
497.217587	13.965825
497.648968	14.076388
498.080332	14.185690
498.511681	14.282948
498.943013	14.377651
499.374328	14.450604
499.805628	14.513326
500.236911	14.565509
500.668177	14.609810
501.099427	14.636871
501.530661	14.659399
501.961878	14.659263
502.393079	14.651974
502.824264	14.625615
503.255431	14.591149
503.686583	14.547404
504.117717	14.496266
504.548835	14.430042
504.979937	14.360430
505.411022	14.279436
505.842090	14.200195
506.273142	14.111368
506.704177	14.021916
507.135195	13.929264
507.566197	13.834913
507.997182	13.733684
508.428150	13.641256
508.859102	13.550745
509.290036	13.470272
509.720954	13.399539
510.151855	13.343769
510.582739	13.300479
511.013607	13.277346
511.444457	13.268206
511.875291	13.282830
512.306107	13.324650
512.736907	13.396177
513.167690	13.497593
513.598456	13.641927
514.029205	13.815537
514.459936	14.035701
514.890651	14.294875
515.321349	14.610898
515.752030	14.974551
516.182693	15.394047
516.613340	15.868569
517.043969	16.402490
517.474582	16.989846
517.905177	17.640748
518.335755	18.346044
518.766315	19.109880
519.196859	19.925670
519.627385	20.789144
520.057894	21.703668
520.488386	22.653796
520.918860	23.654343
521.349318	24.717681
521.779757	25.825614
522.210180	26.987864
522.640585	28.189824
523.070973	29.442273
523.501343	30.725792
523.931696	32.045224
524.362031	33.397596
524.792349	34.792112
525.222650	36.219488
525.652933	37.662019
526.083198	39.125843
526.513446	40.606456
526.943677	42.078827
527.373890	43.563192
527.804085	45.054232
528.234262	46.548912
528.664422	48.015852
529.094565	49.476594
529.524689	50.936669
529.954796	52.377320
530.384885	53.794291
530.814957	55.195864
531.245011	56.575343
531.675047	57.924323
532.105065	59.255921
532.535065	60.572351
532.965048	61.870333
533.395013	63.129851
533.824959	64.358891
534.254888	65.561147
534.684799	66.752781
535.114693	67.910266
535.544568	69.024658
535.974425	70.111924
536.404264	71.150089
536.834086	72.155081
537.263889	73.139481
537.693674	74.081714
538.123441	74.979553
538.553190	75.843096
538.982921	76.678200
539.412634	77.485684
539.842329	78.266574
540.272006	79.029575
540.701664	79.751380
541.131304	80.438855
541.560926	81.098565
541.990530	81.731074
542.420116	82.356691
542.849683	82.947713
543.279232	83.513891
543.708763	84.053100
544.138275	84.566605
544.567769	85.072210
544.997245	85.562278
545.426702	86.028309
545.856141	86.482029
546.285562	86.912273
546.714964	87.326407
547.144347	87.720409
547.573713	88.111495
548.003059	88.471819
548.432387	88.831987
548.861697	89.176081
549.290988	89.511797
549.720260	89.846302
550.149514	90.176518
550.578750	90.475494
551.007966	90.757477
551.437164	91.035778
551.866344	91.300124
552.295504	91.550889
552.724646	91.801841
553.153769	92.037095
553.582874	92.261772
554.011960	92.495733
554.441027	92.716480
554.870075	92.923639
555.299104	93.136623
555.728115	93.320574
556.157106	93.500791
556.586079	93.666106
557.015033	93.850327
557.443968	94.026920
557.872884	94.166655
558.301781	94.315142
558.730659	94.467777
559.159518	94.591490
559.588358	94.723357
560.017180	94.855814
560.445982	94.987429
560.874765	95.110057
561.303528	95.237775
561.732273	95.347701
562.160999	95.469072
562.589705	95.590313
563.018393	95.691480
563.447061	95.809717
563.875710	95.926085
564.304340	96.043259
564.732950	96.156018
565.161542	96.268246
565.590114	96.374605
566.018666	96.479745
566.447200	96.590237
566.875714	96.698874
567.304208	96.793957
567.732684	96.896025
568.161140	96.995247
568.589576	97.083284
569.017993	97.168610
569.446391	97.241363
569.874769	97.322583
570.303128	97.388685
570.731467	97.440434
571.159787	97.498706
571.588087	97.544358
572.016368	97.571303
572.444629	97.610913
572.872870	97.646719
573.301092	97.659912
573.729294	97.671418
574.157476	97.691191
574.585639	97.689820
575.013782	97.691439
575.441906	97.676585
575.870009	97.658319
576.298093	97.647329
576.726157	97.616725
577.154202	97.585661
577.582226	97.568035
578.010231	97.553980
578.438216	97.530898
578.866181	97.527988
579.294126	97.503200
579.722051	97.490008
580.149957	97.479655
580.577842	97.466359
581.005707	97.462366
581.433553	97.442955
581.861378	97.448529
582.289184	97.440265
582.716969	97.443141
583.144734	97.449413
583.572479	97.453852
584.000205	97.464931
584.427910	97.474302
584.855594	97.481085
585.283259	97.495576
585.710904	97.519382
586.138528	97.518083
586.566132	97.541085
586.993716	97.554352
587.421280	97.549273
587.848823	97.550864
588.276346	97.563193
588.703849	97.562210
589.131332	97.564403
589.558794	97.560231
589.986236	97.541585
590.413657	97.523907
590.841058	97.499656
591.268438	97.456197
591.695799	97.409376
592.123138	97.343597
592.550458	97.283499
592.977756	97.214886
593.405034	97.125298
593.832292	97.038052
594.259529	96.932445
594.686746	96.839240
595.113942	96.720737
595.541117	96.605682
595.968272	96.471225
596.395406	96.331307
596.822519	96.186805
597.249612	96.036172
597.676684	95.886332
598.103735	95.727851
598.530766	95.560839
598.957775	95.363340
599.384764	95.183334
599.811733	94.978986
600.238680	94.774783
600.665606	94.565458
601.092512	94.343870
601.519397	94.097403
601.946261	93.857166
602.373104	93.581783
602.799926	93.313817
603.226727	93.023051
603.653507	92.716976
604.080266	92.393070
604.507004	92.058567
604.933721	91.719273
605.360417	91.372547
605.787092	91.005414
606.213746	90.612833
606.640379	90.221181
607.066991	89.813590
607.493581	89.394184
607.920150	88.964102
608.346699	88.519551
608.773226	88.071946
609.199731	87.613393
609.626216	87.135056
610.052679	86.637645
610.479121	86.119162
610.905542	85.582540
611.331941	85.032247
611.758319	84.457305
612.184676	83.859399
612.611011	83.237703
613.037325	82.596443
613.463617	81.920245
613.889888	81.225307
614.316138	80.506074
614.742366	79.751137
615.168573	78.965699
615.594758	78.161869
616.020921	77.306452
616.447063	76.433851
616.873184	75.529241
617.299283	74.588402
617.725360	73.632022
618.151416	72.641645
618.577450	71.627178
619.003462	70.576517
619.429453	69.501614
619.855422	68.405996
620.281369	67.273281
620.707295	66.126845
621.133199	64.948714
621.559081	63.753535
621.984941	62.526841
622.410779	61.290207
622.836596	60.026400
623.262391	58.743544
623.688163	57.446736
624.113914	56.132457
624.539644	54.794338
624.965351	53.444515
625.391036	52.092783
625.816699	50.739495
626.242340	49.380251
626.667960	48.024936
627.093557	46.676078
627.519132	45.337045
627.944685	44.015082
628.370216	42.723895
628.795725	41.466083
629.221212	40.254407
629.646677	39.085938
630.072119	37.968588
630.497540	36.919754
630.922938	35.926073
631.348314	35.015201
631.773668	34.173936
632.198999	33.416801
632.624308	32.748675
633.049595	32.153593
633.474860	31.651674
633.900102	31.230273
634.325322	30.896352
634.750520	30.640961
635.175695	30.471435
635.600848	30.374216
636.025978	30.357849
636.451086	30.411557
636.876171	30.533876
637.301234	30.723187
637.726275	30.977383
638.151293	31.297509
638.576288	31.676445
639.001261	32.107107
639.426211	32.597830
639.851139	33.139861
640.276044	33.721569
640.700927	34.354441
641.125787	35.032786
641.550624	35.741298
641.975438	36.480460
642.400230	37.244602
642.824999	38.035546
643.249745	38.843003
643.674469	39.655887
644.099169	40.480752
644.523847	41.305617
644.948502	42.128264
645.373135	42.950624
645.797744	43.764766
646.222330	44.575815
646.646894	45.381836
647.071435	46.168573
647.495953	46.938929
647.920447	47.694953
648.344919	48.425935
648.769368	49.145040
649.193794	49.847709
649.618197	50.538739
650.042576	51.199614
650.466933	51.841404
650.891267	52.463015
651.315577	53.067679
651.739864	53.656716
652.164129	54.231260
652.588370	54.773274
653.012587	55.312641
653.436782	55.837390
653.860953	56.338585
654.285102	56.828620
654.709226	57.308781
655.133328	57.777274
655.557406	58.229457
655.981461	58.674077
656.405493	59.106126
656.829501	59.526091
657.253486	59.933940
657.677448	60.315397
658.101386	60.691716
658.525301	61.045514
658.949192	61.377442
659.373060	61.685489
659.796904	61.982034
660.220725	62.254812
660.644522	62.514350
661.068296	62.750815
661.492046	62.971511
661.915772	63.167499
662.339475	63.339130
662.763154	63.488061
663.186810	63.620677
663.610442	63.733115
664.034050	63.821719
664.457635	63.889083
664.881196	63.929053
665.304733	63.943561
665.728247	63.949910
666.151736	63.921484
666.575202	63.879101
666.998644	63.819791
667.422062	63.737669
667.845457	63.635685
668.268827	63.512158
668.692174	63.368350
669.115496	63.199020
669.538795	63.008394
669.962070	62.790969
670.385321	62.543037
670.808547	62.277317
671.231750	61.980344
671.654929	61.665313
672.078084	61.327963
672.501214	60.973744
672.924321	60.581269
673.347404	60.164293
673.770462	59.714850
674.193496	59.243872
674.616506	58.753835
675.039492	58.243046
675.462454	57.717132
675.885391	57.179817
676.308305	56.633395
676.731194	56.081371
677.154058	55.524516
677.576899	54.962036
677.999715	54.407788
678.422507	53.851624
678.845274	53.303627
679.268017	52.772737
679.690736	52.241142
680.113430	51.729613
680.536100	51.221972
680.958746	50.733135
681.381367	50.261085
681.803963	49.806795
682.226535	49.366714
682.649083	48.948498
683.071605	48.551793
683.494104	48.178194
683.916578	47.826849
684.339027	47.496783
684.761451	47.198599
685.183851	46.928065
685.606227	46.680584
686.028577	46.457776
686.450903	46.273846
686.873204	46.125358
687.295481	46.020794
687.717733	45.944839
688.139959	45.907858
688.562162	45.908970
688.984339	45.950609
689.406492	46.033183
689.828619	46.146610
690.250722	46.300955
690.672800	46.492065
691.094853	46.717733
691.516881	46.985627
691.938884	47.281237
692.360863	47.591818
692.782816	47.941702
693.204744	48.305110
693.626647	48.698756
694.048526	49.104863
694.470379	49.530739
694.892207	49.970363
695.314010	50.427050
695.735788	50.894345
696.157540	51.371253
696.579268	51.860126
697.000970	52.366935
697.422648	52.882283
697.844300	53.399428
698.265926	53.931086
698.687528	54.476587
699.109104	55.034584
699.530655	55.598042
699.952181	56.180444
