Time1=100ms:Average1=5:Objective=10X:Aperture=1: (11/21/2018 10:37:30 AM)
11/21/2018 10:37:30 AM
Reflectance
10X
Ap#: 1
Avg1: 5.000000
Avg2: 0.000000
Int.Time1:100.000000

420.190645	19.578062
420.624620	19.382117
421.058582	19.185605
421.492531	19.001193
421.926468	18.814814
422.360391	18.649175
422.794301	18.507312
423.228199	18.393342
423.662083	18.285181
424.095955	18.205829
424.529813	18.117932
424.963658	18.024474
425.397491	17.959715
425.831310	17.898230
426.265116	17.844936
426.698909	17.769534
427.132689	17.738146
427.566455	17.670002
428.000209	17.633238
428.433949	17.594364
428.867676	17.555065
429.301389	17.497521
429.735090	17.459921
430.168777	17.406601
430.602451	17.374179
431.036111	17.293211
431.469759	17.242302
431.903392	17.183251
432.337013	17.127696
432.770620	17.042482
433.204213	16.976297
433.637794	16.923516
434.071360	16.874056
434.504914	16.819169
434.938453	16.789305
435.371979	16.749858
435.805492	16.698559
436.238991	16.649991
436.672477	16.607545
437.105949	16.569222
437.539407	16.518891
437.972852	16.449860
438.406283	16.381520
438.839700	16.294139
439.273104	16.236916
439.706494	16.159101
440.139871	16.088354
440.573233	16.005308
441.006582	15.928503
441.439917	15.857451
441.873238	15.776292
442.306546	15.698996
442.739839	15.607954
443.173119	15.519611
443.606385	15.422373
444.039636	15.322370
444.472874	15.247483
444.906099	15.160221
445.339309	15.084197
445.772505	15.014867
446.205687	14.956986
446.638855	14.882092
447.072009	14.793059
447.505149	14.714440
447.938275	14.639383
448.371387	14.552471
448.804485	14.473646
449.237569	14.403783
449.670638	14.330091
450.103694	14.232123
450.536735	14.124472
450.969762	14.030808
451.402774	13.941688
451.835773	13.858126
452.268757	13.778003
452.701727	13.692764
453.134683	13.611269
453.567624	13.529979
454.000551	13.452790
454.433464	13.387159
454.866362	13.305374
455.299246	13.242612
455.732116	13.178790
456.164971	13.122218
456.597811	13.067158
457.030638	13.027513
457.463449	12.984598
457.896246	12.936044
458.329029	12.894374
458.761797	12.856905
459.194551	12.813844
459.627290	12.776481
460.060014	12.745798
460.492724	12.722875
460.925419	12.698329
461.358099	12.677254
461.790765	12.662894
462.223416	12.659045
462.656052	12.651544
463.088674	12.647059
463.521281	12.663771
463.953873	12.690952
464.386450	12.713788
464.819012	12.742724
465.251560	12.783082
465.684093	12.825678
466.116611	12.869521
466.549114	12.921973
466.981602	12.981946
467.414075	13.037781
467.846533	13.099374
468.278977	13.172782
468.711405	13.243285
469.143818	13.318248
469.576216	13.402330
470.008600	13.479677
470.440968	13.566327
470.873321	13.650452
471.305659	13.742482
471.737982	13.832410
472.170289	13.923228
472.602582	14.014264
473.034859	14.104430
473.467122	14.208057
473.899369	14.300847
474.331600	14.396434
474.763817	14.495380
475.196018	14.588149
475.628204	14.681013
476.060375	14.777954
476.492530	14.873594
476.924670	14.969599
477.356795	15.050482
477.788904	15.137223
478.220998	15.214489
478.653076	15.282525
479.085139	15.346336
479.517186	15.402622
479.949219	15.450911
480.381235	15.478896
480.813236	15.507442
481.245221	15.527618
481.677191	15.531566
482.109146	15.524235
482.541084	15.509059
482.973008	15.482441
483.404915	15.447309
483.836807	15.396869
484.268683	15.341917
484.700544	15.278815
485.132388	15.206829
485.564217	15.118908
485.996031	15.030272
486.427828	14.934039
486.859610	14.821448
487.291376	14.704481
487.723126	14.585204
488.154860	14.459301
488.586579	14.329785
489.018281	14.196645
489.449968	14.064245
489.881639	13.932775
490.313293	13.789568
490.744932	13.656708
491.176555	13.527457
491.608162	13.398295
492.039753	13.269431
492.471328	13.136945
492.902886	13.016594
493.334429	12.899292
493.765956	12.799443
494.197466	12.715604
494.628960	12.637433
495.060439	12.585038
495.491901	12.552696
495.923347	12.540034
496.354776	12.544765
496.786190	12.579415
497.217587	12.636819
497.648968	12.719791
498.080332	12.833733
498.511681	12.976171
498.943013	13.156508
499.374328	13.370480
499.805628	13.628196
500.236911	13.932141
500.668177	14.277899
501.099427	14.656728
501.530661	15.078237
501.961878	15.541468
502.393079	16.047705
502.824264	16.585229
503.255431	17.158820
503.686583	17.772376
504.117717	18.417760
504.548835	19.095824
504.979937	19.820641
505.411022	20.572898
505.842090	21.371292
506.273142	22.201338
506.704177	23.079576
507.135195	23.996348
507.566197	24.958894
507.997182	25.952643
508.428150	26.988856
508.859102	28.057543
509.290036	29.162254
509.720954	30.298810
510.151855	31.457506
510.582739	32.632144
511.013607	33.836548
511.444457	35.052286
511.875291	36.281504
512.306107	37.518964
512.736907	38.777005
513.167690	40.033244
513.598456	41.311799
514.029205	42.594242
514.459936	43.896834
514.890651	45.203208
515.321349	46.522230
515.752030	47.851425
516.182693	49.172358
516.613340	50.490326
517.043969	51.801481
517.474582	53.095040
517.905177	54.369170
518.335755	55.611420
518.766315	56.847530
519.196859	58.027742
519.627385	59.186308
520.057894	60.298285
520.488386	61.373859
520.918860	62.427013
521.349318	63.484305
521.779757	64.514173
522.210180	65.529909
522.640585	66.504312
523.070973	67.452692
523.501343	68.370085
523.931696	69.268544
524.362031	70.140106
524.792349	70.997023
525.222650	71.833053
525.652933	72.637057
526.083198	73.418033
526.513446	74.185920
526.943677	74.890554
527.373890	75.598113
527.804085	76.275681
528.234262	76.935730
528.664422	77.560176
529.094565	78.167179
529.524689	78.760379
529.954796	79.341554
530.384885	79.890559
530.814957	80.438125
531.245011	80.968244
531.675047	81.487815
532.105065	81.999755
532.535065	82.514683
532.965048	83.004823
533.395013	83.490676
533.824959	83.968867
534.254888	84.423243
534.684799	84.876492
535.114693	85.316290
535.544568	85.746329
535.974425	86.174835
536.404264	86.584564
536.834086	86.987047
537.263889	87.389720
537.693674	87.770453
538.123441	88.127229
538.553190	88.484973
538.982921	88.827263
539.412634	89.155440
539.842329	89.465384
540.272006	89.783007
540.701664	90.063300
541.131304	90.329547
541.560926	90.579761
541.990530	90.814176
542.420116	91.046702
542.849683	91.281534
543.279232	91.488028
543.708763	91.689193
544.138275	91.874402
544.567769	92.065881
544.997245	92.249176
545.426702	92.413853
545.856141	92.575934
546.285562	92.745649
546.714964	92.908923
547.144347	93.052990
547.573713	93.213816
548.003059	93.354427
548.432387	93.492844
548.861697	93.624986
549.290988	93.764034
549.720260	93.917647
550.149514	94.070219
550.578750	94.207504
551.007966	94.330545
551.437164	94.469541
551.866344	94.589666
552.295504	94.711899
552.724646	94.844785
553.153769	94.979482
553.582874	95.108071
554.011960	95.252290
554.441027	95.381187
554.870075	95.504940
555.299104	95.632977
555.728115	95.738462
556.157106	95.827872
556.586079	95.909122
557.015033	95.997517
557.443968	96.082308
557.872884	96.143862
558.301781	96.204747
558.730659	96.264235
559.159518	96.320689
559.588358	96.364844
560.017180	96.406757
560.445982	96.459326
560.874765	96.493922
561.303528	96.549186
561.732273	96.592833
562.160999	96.630401
562.589705	96.675248
563.018393	96.695266
563.447061	96.739539
563.875710	96.787669
564.304340	96.845772
564.732950	96.879270
565.161542	96.909204
565.590114	96.939821
566.018666	96.962598
566.447200	96.995630
566.875714	97.023371
567.304208	97.034475
567.732684	97.062017
568.161140	97.090485
568.589576	97.114749
569.017993	97.133690
569.446391	97.143062
569.874769	97.161328
570.303128	97.169443
570.731467	97.158008
571.159787	97.147647
571.588087	97.122313
572.016368	97.094342
572.444629	97.055250
572.872870	97.022010
573.301092	96.968908
573.729294	96.911661
574.157476	96.853337
574.585639	96.769810
575.013782	96.683621
575.441906	96.602587
575.870009	96.503937
576.298093	96.416387
576.726157	96.306706
577.154202	96.197352
577.582226	96.099286
578.010231	96.015239
578.438216	95.926024
578.866181	95.853742
579.294126	95.766931
579.722051	95.681803
580.149957	95.606100
580.577842	95.525066
581.005707	95.447019
581.433553	95.358339
581.861378	95.283736
582.289184	95.207898
582.716969	95.137402
583.144734	95.068858
583.572479	94.997886
584.000205	94.926799
584.427910	94.847043
584.855594	94.767393
585.283259	94.679333
585.710904	94.597487
586.138528	94.490559
586.566132	94.396253
586.993716	94.282372
587.421280	94.154186
587.848823	94.014633
588.276346	93.871175
588.703849	93.702536
589.131332	93.519971
589.558794	93.319206
589.986236	93.095706
590.413657	92.856747
590.841058	92.587676
591.268438	92.292300
591.695799	91.988998
592.123138	91.649324
592.550458	91.299163
592.977756	90.927473
593.405034	90.529543
593.832292	90.117504
594.259529	89.677721
594.686746	89.239415
595.113942	88.777469
595.541117	88.302725
595.968272	87.810483
596.395406	87.307408
596.822519	86.799586
597.249612	86.293343
597.676684	85.785958
598.103735	85.268035
598.530766	84.749266
598.957775	84.206039
599.384764	83.670348
599.811733	83.112082
600.238680	82.558940
600.665606	81.994091
601.092512	81.413157
601.519397	80.823341
601.946261	80.232304
602.373104	79.619656
602.799926	79.001782
603.226727	78.356994
603.653507	77.689197
604.080266	77.006741
604.507004	76.303369
604.933721	75.579583
605.360417	74.840360
605.787092	74.074170
606.213746	73.283885
606.640379	72.477334
607.066991	71.651418
607.493581	70.813494
607.920150	69.951327
608.346699	69.060856
608.773226	68.155796
609.199731	67.231732
609.626216	66.279903
610.052679	65.299096
610.479121	64.291995
610.905542	63.253955
611.331941	62.184747
611.758319	61.085856
612.184676	59.960737
612.611011	58.802257
613.037325	57.629085
613.463617	56.420074
613.889888	55.194295
614.316138	53.947712
614.742366	52.666330
615.168573	51.374290
615.594758	50.073093
616.020921	48.757853
616.447063	47.446394
616.873184	46.138621
617.299283	44.834475
617.725360	43.551892
618.151416	42.288999
618.577450	41.050252
619.003462	39.836165
619.429453	38.655440
619.855422	37.513767
620.281369	36.409741
620.707295	35.345910
621.133199	34.331459
621.559081	33.374319
621.984941	32.465342
622.410779	31.611539
622.836596	30.814554
623.262391	30.082520
623.688163	29.405069
624.113914	28.790617
624.539644	28.237553
624.965351	27.738549
625.391036	27.300225
625.816699	26.927538
626.242340	26.604153
626.667960	26.339351
627.093557	26.134120
627.519132	25.986913
627.944685	25.897762
628.370216	25.857909
628.795725	25.876612
629.221212	25.952781
629.646677	26.082756
630.072119	26.262096
630.497540	26.495192
630.922938	26.772552
631.348314	27.098280
631.773668	27.469174
632.198999	27.880574
632.624308	28.327202
633.049595	28.799960
633.474860	29.307422
633.900102	29.838704
634.325322	30.394762
634.750520	30.965315
635.175695	31.563262
635.600848	32.173549
636.025978	32.802439
636.451086	33.440975
636.876171	34.098310
637.301234	34.767405
637.726275	35.450280
638.151293	36.151680
638.576288	36.866938
639.001261	37.596009
639.426211	38.336650
639.851139	39.098456
640.276044	39.864367
640.700927	40.646072
641.125787	41.438057
641.550624	42.239182
641.975438	43.048551
642.400230	43.863157
642.824999	44.676140
643.249745	45.490779
643.674469	46.300682
644.099169	47.104869
644.523847	47.902500
644.948502	48.684733
645.373135	49.456009
645.797744	50.217846
646.222330	50.970012
646.646894	51.702363
647.071435	52.419903
647.495953	53.111921
647.920447	53.787031
648.344919	54.437520
648.769368	55.077781
649.193794	55.687092
649.618197	56.278175
650.042576	56.834487
650.466933	57.366759
650.891267	57.877464
651.315577	58.365369
651.739864	58.832899
652.164129	59.272856
652.588370	59.676775
653.012587	60.060510
653.436782	60.420595
653.860953	60.744904
654.285102	61.049739
654.709226	61.327732
655.133328	61.582289
655.557406	61.804647
655.981461	62.014450
656.405493	62.204055
656.829501	62.371079
657.253486	62.524286
657.677448	62.645577
658.101386	62.761659
658.525301	62.860867
658.949192	62.936595
659.373060	62.994644
659.796904	63.057422
660.220725	63.097434
660.644522	63.136774
661.068296	63.162765
661.492046	63.183469
661.915772	63.182227
662.339475	63.183057
662.763154	63.175039
663.186810	63.161518
663.610442	63.139888
664.034050	63.119140
664.457635	63.086723
664.881196	63.044060
665.304733	62.995335
665.728247	62.959810
666.151736	62.907581
666.575202	62.857700
666.998644	62.808568
667.422062	62.758119
667.845457	62.711827
668.268827	62.663486
668.692174	62.620428
669.115496	62.570455
669.538795	62.521856
669.962070	62.473221
670.385321	62.416598
670.808547	62.368840
671.231750	62.312323
671.654929	62.253368
672.078084	62.196961
672.501214	62.132978
672.924321	62.046555
673.347404	61.956965
673.770462	61.841457
674.193496	61.714750
674.616506	61.574739
675.039492	61.421680
675.462454	61.263194
675.885391	61.101404
676.308305	60.927892
676.731194	60.757155
677.154058	60.571947
677.576899	60.383008
677.999715	60.197850
678.422507	60.005974
678.845274	59.808574
679.268017	59.617544
679.690736	59.419491
680.113430	59.234124
680.536100	59.033797
680.958746	58.831230
681.381367	58.620520
681.803963	58.412743
682.226535	58.196932
682.649083	57.981667
683.071605	57.756365
683.494104	57.528557
683.916578	57.289327
684.339027	57.041057
684.761451	56.791167
685.183851	56.538483
685.606227	56.281390
686.028577	56.020131
686.450903	55.764669
686.873204	55.520376
687.295481	55.293059
687.717733	55.067923
688.139959	54.862248
688.562162	54.661058
688.984339	54.468259
689.406492	54.293398
689.828619	54.123408
690.250722	53.976303
690.672800	53.840553
691.094853	53.719631
691.516881	53.619571
691.938884	53.538924
692.360863	53.462246
692.782816	53.411005
693.204744	53.364293
693.626647	53.345647
694.048526	53.337871
694.470379	53.354196
694.892207	53.384205
695.314010	53.437616
695.735788	53.508859
696.157540	53.609989
696.579268	53.729643
697.000970	53.881705
697.422648	54.055086
697.844300	54.248942
698.265926	54.467632
698.687528	54.709815
699.109104	54.986207
699.530655	55.275869
699.952181	55.591356
