Time1=100ms:Average1=5:Objective=10X:Aperture=1: (11/21/2018 11:46:14 AM)
11/21/2018 11:46:14 AM
Reflectance
10X
Ap#: 1
Avg1: 5.000000
Avg2: 0.000000
Int.Time1:100.000000

420.190645	24.366317
420.624620	24.254502
421.058582	24.146376
421.492531	24.062648
421.926468	23.972013
422.360391	23.916778
422.794301	23.846874
423.228199	23.815906
423.662083	23.789196
424.095955	23.775855
424.529813	23.753557
424.963658	23.755521
425.397491	23.750968
425.831310	23.738100
426.265116	23.705306
426.698909	23.666986
427.132689	23.629557
427.566455	23.628942
428.000209	23.611543
428.433949	23.618278
428.867676	23.618587
429.301389	23.619919
429.735090	23.595526
430.168777	23.585105
430.602451	23.574493
431.036111	23.552845
431.469759	23.545045
431.903392	23.511898
432.337013	23.480825
432.770620	23.443472
433.204213	23.422118
433.637794	23.384640
434.071360	23.348829
434.504914	23.322358
434.938453	23.305267
435.371979	23.278791
435.805492	23.245504
436.238991	23.220015
436.672477	23.197893
437.105949	23.183451
437.539407	23.135598
437.972852	23.096792
438.406283	23.048029
438.839700	22.991815
439.273104	22.925089
439.706494	22.860611
440.139871	22.812424
440.573233	22.751901
441.006582	22.691250
441.439917	22.629366
441.873238	22.543751
442.306546	22.478168
442.739839	22.403780
443.173119	22.336155
443.606385	22.269225
444.039636	22.197042
444.472874	22.136529
444.906099	22.057758
445.339309	21.988134
445.772505	21.923693
446.205687	21.868706
446.638855	21.800423
447.072009	21.722941
447.505149	21.652758
447.938275	21.589941
448.371387	21.521052
448.804485	21.459256
449.237569	21.385399
449.670638	21.290597
450.103694	21.196821
450.536735	21.105778
450.969762	21.026954
451.402774	20.946360
451.835773	20.854600
452.268757	20.777898
452.701727	20.698656
453.134683	20.630792
453.567624	20.536914
454.000551	20.464831
454.433464	20.395964
454.866362	20.323777
455.299246	20.274506
455.732116	20.209132
456.164971	20.142054
456.597811	20.077676
457.030638	20.010892
457.463449	19.942684
457.896246	19.875926
458.329029	19.814288
458.761797	19.761002
459.194551	19.694179
459.627290	19.627730
460.060014	19.567484
460.492724	19.507462
460.925419	19.441256
461.358099	19.377250
461.790765	19.306120
462.223416	19.233817
462.656052	19.164244
463.088674	19.126407
463.521281	19.056177
463.953873	18.989214
464.386450	18.936011
464.819012	18.895033
465.251560	18.863731
465.684093	18.836268
466.116611	18.828201
466.549114	18.805659
466.981602	18.805165
467.414075	18.801836
467.846533	18.784903
468.278977	18.786470
468.711405	18.772833
469.143818	18.766662
469.576216	18.771108
470.008600	18.779571
470.440968	18.783113
470.873321	18.793963
471.305659	18.807229
471.737982	18.829184
472.170289	18.831028
472.602582	18.845141
473.034859	18.859383
473.467122	18.872575
473.899369	18.892681
474.331600	18.921100
474.763817	18.956922
475.196018	18.990607
475.628204	19.033617
476.060375	19.077349
476.492530	19.109712
476.924670	19.153858
477.356795	19.196189
477.788904	19.233808
478.220998	19.263661
478.653076	19.288515
479.085139	19.313356
479.517186	19.328987
479.949219	19.346986
480.381235	19.356483
480.813236	19.358255
481.245221	19.365185
481.677191	19.362871
482.109146	19.353671
482.541084	19.343359
482.973008	19.323679
483.404915	19.301126
483.836807	19.275213
484.268683	19.240943
484.700544	19.197048
485.132388	19.158489
485.564217	19.121547
485.996031	19.067858
486.427828	19.017124
486.859610	18.960440
487.291376	18.896473
487.723126	18.831700
488.154860	18.754974
488.586579	18.672665
489.018281	18.588341
489.449968	18.504798
489.881639	18.419943
490.313293	18.334149
490.744932	18.248802
491.176555	18.149980
491.608162	18.050884
492.039753	17.943241
492.471328	17.830634
492.902886	17.712256
493.334429	17.594030
493.765956	17.468673
494.197466	17.353490
494.628960	17.230406
495.060439	17.111855
495.491901	16.999483
495.923347	16.889789
496.354776	16.780831
496.786190	16.675973
497.217587	16.571660
497.648968	16.478479
498.080332	16.388333
498.511681	16.299330
498.943013	16.216346
499.374328	16.157949
499.805628	16.100237
500.236911	16.063077
500.668177	16.037076
501.099427	16.027563
501.530661	16.042333
501.961878	16.072618
502.393079	16.121800
502.824264	16.188749
503.255431	16.271349
503.686583	16.375999
504.117717	16.497127
504.548835	16.649563
504.979937	16.821344
505.411022	17.016300
505.842090	17.230284
506.273142	17.472753
506.704177	17.742543
507.135195	18.040866
507.566197	18.362022
507.997182	18.718047
508.428150	19.106425
508.859102	19.516995
509.290036	19.963107
509.720954	20.447267
510.151855	20.951137
510.582739	21.492688
511.013607	22.050984
511.444457	22.640200
511.875291	23.245091
512.306107	23.886377
512.736907	24.540212
513.167690	25.231094
513.598456	25.939276
514.029205	26.679313
514.459936	27.449044
514.890651	28.239022
515.321349	29.056434
515.752030	29.902227
516.182693	30.766107
516.613340	31.655829
517.043969	32.564952
517.474582	33.491348
517.905177	34.417690
518.335755	35.348015
518.766315	36.290392
519.196859	37.239643
519.627385	38.180856
520.057894	39.118593
520.488386	40.056576
520.918860	40.991513
521.349318	41.934208
521.779757	42.875670
522.210180	43.832202
522.640585	44.774137
523.070973	45.720315
523.501343	46.667801
523.931696	47.604482
524.362031	48.546966
524.792349	49.488990
525.222650	50.434750
525.652933	51.374887
526.083198	52.305060
526.513446	53.213294
526.943677	54.119997
527.373890	55.025195
527.804085	55.920645
528.234262	56.799602
528.664422	57.687620
529.094565	58.561059
529.524689	59.416791
529.954796	60.266576
530.384885	61.098514
530.814957	61.905064
531.245011	62.723763
531.675047	63.531097
532.105065	64.322886
532.535065	65.116712
532.965048	65.904029
533.395013	66.663453
533.824959	67.411531
534.254888	68.156579
534.684799	68.896217
535.114693	69.629389
535.544568	70.336988
535.974425	71.046486
536.404264	71.707804
536.834086	72.356955
537.263889	73.000236
537.693674	73.626783
538.123441	74.235262
538.553190	74.812976
538.982921	75.368150
539.412634	75.912425
539.842329	76.466479
540.272006	76.985068
540.701664	77.473677
541.131304	77.954740
541.560926	78.414794
541.990530	78.854280
542.420116	79.284782
542.849683	79.699592
543.279232	80.110042
543.708763	80.502409
544.138275	80.898979
544.567769	81.256021
544.997245	81.619285
545.426702	81.975173
545.856141	82.322997
546.285562	82.677739
546.714964	83.027996
547.144347	83.373997
547.573713	83.722107
548.003059	84.055331
548.432387	84.395665
548.861697	84.742680
549.290988	85.084283
549.720260	85.433860
550.149514	85.781972
550.578750	86.126710
551.007966	86.450678
551.437164	86.783942
551.866344	87.110598
552.295504	87.426764
552.724646	87.751147
553.153769	88.061660
553.582874	88.382284
554.011960	88.695012
554.441027	88.987837
554.870075	89.281814
555.299104	89.567425
555.728115	89.814490
556.157106	90.077001
556.586079	90.305428
557.015033	90.531654
557.443968	90.738706
557.872884	90.938943
558.301781	91.110170
558.730659	91.305179
559.159518	91.462120
559.588358	91.610633
560.017180	91.754966
560.445982	91.891439
560.874765	92.013332
561.303528	92.134218
561.732273	92.257009
562.160999	92.359553
562.589705	92.462904
563.018393	92.570517
563.447061	92.677830
563.875710	92.780898
564.304340	92.900224
564.732950	93.009624
565.161542	93.120644
565.590114	93.238988
566.018666	93.352826
566.447200	93.469855
566.875714	93.576344
567.304208	93.699180
567.732684	93.816587
568.161140	93.943809
568.589576	94.069283
569.017993	94.200219
569.446391	94.316522
569.874769	94.444344
570.303128	94.557144
570.731467	94.674043
571.159787	94.781363
571.588087	94.900233
572.016368	94.978639
572.444629	95.063272
572.872870	95.134527
573.301092	95.206247
573.729294	95.254873
574.157476	95.303866
574.585639	95.347376
575.013782	95.369037
575.441906	95.390531
575.870009	95.409273
576.298093	95.418543
576.726157	95.433575
577.154202	95.434105
577.582226	95.442721
578.010231	95.432275
578.438216	95.436213
578.866181	95.427806
579.294126	95.429655
579.722051	95.426144
580.149957	95.447223
580.577842	95.464730
581.005707	95.475264
581.433553	95.490909
581.861378	95.517522
582.289184	95.554341
582.716969	95.593700
583.144734	95.618477
583.572479	95.664238
584.000205	95.707669
584.427910	95.760342
584.855594	95.795922
585.283259	95.834407
585.710904	95.890637
586.138528	95.929352
586.566132	95.965664
586.993716	96.010511
587.421280	96.043255
587.848823	96.074944
588.276346	96.102997
588.703849	96.116895
589.131332	96.120427
589.558794	96.124826
589.986236	96.090884
590.413657	96.060974
590.841058	96.011353
591.268438	95.961862
591.695799	95.891311
592.123138	95.809701
592.550458	95.714650
592.977756	95.615271
593.405034	95.495875
593.832292	95.363119
594.259529	95.227409
594.686746	95.073673
595.113942	94.909672
595.541117	94.741469
595.968272	94.561009
596.395406	94.388247
596.822519	94.212142
597.249612	94.044355
597.676684	93.867435
598.103735	93.688192
598.530766	93.530731
598.957775	93.360162
599.384764	93.202019
599.811733	93.031189
600.238680	92.883251
600.665606	92.735459
601.092512	92.589565
601.519397	92.451856
601.946261	92.332418
602.373104	92.195172
602.799926	92.052229
603.226727	91.930055
603.653507	91.800500
604.080266	91.664815
604.507004	91.539596
604.933721	91.401089
605.360417	91.280141
605.787092	91.150322
606.213746	91.003227
606.640379	90.851096
607.066991	90.688376
607.493581	90.529966
607.920150	90.364138
608.346699	90.189693
608.773226	90.005880
609.199731	89.825117
609.626216	89.636730
610.052679	89.426530
610.479121	89.195196
610.905542	88.965544
611.331941	88.746996
611.758319	88.490301
612.184676	88.228503
612.611011	87.964498
613.037325	87.693523
613.463617	87.390269
613.889888	87.082707
614.316138	86.754070
614.742366	86.409957
615.168573	86.049962
615.594758	85.684251
616.020921	85.316601
616.447063	84.935230
616.873184	84.543723
617.299283	84.149099
617.725360	83.738087
618.151416	83.341043
618.577450	82.917484
619.003462	82.484170
619.429453	82.062222
619.855422	81.632537
620.281369	81.206010
620.707295	80.778099
621.133199	80.338579
621.559081	79.887008
621.984941	79.435049
622.410779	78.965698
622.836596	78.485971
623.262391	78.006579
623.688163	77.519547
624.113914	77.021270
624.539644	76.502007
624.965351	75.966732
625.391036	75.417662
625.816699	74.833349
626.242340	74.237079
626.667960	73.609373
627.093557	72.955536
627.519132	72.295361
627.944685	71.606278
628.370216	70.888523
628.795725	70.162432
629.221212	69.398490
629.646677	68.619264
630.072119	67.830008
630.497540	67.021340
630.922938	66.197575
631.348314	65.358550
631.773668	64.515189
632.198999	63.669279
632.624308	62.813942
633.049595	61.957296
633.474860	61.101055
633.900102	60.237846
634.325322	59.380035
634.750520	58.532838
635.175695	57.677986
635.600848	56.833053
636.025978	55.993183
636.451086	55.154988
636.876171	54.321452
637.301234	53.477023
637.726275	52.642695
638.151293	51.817761
638.576288	50.982610
639.001261	50.168302
639.426211	49.359938
639.851139	48.550572
640.276044	47.748794
640.700927	46.951725
641.125787	46.161728
641.550624	45.389840
641.975438	44.619156
642.400230	43.871365
642.824999	43.133709
643.249745	42.407784
643.674469	41.701341
644.099169	41.014732
644.523847	40.343501
644.948502	39.699458
645.373135	39.068233
645.797744	38.464148
646.222330	37.882966
646.646894	37.326782
647.071435	36.797636
647.495953	36.302422
647.920447	35.831180
648.344919	35.399003
648.769368	34.995809
649.193794	34.630805
649.618197	34.302737
650.042576	34.012535
650.466933	33.770548
650.891267	33.563248
651.315577	33.400966
651.739864	33.286245
652.164129	33.210330
652.588370	33.174962
653.012587	33.194978
653.436782	33.258239
653.860953	33.363164
654.285102	33.513867
654.709226	33.705283
655.133328	33.948147
655.557406	34.228429
655.981461	34.558415
656.405493	34.928786
656.829501	35.341761
657.253486	35.791844
657.677448	36.276908
658.101386	36.789926
658.525301	37.345701
658.949192	37.924951
659.373060	38.533088
659.796904	39.164273
660.220725	39.823516
660.644522	40.493575
661.068296	41.191508
661.492046	41.906488
661.915772	42.637048
662.339475	43.374775
662.763154	44.126683
663.186810	44.885409
663.610442	45.645691
664.034050	46.412223
664.457635	47.181443
664.881196	47.951569
665.304733	48.728544
665.728247	49.498729
666.151736	50.267872
666.575202	51.031080
666.998644	51.799699
667.422062	52.566315
667.845457	53.326719
668.268827	54.075323
668.692174	54.825187
669.115496	55.554175
669.538795	56.278448
669.962070	56.992576
670.385321	57.704594
670.808547	58.400858
671.231750	59.092828
671.654929	59.770858
672.078084	60.438105
672.501214	61.093610
672.924321	61.738124
673.347404	62.380552
673.770462	63.011369
674.193496	63.620713
674.616506	64.212639
675.039492	64.792666
675.462454	65.353070
675.885391	65.885441
676.308305	66.400950
676.731194	66.911756
677.154058	67.399503
677.576899	67.855738
677.999715	68.303773
678.422507	68.729256
678.845274	69.137581
679.268017	69.531460
679.690736	69.911114
680.113430	70.261797
680.536100	70.606221
680.958746	70.938746
681.381367	71.271379
681.803963	71.583179
682.226535	71.907280
682.649083	72.233604
683.071605	72.564224
683.494104	72.884175
683.916578	73.214034
684.339027	73.534924
684.761451	73.857622
685.183851	74.178374
685.606227	74.511365
686.028577	74.853730
686.450903	75.186717
686.873204	75.524197
687.295481	75.879179
687.717733	76.235283
688.139959	76.591064
688.562162	76.947045
688.984339	77.310123
689.406492	77.678147
689.828619	78.045846
690.250722	78.412654
690.672800	78.807212
691.094853	79.204356
691.516881	79.588913
691.938884	79.984317
692.360863	80.373448
692.782816	80.770664
693.204744	81.173352
693.626647	81.566430
694.048526	81.961892
694.470379	82.348371
694.892207	82.733224
695.314010	83.114405
695.735788	83.491035
696.157540	83.855174
696.579268	84.227772
697.000970	84.587494
697.422648	84.951087
697.844300	85.301278
698.265926	85.649020
698.687528	85.971447
699.109104	86.287564
699.530655	86.585597
699.952181	86.876056
