PE UV       SUBTECH     SPECTRUM    ASCII       PEDS        4.00        
   -1
CICIMAUCR0009-1 fail.Sample.ASC
24/03/08
13:57:38.00
24/03/08
13:57:38.00
Vinicio Soto Monge
C. kalinini
250,000000
1
Lambda 1050
1050L1511233
PerkinElmer UV WinLab 6.3.2.0749 / 2.02.05 Lambda 900 UV/VIS/NIR, Aug  7 2015 09:38:08

0
0
3350/servo 860,8/2
0
0
UV/VIS
1
1
1
DoubleDePol,CommonBeamDepol,RBeamAtt,SBeamAtt,60mm sphere, WB InGaAs Detector
0
0
0
0
Program
Program
3350/servo 860,8/2
3350/0,2 860,8/0,2
3350/0,2 860,8/0,2
0
15.00
 
 
 
0
 
860,8
319,2
860,8
Front
100
on
S:100 R:100
0
0
0
0
 
0
 
 
 
0
 
 
0
0
0
0
0
 
 
 
 
0
0


0
0
#HDR
-1
-1
#GR
nm
%R
1.0
0.0
2500,000000
-1,000000
2251
8
24,370700
1,836500
#DATA
250.000000	nan
251.000000	nan
252.000000	nan
253.000000	nan
254.000000	nan
255.000000	nan
256.000000	nan
257.000000	nan
258.000000	nan
259.000000	nan
260.000000	nan
261.000000	nan
262.000000	nan
263.000000	nan
264.000000	nan
265.000000	nan
266.000000	nan
267.000000	nan
268.000000	nan
269.000000	nan
270.000000	nan
271.000000	nan
272.000000	nan
273.000000	nan
274.000000	nan
275.000000	nan
276.000000	nan
277.000000	nan
278.000000	nan
279.000000	nan
280.000000	nan
281.000000	nan
282.000000	nan
283.000000	nan
284.000000	2.192648
285.000000	2.187597
286.000000	2.182064
287.000000	2.177396
288.000000	2.173159
289.000000	2.169631
290.000000	2.165314
291.000000	2.160847
292.000000	2.156623
293.000000	2.153858
294.000000	2.149847
295.000000	2.144822
296.000000	2.138928
297.000000	2.135418
298.000000	2.131743
299.000000	2.128487
300.000000	2.126606
301.000000	2.123812
302.000000	2.120182
303.000000	2.118161
304.000000	2.113780
305.000000	2.111146
306.000000	2.109853
307.000000	2.107800
308.000000	2.107078
309.000000	2.105316
310.000000	2.103393
311.000000	2.101963
312.000000	2.101752
313.000000	2.101206
314.000000	2.101497
315.000000	2.101111
316.000000	2.102289
317.000000	2.127347
318.000000	2.136571
319.000000	2.148484
320.000000	2.160445
321.000000	2.177629
322.000000	2.196046
323.000000	2.209386
324.000000	2.222783
325.000000	2.232796
326.000000	2.249776
327.000000	2.264052
328.000000	2.275476
329.000000	2.282842
330.000000	2.293554
331.000000	2.310384
332.000000	2.317926
333.000000	2.323494
334.000000	2.332712
335.000000	2.341652
336.000000	2.353067
337.000000	2.362889
338.000000	2.365593
339.000000	2.374904
340.000000	2.383387
341.000000	2.389409
342.000000	2.398381
343.000000	2.406552
344.000000	2.415454
345.000000	2.424241
346.000000	2.432319
347.000000	2.438976
348.000000	2.446345
349.000000	2.450879
350.000000	2.456671
351.000000	2.460924
352.000000	2.443593
353.000000	2.441179
354.000000	2.434640
355.000000	2.431986
356.000000	2.424640
357.000000	2.414467
358.000000	2.409876
359.000000	2.405872
360.000000	2.406012
361.000000	2.397069
362.000000	2.393684
363.000000	2.389709
364.000000	2.391928
365.000000	2.391117
366.000000	2.382008
367.000000	2.383007
368.000000	2.385807
369.000000	2.384712
370.000000	2.385076
371.000000	2.381906
372.000000	2.380347
373.000000	2.383614
374.000000	2.382541
375.000000	2.377247
376.000000	2.375584
377.000000	2.370705
378.000000	2.364546
379.000000	2.359095
380.000000	2.354175
381.000000	2.351129
382.000000	2.348511
383.000000	2.346311
384.000000	2.346812
385.000000	2.346423
386.000000	2.345928
387.000000	2.343725
388.000000	2.343951
389.000000	2.344753
390.000000	2.342265
391.000000	2.340426
392.000000	2.340602
393.000000	2.341512
394.000000	2.342792
395.000000	2.344884
396.000000	2.349574
397.000000	2.352735
398.000000	2.358786
399.000000	2.364970
400.000000	2.373741
401.000000	2.386708
402.000000	2.399728
403.000000	2.415032
404.000000	2.432772
405.000000	2.450496
406.000000	2.472987
407.000000	2.499229
408.000000	2.528540
409.000000	2.561389
410.000000	2.602128
411.000000	2.644906
412.000000	2.692800
413.000000	2.744998
414.000000	2.800999
415.000000	2.860652
416.000000	2.924762
417.000000	2.993752
418.000000	3.066729
419.000000	3.144190
420.000000	3.226235
421.000000	3.312536
422.000000	3.403177
423.000000	3.497630
424.000000	3.595847
425.000000	3.697765
426.000000	3.802969
427.000000	3.911528
428.000000	4.023395
429.000000	4.137708
430.000000	4.254422
431.000000	4.373426
432.000000	4.494763
433.000000	4.617591
434.000000	4.741793
435.000000	4.867204
436.000000	4.993963
437.000000	5.121875
438.000000	5.249582
439.000000	5.377197
440.000000	5.505319
441.000000	5.633004
442.000000	5.759833
443.000000	5.885334
444.000000	6.008852
445.000000	6.131342
446.000000	6.252526
447.000000	6.370929
448.000000	6.486372
449.000000	6.599520
450.000000	6.709733
451.000000	6.816341
452.000000	6.919173
453.000000	7.018565
454.000000	7.114471
455.000000	7.206708
456.000000	7.295046
457.000000	7.379119
458.000000	7.459494
459.000000	7.536536
460.000000	7.609875
461.000000	7.679279
462.000000	7.744600
463.000000	7.805451
464.000000	7.862182
465.000000	7.915290
466.000000	7.964461
467.000000	8.009606
468.000000	8.051248
469.000000	8.088806
470.000000	8.122492
471.000000	8.152122
472.000000	8.177921
473.000000	8.200887
474.000000	8.220773
475.000000	8.237826
476.000000	8.252562
477.000000	8.265020
478.000000	8.276020
479.000000	8.286075
480.000000	8.293999
481.000000	8.299300
482.000000	8.303811
483.000000	8.308326
484.000000	8.313779
485.000000	8.321085
486.000000	8.330504
487.000000	8.342631
488.000000	8.357194
489.000000	8.374534
490.000000	8.394219
491.000000	8.416409
492.000000	8.441551
493.000000	8.469706
494.000000	8.500361
495.000000	8.533120
496.000000	8.567997
497.000000	8.604718
498.000000	8.643627
499.000000	8.684931
500.000000	8.728080
501.000000	8.773346
502.000000	8.821032
503.000000	8.870593
504.000000	8.922973
505.000000	8.977827
506.000000	9.035628
507.000000	9.095809
508.000000	9.159137
509.000000	9.226016
510.000000	9.296171
511.000000	9.369825
512.000000	9.447445
513.000000	9.529018
514.000000	9.614588
515.000000	9.704855
516.000000	9.800288
517.000000	9.900766
518.000000	10.005334
519.000000	10.113421
520.000000	10.224997
521.000000	10.339694
522.000000	10.457219
523.000000	10.578345
524.000000	10.703131
525.000000	10.832051
526.000000	10.965972
527.000000	11.105036
528.000000	11.249462
529.000000	11.399785
530.000000	11.556758
531.000000	11.720255
532.000000	11.890789
533.000000	12.068599
534.000000	12.253543
535.000000	12.445530
536.000000	12.643922
537.000000	12.848294
538.000000	13.058874
539.000000	13.274980
540.000000	13.496642
541.000000	13.722896
542.000000	13.953849
543.000000	14.189088
544.000000	14.427580
545.000000	14.669233
546.000000	14.913178
547.000000	15.159901
548.000000	15.408196
549.000000	15.657898
550.000000	15.907492
551.000000	16.156868
552.000000	16.405309
553.000000	16.652173
554.000000	16.897811
555.000000	17.142079
556.000000	17.385089
557.000000	17.626247
558.000000	17.864059
559.000000	18.097969
560.000000	18.314455
561.000000	18.521918
562.000000	18.721901
563.000000	18.913667
564.000000	19.096928
565.000000	19.272344
566.000000	19.440726
567.000000	19.601959
568.000000	19.756879
569.000000	19.905277
570.000000	20.047808
571.000000	20.183383
572.000000	20.312249
573.000000	20.434123
574.000000	20.549700
575.000000	20.658742
576.000000	20.762125
577.000000	20.861096
578.000000	20.955623
579.000000	21.045867
580.000000	21.131565
581.000000	21.212611
582.000000	21.287166
583.000000	21.354888
584.000000	21.415780
585.000000	21.469335
586.000000	21.515616
587.000000	21.555202
588.000000	21.587897
589.000000	21.614303
590.000000	21.633703
591.000000	21.646456
592.000000	21.652152
593.000000	21.651963
594.000000	21.644336
595.000000	21.644307
596.000000	21.639786
597.000000	21.629469
598.000000	21.613735
599.000000	21.592080
600.000000	21.565748
601.000000	21.533679
602.000000	21.497072
603.000000	21.453658
604.000000	21.404538
605.000000	21.350619
606.000000	21.293156
607.000000	21.231437
608.000000	21.167055
609.000000	21.097717
610.000000	21.024267
611.000000	20.946105
612.000000	20.861310
613.000000	20.770912
614.000000	20.675473
615.000000	20.573478
616.000000	20.466697
617.000000	20.353891
618.000000	20.237969
619.000000	20.117440
620.000000	19.993973
621.000000	19.867022
622.000000	19.736783
623.000000	19.604095
624.000000	19.467636
625.000000	19.327961
626.000000	19.185417
627.000000	19.042048
628.000000	18.898887
629.000000	18.756988
630.000000	18.615797
631.000000	18.479204
632.000000	18.347971
633.000000	18.222959
634.000000	18.105166
635.000000	17.993267
636.000000	17.888536
637.000000	17.790024
638.000000	17.699138
639.000000	17.617431
640.000000	17.543397
641.000000	17.477514
642.000000	17.421523
643.000000	17.373642
644.000000	17.335605
645.000000	17.307440
646.000000	17.289250
647.000000	17.281740
648.000000	17.283761
649.000000	17.293615
650.000000	17.313545
651.000000	17.341282
652.000000	17.378594
653.000000	17.423337
654.000000	17.474947
655.000000	17.534099
656.000000	17.600544
657.000000	17.672934
658.000000	17.750065
659.000000	17.831909
660.000000	17.918549
661.000000	18.009072
662.000000	18.101730
663.000000	18.195327
664.000000	18.290997
665.000000	18.387563
666.000000	18.484223
667.000000	18.581061
668.000000	18.677461
669.000000	18.773677
670.000000	18.870387
671.000000	18.967586
672.000000	19.065079
673.000000	19.164474
674.000000	19.264199
675.000000	19.364859
676.000000	19.467869
677.000000	19.571802
678.000000	19.677059
679.000000	19.783847
680.000000	19.893214
681.000000	20.005125
682.000000	20.118969
683.000000	20.235402
684.000000	20.354773
685.000000	20.476800
686.000000	20.602505
687.000000	20.730978
688.000000	20.862741
689.000000	20.998724
690.000000	21.138816
691.000000	21.281514
692.000000	21.428967
693.000000	21.581195
694.000000	21.737099
695.000000	21.896627
696.000000	22.059520
697.000000	22.225488
698.000000	22.394678
699.000000	22.567182
700.000000	22.741643
701.000000	22.916596
702.000000	23.092427
703.000000	23.268989
704.000000	23.445423
705.000000	23.620044
706.000000	23.791833
707.000000	23.960429
708.000000	24.124538
709.000000	24.283903
710.000000	24.437154
711.000000	24.581480
712.000000	24.719331
713.000000	24.849858
714.000000	24.972514
715.000000	25.087252
716.000000	25.194272
717.000000	25.292607
718.000000	25.382555
719.000000	25.465894
720.000000	25.541610
721.000000	25.609987
722.000000	25.672891
723.000000	25.729910
724.000000	25.781079
725.000000	25.826888
726.000000	25.869693
727.000000	25.907506
728.000000	25.941323
729.000000	25.973265
730.000000	26.001643
731.000000	26.027889
732.000000	26.053675
733.000000	26.077663
734.000000	26.100081
735.000000	26.122284
736.000000	26.145053
737.000000	26.167946
738.000000	26.190817
739.000000	26.212657
740.000000	26.235240
741.000000	26.258530
742.000000	26.282783
743.000000	26.307279
744.000000	26.330744
745.000000	26.355457
746.000000	26.382859
747.000000	26.410605
748.000000	26.439514
749.000000	26.468646
750.000000	26.496482
751.000000	26.524500
752.000000	26.555299
753.000000	26.586634
754.000000	26.616820
755.000000	26.647788
756.000000	26.679564
757.000000	26.710031
758.000000	26.739393
759.000000	26.767807
760.000000	26.795643
761.000000	26.824104
762.000000	26.851203
763.000000	26.878148
764.000000	26.903988
765.000000	26.929103
766.000000	26.951364
767.000000	26.970385
768.000000	26.990043
769.000000	27.008463
770.000000	27.023780
771.000000	27.036673
772.000000	27.046415
773.000000	27.054001
774.000000	27.060055
775.000000	27.063363
776.000000	27.063107
777.000000	27.060620
778.000000	27.055032
779.000000	27.046028
780.000000	27.033065
781.000000	27.016101
782.000000	26.994740
783.000000	26.970806
784.000000	26.944861
785.000000	26.915878
786.000000	26.883908
787.000000	26.847767
788.000000	26.807993
789.000000	26.765128
790.000000	26.719460
791.000000	26.667814
792.000000	26.613429
793.000000	26.555739
794.000000	26.495540
795.000000	26.431995
796.000000	26.361479
797.000000	26.288725
798.000000	26.212488
799.000000	26.130305
800.000000	26.043761
801.000000	25.955541
802.000000	25.865567
803.000000	25.769904
804.000000	25.668031
805.000000	25.561563
806.000000	25.452921
807.000000	25.342168
808.000000	25.229104
809.000000	25.111792
810.000000	24.991729
811.000000	24.871417
812.000000	24.748885
813.000000	24.624447
814.000000	24.498819
815.000000	24.372354
816.000000	24.244924
817.000000	24.115624
818.000000	23.988587
819.000000	23.861946
820.000000	23.736835
821.000000	23.613202
822.000000	23.489799
823.000000	23.367813
824.000000	23.250579
825.000000	23.136211
826.000000	23.026452
827.000000	22.917426
828.000000	22.814419
829.000000	22.714203
830.000000	22.615143
831.000000	22.523838
832.000000	22.436026
833.000000	22.354725
834.000000	22.278101
835.000000	22.203959
836.000000	22.135585
837.000000	22.072327
838.000000	22.013916
839.000000	21.963592
840.000000	21.913023
841.000000	21.871649
842.000000	21.832248
843.000000	21.793914
844.000000	21.762480
845.000000	21.733418
846.000000	21.706974
847.000000	21.681868
848.000000	21.659693
849.000000	21.640418
850.000000	21.630098
851.000000	21.618789
852.000000	21.606413
853.000000	21.598230
854.000000	21.592058
855.000000	21.588645
856.000000	21.585640
857.000000	21.596059
858.000000	21.685677
859.000000	21.710629
860.000000	21.735358
861.000000	21.760855
862.000000	21.789453
863.000000	21.816290
864.000000	21.843523
865.000000	21.872149
866.000000	21.898013
867.000000	21.923405
868.000000	21.945446
869.000000	21.967885
870.000000	21.992910
871.000000	22.015701
872.000000	22.036552
873.000000	22.057348
874.000000	22.076707
875.000000	22.102917
876.000000	22.123920
877.000000	22.145933
878.000000	22.169838
879.000000	22.191405
880.000000	22.213435
881.000000	22.235208
882.000000	22.258024
883.000000	22.281214
884.000000	22.306191
885.000000	22.324120
886.000000	22.345817
887.000000	22.373308
888.000000	22.395297
889.000000	22.416502
890.000000	22.435804
891.000000	22.453272
892.000000	22.457977
893.000000	22.383860
894.000000	22.371746
895.000000	22.356326
896.000000	22.339263
897.000000	22.319926
898.000000	22.298363
899.000000	22.276014
900.000000	22.252943
901.000000	22.228571
902.000000	22.202660
903.000000	22.175374
904.000000	22.147566
905.000000	22.118306
906.000000	22.088177
907.000000	22.057229
908.000000	22.025283
909.000000	21.992563
910.000000	21.958969
911.000000	21.924771
912.000000	21.890317
913.000000	21.855491
914.000000	21.821100
915.000000	21.787243
916.000000	21.752451
917.000000	21.717400
918.000000	21.682626
919.000000	21.646446
920.000000	21.611474
921.000000	21.577111
922.000000	21.542217
923.000000	21.506960
924.000000	21.471040
925.000000	21.435506
926.000000	21.401306
927.000000	21.367731
928.000000	21.334626
929.000000	21.301666
930.000000	21.270626
931.000000	21.239443
932.000000	21.209020
933.000000	21.179577
934.000000	21.150746
935.000000	21.122283
936.000000	21.094657
937.000000	21.068260
938.000000	21.042963
939.000000	21.017660
940.000000	20.992997
941.000000	20.968340
942.000000	20.944174
943.000000	20.919871
944.000000	20.894771
945.000000	20.870557
946.000000	20.846437
947.000000	20.822917
948.000000	20.798700
949.000000	20.774566
950.000000	20.750620
951.000000	20.727077
952.000000	20.704314
953.000000	20.681320
954.000000	20.658820
955.000000	20.636137
956.000000	20.613363
957.000000	20.591997
958.000000	20.571057
959.000000	20.551103
960.000000	20.530971
961.000000	20.511063
962.000000	20.492123
963.000000	20.473060
964.000000	20.454940
965.000000	20.437400
966.000000	20.421031
967.000000	20.405700
968.000000	20.390989
969.000000	20.377151
970.000000	20.364097
971.000000	20.351789
972.000000	20.339146
973.000000	20.327420
974.000000	20.316631
975.000000	20.306877
976.000000	20.298331
977.000000	20.290271
978.000000	20.283160
979.000000	20.277291
980.000000	20.271171
981.000000	20.265423
982.000000	20.260183
983.000000	20.255134
984.000000	20.250326
985.000000	20.245434
986.000000	20.240671
987.000000	20.235649
988.000000	20.230980
989.000000	20.226851
990.000000	20.223357
991.000000	20.220300
992.000000	20.216943
993.000000	20.214051
994.000000	20.211997
995.000000	20.211003
996.000000	20.210066
997.000000	20.209997
998.000000	20.211280
999.000000	20.212431
1000.000000	20.214651
1001.000000	20.217631
1002.000000	20.220694
1003.000000	20.223689
1004.000000	20.227249
1005.000000	20.231420
1006.000000	20.235740
1007.000000	20.241006
1008.000000	20.245863
1009.000000	20.251551
1010.000000	20.258023
1011.000000	20.264620
1012.000000	20.271580
1013.000000	20.279529
1014.000000	20.288120
1015.000000	20.297343
1016.000000	20.307646
1017.000000	20.318871
1018.000000	20.331357
1019.000000	20.344723
1020.000000	20.359609
1021.000000	20.376137
1022.000000	20.394114
1023.000000	20.413049
1024.000000	20.432954
1025.000000	20.453791
1026.000000	20.475303
1027.000000	20.497851
1028.000000	20.521683
1029.000000	20.546086
1030.000000	20.571540
1031.000000	20.598463
1032.000000	20.625703
1033.000000	20.653166
1034.000000	20.681906
1035.000000	20.710717
1036.000000	20.739429
1037.000000	20.768923
1038.000000	20.800043
1039.000000	20.830871
1040.000000	20.861477
1041.000000	20.892886
1042.000000	20.924889
1043.000000	20.957383
1044.000000	20.989911
1045.000000	21.022343
1046.000000	21.055209
1047.000000	21.088500
1048.000000	21.121497
1049.000000	21.154706
1050.000000	21.187771
1051.000000	21.220194
1052.000000	21.251951
1053.000000	21.284277
1054.000000	21.316900
1055.000000	21.348511
1056.000000	21.380183
1057.000000	21.411689
1058.000000	21.442986
1059.000000	21.474309
1060.000000	21.505303
1061.000000	21.537000
1062.000000	21.568226
1063.000000	21.598809
1064.000000	21.629626
1065.000000	21.660337
1066.000000	21.690537
1067.000000	21.721086
1068.000000	21.752020
1069.000000	21.782786
1070.000000	21.813209
1071.000000	21.843866
1072.000000	21.874394
1073.000000	21.904829
1074.000000	21.935814
1075.000000	21.967337
1076.000000	21.998577
1077.000000	22.030303
1078.000000	22.062849
1079.000000	22.095720
1080.000000	22.128586
1081.000000	22.161317
1082.000000	22.194209
1083.000000	22.227151
1084.000000	22.260254
1085.000000	22.293726
1086.000000	22.327891
1087.000000	22.362617
1088.000000	22.396860
1089.000000	22.430794
1090.000000	22.464603
1091.000000	22.497486
1092.000000	22.529891
1093.000000	22.561917
1094.000000	22.592974
1095.000000	22.623960
1096.000000	22.653531
1097.000000	22.682740
1098.000000	22.710986
1099.000000	22.738340
1100.000000	22.765274
1101.000000	22.791737
1102.000000	22.817043
1103.000000	22.841031
1104.000000	22.865071
1105.000000	22.888529
1106.000000	22.911683
1107.000000	22.934094
1108.000000	22.955254
1109.000000	22.974669
1110.000000	22.993626
1111.000000	23.012074
1112.000000	23.029706
1113.000000	23.046014
1114.000000	23.061514
1115.000000	23.076186
1116.000000	23.090251
1117.000000	23.103737
1118.000000	23.116537
1119.000000	23.127951
1120.000000	23.138209
1121.000000	23.146360
1122.000000	23.152951
1123.000000	23.158183
1124.000000	23.161371
1125.000000	23.163089
1126.000000	23.163003
1127.000000	23.161380
1128.000000	23.156854
1129.000000	23.149451
1130.000000	23.137726
1131.000000	23.122180
1132.000000	23.101251
1133.000000	23.075257
1134.000000	23.045277
1135.000000	23.009349
1136.000000	22.968054
1137.000000	22.920829
1138.000000	22.867571
1139.000000	22.807789
1140.000000	22.742786
1141.000000	22.672811
1142.000000	22.597566
1143.000000	22.517680
1144.000000	22.433934
1145.000000	22.346777
1146.000000	22.257154
1147.000000	22.165414
1148.000000	22.072494
1149.000000	21.979083
1150.000000	21.884951
1151.000000	21.790580
1152.000000	21.695946
1153.000000	21.600851
1154.000000	21.503174
1155.000000	21.403294
1156.000000	21.301986
1157.000000	21.197186
1158.000000	21.088829
1159.000000	20.977397
1160.000000	20.861591
1161.000000	20.743206
1162.000000	20.621326
1163.000000	20.496997
1164.000000	20.369263
1165.000000	20.240483
1166.000000	20.109646
1167.000000	19.979157
1168.000000	19.849294
1169.000000	19.719617
1170.000000	19.590029
1171.000000	19.460914
1172.000000	19.333717
1173.000000	19.209060
1174.000000	19.085837
1175.000000	18.964446
1176.000000	18.843937
1177.000000	18.724520
1178.000000	18.604503
1179.000000	18.483591
1180.000000	18.359986
1181.000000	18.232769
1182.000000	18.101717
1183.000000	17.966743
1184.000000	17.828600
1185.000000	17.689083
1186.000000	17.549557
1187.000000	17.410137
1188.000000	17.272749
1189.000000	17.141743
1190.000000	17.018283
1191.000000	16.902694
1192.000000	16.796534
1193.000000	16.699137
1194.000000	16.610577
1195.000000	16.530677
1196.000000	16.457209
1197.000000	16.390491
1198.000000	16.330200
1199.000000	16.277711
1200.000000	16.229909
1201.000000	16.188209
1202.000000	16.151517
1203.000000	16.120229
1204.000000	16.092069
1205.000000	16.069100
1206.000000	16.051314
1207.000000	16.038226
1208.000000	16.029623
1209.000000	16.026403
1210.000000	16.027677
1211.000000	16.033397
1212.000000	16.044606
1213.000000	16.063011
1214.000000	16.088326
1215.000000	16.120937
1216.000000	16.161263
1217.000000	16.208774
1218.000000	16.262966
1219.000000	16.322271
1220.000000	16.386174
1221.000000	16.452660
1222.000000	16.520946
1223.000000	16.589920
1224.000000	16.657789
1225.000000	16.722209
1226.000000	16.783357
1227.000000	16.841103
1228.000000	16.896631
1229.000000	16.950223
1230.000000	17.002940
1231.000000	17.054889
1232.000000	17.106754
1233.000000	17.159234
1234.000000	17.212314
1235.000000	17.267149
1236.000000	17.323329
1237.000000	17.380791
1238.000000	17.439486
1239.000000	17.500454
1240.000000	17.562820
1241.000000	17.626651
1242.000000	17.691211
1243.000000	17.756837
1244.000000	17.823197
1245.000000	17.889106
1246.000000	17.955831
1247.000000	18.022680
1248.000000	18.088903
1249.000000	18.154909
1250.000000	18.220714
1251.000000	18.286043
1252.000000	18.351000
1253.000000	18.416100
1254.000000	18.480417
1255.000000	18.543289
1256.000000	18.604729
1257.000000	18.665180
1258.000000	18.724297
1259.000000	18.781483
1260.000000	18.838066
1261.000000	18.893697
1262.000000	18.947566
1263.000000	18.999391
1264.000000	19.049180
1265.000000	19.097989
1266.000000	19.146040
1267.000000	19.192611
1268.000000	19.237774
1269.000000	19.281291
1270.000000	19.323060
1271.000000	19.362771
1272.000000	19.401086
1273.000000	19.438557
1274.000000	19.474711
1275.000000	19.509520
1276.000000	19.543034
1277.000000	19.575514
1278.000000	19.606446
1279.000000	19.636300
1280.000000	19.665957
1281.000000	19.694686
1282.000000	19.722586
1283.000000	19.749951
1284.000000	19.776400
1285.000000	19.802191
1286.000000	19.827591
1287.000000	19.852246
1288.000000	19.875734
1289.000000	19.898814
1290.000000	19.921697
1291.000000	19.944157
1292.000000	19.965969
1293.000000	19.986517
1294.000000	20.006266
1295.000000	20.025540
1296.000000	20.044120
1297.000000	20.062300
1298.000000	20.080280
1299.000000	20.097586
1300.000000	20.113617
1301.000000	20.128780
1302.000000	20.142986
1303.000000	20.156306
1304.000000	20.168886
1305.000000	20.180851
1306.000000	20.192837
1307.000000	20.203826
1308.000000	20.212651
1309.000000	20.220029
1310.000000	20.226560
1311.000000	20.231451
1312.000000	20.234306
1313.000000	20.235760
1314.000000	20.235606
1315.000000	20.233209
1316.000000	20.228680
1317.000000	20.222023
1318.000000	20.212889
1319.000000	20.201766
1320.000000	20.187769
1321.000000	20.171243
1322.000000	20.152426
1323.000000	20.131226
1324.000000	20.107991
1325.000000	20.081600
1326.000000	20.051800
1327.000000	20.019526
1328.000000	19.984769
1329.000000	19.947800
1330.000000	19.908049
1331.000000	19.864760
1332.000000	19.818254
1333.000000	19.768563
1334.000000	19.715820
1335.000000	19.659457
1336.000000	19.599566
1337.000000	19.536174
1338.000000	19.469217
1339.000000	19.398854
1340.000000	19.325351
1341.000000	19.248166
1342.000000	19.167411
1343.000000	19.083960
1344.000000	18.997383
1345.000000	18.906743
1346.000000	18.812251
1347.000000	18.715014
1348.000000	18.613751
1349.000000	18.507837
1350.000000	18.397620
1351.000000	18.282640
1352.000000	18.162354
1353.000000	18.037303
1354.000000	17.907694
1355.000000	17.774740
1356.000000	17.639589
1357.000000	17.502969
1358.000000	17.365889
1359.000000	17.228729
1360.000000	17.091629
1361.000000	16.956737
1362.000000	16.824103
1363.000000	16.692117
1364.000000	16.560063
1365.000000	16.428097
1366.000000	16.295983
1367.000000	16.163454
1368.000000	16.030549
1369.000000	15.896789
1370.000000	15.761860
1371.000000	15.625240
1372.000000	15.486211
1373.000000	15.345286
1374.000000	15.200794
1375.000000	15.053983
1376.000000	14.905957
1377.000000	14.756934
1378.000000	14.607243
1379.000000	14.456723
1380.000000	14.306420
1381.000000	14.157417
1382.000000	14.009014
1383.000000	13.861800
1384.000000	13.715926
1385.000000	13.571403
1386.000000	13.428777
1387.000000	13.290151
1388.000000	13.155720
1389.000000	13.026009
1390.000000	12.899574
1391.000000	12.775874
1392.000000	12.654600
1393.000000	12.534894
1394.000000	12.415826
1395.000000	12.298497
1396.000000	12.182314
1397.000000	12.065049
1398.000000	11.946857
1399.000000	11.828731
1400.000000	11.711911
1401.000000	11.598266
1402.000000	11.484511
1403.000000	11.369560
1404.000000	11.255751
1405.000000	11.144266
1406.000000	11.034517
1407.000000	10.927311
1408.000000	10.822951
1409.000000	10.723300
1410.000000	10.626629
1411.000000	10.532571
1412.000000	10.440689
1413.000000	10.351331
1414.000000	10.264554
1415.000000	10.181554
1416.000000	10.099169
1417.000000	10.017894
1418.000000	9.938454
1419.000000	9.861640
1420.000000	9.787789
1421.000000	9.715723
1422.000000	9.643577
1423.000000	9.571346
1424.000000	9.498940
1425.000000	9.427389
1426.000000	9.354851
1427.000000	9.280580
1428.000000	9.206060
1429.000000	9.131291
1430.000000	9.055449
1431.000000	8.977257
1432.000000	8.899283
1433.000000	8.823351
1434.000000	8.748306
1435.000000	8.672209
1436.000000	8.595203
1437.000000	8.521577
1438.000000	8.450749
1439.000000	8.382117
1440.000000	8.313920
1441.000000	8.247994
1442.000000	8.184909
1443.000000	8.124037
1444.000000	8.063894
1445.000000	8.005889
1446.000000	7.950117
1447.000000	7.895943
1448.000000	7.842637
1449.000000	7.790511
1450.000000	7.738771
1451.000000	7.688800
1452.000000	7.640380
1453.000000	7.593303
1454.000000	7.546971
1455.000000	7.501057
1456.000000	7.456774
1457.000000	7.414506
1458.000000	7.374420
1459.000000	7.335863
1460.000000	7.297391
1461.000000	7.261117
1462.000000	7.226860
1463.000000	7.193674
1464.000000	7.161134
1465.000000	7.130543
1466.000000	7.100989
1467.000000	7.071814
1468.000000	7.044091
1469.000000	7.017537
1470.000000	6.992589
1471.000000	6.968857
1472.000000	6.945143
1473.000000	6.924077
1474.000000	6.903143
1475.000000	6.883834
1476.000000	6.865700
1477.000000	6.848551
1478.000000	6.832340
1479.000000	6.817554
1480.000000	6.803583
1481.000000	6.790606
1482.000000	6.779669
1483.000000	6.769357
1484.000000	6.759674
1485.000000	6.751180
1486.000000	6.744329
1487.000000	6.738880
1488.000000	6.733794
1489.000000	6.729926
1490.000000	6.726917
1491.000000	6.725457
1492.000000	6.724911
1493.000000	6.724666
1494.000000	6.724286
1495.000000	6.725614
1496.000000	6.727246
1497.000000	6.729929
1498.000000	6.732703
1499.000000	6.736189
1500.000000	6.739966
1501.000000	6.745340
1502.000000	6.751734
1503.000000	6.757929
1504.000000	6.764811
1505.000000	6.772566
1506.000000	6.780040
1507.000000	6.788377
1508.000000	6.796857
1509.000000	6.806394
1510.000000	6.816297
1511.000000	6.826506
1512.000000	6.836883
1513.000000	6.847671
1514.000000	6.858920
1515.000000	6.870354
1516.000000	6.881034
1517.000000	6.890854
1518.000000	6.901671
1519.000000	6.913391
1520.000000	6.924443
1521.000000	6.935237
1522.000000	6.945531
1523.000000	6.956434
1524.000000	6.967220
1525.000000	6.978051
1526.000000	6.988494
1527.000000	6.998994
1528.000000	7.009417
1529.000000	7.019989
1530.000000	7.030357
1531.000000	7.040969
1532.000000	7.051103
1533.000000	7.061040
1534.000000	7.070949
1535.000000	7.080226
1536.000000	7.088643
1537.000000	7.096211
1538.000000	7.103263
1539.000000	7.109897
1540.000000	7.115820
1541.000000	7.122274
1542.000000	7.128757
1543.000000	7.134137
1544.000000	7.138566
1545.000000	7.142840
1546.000000	7.146629
1547.000000	7.150120
1548.000000	7.153163
1549.000000	7.156183
1550.000000	7.159014
1551.000000	7.161971
1552.000000	7.165060
1553.000000	7.168226
1554.000000	7.171457
1555.000000	7.174414
1556.000000	7.177034
1557.000000	7.179523
1558.000000	7.181686
1559.000000	7.183357
1560.000000	7.185211
1561.000000	7.187071
1562.000000	7.188886
1563.000000	7.190011
1564.000000	7.190920
1565.000000	7.191734
1566.000000	7.191683
1567.000000	7.191674
1568.000000	7.191654
1569.000000	7.191191
1570.000000	7.191077
1571.000000	7.191337
1572.000000	7.191720
1573.000000	7.192077
1574.000000	7.192509
1575.000000	7.193474
1576.000000	7.194066
1577.000000	7.194466
1578.000000	7.195397
1579.000000	7.196911
1580.000000	7.198809
1581.000000	7.201166
1582.000000	7.204086
1583.000000	7.207649
1584.000000	7.211160
1585.000000	7.214597
1586.000000	7.218549
1587.000000	7.223246
1588.000000	7.227386
1589.000000	7.231237
1590.000000	7.236294
1591.000000	7.241860
1592.000000	7.247974
1593.000000	7.254791
1594.000000	7.262080
1595.000000	7.270194
1596.000000	7.278849
1597.000000	7.287997
1598.000000	7.298394
1599.000000	7.309440
1600.000000	7.320771
1601.000000	7.333369
1602.000000	7.346394
1603.000000	7.360011
1604.000000	7.374511
1605.000000	7.389374
1606.000000	7.404877
1607.000000	7.421423
1608.000000	7.438583
1609.000000	7.456326
1610.000000	7.474786
1611.000000	7.493523
1612.000000	7.511997
1613.000000	7.530534
1614.000000	7.550340
1615.000000	7.570417
1616.000000	7.590569
1617.000000	7.610160
1618.000000	7.629383
1619.000000	7.649449
1620.000000	7.670217
1621.000000	7.690846
1622.000000	7.711591
1623.000000	7.732291
1624.000000	7.752609
1625.000000	7.773106
1626.000000	7.794377
1627.000000	7.815377
1628.000000	7.836409
1629.000000	7.857831
1630.000000	7.878934
1631.000000	7.900131
1632.000000	7.921254
1633.000000	7.941894
1634.000000	7.963223
1635.000000	7.984820
1636.000000	8.006137
1637.000000	8.027194
1638.000000	8.047874
1639.000000	8.068923
1640.000000	8.089643
1641.000000	8.109894
1642.000000	8.129691
1643.000000	8.149274
1644.000000	8.169203
1645.000000	8.188140
1646.000000	8.207106
1647.000000	8.226491
1648.000000	8.246177
1649.000000	8.264286
1650.000000	8.281977
1651.000000	8.299397
1652.000000	8.316954
1653.000000	8.334420
1654.000000	8.350797
1655.000000	8.366594
1656.000000	8.381700
1657.000000	8.395657
1658.000000	8.409803
1659.000000	8.423086
1660.000000	8.434126
1661.000000	8.444451
1662.000000	8.453857
1663.000000	8.462006
1664.000000	8.468629
1665.000000	8.473631
1666.000000	8.476269
1667.000000	8.477057
1668.000000	8.475926
1669.000000	8.472506
1670.000000	8.466354
1671.000000	8.457597
1672.000000	8.446369
1673.000000	8.432494
1674.000000	8.415043
1675.000000	8.394391
1676.000000	8.369491
1677.000000	8.339203
1678.000000	8.304163
1679.000000	8.263934
1680.000000	8.218694
1681.000000	8.168471
1682.000000	8.114094
1683.000000	8.056669
1684.000000	7.998597
1685.000000	7.939189
1686.000000	7.879777
1687.000000	7.819643
1688.000000	7.758969
1689.000000	7.698191
1690.000000	7.636449
1691.000000	7.573891
1692.000000	7.511506
1693.000000	7.447051
1694.000000	7.382974
1695.000000	7.320303
1696.000000	7.257580
1697.000000	7.195789
1698.000000	7.135929
1699.000000	7.078177
1700.000000	7.023206
1701.000000	6.971151
1702.000000	6.921289
1703.000000	6.874260
1704.000000	6.828860
1705.000000	6.787197
1706.000000	6.746546
1707.000000	6.708531
1708.000000	6.673709
1709.000000	6.641583
1710.000000	6.611774
1711.000000	6.585797
1712.000000	6.564637
1713.000000	6.547351
1714.000000	6.533623
1715.000000	6.524531
1716.000000	6.518991
1717.000000	6.516654
1718.000000	6.516191
1719.000000	6.515869
1720.000000	6.515989
1721.000000	6.515660
1722.000000	6.515826
1723.000000	6.515871
1724.000000	6.515380
1725.000000	6.515531
1726.000000	6.516063
1727.000000	6.516674
1728.000000	6.517869
1729.000000	6.519117
1730.000000	6.519129
1731.000000	6.517871
1732.000000	6.515631
1733.000000	6.511894
1734.000000	6.507003
1735.000000	6.500983
1736.000000	6.494146
1737.000000	6.487731
1738.000000	6.482311
1739.000000	6.478037
1740.000000	6.474314
1741.000000	6.472803
1742.000000	6.472586
1743.000000	6.473483
1744.000000	6.475806
1745.000000	6.479583
1746.000000	6.483934
1747.000000	6.489894
1748.000000	6.497111
1749.000000	6.505283
1750.000000	6.514311
1751.000000	6.524617
1752.000000	6.535697
1753.000000	6.546951
1754.000000	6.558020
1755.000000	6.569626
1756.000000	6.581537
1757.000000	6.592511
1758.000000	6.602226
1759.000000	6.612289
1760.000000	6.622557
1761.000000	6.632200
1762.000000	6.642126
1763.000000	6.652937
1764.000000	6.664551
1765.000000	6.677386
1766.000000	6.690983
1767.000000	6.706409
1768.000000	6.723237
1769.000000	6.740151
1770.000000	6.758131
1771.000000	6.776817
1772.000000	6.794906
1773.000000	6.811546
1774.000000	6.827986
1775.000000	6.843009
1776.000000	6.857934
1777.000000	6.872389
1778.000000	6.885551
1779.000000	6.897926
1780.000000	6.910257
1781.000000	6.922909
1782.000000	6.934774
1783.000000	6.946886
1784.000000	6.959483
1785.000000	6.972463
1786.000000	6.985734
1787.000000	6.999794
1788.000000	7.014706
1789.000000	7.030314
1790.000000	7.046763
1791.000000	7.063851
1792.000000	7.082329
1793.000000	7.103309
1794.000000	7.125331
1795.000000	7.147989
1796.000000	7.172149
1797.000000	7.196743
1798.000000	7.222334
1799.000000	7.248029
1800.000000	7.273817
1801.000000	7.300409
1802.000000	7.326977
1803.000000	7.353111
1804.000000	7.379349
1805.000000	7.404357
1806.000000	7.428457
1807.000000	7.452711
1808.000000	7.476949
1809.000000	7.499826
1810.000000	7.522443
1811.000000	7.544449
1812.000000	7.566137
1813.000000	7.587503
1814.000000	7.607966
1815.000000	7.627954
1816.000000	7.647594
1817.000000	7.666643
1818.000000	7.684231
1819.000000	7.700840
1820.000000	7.717760
1821.000000	7.736403
1822.000000	7.755203
1823.000000	7.773303
1824.000000	7.790726
1825.000000	7.807109
1826.000000	7.823366
1827.000000	7.840374
1828.000000	7.857820
1829.000000	7.875689
1830.000000	7.894351
1831.000000	7.913834
1832.000000	7.932823
1833.000000	7.951509
1834.000000	7.969577
1835.000000	7.987877
1836.000000	8.006954
1837.000000	8.026331
1838.000000	8.045657
1839.000000	8.064743
1840.000000	8.084123
1841.000000	8.104400
1842.000000	8.125751
1843.000000	8.146966
1844.000000	8.166637
1845.000000	8.183734
1846.000000	8.199420
1847.000000	8.216103
1848.000000	8.235826
1849.000000	8.258046
1850.000000	8.279797
1851.000000	8.299383
1852.000000	8.318157
1853.000000	8.338209
1854.000000	8.359303
1855.000000	8.379823
1856.000000	8.397951
1857.000000	8.414089
1858.000000	8.429831
1859.000000	8.446603
1860.000000	8.463780
1861.000000	8.480449
1862.000000	8.495169
1863.000000	8.506643
1864.000000	8.514566
1865.000000	8.518823
1866.000000	8.520103
1867.000000	8.519017
1868.000000	8.516366
1869.000000	8.512171
1870.000000	8.505586
1871.000000	8.496286
1872.000000	8.484171
1873.000000	8.468940
1874.000000	8.450749
1875.000000	8.428689
1876.000000	8.401723
1877.000000	8.368091
1878.000000	8.329460
1879.000000	8.287537
1880.000000	8.242700
1881.000000	8.194066
1882.000000	8.139049
1883.000000	8.075949
1884.000000	8.006717
1885.000000	7.934706
1886.000000	7.861034
1887.000000	7.784280
1888.000000	7.703471
1889.000000	7.618877
1890.000000	7.530969
1891.000000	7.441543
1892.000000	7.350340
1893.000000	7.257383
1894.000000	7.160974
1895.000000	7.062086
1896.000000	6.959860
1897.000000	6.856174
1898.000000	6.751803
1899.000000	6.647809
1900.000000	6.545314
1901.000000	6.442994
1902.000000	6.340240
1903.000000	6.236369
1904.000000	6.132506
1905.000000	6.028949
1906.000000	5.925586
1907.000000	5.821543
1908.000000	5.717991
1909.000000	5.615197
1910.000000	5.513500
1911.000000	5.413880
1912.000000	5.318100
1913.000000	5.226014
1914.000000	5.138231
1915.000000	5.053800
1916.000000	4.972286
1917.000000	4.893317
1918.000000	4.817983
1919.000000	4.745506
1920.000000	4.675163
1921.000000	4.607666
1922.000000	4.542503
1923.000000	4.480363
1924.000000	4.420534
1925.000000	4.362763
1926.000000	4.305726
1927.000000	4.250783
1928.000000	4.197391
1929.000000	4.147226
1930.000000	4.099680
1931.000000	4.054709
1932.000000	4.011391
1933.000000	3.969617
1934.000000	3.930117
1935.000000	3.891131
1936.000000	3.853834
1937.000000	3.819243
1938.000000	3.787131
1939.000000	3.756920
1940.000000	3.729320
1941.000000	3.701871
1942.000000	3.676543
1943.000000	3.653786
1944.000000	3.632971
1945.000000	3.614729
1946.000000	3.598589
1947.000000	3.582734
1948.000000	3.568549
1949.000000	3.555366
1950.000000	3.543814
1951.000000	3.534820
1952.000000	3.528997
1953.000000	3.524509
1954.000000	3.521603
1955.000000	3.519620
1956.000000	3.518783
1957.000000	3.519989
1958.000000	3.522271
1959.000000	3.525137
1960.000000	3.529711
1961.000000	3.535740
1962.000000	3.542683
1963.000000	3.550706
1964.000000	3.559971
1965.000000	3.569803
1966.000000	3.580803
1967.000000	3.592946
1968.000000	3.606486
1969.000000	3.620611
1970.000000	3.635323
1971.000000	3.651063
1972.000000	3.667569
1973.000000	3.684169
1974.000000	3.701134
1975.000000	3.717949
1976.000000	3.735437
1977.000000	3.753714
1978.000000	3.772317
1979.000000	3.791217
1980.000000	3.810966
1981.000000	3.830709
1982.000000	3.851920
1983.000000	3.872543
1984.000000	3.893400
1985.000000	3.915123
1986.000000	3.936180
1987.000000	3.956477
1988.000000	3.977406
1989.000000	3.997971
1990.000000	4.019194
1991.000000	4.040611
1992.000000	4.061974
1993.000000	4.083000
1994.000000	4.104520
1995.000000	4.125457
1996.000000	4.146657
1997.000000	4.168077
1998.000000	4.189234
1999.000000	4.209711
2000.000000	4.229920
2001.000000	4.250374
2002.000000	4.270169
2003.000000	4.289786
2004.000000	4.308254
2005.000000	4.326754
2006.000000	4.344946
2007.000000	4.362360
2008.000000	4.379737
2009.000000	4.396689
2010.000000	4.412949
2011.000000	4.429160
2012.000000	4.443989
2013.000000	4.457446
2014.000000	4.471866
2015.000000	4.484649
2016.000000	4.496586
2017.000000	4.507394
2018.000000	4.517897
2019.000000	4.527374
2020.000000	4.535826
2021.000000	4.543260
2022.000000	4.549943
2023.000000	4.555863
2024.000000	4.561014
2025.000000	4.564926
2026.000000	4.568040
2027.000000	4.569889
2028.000000	4.570466
2029.000000	4.569997
2030.000000	4.568760
2031.000000	4.565991
2032.000000	4.561720
2033.000000	4.557280
2034.000000	4.551189
2035.000000	4.543617
2036.000000	4.534989
2037.000000	4.525909
2038.000000	4.515791
2039.000000	4.505434
2040.000000	4.493651
2041.000000	4.480520
2042.000000	4.466246
2043.000000	4.451411
2044.000000	4.435286
2045.000000	4.417414
2046.000000	4.399269
2047.000000	4.381471
2048.000000	4.362909
2049.000000	4.342546
2050.000000	4.322151
2051.000000	4.301446
2052.000000	4.280843
2053.000000	4.260151
2054.000000	4.239600
2055.000000	4.218371
2056.000000	4.197603
2057.000000	4.177637
2058.000000	4.157666
2059.000000	4.137780
2060.000000	4.118726
2061.000000	4.100126
2062.000000	4.081920
2063.000000	4.064711
2064.000000	4.048929
2065.000000	4.033800
2066.000000	4.019240
2067.000000	4.005503
2068.000000	3.992117
2069.000000	3.979983
2070.000000	3.969431
2071.000000	3.959791
2072.000000	3.951217
2073.000000	3.943129
2074.000000	3.935411
2075.000000	3.929211
2076.000000	3.923846
2077.000000	3.919614
2078.000000	3.916209
2079.000000	3.914217
2080.000000	3.913651
2081.000000	3.913780
2082.000000	3.914160
2083.000000	3.915509
2084.000000	3.917563
2085.000000	3.920223
2086.000000	3.923000
2087.000000	3.925586
2088.000000	3.928874
2089.000000	3.932669
2090.000000	3.937151
2091.000000	3.941823
2092.000000	3.945817
2093.000000	3.949591
2094.000000	3.953954
2095.000000	3.958066
2096.000000	3.961729
2097.000000	3.966014
2098.000000	3.970137
2099.000000	3.973677
2100.000000	3.976900
2101.000000	3.980209
2102.000000	3.983960
2103.000000	3.987757
2104.000000	3.991466
2105.000000	3.994963
2106.000000	3.997957
2107.000000	4.000151
2108.000000	4.002797
2109.000000	4.005831
2110.000000	4.008614
2111.000000	4.011171
2112.000000	4.013929
2113.000000	4.016646
2114.000000	4.018997
2115.000000	4.021814
2116.000000	4.024617
2117.000000	4.027060
2118.000000	4.029589
2119.000000	4.032549
2120.000000	4.035160
2121.000000	4.038471
2122.000000	4.042134
2123.000000	4.045217
2124.000000	4.047794
2125.000000	4.050249
2126.000000	4.053160
2127.000000	4.056474
2128.000000	4.059760
2129.000000	4.062700
2130.000000	4.065789
2131.000000	4.068431
2132.000000	4.070649
2133.000000	4.072934
2134.000000	4.074860
2135.000000	4.076520
2136.000000	4.078049
2137.000000	4.079109
2138.000000	4.079746
2139.000000	4.079789
2140.000000	4.079263
2141.000000	4.078377
2142.000000	4.077811
2143.000000	4.076720
2144.000000	4.075257
2145.000000	4.073360
2146.000000	4.071057
2147.000000	4.068437
2148.000000	4.065289
2149.000000	4.061517
2150.000000	4.056789
2151.000000	4.051549
2152.000000	4.046346
2153.000000	4.040623
2154.000000	4.033994
2155.000000	4.027194
2156.000000	4.019971
2157.000000	4.012503
2158.000000	4.004617
2159.000000	3.997109
2160.000000	3.990009
2161.000000	3.982531
2162.000000	3.973989
2163.000000	3.965280
2164.000000	3.956677
2165.000000	3.947543
2166.000000	3.938780
2167.000000	3.929780
2168.000000	3.921114
2169.000000	3.912417
2170.000000	3.903306
2171.000000	3.894469
2172.000000	3.885500
2173.000000	3.876029
2174.000000	3.867163
2175.000000	3.858546
2176.000000	3.850766
2177.000000	3.841849
2178.000000	3.833029
2179.000000	3.824569
2180.000000	3.816106
2181.000000	3.807794
2182.000000	3.799120
2183.000000	3.790454
2184.000000	3.781914
2185.000000	3.773329
2186.000000	3.765489
2187.000000	3.757323
2188.000000	3.748291
2189.000000	3.739014
2190.000000	3.729171
2191.000000	3.718914
2192.000000	3.707746
2193.000000	3.695897
2194.000000	3.682531
2195.000000	3.668023
2196.000000	3.652574
2197.000000	3.636114
2198.000000	3.618543
2199.000000	3.600411
2200.000000	3.581063
2201.000000	3.560371
2202.000000	3.539300
2203.000000	3.517089
2204.000000	3.494063
2205.000000	3.470974
2206.000000	3.446614
2207.000000	3.422383
2208.000000	3.397926
2209.000000	3.373366
2210.000000	3.349126
2211.000000	3.324360
2212.000000	3.300543
2213.000000	3.277223
2214.000000	3.254237
2215.000000	3.232280
2216.000000	3.210846
2217.000000	3.190723
2218.000000	3.171526
2219.000000	3.153306
2220.000000	3.136066
2221.000000	3.118943
2222.000000	3.103123
2223.000000	3.088814
2224.000000	3.075526
2225.000000	3.063294
2226.000000	3.053014
2227.000000	3.043206
2228.000000	3.035451
2229.000000	3.028803
2230.000000	3.023289
2231.000000	3.018809
2232.000000	3.016257
2233.000000	3.014977
2234.000000	3.014271
2235.000000	3.015000
2236.000000	3.016563
2237.000000	3.018557
2238.000000	3.021497
2239.000000	3.024011
2240.000000	3.026643
2241.000000	3.030971
2242.000000	3.034614
2243.000000	3.038534
2244.000000	3.041854
2245.000000	3.043449
2246.000000	3.044523
2247.000000	3.044686
2248.000000	3.044100
2249.000000	3.042383
2250.000000	3.038303
2251.000000	3.033706
2252.000000	3.027017
2253.000000	3.018980
2254.000000	3.009380
2255.000000	2.997914
2256.000000	2.985331
2257.000000	2.971569
2258.000000	2.956180
2259.000000	2.940049
2260.000000	2.923423
2261.000000	2.904774
2262.000000	2.886217
2263.000000	2.865917
2264.000000	2.845200
2265.000000	2.824497
2266.000000	2.803249
2267.000000	2.782080
2268.000000	2.761503
2269.000000	2.740246
2270.000000	2.719366
2271.000000	2.699594
2272.000000	2.679549
2273.000000	2.660611
2274.000000	2.642766
2275.000000	2.625957
2276.000000	2.608771
2277.000000	2.593674
2278.000000	2.578960
2279.000000	2.565109
2280.000000	2.553440
2281.000000	2.542866
2282.000000	2.533149
2283.000000	2.524457
2284.000000	2.517206
2285.000000	2.511677
2286.000000	2.506186
2287.000000	2.502231
2288.000000	2.498526
2289.000000	2.496671
2290.000000	2.495914
2291.000000	2.496171
2292.000000	2.496654
2293.000000	2.498323
2294.000000	2.500120
2295.000000	2.502069
2296.000000	2.504254
2297.000000	2.506531
2298.000000	2.509417
2299.000000	2.512831
2300.000000	2.515717
2301.000000	2.519020
2302.000000	2.521720
2303.000000	2.523703
2304.000000	2.526471
2305.000000	2.529837
2306.000000	2.532523
2307.000000	2.535971
2308.000000	2.539126
2309.000000	2.542666
2310.000000	2.546557
2311.000000	2.550903
2312.000000	2.554706
2313.000000	2.559117
2314.000000	2.563480
2315.000000	2.568329
2316.000000	2.573383
2317.000000	2.579120
2318.000000	2.584717
2319.000000	2.590069
2320.000000	2.595731
2321.000000	2.602183
2322.000000	2.608820
2323.000000	2.616094
2324.000000	2.623349
2325.000000	2.631434
2326.000000	2.640157
2327.000000	2.649317
2328.000000	2.658963
2329.000000	2.669420
2330.000000	2.680074
2331.000000	2.691546
2332.000000	2.703843
2333.000000	2.716066
2334.000000	2.728457
2335.000000	2.741334
2336.000000	2.754511
2337.000000	2.768089
2338.000000	2.781557
2339.000000	2.795263
2340.000000	2.808097
2341.000000	2.820897
2342.000000	2.833460
2343.000000	2.844969
2344.000000	2.856006
2345.000000	2.866029
2346.000000	2.875186
2347.000000	2.883757
2348.000000	2.892117
2349.000000	2.899734
2350.000000	2.906054
2351.000000	2.911677
2352.000000	2.916734
2353.000000	2.922171
2354.000000	2.927571
2355.000000	2.932186
2356.000000	2.936600
2357.000000	2.941434
2358.000000	2.946420
2359.000000	2.950811
2360.000000	2.955037
2361.000000	2.958600
2362.000000	2.962466
2363.000000	2.966657
2364.000000	2.970611
2365.000000	2.974657
2366.000000	2.978789
2367.000000	2.982480
2368.000000	2.986346
2369.000000	2.990337
2370.000000	2.994131
2371.000000	2.998217
2372.000000	3.002717
2373.000000	3.007940
2374.000000	3.013229
2375.000000	3.018414
2376.000000	3.023586
2377.000000	3.028580
2378.000000	3.033626
2379.000000	3.039689
2380.000000	3.046286
2381.000000	3.053006
2382.000000	3.059511
2383.000000	3.065603
2384.000000	3.072300
2385.000000	3.078889
2386.000000	3.085454
2387.000000	3.092243
2388.000000	3.098077
2389.000000	3.103106
2390.000000	3.108303
2391.000000	3.113243
2392.000000	3.117437
2393.000000	3.121149
2394.000000	3.124380
2395.000000	3.127114
2396.000000	3.128903
2397.000000	3.130131
2398.000000	3.130700
2399.000000	3.130831
2400.000000	3.130491
2401.000000	3.129720
2402.000000	3.129043
2403.000000	3.128263
2404.000000	3.127226
2405.000000	3.126189
2406.000000	3.123886
2407.000000	3.120611
2408.000000	3.117140
2409.000000	3.112977
2410.000000	3.108746
2411.000000	3.104400
2412.000000	3.100037
2413.000000	3.095286
2414.000000	3.090034
2415.000000	3.084143
2416.000000	3.078174
2417.000000	3.072023
2418.000000	3.065263
2419.000000	3.058720
2420.000000	3.051903
2421.000000	3.044909
2422.000000	3.036960
2423.000000	3.028663
2424.000000	3.019754
2425.000000	3.010443
2426.000000	3.000391
2427.000000	2.990200
2428.000000	2.979914
2429.000000	2.969497
2430.000000	2.958620
2431.000000	2.947891
2432.000000	2.937160
2433.000000	2.925869
2434.000000	2.914706
2435.000000	2.903289
2436.000000	2.890934
2437.000000	2.878177
2438.000000	2.865211
2439.000000	2.851431
2440.000000	2.837363
2441.000000	2.823400
2442.000000	2.809446
2443.000000	2.794789
2444.000000	2.780694
2445.000000	2.765631
2446.000000	2.750351
2447.000000	2.734451
2448.000000	2.718551
2449.000000	2.702766
2450.000000	2.686646
2451.000000	2.669969
2452.000000	2.653149
2453.000000	2.637131
2454.000000	2.619769
2455.000000	2.603171
2456.000000	2.585900
2457.000000	2.568929
2458.000000	2.552811
2459.000000	2.536546
2460.000000	2.520826
2461.000000	2.505517
2462.000000	2.490309
2463.000000	2.475254
2464.000000	2.460174
2465.000000	2.445500
2466.000000	2.431029
2467.000000	2.416754
2468.000000	2.402760
2469.000000	2.387763
2470.000000	2.373983
2471.000000	2.361926
2472.000000	2.349480
2473.000000	2.337534
2474.000000	2.326326
2475.000000	2.314737
2476.000000	2.304357
2477.000000	2.293874
2478.000000	2.284817
2479.000000	2.274271
2480.000000	2.264500
2481.000000	2.256649
2482.000000	2.249003
2483.000000	2.241254
2484.000000	2.233717
2485.000000	2.227731
2486.000000	2.221623
2487.000000	2.216774
2488.000000	2.213469
2489.000000	2.208940
2490.000000	2.206751
2491.000000	2.206031
2492.000000	2.201729
2493.000000	2.199606
2494.000000	2.197137
2495.000000	2.198657
2496.000000	2.197723
2497.000000	2.199291
2498.000000	2.199257
2499.000000	2.203351
2500.000000	2.204677
