PE UV       SUBTECH     SPECTRUM    ASCII       PEDS        4.00        
   -1
CICIMAUCR0113-1.ASC
24/04/03
16:15:49.00
24/04/03
16:15:49.00
Vinicio Soto Monge
C. kalinini
250,000000
1
Lambda 1050
1050L1511233
PerkinElmer UV WinLab 6.3.2.0749 / 2.02.05 Lambda 900 UV/VIS/NIR, Aug  7 2015 09:38:08

0
0
3350/servo 860,8/2
0
0
UV/VIS
1
1
1
DoubleDePol,CommonBeamDepol,RBeamAtt,SBeamAtt,60mm sphere, WB InGaAs Detector
0
0
0
0
Program
Program
3350/servo 860,8/2
3350/0,2 860,8/0,2
3350/0,2 860,8/0,2
0
15.00
 
 
 
0
 
860,8
319,2
860,8
Front
100
on
S:100 R:100
0
0
0
0
 
0
 
 
 
0
 
 
0
0
0
0
0
 
 
 
 
0
0


0
0
#HDR
-1
-1
#GR
nm
%R
1.0
0.0
2500,000000
-1,000000
2251
8
83,958100
4,718900
#DATA
250.000000	nan
251.000000	nan
252.000000	nan
253.000000	nan
254.000000	nan
255.000000	nan
256.000000	nan
257.000000	nan
258.000000	nan
259.000000	nan
260.000000	nan
261.000000	nan
262.000000	nan
263.000000	nan
264.000000	nan
265.000000	nan
266.000000	nan
267.000000	nan
268.000000	nan
269.000000	nan
270.000000	nan
271.000000	nan
272.000000	nan
273.000000	nan
274.000000	nan
275.000000	nan
276.000000	nan
277.000000	nan
278.000000	nan
279.000000	nan
280.000000	nan
281.000000	nan
282.000000	nan
283.000000	nan
284.000000	5.031557
285.000000	5.018205
286.000000	5.008204
287.000000	4.996553
288.000000	4.986148
289.000000	4.974672
290.000000	4.965154
291.000000	4.955767
292.000000	4.942376
293.000000	4.931091
294.000000	4.919892
295.000000	4.910546
296.000000	4.900683
297.000000	4.891630
298.000000	4.882359
299.000000	4.871046
300.000000	4.861872
301.000000	4.853270
302.000000	4.844686
303.000000	4.836568
304.000000	4.827726
305.000000	4.817271
306.000000	4.810191
307.000000	4.802878
308.000000	4.795273
309.000000	4.787720
310.000000	4.781642
311.000000	4.774080
312.000000	4.765935
313.000000	4.757630
314.000000	4.749966
315.000000	4.743304
316.000000	4.737273
317.000000	4.738036
318.000000	4.738440
319.000000	4.743835
320.000000	4.741846
321.000000	4.740828
322.000000	4.742078
323.000000	4.737325
324.000000	4.736357
325.000000	4.736448
326.000000	4.737790
327.000000	4.737425
328.000000	4.739735
329.000000	4.743326
330.000000	4.746115
331.000000	4.751029
332.000000	4.749698
333.000000	4.749903
334.000000	4.751125
335.000000	4.751225
336.000000	4.752442
337.000000	4.752655
338.000000	4.752791
339.000000	4.755793
340.000000	4.759708
341.000000	4.764098
342.000000	4.766823
343.000000	4.771806
344.000000	4.775038
345.000000	4.779188
346.000000	4.782812
347.000000	4.786752
348.000000	4.790680
349.000000	4.799572
350.000000	4.806804
351.000000	4.811159
352.000000	4.811292
353.000000	4.813370
354.000000	4.809900
355.000000	4.814963
356.000000	4.817038
357.000000	4.817238
358.000000	4.824082
359.000000	4.829723
360.000000	4.833079
361.000000	4.835387
362.000000	4.841371
363.000000	4.846714
364.000000	4.851608
365.000000	4.856427
366.000000	4.862254
367.000000	4.873132
368.000000	4.880575
369.000000	4.889154
370.000000	4.898306
371.000000	4.907052
372.000000	4.917230
373.000000	4.924578
374.000000	4.930673
375.000000	4.938077
376.000000	4.947722
377.000000	4.959414
378.000000	4.969609
379.000000	4.982175
380.000000	4.994605
381.000000	5.008646
382.000000	5.022612
383.000000	5.037273
384.000000	5.048525
385.000000	5.060897
386.000000	5.076357
387.000000	5.090254
388.000000	5.105095
389.000000	5.119208
390.000000	5.133445
391.000000	5.149585
392.000000	5.166728
393.000000	5.184628
394.000000	5.201471
395.000000	5.218138
396.000000	5.235667
397.000000	5.253421
398.000000	5.270049
399.000000	5.288522
400.000000	5.307465
401.000000	5.325448
402.000000	5.346013
403.000000	5.368592
404.000000	5.391898
405.000000	5.416787
406.000000	5.443936
407.000000	5.473442
408.000000	5.506028
409.000000	5.540476
410.000000	5.576631
411.000000	5.613308
412.000000	5.651458
413.000000	5.693195
414.000000	5.738660
415.000000	5.788280
416.000000	5.842202
417.000000	5.901470
418.000000	5.966315
419.000000	6.037255
420.000000	6.114882
421.000000	6.199815
422.000000	6.293068
423.000000	6.394408
424.000000	6.505418
425.000000	6.626658
426.000000	6.758205
427.000000	6.900713
428.000000	7.054664
429.000000	7.220622
430.000000	7.398573
431.000000	7.589315
432.000000	7.793307
433.000000	8.010246
434.000000	8.240430
435.000000	8.483627
436.000000	8.739729
437.000000	9.008532
438.000000	9.289932
439.000000	9.583607
440.000000	9.889381
441.000000	10.205912
442.000000	10.533402
443.000000	10.871729
444.000000	11.219406
445.000000	11.576071
446.000000	11.940506
447.000000	12.312586
448.000000	12.691098
449.000000	13.074350
450.000000	13.462712
451.000000	13.855586
452.000000	14.251459
453.000000	14.649186
454.000000	15.047671
455.000000	15.446228
456.000000	15.844262
457.000000	16.240301
458.000000	16.633435
459.000000	17.023144
460.000000	17.408114
461.000000	17.787758
462.000000	18.161572
463.000000	18.529082
464.000000	18.889381
465.000000	19.241832
466.000000	19.585196
467.000000	19.919243
468.000000	20.243670
469.000000	20.558015
470.000000	20.862173
471.000000	21.156471
472.000000	21.440859
473.000000	21.715387
474.000000	21.980311
475.000000	22.234786
476.000000	22.479408
477.000000	22.714455
478.000000	22.939449
479.000000	23.155212
480.000000	23.362374
481.000000	23.560522
482.000000	23.749325
483.000000	23.928173
484.000000	24.097338
485.000000	24.257406
486.000000	24.406866
487.000000	24.545620
488.000000	24.674610
489.000000	24.793194
490.000000	24.900007
491.000000	24.994505
492.000000	25.076890
493.000000	25.146934
494.000000	25.203783
495.000000	25.247126
496.000000	25.276585
497.000000	25.291586
498.000000	25.291011
499.000000	25.275584
500.000000	25.245859
501.000000	25.202674
502.000000	25.147565
503.000000	25.081464
504.000000	25.005286
505.000000	24.921385
506.000000	24.832356
507.000000	24.739856
508.000000	24.647159
509.000000	24.556589
510.000000	24.470917
511.000000	24.393924
512.000000	24.327361
513.000000	24.274288
514.000000	24.236788
515.000000	24.215731
516.000000	24.213120
517.000000	24.229758
518.000000	24.267891
519.000000	24.328395
520.000000	24.411497
521.000000	24.518221
522.000000	24.648407
523.000000	24.802111
524.000000	24.980552
525.000000	25.183932
526.000000	25.411341
527.000000	25.663544
528.000000	25.940830
529.000000	26.244086
530.000000	26.573894
531.000000	26.930326
532.000000	27.313650
533.000000	27.725121
534.000000	28.164359
535.000000	28.632564
536.000000	29.128419
537.000000	29.650371
538.000000	30.198228
539.000000	30.771038
540.000000	31.367242
541.000000	31.984202
542.000000	32.620216
543.000000	33.271645
544.000000	33.936252
545.000000	34.611423
546.000000	35.293720
547.000000	35.981694
548.000000	36.671506
549.000000	37.362189
550.000000	38.053503
551.000000	38.742620
552.000000	39.431311
553.000000	40.117598
554.000000	40.801392
555.000000	41.482098
556.000000	42.159786
557.000000	42.835310
558.000000	43.508685
559.000000	44.179451
560.000000	44.852734
561.000000	45.524120
562.000000	46.192659
563.000000	46.858583
564.000000	47.520946
565.000000	48.179547
566.000000	48.832277
567.000000	49.480600
568.000000	50.122553
569.000000	50.758291
570.000000	51.385091
571.000000	52.003448
572.000000	52.611203
573.000000	53.208196
574.000000	53.795066
575.000000	54.370127
576.000000	54.933964
577.000000	55.486165
578.000000	56.027592
579.000000	56.557756
580.000000	57.077590
581.000000	57.585194
582.000000	58.078714
583.000000	58.560929
584.000000	59.031145
585.000000	59.487365
586.000000	59.930576
587.000000	60.359159
588.000000	60.772598
589.000000	61.171940
590.000000	61.555909
591.000000	61.922823
592.000000	62.274123
593.000000	62.607632
594.000000	62.922501
595.000000	63.214594
596.000000	63.490023
597.000000	63.748235
598.000000	63.991239
599.000000	64.217295
600.000000	64.429910
601.000000	64.629406
602.000000	64.814362
603.000000	64.986825
604.000000	65.145490
605.000000	65.291113
606.000000	65.421882
607.000000	65.541065
608.000000	65.647977
609.000000	65.742237
610.000000	65.824562
611.000000	65.893133
612.000000	65.947241
613.000000	65.987714
614.000000	66.013469
615.000000	66.024859
616.000000	66.020001
617.000000	65.999484
618.000000	65.963133
619.000000	65.908618
620.000000	65.836256
621.000000	65.747012
622.000000	65.637851
623.000000	65.512892
624.000000	65.367910
625.000000	65.202486
626.000000	65.019082
627.000000	64.815710
628.000000	64.594153
629.000000	64.355564
630.000000	64.098929
631.000000	63.824742
632.000000	63.534721
633.000000	63.227580
634.000000	62.906213
635.000000	62.571691
636.000000	62.225435
637.000000	61.869407
638.000000	61.505851
639.000000	61.135039
640.000000	60.761733
641.000000	60.387545
642.000000	60.013249
643.000000	59.639299
644.000000	59.266605
645.000000	58.897720
646.000000	58.532087
647.000000	58.171057
648.000000	57.811986
649.000000	57.458407
650.000000	57.106285
651.000000	56.760840
652.000000	56.421075
653.000000	56.086718
654.000000	55.758321
655.000000	55.437657
656.000000	55.123694
657.000000	54.819209
658.000000	54.522211
659.000000	54.237170
660.000000	53.966109
661.000000	53.709645
662.000000	53.470517
663.000000	53.249533
664.000000	53.049940
665.000000	52.871931
666.000000	52.717020
667.000000	52.585822
668.000000	52.479231
669.000000	52.398215
670.000000	52.342439
671.000000	52.311220
672.000000	52.304837
673.000000	52.320959
674.000000	52.361294
675.000000	52.422094
676.000000	52.504823
677.000000	52.609139
678.000000	52.734408
679.000000	52.880864
680.000000	53.047699
681.000000	53.234521
682.000000	53.441287
683.000000	53.671153
684.000000	53.920816
685.000000	54.193443
686.000000	54.484116
687.000000	54.795081
688.000000	55.125354
689.000000	55.473668
690.000000	55.836809
691.000000	56.214890
692.000000	56.605990
693.000000	57.008503
694.000000	57.418041
695.000000	57.832285
696.000000	58.248618
697.000000	58.665645
698.000000	59.080469
699.000000	59.488239
700.000000	59.889369
701.000000	60.280190
702.000000	60.660628
703.000000	61.029457
704.000000	61.383142
705.000000	61.720417
706.000000	62.042993
707.000000	62.349885
708.000000	62.640008
709.000000	62.913838
710.000000	63.173542
711.000000	63.418375
712.000000	63.648921
713.000000	63.866969
714.000000	64.070028
715.000000	64.258673
716.000000	64.438332
717.000000	64.608244
718.000000	64.767357
719.000000	64.918013
720.000000	65.062170
721.000000	65.204647
722.000000	65.346607
723.000000	65.485516
724.000000	65.624264
725.000000	65.768656
726.000000	65.918268
727.000000	66.074441
728.000000	66.237892
729.000000	66.410438
730.000000	66.594664
731.000000	66.790489
732.000000	66.998713
733.000000	67.221432
734.000000	67.459157
735.000000	67.709233
736.000000	67.974539
737.000000	68.254296
738.000000	68.547952
739.000000	68.858141
740.000000	69.178662
741.000000	69.509972
742.000000	69.851522
743.000000	70.204069
744.000000	70.563677
745.000000	70.927988
746.000000	71.298491
747.000000	71.671293
748.000000	72.044460
749.000000	72.421138
750.000000	72.798157
751.000000	73.170433
752.000000	73.541204
753.000000	73.907164
754.000000	74.265956
755.000000	74.618711
756.000000	74.961597
757.000000	75.292642
758.000000	75.614194
759.000000	75.924746
760.000000	76.223623
761.000000	76.509610
762.000000	76.781193
763.000000	77.040211
764.000000	77.286341
765.000000	77.516232
766.000000	77.733935
767.000000	77.939218
768.000000	78.130101
769.000000	78.307571
770.000000	78.475593
771.000000	78.633799
772.000000	78.780136
773.000000	78.913343
774.000000	79.036149
775.000000	79.151458
776.000000	79.255919
777.000000	79.353084
778.000000	79.445759
779.000000	79.532375
780.000000	79.613377
781.000000	79.687360
782.000000	79.758746
783.000000	79.826761
784.000000	79.890098
785.000000	79.949025
786.000000	80.002192
787.000000	80.052255
788.000000	80.097985
789.000000	80.141126
790.000000	80.182883
791.000000	80.223348
792.000000	80.260842
793.000000	80.298128
794.000000	80.333268
795.000000	80.363286
796.000000	80.391688
797.000000	80.425655
798.000000	80.459798
799.000000	80.493045
800.000000	80.528378
801.000000	80.563208
802.000000	80.596161
803.000000	80.627377
804.000000	80.658856
805.000000	80.688291
806.000000	80.714610
807.000000	80.736616
808.000000	80.761450
809.000000	80.779425
810.000000	80.790436
811.000000	80.802565
812.000000	80.812041
813.000000	80.810483
814.000000	80.799262
815.000000	80.784009
816.000000	80.759679
817.000000	80.727757
818.000000	80.685380
819.000000	80.634941
820.000000	80.577420
821.000000	80.514619
822.000000	80.436375
823.000000	80.349641
824.000000	80.253674
825.000000	80.146933
826.000000	80.026215
827.000000	79.898739
828.000000	79.758967
829.000000	79.608737
830.000000	79.448022
831.000000	79.280982
832.000000	79.097248
833.000000	78.900746
834.000000	78.694317
835.000000	78.481301
836.000000	78.258029
837.000000	78.025718
838.000000	77.784869
839.000000	77.538049
840.000000	77.284889
841.000000	77.028079
842.000000	76.776584
843.000000	76.506472
844.000000	76.232404
845.000000	75.953284
846.000000	75.666957
847.000000	75.377025
848.000000	75.087018
849.000000	74.797871
850.000000	74.500397
851.000000	74.215365
852.000000	73.925919
853.000000	73.628628
854.000000	73.326107
855.000000	73.028044
856.000000	72.731353
857.000000	72.447167
858.000000	72.154908
859.000000	71.927502
860.000000	71.704735
861.000000	71.493534
862.000000	71.287157
863.000000	71.088601
864.000000	70.896820
865.000000	70.712205
866.000000	70.529107
867.000000	70.350716
868.000000	70.178257
869.000000	70.010259
870.000000	69.843096
871.000000	69.680206
872.000000	69.521459
873.000000	69.367626
874.000000	69.214260
875.000000	69.062788
876.000000	68.911575
877.000000	68.754469
878.000000	68.610132
879.000000	68.470455
880.000000	68.337193
881.000000	68.206448
882.000000	68.075583
883.000000	67.946354
884.000000	67.820430
885.000000	67.701852
886.000000	67.574156
887.000000	67.449619
888.000000	67.335646
889.000000	67.226485
890.000000	67.113161
891.000000	66.999263
892.000000	66.880428
893.000000	66.772391
894.000000	66.602909
895.000000	66.428651
896.000000	66.248763
897.000000	66.064489
898.000000	65.875446
899.000000	65.684037
900.000000	65.490191
901.000000	65.294083
902.000000	65.098183
903.000000	64.900589
904.000000	64.702814
905.000000	64.503991
906.000000	64.305500
907.000000	64.105400
908.000000	63.905466
909.000000	63.706306
910.000000	63.509091
911.000000	63.310600
912.000000	63.112757
913.000000	62.915540
914.000000	62.718500
915.000000	62.522171
916.000000	62.327174
917.000000	62.133123
918.000000	61.939883
919.000000	61.747154
920.000000	61.554466
921.000000	61.361163
922.000000	61.169000
923.000000	60.977594
924.000000	60.787277
925.000000	60.597720
926.000000	60.408017
927.000000	60.218089
928.000000	60.028586
929.000000	59.839906
930.000000	59.651986
931.000000	59.464589
932.000000	59.278063
933.000000	59.092531
934.000000	58.907309
935.000000	58.723277
936.000000	58.539246
937.000000	58.355249
938.000000	58.171669
939.000000	57.988220
940.000000	57.805909
941.000000	57.624174
942.000000	57.442783
943.000000	57.261389
944.000000	57.079377
945.000000	56.896431
946.000000	56.714500
947.000000	56.532963
948.000000	56.350677
949.000000	56.168326
950.000000	55.985726
951.000000	55.803014
952.000000	55.619706
953.000000	55.436334
954.000000	55.253060
955.000000	55.069617
956.000000	54.887171
957.000000	54.704597
958.000000	54.522246
959.000000	54.340071
960.000000	54.157223
961.000000	53.975894
962.000000	53.794843
963.000000	53.614577
964.000000	53.434503
965.000000	53.256466
966.000000	53.080351
967.000000	52.905994
968.000000	52.733103
969.000000	52.563209
970.000000	52.395389
971.000000	52.230620
972.000000	52.068277
973.000000	51.909031
974.000000	51.753066
975.000000	51.599771
976.000000	51.448700
977.000000	51.301477
978.000000	51.157146
979.000000	51.016369
980.000000	50.878560
981.000000	50.744117
982.000000	50.612149
983.000000	50.483657
984.000000	50.358554
985.000000	50.236574
986.000000	50.117414
987.000000	50.001437
988.000000	49.889131
989.000000	49.780423
990.000000	49.675571
991.000000	49.574331
992.000000	49.476789
993.000000	49.384157
994.000000	49.295377
995.000000	49.211037
996.000000	49.131171
997.000000	49.055154
998.000000	48.983431
999.000000	48.916329
1000.000000	48.852860
1001.000000	48.792797
1002.000000	48.736354
1003.000000	48.684291
1004.000000	48.635486
1005.000000	48.589877
1006.000000	48.547637
1007.000000	48.508463
1008.000000	48.472020
1009.000000	48.438343
1010.000000	48.407957
1011.000000	48.380903
1012.000000	48.357091
1013.000000	48.336789
1014.000000	48.320029
1015.000000	48.307146
1016.000000	48.297780
1017.000000	48.292334
1018.000000	48.291029
1019.000000	48.293671
1020.000000	48.300494
1021.000000	48.312477
1022.000000	48.328931
1023.000000	48.348857
1024.000000	48.372623
1025.000000	48.399909
1026.000000	48.431383
1027.000000	48.466940
1028.000000	48.505040
1029.000000	48.546360
1030.000000	48.591243
1031.000000	48.639077
1032.000000	48.689640
1033.000000	48.743123
1034.000000	48.799251
1035.000000	48.857923
1036.000000	48.919234
1037.000000	48.982589
1038.000000	49.047206
1039.000000	49.113977
1040.000000	49.183211
1041.000000	49.254451
1042.000000	49.327566
1043.000000	49.402394
1044.000000	49.479266
1045.000000	49.557917
1046.000000	49.637857
1047.000000	49.718746
1048.000000	49.799740
1049.000000	49.880629
1050.000000	49.961457
1051.000000	50.042789
1052.000000	50.124414
1053.000000	50.206183
1054.000000	50.288329
1055.000000	50.370229
1056.000000	50.451531
1057.000000	50.532874
1058.000000	50.614354
1059.000000	50.695474
1060.000000	50.776163
1061.000000	50.855960
1062.000000	50.935069
1063.000000	51.013903
1064.000000	51.092363
1065.000000	51.170566
1066.000000	51.248466
1067.000000	51.326274
1068.000000	51.403743
1069.000000	51.481154
1070.000000	51.558394
1071.000000	51.635203
1072.000000	51.711857
1073.000000	51.789109
1074.000000	51.866663
1075.000000	51.944180
1076.000000	52.021734
1077.000000	52.099669
1078.000000	52.177940
1079.000000	52.256049
1080.000000	52.334600
1081.000000	52.413531
1082.000000	52.492797
1083.000000	52.573269
1084.000000	52.654111
1085.000000	52.735297
1086.000000	52.816397
1087.000000	52.897620
1088.000000	52.978880
1089.000000	53.059574
1090.000000	53.139877
1091.000000	53.219394
1092.000000	53.297503
1093.000000	53.374329
1094.000000	53.450449
1095.000000	53.525309
1096.000000	53.599237
1097.000000	53.671349
1098.000000	53.742314
1099.000000	53.812006
1100.000000	53.879546
1101.000000	53.945320
1102.000000	54.009769
1103.000000	54.072134
1104.000000	54.132809
1105.000000	54.191720
1106.000000	54.248300
1107.000000	54.303029
1108.000000	54.356086
1109.000000	54.406989
1110.000000	54.456249
1111.000000	54.503680
1112.000000	54.549669
1113.000000	54.594011
1114.000000	54.636651
1115.000000	54.677429
1116.000000	54.716023
1117.000000	54.752937
1118.000000	54.786897
1119.000000	54.818563
1120.000000	54.847137
1121.000000	54.872094
1122.000000	54.892514
1123.000000	54.908069
1124.000000	54.918857
1125.000000	54.924646
1126.000000	54.924863
1127.000000	54.918746
1128.000000	54.905249
1129.000000	54.882606
1130.000000	54.849969
1131.000000	54.805229
1132.000000	54.747789
1133.000000	54.675434
1134.000000	54.589340
1135.000000	54.487577
1136.000000	54.369509
1137.000000	54.235109
1138.000000	54.085729
1139.000000	53.922029
1140.000000	53.744380
1141.000000	53.553900
1142.000000	53.350369
1143.000000	53.134794
1144.000000	52.907466
1145.000000	52.670020
1146.000000	52.425323
1147.000000	52.175234
1148.000000	51.921589
1149.000000	51.666309
1150.000000	51.408669
1151.000000	51.149223
1152.000000	50.887383
1153.000000	50.623357
1154.000000	50.354971
1155.000000	50.081606
1156.000000	49.801474
1157.000000	49.514720
1158.000000	49.220340
1159.000000	48.918263
1160.000000	48.607517
1161.000000	48.290411
1162.000000	47.966349
1163.000000	47.636720
1164.000000	47.302989
1165.000000	46.967797
1166.000000	46.631771
1167.000000	46.297717
1168.000000	45.967023
1169.000000	45.639066
1170.000000	45.316680
1171.000000	45.000354
1172.000000	44.689386
1173.000000	44.384277
1174.000000	44.084366
1175.000000	43.789197
1176.000000	43.498063
1177.000000	43.210557
1178.000000	42.922911
1179.000000	42.634251
1180.000000	42.341066
1181.000000	42.041206
1182.000000	41.732943
1183.000000	41.417460
1184.000000	41.094651
1185.000000	40.769037
1186.000000	40.443386
1187.000000	40.122097
1188.000000	39.808780
1189.000000	39.508269
1190.000000	39.224409
1191.000000	38.960403
1192.000000	38.717314
1193.000000	38.494883
1194.000000	38.292423
1195.000000	38.109394
1196.000000	37.942500
1197.000000	37.792154
1198.000000	37.656231
1199.000000	37.534086
1200.000000	37.423946
1201.000000	37.326417
1202.000000	37.239420
1203.000000	37.163749
1204.000000	37.098631
1205.000000	37.043546
1206.000000	36.999226
1207.000000	36.967197
1208.000000	36.946246
1209.000000	36.936286
1210.000000	36.937751
1211.000000	36.951123
1212.000000	36.976700
1213.000000	37.017689
1214.000000	37.074677
1215.000000	37.149426
1216.000000	37.241926
1217.000000	37.351774
1218.000000	37.476569
1219.000000	37.614906
1220.000000	37.762523
1221.000000	37.916954
1222.000000	38.074694
1223.000000	38.232737
1224.000000	38.389271
1225.000000	38.540597
1226.000000	38.686374
1227.000000	38.825749
1228.000000	38.960463
1229.000000	39.091077
1230.000000	39.219486
1231.000000	39.347471
1232.000000	39.476320
1233.000000	39.607611
1234.000000	39.741640
1235.000000	39.879369
1236.000000	40.020469
1237.000000	40.166060
1238.000000	40.315311
1239.000000	40.468700
1240.000000	40.626189
1241.000000	40.787103
1242.000000	40.949723
1243.000000	41.113591
1244.000000	41.278689
1245.000000	41.444960
1246.000000	41.611717
1247.000000	41.779169
1248.000000	41.946049
1249.000000	42.112206
1250.000000	42.277460
1251.000000	42.441054
1252.000000	42.603089
1253.000000	42.763626
1254.000000	42.921446
1255.000000	43.076509
1256.000000	43.228771
1257.000000	43.377706
1258.000000	43.523260
1259.000000	43.664109
1260.000000	43.801769
1261.000000	43.935806
1262.000000	44.065854
1263.000000	44.191406
1264.000000	44.312983
1265.000000	44.431037
1266.000000	44.545049
1267.000000	44.654769
1268.000000	44.761274
1269.000000	44.864409
1270.000000	44.963614
1271.000000	45.059769
1272.000000	45.152043
1273.000000	45.241071
1274.000000	45.326889
1275.000000	45.409689
1276.000000	45.489506
1277.000000	45.567040
1278.000000	45.642903
1279.000000	45.716863
1280.000000	45.789006
1281.000000	45.859663
1282.000000	45.928649
1283.000000	45.996197
1284.000000	46.062709
1285.000000	46.127897
1286.000000	46.192214
1287.000000	46.255394
1288.000000	46.317189
1289.000000	46.377949
1290.000000	46.437471
1291.000000	46.495797
1292.000000	46.552126
1293.000000	46.606951
1294.000000	46.660069
1295.000000	46.711040
1296.000000	46.759683
1297.000000	46.806060
1298.000000	46.850577
1299.000000	46.893143
1300.000000	46.933194
1301.000000	46.971240
1302.000000	47.007331
1303.000000	47.040363
1304.000000	47.070534
1305.000000	47.097794
1306.000000	47.121837
1307.000000	47.142629
1308.000000	47.159631
1309.000000	47.172631
1310.000000	47.181163
1311.000000	47.185063
1312.000000	47.184006
1313.000000	47.177591
1314.000000	47.165257
1315.000000	47.146671
1316.000000	47.121771
1317.000000	47.090363
1318.000000	47.052720
1319.000000	47.008500
1320.000000	46.957477
1321.000000	46.899277
1322.000000	46.833846
1323.000000	46.760837
1324.000000	46.681003
1325.000000	46.594426
1326.000000	46.500203
1327.000000	46.398854
1328.000000	46.290194
1329.000000	46.173914
1330.000000	46.050537
1331.000000	45.919306
1332.000000	45.780771
1333.000000	45.634314
1334.000000	45.479257
1335.000000	45.316434
1336.000000	45.145517
1337.000000	44.965637
1338.000000	44.777054
1339.000000	44.580600
1340.000000	44.376857
1341.000000	44.166126
1342.000000	43.947003
1343.000000	43.720660
1344.000000	43.487369
1345.000000	43.246274
1346.000000	42.997740
1347.000000	42.741966
1348.000000	42.478909
1349.000000	42.207966
1350.000000	41.928857
1351.000000	41.640151
1352.000000	41.341160
1353.000000	41.032669
1354.000000	40.716354
1355.000000	40.392803
1356.000000	40.065274
1357.000000	39.737409
1358.000000	39.411337
1359.000000	39.088054
1360.000000	38.768877
1361.000000	38.454126
1362.000000	38.142051
1363.000000	37.831254
1364.000000	37.523103
1365.000000	37.217380
1366.000000	36.912991
1367.000000	36.609657
1368.000000	36.306403
1369.000000	36.002994
1370.000000	35.697780
1371.000000	35.389669
1372.000000	35.077863
1373.000000	34.761471
1374.000000	34.440223
1375.000000	34.114880
1376.000000	33.785977
1377.000000	33.456934
1378.000000	33.126606
1379.000000	32.796626
1380.000000	32.466480
1381.000000	32.138220
1382.000000	31.809369
1383.000000	31.479526
1384.000000	31.150206
1385.000000	30.823069
1386.000000	30.500880
1387.000000	30.186137
1388.000000	29.880097
1389.000000	29.580620
1390.000000	29.288703
1391.000000	29.002683
1392.000000	28.719171
1393.000000	28.436751
1394.000000	28.154954
1395.000000	27.873337
1396.000000	27.590320
1397.000000	27.306180
1398.000000	27.022517
1399.000000	26.740606
1400.000000	26.459523
1401.000000	26.179337
1402.000000	25.897723
1403.000000	25.618126
1404.000000	25.340614
1405.000000	25.067409
1406.000000	24.798363
1407.000000	24.536137
1408.000000	24.281389
1409.000000	24.035046
1410.000000	23.794874
1411.000000	23.560586
1412.000000	23.330906
1413.000000	23.108494
1414.000000	22.890777
1415.000000	22.680000
1416.000000	22.472497
1417.000000	22.271143
1418.000000	22.077666
1419.000000	21.891386
1420.000000	21.711146
1421.000000	21.534351
1422.000000	21.360929
1423.000000	21.190280
1424.000000	21.021326
1425.000000	20.853280
1426.000000	20.685509
1427.000000	20.517237
1428.000000	20.349206
1429.000000	20.180663
1430.000000	20.010883
1431.000000	19.842589
1432.000000	19.677066
1433.000000	19.515289
1434.000000	19.354451
1435.000000	19.194831
1436.000000	19.039777
1437.000000	18.890631
1438.000000	18.745843
1439.000000	18.606626
1440.000000	18.470834
1441.000000	18.341397
1442.000000	18.216729
1443.000000	18.096946
1444.000000	17.981391
1445.000000	17.871860
1446.000000	17.767720
1447.000000	17.667389
1448.000000	17.569691
1449.000000	17.474877
1450.000000	17.384277
1451.000000	17.297420
1452.000000	17.215029
1453.000000	17.134997
1454.000000	17.057871
1455.000000	16.983729
1456.000000	16.914117
1457.000000	16.847569
1458.000000	16.783000
1459.000000	16.722174
1460.000000	16.665106
1461.000000	16.611280
1462.000000	16.560671
1463.000000	16.511797
1464.000000	16.465611
1465.000000	16.422540
1466.000000	16.381277
1467.000000	16.342529
1468.000000	16.304771
1469.000000	16.268997
1470.000000	16.235537
1471.000000	16.203380
1472.000000	16.173897
1473.000000	16.146097
1474.000000	16.119743
1475.000000	16.095394
1476.000000	16.072089
1477.000000	16.050446
1478.000000	16.030603
1479.000000	16.012314
1480.000000	15.994283
1481.000000	15.978049
1482.000000	15.963980
1483.000000	15.950603
1484.000000	15.939311
1485.000000	15.928071
1486.000000	15.918909
1487.000000	15.910471
1488.000000	15.904129
1489.000000	15.898934
1490.000000	15.894689
1491.000000	15.891349
1492.000000	15.889140
1493.000000	15.887669
1494.000000	15.887577
1495.000000	15.888206
1496.000000	15.889023
1497.000000	15.890600
1498.000000	15.893720
1499.000000	15.897623
1500.000000	15.901917
1501.000000	15.907360
1502.000000	15.912860
1503.000000	15.919217
1504.000000	15.926706
1505.000000	15.935091
1506.000000	15.943774
1507.000000	15.953183
1508.000000	15.963717
1509.000000	15.974817
1510.000000	15.987354
1511.000000	16.000386
1512.000000	16.014623
1513.000000	16.029489
1514.000000	16.044769
1515.000000	16.061426
1516.000000	16.078057
1517.000000	16.095489
1518.000000	16.114334
1519.000000	16.133443
1520.000000	16.153080
1521.000000	16.173340
1522.000000	16.193691
1523.000000	16.214511
1524.000000	16.235437
1525.000000	16.257369
1526.000000	16.280277
1527.000000	16.303209
1528.000000	16.326749
1529.000000	16.350240
1530.000000	16.373754
1531.000000	16.397983
1532.000000	16.422880
1533.000000	16.447954
1534.000000	16.472606
1535.000000	16.496983
1536.000000	16.521377
1537.000000	16.545860
1538.000000	16.570346
1539.000000	16.594574
1540.000000	16.618443
1541.000000	16.642280
1542.000000	16.665386
1543.000000	16.688120
1544.000000	16.710803
1545.000000	16.732929
1546.000000	16.755077
1547.000000	16.776580
1548.000000	16.797820
1549.000000	16.819360
1550.000000	16.840914
1551.000000	16.862180
1552.000000	16.882983
1553.000000	16.903223
1554.000000	16.923534
1555.000000	16.943449
1556.000000	16.962514
1557.000000	16.981360
1558.000000	16.999203
1559.000000	17.017283
1560.000000	17.034740
1561.000000	17.051060
1562.000000	17.067051
1563.000000	17.081963
1564.000000	17.096149
1565.000000	17.109574
1566.000000	17.121729
1567.000000	17.132963
1568.000000	17.143443
1569.000000	17.152951
1570.000000	17.162014
1571.000000	17.170537
1572.000000	17.178237
1573.000000	17.185046
1574.000000	17.191523
1575.000000	17.197911
1576.000000	17.203883
1577.000000	17.209760
1578.000000	17.215169
1579.000000	17.220091
1580.000000	17.224960
1581.000000	17.229331
1582.000000	17.233289
1583.000000	17.237506
1584.000000	17.241463
1585.000000	17.245220
1586.000000	17.249109
1587.000000	17.253169
1588.000000	17.256954
1589.000000	17.260671
1590.000000	17.264860
1591.000000	17.269369
1592.000000	17.274203
1593.000000	17.279894
1594.000000	17.285763
1595.000000	17.291969
1596.000000	17.299383
1597.000000	17.307709
1598.000000	17.317026
1599.000000	17.327483
1600.000000	17.339143
1601.000000	17.352106
1602.000000	17.366203
1603.000000	17.381774
1604.000000	17.398843
1605.000000	17.416611
1606.000000	17.435594
1607.000000	17.456086
1608.000000	17.477771
1609.000000	17.500323
1610.000000	17.523977
1611.000000	17.549006
1612.000000	17.574846
1613.000000	17.602083
1614.000000	17.630289
1615.000000	17.659817
1616.000000	17.690026
1617.000000	17.721203
1618.000000	17.752897
1619.000000	17.785066
1620.000000	17.818323
1621.000000	17.852277
1622.000000	17.886906
1623.000000	17.922991
1624.000000	17.959940
1625.000000	17.997666
1626.000000	18.036363
1627.000000	18.076080
1628.000000	18.116329
1629.000000	18.157417
1630.000000	18.199580
1631.000000	18.242320
1632.000000	18.285877
1633.000000	18.330183
1634.000000	18.374320
1635.000000	18.418834
1636.000000	18.464071
1637.000000	18.509749
1638.000000	18.555331
1639.000000	18.601651
1640.000000	18.648297
1641.000000	18.694200
1642.000000	18.740663
1643.000000	18.787343
1644.000000	18.833997
1645.000000	18.881223
1646.000000	18.928240
1647.000000	18.975257
1648.000000	19.021691
1649.000000	19.068200
1650.000000	19.113203
1651.000000	19.158371
1652.000000	19.202914
1653.000000	19.246777
1654.000000	19.290363
1655.000000	19.332229
1656.000000	19.372786
1657.000000	19.411923
1658.000000	19.449151
1659.000000	19.484851
1660.000000	19.517789
1661.000000	19.548743
1662.000000	19.577214
1663.000000	19.602894
1664.000000	19.625703
1665.000000	19.645194
1666.000000	19.661094
1667.000000	19.673694
1668.000000	19.682609
1669.000000	19.686657
1670.000000	19.686137
1671.000000	19.679769
1672.000000	19.667294
1673.000000	19.648426
1674.000000	19.621640
1675.000000	19.587457
1676.000000	19.544723
1677.000000	19.492029
1678.000000	19.429180
1679.000000	19.355406
1680.000000	19.270494
1681.000000	19.175951
1682.000000	19.073414
1683.000000	18.965840
1684.000000	18.853600
1685.000000	18.740220
1686.000000	18.625109
1687.000000	18.508091
1688.000000	18.389791
1689.000000	18.269766
1690.000000	18.146246
1691.000000	18.020454
1692.000000	17.892651
1693.000000	17.762994
1694.000000	17.631797
1695.000000	17.501354
1696.000000	17.370980
1697.000000	17.243534
1698.000000	17.119331
1699.000000	16.998771
1700.000000	16.882511
1701.000000	16.770997
1702.000000	16.662511
1703.000000	16.557697
1704.000000	16.457786
1705.000000	16.361643
1706.000000	16.269934
1707.000000	16.183983
1708.000000	16.103417
1709.000000	16.028580
1710.000000	15.960366
1711.000000	15.898926
1712.000000	15.845003
1713.000000	15.798880
1714.000000	15.761357
1715.000000	15.731617
1716.000000	15.708503
1717.000000	15.691220
1718.000000	15.676677
1719.000000	15.664523
1720.000000	15.652523
1721.000000	15.641326
1722.000000	15.630334
1723.000000	15.619746
1724.000000	15.609209
1725.000000	15.600729
1726.000000	15.593174
1727.000000	15.586417
1728.000000	15.579246
1729.000000	15.572197
1730.000000	15.563317
1731.000000	15.554220
1732.000000	15.541411
1733.000000	15.526400
1734.000000	15.509906
1735.000000	15.492206
1736.000000	15.474180
1737.000000	15.456929
1738.000000	15.441023
1739.000000	15.427880
1740.000000	15.417800
1741.000000	15.411277
1742.000000	15.407609
1743.000000	15.406251
1744.000000	15.408617
1745.000000	15.412643
1746.000000	15.419486
1747.000000	15.429071
1748.000000	15.440917
1749.000000	15.455209
1750.000000	15.471354
1751.000000	15.489700
1752.000000	15.509740
1753.000000	15.531257
1754.000000	15.554040
1755.000000	15.576817
1756.000000	15.598529
1757.000000	15.620597
1758.000000	15.641823
1759.000000	15.662583
1760.000000	15.683520
1761.000000	15.705737
1762.000000	15.728651
1763.000000	15.754180
1764.000000	15.781674
1765.000000	15.812534
1766.000000	15.845246
1767.000000	15.881551
1768.000000	15.920063
1769.000000	15.959349
1770.000000	15.999646
1771.000000	16.039146
1772.000000	16.079123
1773.000000	16.118186
1774.000000	16.155846
1775.000000	16.191797
1776.000000	16.225997
1777.000000	16.258066
1778.000000	16.288969
1779.000000	16.318703
1780.000000	16.348409
1781.000000	16.377563
1782.000000	16.405814
1783.000000	16.434726
1784.000000	16.464249
1785.000000	16.495180
1786.000000	16.527286
1787.000000	16.559983
1788.000000	16.593283
1789.000000	16.627800
1790.000000	16.664706
1791.000000	16.703694
1792.000000	16.744346
1793.000000	16.787457
1794.000000	16.832991
1795.000000	16.880617
1796.000000	16.929811
1797.000000	16.980946
1798.000000	17.032371
1799.000000	17.083854
1800.000000	17.135603
1801.000000	17.187734
1802.000000	17.238854
1803.000000	17.288771
1804.000000	17.337749
1805.000000	17.385551
1806.000000	17.432606
1807.000000	17.477529
1808.000000	17.521314
1809.000000	17.563389
1810.000000	17.603746
1811.000000	17.643211
1812.000000	17.681454
1813.000000	17.718540
1814.000000	17.753863
1815.000000	17.787203
1816.000000	17.819443
1817.000000	17.850637
1818.000000	17.879700
1819.000000	17.907209
1820.000000	17.934406
1821.000000	17.961434
1822.000000	17.987334
1823.000000	18.012123
1824.000000	18.036097
1825.000000	18.059294
1826.000000	18.082360
1827.000000	18.105820
1828.000000	18.129611
1829.000000	18.154149
1830.000000	18.179237
1831.000000	18.204291
1832.000000	18.228786
1833.000000	18.253514
1834.000000	18.278589
1835.000000	18.303540
1836.000000	18.328494
1837.000000	18.353894
1838.000000	18.378951
1839.000000	18.403709
1840.000000	18.428049
1841.000000	18.452600
1842.000000	18.476977
1843.000000	18.499726
1844.000000	18.521031
1845.000000	18.542080
1846.000000	18.562883
1847.000000	18.584694
1848.000000	18.607506
1849.000000	18.631263
1850.000000	18.654560
1851.000000	18.676603
1852.000000	18.698611
1853.000000	18.721317
1854.000000	18.743940
1855.000000	18.765223
1856.000000	18.784329
1857.000000	18.802306
1858.000000	18.819389
1859.000000	18.835003
1860.000000	18.848291
1861.000000	18.857854
1862.000000	18.863566
1863.000000	18.864786
1864.000000	18.861351
1865.000000	18.853369
1866.000000	18.840583
1867.000000	18.824146
1868.000000	18.803174
1869.000000	18.776546
1870.000000	18.743057
1871.000000	18.702429
1872.000000	18.654537
1873.000000	18.599597
1874.000000	18.537211
1875.000000	18.466417
1876.000000	18.386643
1877.000000	18.297534
1878.000000	18.200329
1879.000000	18.094877
1880.000000	17.981009
1881.000000	17.857529
1882.000000	17.723326
1883.000000	17.579823
1884.000000	17.426883
1885.000000	17.266491
1886.000000	17.099834
1887.000000	16.925983
1888.000000	16.746006
1889.000000	16.559551
1890.000000	16.367660
1891.000000	16.171497
1892.000000	15.971383
1893.000000	15.766874
1894.000000	15.558351
1895.000000	15.346057
1896.000000	15.131663
1897.000000	14.915771
1898.000000	14.698617
1899.000000	14.480231
1900.000000	14.261263
1901.000000	14.041614
1902.000000	13.820831
1903.000000	13.600317
1904.000000	13.381097
1905.000000	13.163969
1906.000000	12.949031
1907.000000	12.736386
1908.000000	12.527020
1909.000000	12.321500
1910.000000	12.120731
1911.000000	11.924497
1912.000000	11.734823
1913.000000	11.551791
1914.000000	11.375874
1915.000000	11.205314
1916.000000	11.040354
1917.000000	10.882646
1918.000000	10.730240
1919.000000	10.584274
1920.000000	10.444574
1921.000000	10.310457
1922.000000	10.182654
1923.000000	10.059169
1924.000000	9.940340
1925.000000	9.825526
1926.000000	9.714280
1927.000000	9.606560
1928.000000	9.503480
1929.000000	9.405286
1930.000000	9.312100
1931.000000	9.222677
1932.000000	9.136060
1933.000000	9.053286
1934.000000	8.974260
1935.000000	8.898454
1936.000000	8.826529
1937.000000	8.759077
1938.000000	8.695451
1939.000000	8.635874
1940.000000	8.579186
1941.000000	8.526066
1942.000000	8.477126
1943.000000	8.431140
1944.000000	8.388763
1945.000000	8.349840
1946.000000	8.314834
1947.000000	8.283040
1948.000000	8.253906
1949.000000	8.226806
1950.000000	8.204209
1951.000000	8.185894
1952.000000	8.169646
1953.000000	8.156617
1954.000000	8.146491
1955.000000	8.138889
1956.000000	8.133749
1957.000000	8.131120
1958.000000	8.130526
1959.000000	8.132446
1960.000000	8.136594
1961.000000	8.142791
1962.000000	8.151897
1963.000000	8.162791
1964.000000	8.175103
1965.000000	8.188883
1966.000000	8.204603
1967.000000	8.221969
1968.000000	8.240534
1969.000000	8.261340
1970.000000	8.282960
1971.000000	8.306440
1972.000000	8.330320
1973.000000	8.354797
1974.000000	8.380531
1975.000000	8.407871
1976.000000	8.436200
1977.000000	8.464880
1978.000000	8.495526
1979.000000	8.526400
1980.000000	8.557657
1981.000000	8.589731
1982.000000	8.621914
1983.000000	8.654466
1984.000000	8.688669
1985.000000	8.722380
1986.000000	8.755894
1987.000000	8.790077
1988.000000	8.825834
1989.000000	8.861269
1990.000000	8.897111
1991.000000	8.932597
1992.000000	8.968434
1993.000000	9.005666
1994.000000	9.042006
1995.000000	9.078531
1996.000000	9.115383
1997.000000	9.151291
1998.000000	9.187289
1999.000000	9.222929
2000.000000	9.258463
2001.000000	9.293043
2002.000000	9.328611
2003.000000	9.364343
2004.000000	9.398586
2005.000000	9.433557
2006.000000	9.467100
2007.000000	9.500674
2008.000000	9.533560
2009.000000	9.565063
2010.000000	9.595611
2011.000000	9.624951
2012.000000	9.654331
2013.000000	9.682060
2014.000000	9.709466
2015.000000	9.736091
2016.000000	9.761163
2017.000000	9.785169
2018.000000	9.808083
2019.000000	9.829303
2020.000000	9.849371
2021.000000	9.868060
2022.000000	9.885809
2023.000000	9.901083
2024.000000	9.915217
2025.000000	9.928171
2026.000000	9.939823
2027.000000	9.949426
2028.000000	9.956374
2029.000000	9.962866
2030.000000	9.968026
2031.000000	9.971211
2032.000000	9.972983
2033.000000	9.973469
2034.000000	9.971609
2035.000000	9.967874
2036.000000	9.963006
2037.000000	9.956483
2038.000000	9.947914
2039.000000	9.937700
2040.000000	9.925220
2041.000000	9.911294
2042.000000	9.895103
2043.000000	9.878026
2044.000000	9.859114
2045.000000	9.838486
2046.000000	9.816606
2047.000000	9.792283
2048.000000	9.767029
2049.000000	9.741531
2050.000000	9.714614
2051.000000	9.687063
2052.000000	9.658420
2053.000000	9.629760
2054.000000	9.600877
2055.000000	9.571809
2056.000000	9.543206
2057.000000	9.515011
2058.000000	9.487334
2059.000000	9.460080
2060.000000	9.433494
2061.000000	9.408540
2062.000000	9.384389
2063.000000	9.361423
2064.000000	9.339546
2065.000000	9.318846
2066.000000	9.300226
2067.000000	9.282660
2068.000000	9.266289
2069.000000	9.252131
2070.000000	9.239689
2071.000000	9.228843
2072.000000	9.218894
2073.000000	9.211151
2074.000000	9.205626
2075.000000	9.201657
2076.000000	9.199511
2077.000000	9.199320
2078.000000	9.200074
2079.000000	9.203106
2080.000000	9.208043
2081.000000	9.214869
2082.000000	9.223977
2083.000000	9.234686
2084.000000	9.245660
2085.000000	9.257794
2086.000000	9.271194
2087.000000	9.285797
2088.000000	9.301286
2089.000000	9.317266
2090.000000	9.333371
2091.000000	9.349851
2092.000000	9.366143
2093.000000	9.382486
2094.000000	9.399109
2095.000000	9.415411
2096.000000	9.431494
2097.000000	9.446914
2098.000000	9.462417
2099.000000	9.477246
2100.000000	9.491286
2101.000000	9.505117
2102.000000	9.519511
2103.000000	9.533374
2104.000000	9.546311
2105.000000	9.558580
2106.000000	9.571086
2107.000000	9.583591
2108.000000	9.595349
2109.000000	9.606497
2110.000000	9.617860
2111.000000	9.629191
2112.000000	9.640294
2113.000000	9.651914
2114.000000	9.662797
2115.000000	9.673289
2116.000000	9.683317
2117.000000	9.692771
2118.000000	9.702440
2119.000000	9.712057
2120.000000	9.721754
2121.000000	9.730880
2122.000000	9.740111
2123.000000	9.749166
2124.000000	9.757766
2125.000000	9.766306
2126.000000	9.774226
2127.000000	9.781874
2128.000000	9.789234
2129.000000	9.795934
2130.000000	9.802160
2131.000000	9.807351
2132.000000	9.812006
2133.000000	9.815857
2134.000000	9.819423
2135.000000	9.822194
2136.000000	9.823483
2137.000000	9.823514
2138.000000	9.822443
2139.000000	9.820937
2140.000000	9.818629
2141.000000	9.815117
2142.000000	9.809957
2143.000000	9.803243
2144.000000	9.795389
2145.000000	9.786331
2146.000000	9.775940
2147.000000	9.764143
2148.000000	9.750326
2149.000000	9.735400
2150.000000	9.719709
2151.000000	9.702997
2152.000000	9.684791
2153.000000	9.665077
2154.000000	9.644266
2155.000000	9.622340
2156.000000	9.599391
2157.000000	9.575166
2158.000000	9.549717
2159.000000	9.523694
2160.000000	9.496766
2161.000000	9.469583
2162.000000	9.442506
2163.000000	9.414414
2164.000000	9.386046
2165.000000	9.357469
2166.000000	9.328366
2167.000000	9.299591
2168.000000	9.270623
2169.000000	9.241231
2170.000000	9.212526
2171.000000	9.183409
2172.000000	9.153840
2173.000000	9.124957
2174.000000	9.096137
2175.000000	9.067534
2176.000000	9.038926
2177.000000	9.010586
2178.000000	8.982974
2179.000000	8.955360
2180.000000	8.927980
2181.000000	8.900354
2182.000000	8.873209
2183.000000	8.846640
2184.000000	8.820149
2185.000000	8.792100
2186.000000	8.763974
2187.000000	8.736071
2188.000000	8.707766
2189.000000	8.677791
2190.000000	8.646966
2191.000000	8.615249
2192.000000	8.581851
2193.000000	8.547069
2194.000000	8.510266
2195.000000	8.471983
2196.000000	8.431857
2197.000000	8.387971
2198.000000	8.342714
2199.000000	8.295131
2200.000000	8.244934
2201.000000	8.192689
2202.000000	8.137846
2203.000000	8.080534
2204.000000	8.022046
2205.000000	7.962100
2206.000000	7.901489
2207.000000	7.840809
2208.000000	7.779483
2209.000000	7.717563
2210.000000	7.655963
2211.000000	7.594989
2212.000000	7.535257
2213.000000	7.476463
2214.000000	7.419074
2215.000000	7.363126
2216.000000	7.309574
2217.000000	7.257854
2218.000000	7.208086
2219.000000	7.160703
2220.000000	7.116423
2221.000000	7.074846
2222.000000	7.035797
2223.000000	6.998966
2224.000000	6.966049
2225.000000	6.935871
2226.000000	6.908117
2227.000000	6.884571
2228.000000	6.864337
2229.000000	6.847117
2230.000000	6.832700
2231.000000	6.820720
2232.000000	6.812889
2233.000000	6.808074
2234.000000	6.805566
2235.000000	6.805620
2236.000000	6.808440
2237.000000	6.814066
2238.000000	6.822200
2239.000000	6.831363
2240.000000	6.841074
2241.000000	6.852223
2242.000000	6.862669
2243.000000	6.872914
2244.000000	6.883366
2245.000000	6.893006
2246.000000	6.901294
2247.000000	6.907480
2248.000000	6.911086
2249.000000	6.912531
2250.000000	6.910903
2251.000000	6.906191
2252.000000	6.898223
2253.000000	6.887769
2254.000000	6.872263
2255.000000	6.854863
2256.000000	6.832320
2257.000000	6.806494
2258.000000	6.777600
2259.000000	6.745617
2260.000000	6.710569
2261.000000	6.673894
2262.000000	6.634434
2263.000000	6.592557
2264.000000	6.549300
2265.000000	6.505086
2266.000000	6.459840
2267.000000	6.413854
2268.000000	6.367380
2269.000000	6.321417
2270.000000	6.276249
2271.000000	6.232157
2272.000000	6.188706
2273.000000	6.146611
2274.000000	6.106326
2275.000000	6.067803
2276.000000	6.031286
2277.000000	5.997540
2278.000000	5.966111
2279.000000	5.936506
2280.000000	5.908820
2281.000000	5.883629
2282.000000	5.861360
2283.000000	5.841969
2284.000000	5.825314
2285.000000	5.811349
2286.000000	5.799526
2287.000000	5.790417
2288.000000	5.783174
2289.000000	5.779657
2290.000000	5.777014
2291.000000	5.778114
2292.000000	5.780860
2293.000000	5.784286
2294.000000	5.789214
2295.000000	5.796117
2296.000000	5.803731
2297.000000	5.811643
2298.000000	5.819951
2299.000000	5.828340
2300.000000	5.837026
2301.000000	5.846091
2302.000000	5.855029
2303.000000	5.863669
2304.000000	5.872280
2305.000000	5.880797
2306.000000	5.889257
2307.000000	5.897494
2308.000000	5.905366
2309.000000	5.913474
2310.000000	5.921603
2311.000000	5.929243
2312.000000	5.937697
2313.000000	5.945766
2314.000000	5.954474
2315.000000	5.963977
2316.000000	5.974151
2317.000000	5.984283
2318.000000	5.995026
2319.000000	6.006700
2320.000000	6.018826
2321.000000	6.031629
2322.000000	6.045317
2323.000000	6.059914
2324.000000	6.075029
2325.000000	6.091229
2326.000000	6.107914
2327.000000	6.125789
2328.000000	6.145871
2329.000000	6.166674
2330.000000	6.188249
2331.000000	6.211051
2332.000000	6.235931
2333.000000	6.262134
2334.000000	6.289634
2335.000000	6.317520
2336.000000	6.345826
2337.000000	6.374931
2338.000000	6.404137
2339.000000	6.433491
2340.000000	6.462246
2341.000000	6.489620
2342.000000	6.516420
2343.000000	6.542191
2344.000000	6.566294
2345.000000	6.588871
2346.000000	6.609494
2347.000000	6.628011
2348.000000	6.645729
2349.000000	6.661454
2350.000000	6.675237
2351.000000	6.687226
2352.000000	6.697766
2353.000000	6.707223
2354.000000	6.714917
2355.000000	6.721686
2356.000000	6.728186
2357.000000	6.734117
2358.000000	6.739134
2359.000000	6.744011
2360.000000	6.748674
2361.000000	6.753246
2362.000000	6.757654
2363.000000	6.761780
2364.000000	6.766257
2365.000000	6.770849
2366.000000	6.775271
2367.000000	6.779437
2368.000000	6.784103
2369.000000	6.788714
2370.000000	6.793554
2371.000000	6.799091
2372.000000	6.804711
2373.000000	6.810646
2374.000000	6.816563
2375.000000	6.822786
2376.000000	6.830134
2377.000000	6.838169
2378.000000	6.847177
2379.000000	6.856903
2380.000000	6.866974
2381.000000	6.877669
2382.000000	6.888603
2383.000000	6.899320
2384.000000	6.910194
2385.000000	6.921117
2386.000000	6.932114
2387.000000	6.943234
2388.000000	6.953929
2389.000000	6.963940
2390.000000	6.973529
2391.000000	6.981789
2392.000000	6.988457
2393.000000	6.994500
2394.000000	6.999886
2395.000000	7.004054
2396.000000	7.006857
2397.000000	7.008189
2398.000000	7.008403
2399.000000	7.007343
2400.000000	7.005286
2401.000000	7.001789
2402.000000	6.996709
2403.000000	6.990500
2404.000000	6.983651
2405.000000	6.976006
2406.000000	6.967031
2407.000000	6.957557
2408.000000	6.947746
2409.000000	6.936883
2410.000000	6.925583
2411.000000	6.913317
2412.000000	6.900343
2413.000000	6.886269
2414.000000	6.870997
2415.000000	6.855586
2416.000000	6.839951
2417.000000	6.823603
2418.000000	6.806571
2419.000000	6.788860
2420.000000	6.770263
2421.000000	6.750514
2422.000000	6.730306
2423.000000	6.709646
2424.000000	6.688631
2425.000000	6.666754
2426.000000	6.644551
2427.000000	6.622460
2428.000000	6.600140
2429.000000	6.576571
2430.000000	6.552426
2431.000000	6.527931
2432.000000	6.502766
2433.000000	6.477520
2434.000000	6.451677
2435.000000	6.425080
2436.000000	6.398469
2437.000000	6.371774
2438.000000	6.344446
2439.000000	6.316334
2440.000000	6.287740
2441.000000	6.258703
2442.000000	6.228909
2443.000000	6.198209
2444.000000	6.168071
2445.000000	6.136514
2446.000000	6.104380
2447.000000	6.071691
2448.000000	6.038791
2449.000000	6.005377
2450.000000	5.971520
2451.000000	5.936931
2452.000000	5.902534
2453.000000	5.867263
2454.000000	5.832360
2455.000000	5.798160
2456.000000	5.763651
2457.000000	5.728569
2458.000000	5.693466
2459.000000	5.658037
2460.000000	5.623386
2461.000000	5.589209
2462.000000	5.553911
2463.000000	5.519857
2464.000000	5.486586
2465.000000	5.454791
2466.000000	5.422177
2467.000000	5.391686
2468.000000	5.360171
2469.000000	5.331049
2470.000000	5.302871
2471.000000	5.273857
2472.000000	5.246211
2473.000000	5.217880
2474.000000	5.192023
2475.000000	5.167149
2476.000000	5.143131
2477.000000	5.118631
2478.000000	5.095517
2479.000000	5.073077
2480.000000	5.052620
2481.000000	5.030446
2482.000000	5.012117
2483.000000	4.994683
2484.000000	4.977671
2485.000000	4.961034
2486.000000	4.945251
2487.000000	4.930080
2488.000000	4.919037
2489.000000	4.906337
2490.000000	4.895566
2491.000000	4.885980
2492.000000	4.878643
2493.000000	4.871086
2494.000000	4.865626
2495.000000	4.859009
2496.000000	4.854131
2497.000000	4.850146
2498.000000	4.845929
2499.000000	4.840226
2500.000000	4.838677
