PE UV       SUBTECH     SPECTRUM    ASCII       PEDS        4.00        
   -1
CICIMAUCR0101-1.ASC
24/04/03
16:31:32.00
24/04/03
16:31:32.00
Vinicio Soto Monge
C. resplendens
250,000000
1
Lambda 1050
1050L1511233
PerkinElmer UV WinLab 6.3.2.0749 / 2.02.05 Lambda 900 UV/VIS/NIR, Aug  7 2015 09:38:08

0
0
3350/servo 860,8/2
0
0
UV/VIS
1
1
1
DoubleDePol,CommonBeamDepol,RBeamAtt,SBeamAtt,60mm sphere, WB InGaAs Detector
0
0
0
0
Program
Program
3350/servo 860,8/2
3350/0,2 860,8/0,2
3350/0,2 860,8/0,2
0
15.00
 
 
 
0
 
860,8
319,2
860,8
Front
100
on
S:100 R:100
0
0
0
0
 
0
 
 
 
0
 
 
0
0
0
0
0
 
 
 
 
0
0


0
0
#HDR
-1
-1
#GR
nm
%R
1.0
0.0
2500,000000
-1,000000
2251
8
72,895300
3,379900
#DATA
250.000000	nan
251.000000	nan
252.000000	nan
253.000000	nan
254.000000	nan
255.000000	nan
256.000000	nan
257.000000	nan
258.000000	nan
259.000000	nan
260.000000	nan
261.000000	nan
262.000000	nan
263.000000	nan
264.000000	nan
265.000000	nan
266.000000	nan
267.000000	nan
268.000000	nan
269.000000	nan
270.000000	nan
271.000000	nan
272.000000	nan
273.000000	nan
274.000000	nan
275.000000	nan
276.000000	nan
277.000000	nan
278.000000	nan
279.000000	nan
280.000000	nan
281.000000	nan
282.000000	nan
283.000000	nan
284.000000	4.965800
285.000000	4.955637
286.000000	4.944327
287.000000	4.933444
288.000000	4.922498
289.000000	4.911709
290.000000	4.900777
291.000000	4.891269
292.000000	4.880885
293.000000	4.871264
294.000000	4.861037
295.000000	4.850240
296.000000	4.841273
297.000000	4.831859
298.000000	4.823046
299.000000	4.815260
300.000000	4.806522
301.000000	4.800076
302.000000	4.792729
303.000000	4.785569
304.000000	4.778773
305.000000	4.771848
306.000000	4.766099
307.000000	4.759177
308.000000	4.753574
309.000000	4.747853
310.000000	4.742382
311.000000	4.735945
312.000000	4.732687
313.000000	4.728162
314.000000	4.723218
315.000000	4.717635
316.000000	4.713540
317.000000	4.707846
318.000000	4.707122
319.000000	4.706157
320.000000	4.702387
321.000000	4.701817
322.000000	4.701480
323.000000	4.701238
324.000000	4.699144
325.000000	4.698223
326.000000	4.696492
327.000000	4.695120
328.000000	4.691011
329.000000	4.689043
330.000000	4.690038
331.000000	4.690653
332.000000	4.690468
333.000000	4.688886
334.000000	4.688421
335.000000	4.689300
336.000000	4.687484
337.000000	4.686902
338.000000	4.684857
339.000000	4.682862
340.000000	4.682504
341.000000	4.683485
342.000000	4.683887
343.000000	4.685072
344.000000	4.683576
345.000000	4.681931
346.000000	4.682622
347.000000	4.680969
348.000000	4.680594
349.000000	4.681481
350.000000	4.683099
351.000000	4.684959
352.000000	4.688203
353.000000	4.685136
354.000000	4.683380
355.000000	4.685034
356.000000	4.686786
357.000000	4.687428
358.000000	4.687613
359.000000	4.690722
360.000000	4.693334
361.000000	4.696594
362.000000	4.701039
363.000000	4.708433
364.000000	4.716026
365.000000	4.720294
366.000000	4.724357
367.000000	4.730116
368.000000	4.738072
369.000000	4.744956
370.000000	4.751785
371.000000	4.759882
372.000000	4.769232
373.000000	4.781014
374.000000	4.793145
375.000000	4.804314
376.000000	4.814445
377.000000	4.824291
378.000000	4.834513
379.000000	4.846933
380.000000	4.861274
381.000000	4.873731
382.000000	4.887130
383.000000	4.901565
384.000000	4.915446
385.000000	4.931035
386.000000	4.946055
387.000000	4.961848
388.000000	4.979676
389.000000	4.997330
390.000000	5.015909
391.000000	5.033605
392.000000	5.052581
393.000000	5.073402
394.000000	5.094508
395.000000	5.116704
396.000000	5.139475
397.000000	5.162376
398.000000	5.186517
399.000000	5.210843
400.000000	5.237087
401.000000	5.265494
402.000000	5.295637
403.000000	5.326866
404.000000	5.360496
405.000000	5.396062
406.000000	5.434751
407.000000	5.475339
408.000000	5.517752
409.000000	5.563793
410.000000	5.613944
411.000000	5.668655
412.000000	5.728807
413.000000	5.793274
414.000000	5.863173
415.000000	5.938393
416.000000	6.019803
417.000000	6.107549
418.000000	6.201641
419.000000	6.302725
420.000000	6.410894
421.000000	6.526498
422.000000	6.650282
423.000000	6.782479
424.000000	6.923359
425.000000	7.072962
426.000000	7.231395
427.000000	7.399159
428.000000	7.576367
429.000000	7.762383
430.000000	7.957688
431.000000	8.162592
432.000000	8.376448
433.000000	8.598777
434.000000	8.830266
435.000000	9.070919
436.000000	9.320010
437.000000	9.577264
438.000000	9.842452
439.000000	10.114588
440.000000	10.393387
441.000000	10.678174
442.000000	10.968760
443.000000	11.264438
444.000000	11.564473
445.000000	11.868367
446.000000	12.175135
447.000000	12.484394
448.000000	12.795453
449.000000	13.107509
450.000000	13.419598
451.000000	13.731164
452.000000	14.041997
453.000000	14.350970
454.000000	14.657534
455.000000	14.960515
456.000000	15.259387
457.000000	15.553999
458.000000	15.843193
459.000000	16.126225
460.000000	16.403329
461.000000	16.673731
462.000000	16.936378
463.000000	17.190951
464.000000	17.437016
465.000000	17.674257
466.000000	17.901889
467.000000	18.120255
468.000000	18.328824
469.000000	18.526916
470.000000	18.714467
471.000000	18.891369
472.000000	19.057670
473.000000	19.212952
474.000000	19.357611
475.000000	19.491947
476.000000	19.615819
477.000000	19.729491
478.000000	19.833857
479.000000	19.929964
480.000000	20.017539
481.000000	20.097116
482.000000	20.170242
483.000000	20.237217
484.000000	20.298859
485.000000	20.355990
486.000000	20.409914
487.000000	20.461927
488.000000	20.513106
489.000000	20.564483
490.000000	20.617990
491.000000	20.674892
492.000000	20.735851
493.000000	20.802272
494.000000	20.875139
495.000000	20.953873
496.000000	21.039560
497.000000	21.133021
498.000000	21.233824
499.000000	21.343068
500.000000	21.459733
501.000000	21.583398
502.000000	21.714096
503.000000	21.851684
504.000000	21.995626
505.000000	22.145560
506.000000	22.301093
507.000000	22.461664
508.000000	22.626964
509.000000	22.796528
510.000000	22.969723
511.000000	23.147271
512.000000	23.329059
513.000000	23.514821
514.000000	23.704891
515.000000	23.900097
516.000000	24.101713
517.000000	24.310969
518.000000	24.528550
519.000000	24.755548
520.000000	24.993616
521.000000	25.243927
522.000000	25.507313
523.000000	25.785883
524.000000	26.080809
525.000000	26.393348
526.000000	26.724651
527.000000	27.075286
528.000000	27.446995
529.000000	27.841277
530.000000	28.258807
531.000000	28.699520
532.000000	29.164136
533.000000	29.653690
534.000000	30.166582
535.000000	30.704595
536.000000	31.265974
537.000000	31.851276
538.000000	32.459711
539.000000	33.091507
540.000000	33.744776
541.000000	34.420616
542.000000	35.118551
543.000000	35.839319
544.000000	36.581563
545.000000	37.344925
546.000000	38.127641
547.000000	38.928755
548.000000	39.746206
549.000000	40.579527
550.000000	41.426939
551.000000	42.286044
552.000000	43.154712
553.000000	44.030787
554.000000	44.912371
555.000000	45.797114
556.000000	46.682716
557.000000	47.565893
558.000000	48.444454
559.000000	49.315219
560.000000	50.182277
561.000000	51.037725
562.000000	51.878289
563.000000	52.702161
564.000000	53.505728
565.000000	54.289108
566.000000	55.049907
567.000000	55.788588
568.000000	56.502841
569.000000	57.194590
570.000000	57.860833
571.000000	58.503606
572.000000	59.121567
573.000000	59.715286
574.000000	60.286423
575.000000	60.834932
576.000000	61.361051
577.000000	61.864408
578.000000	62.346127
579.000000	62.808258
580.000000	63.249157
581.000000	63.673585
582.000000	64.080470
583.000000	64.470290
584.000000	64.844253
585.000000	65.202420
586.000000	65.547309
587.000000	65.878739
588.000000	66.196575
589.000000	66.500884
590.000000	66.791079
591.000000	67.067888
592.000000	67.331651
593.000000	67.581897
594.000000	67.817170
595.000000	68.032166
596.000000	68.231468
597.000000	68.417194
598.000000	68.587639
599.000000	68.742616
600.000000	68.883447
601.000000	69.010458
602.000000	69.121813
603.000000	69.219041
604.000000	69.302085
605.000000	69.371937
606.000000	69.429394
607.000000	69.472371
608.000000	69.504507
609.000000	69.522331
610.000000	69.529243
611.000000	69.521659
612.000000	69.501784
613.000000	69.468223
614.000000	69.418323
615.000000	69.355066
616.000000	69.273612
617.000000	69.174141
618.000000	69.057249
619.000000	68.920533
620.000000	68.762477
621.000000	68.579951
622.000000	68.373445
623.000000	68.141482
624.000000	67.881381
625.000000	67.594342
626.000000	67.277298
627.000000	66.929738
628.000000	66.550497
629.000000	66.141119
630.000000	65.698141
631.000000	65.223921
632.000000	64.718615
633.000000	64.183480
634.000000	63.620257
635.000000	63.028586
636.000000	62.412705
637.000000	61.776194
638.000000	61.121128
639.000000	60.449265
640.000000	59.765831
641.000000	59.073536
642.000000	58.378797
643.000000	57.682526
644.000000	56.991455
645.000000	56.307202
646.000000	55.635460
647.000000	54.980430
648.000000	54.344770
649.000000	53.733455
650.000000	53.150044
651.000000	52.597483
652.000000	52.079084
653.000000	51.597131
654.000000	51.154140
655.000000	50.752379
656.000000	50.392313
657.000000	50.075511
658.000000	49.803136
659.000000	49.576915
660.000000	49.395466
661.000000	49.258807
662.000000	49.169011
663.000000	49.125566
664.000000	49.127302
665.000000	49.176143
666.000000	49.270007
667.000000	49.406255
668.000000	49.583516
669.000000	49.801099
670.000000	50.057741
671.000000	50.350176
672.000000	50.673035
673.000000	51.025636
674.000000	51.403644
675.000000	51.801418
676.000000	52.217347
677.000000	52.646774
678.000000	53.083438
679.000000	53.523373
680.000000	53.963688
681.000000	54.401843
682.000000	54.832871
683.000000	55.253689
684.000000	55.661869
685.000000	56.053922
686.000000	56.427794
687.000000	56.782240
688.000000	57.115627
689.000000	57.426512
690.000000	57.716307
691.000000	57.984405
692.000000	58.228213
693.000000	58.449919
694.000000	58.650216
695.000000	58.830750
696.000000	58.991856
697.000000	59.134148
698.000000	59.259615
699.000000	59.370804
700.000000	59.466823
701.000000	59.550774
702.000000	59.624206
703.000000	59.690544
704.000000	59.752324
705.000000	59.808196
706.000000	59.859237
707.000000	59.908500
708.000000	59.957107
709.000000	60.008696
710.000000	60.064480
711.000000	60.123094
712.000000	60.184562
713.000000	60.253698
714.000000	60.331454
715.000000	60.415782
716.000000	60.504655
717.000000	60.601100
718.000000	60.705883
719.000000	60.817370
720.000000	60.937044
721.000000	61.062016
722.000000	61.191790
723.000000	61.327620
724.000000	61.466806
725.000000	61.607455
726.000000	61.752329
727.000000	61.901874
728.000000	62.054403
729.000000	62.209154
730.000000	62.365076
731.000000	62.524945
732.000000	62.686811
733.000000	62.851191
734.000000	63.017389
735.000000	63.187358
736.000000	63.357712
737.000000	63.529001
738.000000	63.700116
739.000000	63.871046
740.000000	64.041803
741.000000	64.211804
742.000000	64.381417
743.000000	64.547161
744.000000	64.707741
745.000000	64.862555
746.000000	65.012858
747.000000	65.159936
748.000000	65.298235
749.000000	65.424904
750.000000	65.543526
751.000000	65.655095
752.000000	65.757568
753.000000	65.850503
754.000000	65.933459
755.000000	66.004788
756.000000	66.067213
757.000000	66.119403
758.000000	66.160942
759.000000	66.194014
760.000000	66.218023
761.000000	66.232331
762.000000	66.235815
763.000000	66.230088
764.000000	66.214656
765.000000	66.191212
766.000000	66.161749
767.000000	66.126921
768.000000	66.084881
769.000000	66.035075
770.000000	65.980013
771.000000	65.925244
772.000000	65.867303
773.000000	65.804594
774.000000	65.738178
775.000000	65.670520
776.000000	65.599648
777.000000	65.526870
778.000000	65.454416
779.000000	65.384939
780.000000	65.317617
781.000000	65.247161
782.000000	65.175121
783.000000	65.103957
784.000000	65.034295
785.000000	64.965389
786.000000	64.896774
787.000000	64.825483
788.000000	64.752099
789.000000	64.680450
790.000000	64.607773
791.000000	64.535496
792.000000	64.460907
793.000000	64.384747
794.000000	64.307718
795.000000	64.228232
796.000000	64.145824
797.000000	64.063549
798.000000	63.980408
799.000000	63.897678
800.000000	63.815701
801.000000	63.733266
802.000000	63.650707
803.000000	63.568101
804.000000	63.484210
805.000000	63.399232
806.000000	63.310461
807.000000	63.221277
808.000000	63.130552
809.000000	63.034820
810.000000	62.933444
811.000000	62.831545
812.000000	62.724348
813.000000	62.612437
814.000000	62.488631
815.000000	62.355147
816.000000	62.219472
817.000000	62.079465
818.000000	61.939191
819.000000	61.795821
820.000000	61.648090
821.000000	61.494488
822.000000	61.339084
823.000000	61.186185
824.000000	61.035527
825.000000	60.886017
826.000000	60.732600
827.000000	60.581735
828.000000	60.440425
829.000000	60.301002
830.000000	60.169978
831.000000	60.050968
832.000000	59.938538
833.000000	59.834996
834.000000	59.742654
835.000000	59.654594
836.000000	59.572732
837.000000	59.496961
838.000000	59.432284
839.000000	59.375368
840.000000	59.329872
841.000000	59.286600
842.000000	59.245613
843.000000	59.209506
844.000000	59.181107
845.000000	59.157947
846.000000	59.135021
847.000000	59.116094
848.000000	59.102130
849.000000	59.081343
850.000000	59.057461
851.000000	59.037702
852.000000	59.022355
853.000000	59.006746
854.000000	58.991605
855.000000	58.967905
856.000000	58.960872
857.000000	58.953263
858.000000	58.923092
859.000000	58.948085
860.000000	58.975739
861.000000	59.010421
862.000000	59.049730
863.000000	59.083539
864.000000	59.119442
865.000000	59.152991
866.000000	59.181290
867.000000	59.207475
868.000000	59.230298
869.000000	59.246709
870.000000	59.263763
871.000000	59.277876
872.000000	59.288810
873.000000	59.292285
874.000000	59.294397
875.000000	59.287806
876.000000	59.280597
877.000000	59.272242
878.000000	59.263038
879.000000	59.249967
880.000000	59.234236
881.000000	59.218854
882.000000	59.200927
883.000000	59.179215
884.000000	59.168348
885.000000	59.165076
886.000000	59.157896
887.000000	59.147000
888.000000	59.133000
889.000000	59.118291
890.000000	59.113381
891.000000	59.095894
892.000000	59.079409
893.000000	59.082589
894.000000	59.025774
895.000000	58.964291
896.000000	58.897914
897.000000	58.825937
898.000000	58.750897
899.000000	58.672071
900.000000	58.590500
901.000000	58.504849
902.000000	58.416563
903.000000	58.325029
904.000000	58.231791
905.000000	58.134640
906.000000	58.034646
907.000000	57.933097
908.000000	57.828366
909.000000	57.721806
910.000000	57.613054
911.000000	57.503203
912.000000	57.392403
913.000000	57.279166
914.000000	57.164940
915.000000	57.050754
916.000000	56.935500
917.000000	56.820737
918.000000	56.704129
919.000000	56.587146
920.000000	56.469757
921.000000	56.351749
922.000000	56.233771
923.000000	56.116769
924.000000	56.002194
925.000000	55.887069
926.000000	55.773220
927.000000	55.661449
928.000000	55.551243
929.000000	55.442989
930.000000	55.337069
931.000000	55.234631
932.000000	55.135531
933.000000	55.038969
934.000000	54.946089
935.000000	54.856580
936.000000	54.770671
937.000000	54.687989
938.000000	54.609200
939.000000	54.533200
940.000000	54.460103
941.000000	54.388649
942.000000	54.318383
943.000000	54.251140
944.000000	54.184914
945.000000	54.119789
946.000000	54.054369
947.000000	53.988926
948.000000	53.923154
949.000000	53.856480
950.000000	53.788280
951.000000	53.718786
952.000000	53.648006
953.000000	53.576280
954.000000	53.504011
955.000000	53.430226
956.000000	53.355060
957.000000	53.278440
958.000000	53.199923
959.000000	53.118329
960.000000	53.035711
961.000000	52.949783
962.000000	52.862491
963.000000	52.772986
964.000000	52.681703
965.000000	52.589266
966.000000	52.495637
967.000000	52.401231
968.000000	52.306231
969.000000	52.209900
970.000000	52.112271
971.000000	52.015029
972.000000	51.917200
973.000000	51.818286
974.000000	51.718917
975.000000	51.620257
976.000000	51.522049
977.000000	51.423657
978.000000	51.325286
979.000000	51.226646
980.000000	51.127643
981.000000	51.028043
982.000000	50.928297
983.000000	50.827949
984.000000	50.727663
985.000000	50.627411
986.000000	50.526743
987.000000	50.426069
988.000000	50.326483
989.000000	50.226877
990.000000	50.127757
991.000000	50.030274
992.000000	49.933886
993.000000	49.838940
994.000000	49.745786
995.000000	49.654306
996.000000	49.565700
997.000000	49.478394
998.000000	49.393089
999.000000	49.309731
1000.000000	49.227711
1001.000000	49.145946
1002.000000	49.065280
1003.000000	48.985717
1004.000000	48.907211
1005.000000	48.829377
1006.000000	48.750837
1007.000000	48.672886
1008.000000	48.595354
1009.000000	48.517757
1010.000000	48.439680
1011.000000	48.362183
1012.000000	48.285420
1013.000000	48.209749
1014.000000	48.135869
1015.000000	48.064686
1016.000000	47.997020
1017.000000	47.932577
1018.000000	47.872254
1019.000000	47.815331
1020.000000	47.762206
1021.000000	47.713700
1022.000000	47.668906
1023.000000	47.627917
1024.000000	47.591203
1025.000000	47.558300
1026.000000	47.529186
1027.000000	47.503957
1028.000000	47.482517
1029.000000	47.464609
1030.000000	47.450337
1031.000000	47.439066
1032.000000	47.431389
1033.000000	47.427269
1034.000000	47.426011
1035.000000	47.427691
1036.000000	47.432714
1037.000000	47.440589
1038.000000	47.451194
1039.000000	47.464803
1040.000000	47.481860
1041.000000	47.502386
1042.000000	47.525346
1043.000000	47.551103
1044.000000	47.580406
1045.000000	47.613297
1046.000000	47.648909
1047.000000	47.686911
1048.000000	47.727423
1049.000000	47.769806
1050.000000	47.813289
1051.000000	47.857780
1052.000000	47.903617
1053.000000	47.950989
1054.000000	47.999703
1055.000000	48.049809
1056.000000	48.100394
1057.000000	48.152334
1058.000000	48.205314
1059.000000	48.259037
1060.000000	48.313340
1061.000000	48.368157
1062.000000	48.423111
1063.000000	48.478031
1064.000000	48.533469
1065.000000	48.589583
1066.000000	48.645566
1067.000000	48.701717
1068.000000	48.757837
1069.000000	48.814037
1070.000000	48.870420
1071.000000	48.927280
1072.000000	48.984426
1073.000000	49.041586
1074.000000	49.098763
1075.000000	49.155811
1076.000000	49.212863
1077.000000	49.270614
1078.000000	49.328594
1079.000000	49.386743
1080.000000	49.444434
1081.000000	49.502186
1082.000000	49.560071
1083.000000	49.617806
1084.000000	49.675474
1085.000000	49.733469
1086.000000	49.791314
1087.000000	49.848517
1088.000000	49.904983
1089.000000	49.960480
1090.000000	50.015149
1091.000000	50.069563
1092.000000	50.123031
1093.000000	50.174760
1094.000000	50.225446
1095.000000	50.275757
1096.000000	50.324746
1097.000000	50.373154
1098.000000	50.421180
1099.000000	50.468300
1100.000000	50.514949
1101.000000	50.560897
1102.000000	50.605606
1103.000000	50.649354
1104.000000	50.692194
1105.000000	50.734011
1106.000000	50.774734
1107.000000	50.814689
1108.000000	50.853751
1109.000000	50.891800
1110.000000	50.928560
1111.000000	50.964326
1112.000000	50.998814
1113.000000	51.032086
1114.000000	51.063657
1115.000000	51.094189
1116.000000	51.123620
1117.000000	51.151320
1118.000000	51.176506
1119.000000	51.198580
1120.000000	51.217237
1121.000000	51.231526
1122.000000	51.241414
1123.000000	51.245897
1124.000000	51.245669
1125.000000	51.239380
1126.000000	51.226820
1127.000000	51.207143
1128.000000	51.179749
1129.000000	51.142146
1130.000000	51.092529
1131.000000	51.028791
1132.000000	50.949191
1133.000000	50.853669
1134.000000	50.742011
1135.000000	50.611074
1136.000000	50.461300
1137.000000	50.292209
1138.000000	50.104214
1139.000000	49.897763
1140.000000	49.673966
1141.000000	49.432309
1142.000000	49.174266
1143.000000	48.900129
1144.000000	48.611329
1145.000000	48.310114
1146.000000	48.000740
1147.000000	47.686820
1148.000000	47.370791
1149.000000	47.055157
1150.000000	46.740503
1151.000000	46.426026
1152.000000	46.112500
1153.000000	45.798386
1154.000000	45.481949
1155.000000	45.160834
1156.000000	44.834091
1157.000000	44.498229
1158.000000	44.152589
1159.000000	43.796129
1160.000000	43.427783
1161.000000	43.049371
1162.000000	42.659829
1163.000000	42.260677
1164.000000	41.853803
1165.000000	41.441577
1166.000000	41.026911
1167.000000	40.612331
1168.000000	40.197957
1169.000000	39.783986
1170.000000	39.372503
1171.000000	38.965334
1172.000000	38.564223
1173.000000	38.167709
1174.000000	37.777140
1175.000000	37.391834
1176.000000	37.011854
1177.000000	36.634920
1178.000000	36.258700
1179.000000	35.880537
1180.000000	35.496809
1181.000000	35.102134
1182.000000	34.693731
1183.000000	34.271911
1184.000000	33.836503
1185.000000	33.393034
1186.000000	32.946663
1187.000000	32.501783
1188.000000	32.064583
1189.000000	31.641929
1190.000000	31.240154
1191.000000	30.862934
1192.000000	30.515003
1193.000000	30.197146
1194.000000	29.907151
1195.000000	29.645457
1196.000000	29.407286
1197.000000	29.192137
1198.000000	28.998183
1199.000000	28.824237
1200.000000	28.667937
1201.000000	28.528937
1202.000000	28.405274
1203.000000	28.296531
1204.000000	28.201914
1205.000000	28.123571
1206.000000	28.059763
1207.000000	28.010380
1208.000000	27.976449
1209.000000	27.957077
1210.000000	27.952694
1211.000000	27.963763
1212.000000	27.990960
1213.000000	28.037511
1214.000000	28.104286
1215.000000	28.193074
1216.000000	28.304963
1217.000000	28.439677
1218.000000	28.595049
1219.000000	28.769163
1220.000000	28.955766
1221.000000	29.151157
1222.000000	29.351234
1223.000000	29.551626
1224.000000	29.747794
1225.000000	29.935714
1226.000000	30.114809
1227.000000	30.283894
1228.000000	30.442900
1229.000000	30.595297
1230.000000	30.742800
1231.000000	30.888249
1232.000000	31.034269
1233.000000	31.182549
1234.000000	31.334583
1235.000000	31.491606
1236.000000	31.653406
1237.000000	31.821220
1238.000000	31.995011
1239.000000	32.175731
1240.000000	32.361386
1241.000000	32.552923
1242.000000	32.749454
1243.000000	32.949929
1244.000000	33.153303
1245.000000	33.359057
1246.000000	33.566306
1247.000000	33.775086
1248.000000	33.984500
1249.000000	34.194351
1250.000000	34.404260
1251.000000	34.613374
1252.000000	34.821160
1253.000000	35.027066
1254.000000	35.231077
1255.000000	35.432960
1256.000000	35.632063
1257.000000	35.827551
1258.000000	36.019780
1259.000000	36.208140
1260.000000	36.392751
1261.000000	36.572420
1262.000000	36.747400
1263.000000	36.919146
1264.000000	37.086817
1265.000000	37.250117
1266.000000	37.409234
1267.000000	37.563823
1268.000000	37.714351
1269.000000	37.860234
1270.000000	38.001906
1271.000000	38.139689
1272.000000	38.272826
1273.000000	38.402146
1274.000000	38.527889
1275.000000	38.650334
1276.000000	38.769143
1277.000000	38.884311
1278.000000	38.996620
1279.000000	39.106686
1280.000000	39.214434
1281.000000	39.320506
1282.000000	39.425137
1283.000000	39.527900
1284.000000	39.629180
1285.000000	39.729697
1286.000000	39.829903
1287.000000	39.929020
1288.000000	40.027311
1289.000000	40.124483
1290.000000	40.219871
1291.000000	40.313286
1292.000000	40.405006
1293.000000	40.494489
1294.000000	40.582203
1295.000000	40.667934
1296.000000	40.751677
1297.000000	40.833094
1298.000000	40.911557
1299.000000	40.987591
1300.000000	41.061143
1301.000000	41.131674
1302.000000	41.199420
1303.000000	41.264317
1304.000000	41.326257
1305.000000	41.384726
1306.000000	41.439651
1307.000000	41.491129
1308.000000	41.538609
1309.000000	41.581440
1310.000000	41.619631
1311.000000	41.652574
1312.000000	41.680074
1313.000000	41.702317
1314.000000	41.718674
1315.000000	41.728520
1316.000000	41.731343
1317.000000	41.727574
1318.000000	41.717237
1319.000000	41.700226
1320.000000	41.676194
1321.000000	41.645169
1322.000000	41.607320
1323.000000	41.562446
1324.000000	41.509997
1325.000000	41.450843
1326.000000	41.384511
1327.000000	41.310663
1328.000000	41.229809
1329.000000	41.141723
1330.000000	41.046740
1331.000000	40.943983
1332.000000	40.833186
1333.000000	40.713831
1334.000000	40.585651
1335.000000	40.448529
1336.000000	40.302377
1337.000000	40.146723
1338.000000	39.981071
1339.000000	39.806183
1340.000000	39.621329
1341.000000	39.426077
1342.000000	39.220417
1343.000000	39.005011
1344.000000	38.779629
1345.000000	38.542977
1346.000000	38.295023
1347.000000	38.036494
1348.000000	37.764657
1349.000000	37.478889
1350.000000	37.179269
1351.000000	36.863854
1352.000000	36.530474
1353.000000	36.179546
1354.000000	35.812589
1355.000000	35.430597
1356.000000	35.038440
1357.000000	34.641111
1358.000000	34.242563
1359.000000	33.845634
1360.000000	33.451700
1361.000000	33.061237
1362.000000	32.673209
1363.000000	32.286306
1364.000000	31.899971
1365.000000	31.512911
1366.000000	31.125937
1367.000000	30.738791
1368.000000	30.350266
1369.000000	29.959037
1370.000000	29.564669
1371.000000	29.166320
1372.000000	28.762420
1373.000000	28.353449
1374.000000	27.940140
1375.000000	27.524326
1376.000000	27.109629
1377.000000	26.698077
1378.000000	26.290906
1379.000000	25.888940
1380.000000	25.494029
1381.000000	25.107620
1382.000000	24.726809
1383.000000	24.352314
1384.000000	23.984549
1385.000000	23.624986
1386.000000	23.277234
1387.000000	22.944794
1388.000000	22.630114
1389.000000	22.331366
1390.000000	22.048786
1391.000000	21.779203
1392.000000	21.518306
1393.000000	21.262523
1394.000000	21.009960
1395.000000	20.759297
1396.000000	20.510111
1397.000000	20.261794
1398.000000	20.014734
1399.000000	19.770769
1400.000000	19.529637
1401.000000	19.290037
1402.000000	19.051086
1403.000000	18.814797
1404.000000	18.582403
1405.000000	18.355571
1406.000000	18.134603
1407.000000	17.922197
1408.000000	17.718380
1409.000000	17.522631
1410.000000	17.334603
1411.000000	17.152534
1412.000000	16.974917
1413.000000	16.801040
1414.000000	16.631506
1415.000000	16.464211
1416.000000	16.298386
1417.000000	16.136231
1418.000000	15.980343
1419.000000	15.831277
1420.000000	15.687011
1421.000000	15.546174
1422.000000	15.407243
1423.000000	15.269034
1424.000000	15.130911
1425.000000	14.991351
1426.000000	14.848394
1427.000000	14.703366
1428.000000	14.556023
1429.000000	14.406074
1430.000000	14.252969
1431.000000	14.098371
1432.000000	13.944191
1433.000000	13.791091
1434.000000	13.635611
1435.000000	13.480923
1436.000000	13.329943
1437.000000	13.184360
1438.000000	13.043637
1439.000000	12.907174
1440.000000	12.774643
1441.000000	12.647231
1442.000000	12.523923
1443.000000	12.403734
1444.000000	12.288457
1445.000000	12.176260
1446.000000	12.065940
1447.000000	11.957186
1448.000000	11.848957
1449.000000	11.741914
1450.000000	11.636131
1451.000000	11.532940
1452.000000	11.431180
1453.000000	11.331034
1454.000000	11.231491
1455.000000	11.135666
1456.000000	11.041443
1457.000000	10.950034
1458.000000	10.860391
1459.000000	10.772991
1460.000000	10.688557
1461.000000	10.607400
1462.000000	10.527657
1463.000000	10.450040
1464.000000	10.374957
1465.000000	10.302417
1466.000000	10.231789
1467.000000	10.162494
1468.000000	10.095031
1469.000000	10.031583
1470.000000	9.971926
1471.000000	9.914237
1472.000000	9.857657
1473.000000	9.803034
1474.000000	9.750680
1475.000000	9.699863
1476.000000	9.650860
1477.000000	9.604263
1478.000000	9.561080
1479.000000	9.518429
1480.000000	9.477977
1481.000000	9.439826
1482.000000	9.404160
1483.000000	9.371126
1484.000000	9.339194
1485.000000	9.309534
1486.000000	9.281586
1487.000000	9.256183
1488.000000	9.232837
1489.000000	9.212043
1490.000000	9.191763
1491.000000	9.174083
1492.000000	9.157611
1493.000000	9.141674
1494.000000	9.127634
1495.000000	9.115223
1496.000000	9.104729
1497.000000	9.095869
1498.000000	9.088197
1499.000000	9.081163
1500.000000	9.075263
1501.000000	9.070191
1502.000000	9.066440
1503.000000	9.064017
1504.000000	9.063069
1505.000000	9.062057
1506.000000	9.061723
1507.000000	9.062443
1508.000000	9.063757
1509.000000	9.065463
1510.000000	9.068051
1511.000000	9.071197
1512.000000	9.075080
1513.000000	9.079086
1514.000000	9.083637
1515.000000	9.089171
1516.000000	9.094966
1517.000000	9.100703
1518.000000	9.106497
1519.000000	9.112774
1520.000000	9.119920
1521.000000	9.126680
1522.000000	9.133343
1523.000000	9.139897
1524.000000	9.146360
1525.000000	9.152526
1526.000000	9.158389
1527.000000	9.164134
1528.000000	9.170406
1529.000000	9.176857
1530.000000	9.182451
1531.000000	9.186831
1532.000000	9.191360
1533.000000	9.195417
1534.000000	9.199083
1535.000000	9.201840
1536.000000	9.203746
1537.000000	9.205440
1538.000000	9.206469
1539.000000	9.206823
1540.000000	9.206371
1541.000000	9.204963
1542.000000	9.202669
1543.000000	9.199354
1544.000000	9.196237
1545.000000	9.192546
1546.000000	9.188300
1547.000000	9.183506
1548.000000	9.178211
1549.000000	9.172706
1550.000000	9.166371
1551.000000	9.159926
1552.000000	9.153631
1553.000000	9.146566
1554.000000	9.138423
1555.000000	9.129591
1556.000000	9.120186
1557.000000	9.110611
1558.000000	9.100769
1559.000000	9.090597
1560.000000	9.080400
1561.000000	9.070274
1562.000000	9.059366
1563.000000	9.047823
1564.000000	9.035549
1565.000000	9.022943
1566.000000	9.010643
1567.000000	8.998054
1568.000000	8.985429
1569.000000	8.972749
1570.000000	8.959969
1571.000000	8.947503
1572.000000	8.935163
1573.000000	8.922851
1574.000000	8.910894
1575.000000	8.899586
1576.000000	8.888657
1577.000000	8.878411
1578.000000	8.869040
1579.000000	8.860180
1580.000000	8.852357
1581.000000	8.844966
1582.000000	8.837880
1583.000000	8.831551
1584.000000	8.826014
1585.000000	8.821089
1586.000000	8.816429
1587.000000	8.812414
1588.000000	8.810051
1589.000000	8.808946
1590.000000	8.808754
1591.000000	8.810460
1592.000000	8.813263
1593.000000	8.816531
1594.000000	8.820974
1595.000000	8.826834
1596.000000	8.833854
1597.000000	8.842614
1598.000000	8.852946
1599.000000	8.864737
1600.000000	8.878526
1601.000000	8.893951
1602.000000	8.910809
1603.000000	8.928537
1604.000000	8.947706
1605.000000	8.968720
1606.000000	8.991157
1607.000000	9.014309
1608.000000	9.038480
1609.000000	9.063297
1610.000000	9.088929
1611.000000	9.115694
1612.000000	9.143949
1613.000000	9.173057
1614.000000	9.202786
1615.000000	9.233006
1616.000000	9.264220
1617.000000	9.296354
1618.000000	9.329126
1619.000000	9.362649
1620.000000	9.396846
1621.000000	9.431949
1622.000000	9.467611
1623.000000	9.503909
1624.000000	9.541089
1625.000000	9.579026
1626.000000	9.616637
1627.000000	9.655163
1628.000000	9.693880
1629.000000	9.733151
1630.000000	9.773120
1631.000000	9.813014
1632.000000	9.852963
1633.000000	9.893146
1634.000000	9.933920
1635.000000	9.973934
1636.000000	10.014234
1637.000000	10.054149
1638.000000	10.094854
1639.000000	10.135409
1640.000000	10.175997
1641.000000	10.216240
1642.000000	10.256680
1643.000000	10.297146
1644.000000	10.337663
1645.000000	10.378371
1646.000000	10.418766
1647.000000	10.458391
1648.000000	10.497757
1649.000000	10.536766
1650.000000	10.576006
1651.000000	10.615237
1652.000000	10.653586
1653.000000	10.690606
1654.000000	10.726334
1655.000000	10.761594
1656.000000	10.795526
1657.000000	10.827966
1658.000000	10.857911
1659.000000	10.885971
1660.000000	10.912786
1661.000000	10.937477
1662.000000	10.960091
1663.000000	10.981149
1664.000000	10.999503
1665.000000	11.014349
1666.000000	11.027383
1667.000000	11.037543
1668.000000	11.043903
1669.000000	11.045580
1670.000000	11.042783
1671.000000	11.035871
1672.000000	11.023103
1673.000000	11.004569
1674.000000	10.979343
1675.000000	10.946640
1676.000000	10.905886
1677.000000	10.855517
1678.000000	10.795871
1679.000000	10.726149
1680.000000	10.646046
1681.000000	10.557503
1682.000000	10.461717
1683.000000	10.361026
1684.000000	10.257603
1685.000000	10.152226
1686.000000	10.045874
1687.000000	9.939349
1688.000000	9.834197
1689.000000	9.727520
1690.000000	9.618783
1691.000000	9.509054
1692.000000	9.396457
1693.000000	9.283451
1694.000000	9.170131
1695.000000	9.056289
1696.000000	8.943171
1697.000000	8.831834
1698.000000	8.723874
1699.000000	8.618409
1700.000000	8.517351
1701.000000	8.420143
1702.000000	8.326237
1703.000000	8.236360
1704.000000	8.151029
1705.000000	8.070643
1706.000000	7.993620
1707.000000	7.922234
1708.000000	7.855186
1709.000000	7.794954
1710.000000	7.741349
1711.000000	7.694620
1712.000000	7.655974
1713.000000	7.625420
1714.000000	7.603577
1715.000000	7.590209
1716.000000	7.584183
1717.000000	7.583989
1718.000000	7.587417
1719.000000	7.593120
1720.000000	7.599103
1721.000000	7.604983
1722.000000	7.610940
1723.000000	7.615586
1724.000000	7.621226
1725.000000	7.627826
1726.000000	7.634491
1727.000000	7.642374
1728.000000	7.650123
1729.000000	7.656957
1730.000000	7.661757
1731.000000	7.665991
1732.000000	7.667357
1733.000000	7.665689
1734.000000	7.662620
1735.000000	7.656920
1736.000000	7.649457
1737.000000	7.642383
1738.000000	7.636037
1739.000000	7.630649
1740.000000	7.627311
1741.000000	7.626769
1742.000000	7.628906
1743.000000	7.633346
1744.000000	7.639543
1745.000000	7.647757
1746.000000	7.658291
1747.000000	7.670714
1748.000000	7.684409
1749.000000	7.699320
1750.000000	7.715414
1751.000000	7.732803
1752.000000	7.751437
1753.000000	7.770414
1754.000000	7.789000
1755.000000	7.807129
1756.000000	7.824891
1757.000000	7.841240
1758.000000	7.856274
1759.000000	7.870474
1760.000000	7.884051
1761.000000	7.897583
1762.000000	7.912311
1763.000000	7.928151
1764.000000	7.945691
1765.000000	7.966614
1766.000000	7.989520
1767.000000	8.015289
1768.000000	8.042863
1769.000000	8.072677
1770.000000	8.104597
1771.000000	8.137557
1772.000000	8.170834
1773.000000	8.204154
1774.000000	8.237434
1775.000000	8.270074
1776.000000	8.301249
1777.000000	8.331003
1778.000000	8.360411
1779.000000	8.388957
1780.000000	8.416743
1781.000000	8.444120
1782.000000	8.471694
1783.000000	8.499600
1784.000000	8.528157
1785.000000	8.558594
1786.000000	8.589603
1787.000000	8.621677
1788.000000	8.655174
1789.000000	8.690734
1790.000000	8.728117
1791.000000	8.767326
1792.000000	8.809260
1793.000000	8.853560
1794.000000	8.900697
1795.000000	8.950514
1796.000000	9.002374
1797.000000	9.055720
1798.000000	9.110371
1799.000000	9.166377
1800.000000	9.222871
1801.000000	9.279414
1802.000000	9.335549
1803.000000	9.391480
1804.000000	9.446749
1805.000000	9.500974
1806.000000	9.554503
1807.000000	9.607437
1808.000000	9.658889
1809.000000	9.709069
1810.000000	9.758049
1811.000000	9.805743
1812.000000	9.851980
1813.000000	9.896597
1814.000000	9.939654
1815.000000	9.981654
1816.000000	10.022331
1817.000000	10.061131
1818.000000	10.098989
1819.000000	10.136351
1820.000000	10.172297
1821.000000	10.207871
1822.000000	10.242646
1823.000000	10.276706
1824.000000	10.309517
1825.000000	10.342434
1826.000000	10.375486
1827.000000	10.408963
1828.000000	10.443309
1829.000000	10.478334
1830.000000	10.514163
1831.000000	10.550737
1832.000000	10.588014
1833.000000	10.626071
1834.000000	10.664671
1835.000000	10.703714
1836.000000	10.743180
1837.000000	10.783323
1838.000000	10.823500
1839.000000	10.863583
1840.000000	10.903757
1841.000000	10.944186
1842.000000	10.984174
1843.000000	11.023517
1844.000000	11.062560
1845.000000	11.101509
1846.000000	11.141277
1847.000000	11.182411
1848.000000	11.225177
1849.000000	11.269734
1850.000000	11.315023
1851.000000	11.361111
1852.000000	11.408497
1853.000000	11.457157
1854.000000	11.507143
1855.000000	11.557774
1856.000000	11.607711
1857.000000	11.657349
1858.000000	11.706634
1859.000000	11.755820
1860.000000	11.804091
1861.000000	11.850257
1862.000000	11.893771
1863.000000	11.934666
1864.000000	11.972389
1865.000000	12.006423
1866.000000	12.036660
1867.000000	12.063443
1868.000000	12.085760
1869.000000	12.102874
1870.000000	12.114440
1871.000000	12.120149
1872.000000	12.119337
1873.000000	12.111980
1874.000000	12.097254
1875.000000	12.075249
1876.000000	12.045260
1877.000000	12.006826
1878.000000	11.960563
1879.000000	11.905326
1880.000000	11.841857
1881.000000	11.768846
1882.000000	11.685994
1883.000000	11.593597
1884.000000	11.492054
1885.000000	11.383314
1886.000000	11.268063
1887.000000	11.147697
1888.000000	11.021677
1889.000000	10.889646
1890.000000	10.753331
1891.000000	10.613143
1892.000000	10.469366
1893.000000	10.322580
1894.000000	10.172217
1895.000000	10.018871
1896.000000	9.863303
1897.000000	9.706120
1898.000000	9.546594
1899.000000	9.385731
1900.000000	9.223960
1901.000000	9.062143
1902.000000	8.899400
1903.000000	8.736729
1904.000000	8.574909
1905.000000	8.415300
1906.000000	8.258071
1907.000000	8.103671
1908.000000	7.952546
1909.000000	7.805480
1910.000000	7.662986
1911.000000	7.524826
1912.000000	7.392946
1913.000000	7.267374
1914.000000	7.148591
1915.000000	7.034989
1916.000000	6.928269
1917.000000	6.828814
1918.000000	6.735434
1919.000000	6.647494
1920.000000	6.565103
1921.000000	6.486843
1922.000000	6.411897
1923.000000	6.340149
1924.000000	6.272311
1925.000000	6.206077
1926.000000	6.142691
1927.000000	6.081880
1928.000000	6.023314
1929.000000	5.967411
1930.000000	5.913651
1931.000000	5.863246
1932.000000	5.814154
1933.000000	5.768029
1934.000000	5.724297
1935.000000	5.682609
1936.000000	5.643377
1937.000000	5.606649
1938.000000	5.572291
1939.000000	5.541074
1940.000000	5.511311
1941.000000	5.484060
1942.000000	5.459043
1943.000000	5.436157
1944.000000	5.416151
1945.000000	5.397623
1946.000000	5.381197
1947.000000	5.366969
1948.000000	5.353686
1949.000000	5.342874
1950.000000	5.334311
1951.000000	5.327031
1952.000000	5.320543
1953.000000	5.316766
1954.000000	5.315103
1955.000000	5.313697
1956.000000	5.314506
1957.000000	5.316383
1958.000000	5.319171
1959.000000	5.322403
1960.000000	5.327726
1961.000000	5.334069
1962.000000	5.340797
1963.000000	5.348654
1964.000000	5.358066
1965.000000	5.368534
1966.000000	5.379157
1967.000000	5.390091
1968.000000	5.402700
1969.000000	5.416214
1970.000000	5.430294
1971.000000	5.444423
1972.000000	5.459023
1973.000000	5.474697
1974.000000	5.490171
1975.000000	5.506254
1976.000000	5.522391
1977.000000	5.538963
1978.000000	5.556234
1979.000000	5.573266
1980.000000	5.590763
1981.000000	5.609386
1982.000000	5.626883
1983.000000	5.645649
1984.000000	5.663554
1985.000000	5.682126
1986.000000	5.700554
1987.000000	5.718949
1988.000000	5.736689
1989.000000	5.753743
1990.000000	5.771786
1991.000000	5.789606
1992.000000	5.807129
1993.000000	5.824886
1994.000000	5.842837
1995.000000	5.860080
1996.000000	5.877291
1997.000000	5.894763
1998.000000	5.911583
1999.000000	5.927131
2000.000000	5.942409
2001.000000	5.957369
2002.000000	5.973320
2003.000000	5.987443
2004.000000	6.000451
2005.000000	6.012880
2006.000000	6.025457
2007.000000	6.037809
2008.000000	6.048491
2009.000000	6.058457
2010.000000	6.067777
2011.000000	6.076409
2012.000000	6.083783
2013.000000	6.089626
2014.000000	6.095066
2015.000000	6.099337
2016.000000	6.101606
2017.000000	6.103631
2018.000000	6.103703
2019.000000	6.102960
2020.000000	6.100654
2021.000000	6.097603
2022.000000	6.094274
2023.000000	6.089434
2024.000000	6.083674
2025.000000	6.076546
2026.000000	6.068037
2027.000000	6.058809
2028.000000	6.048326
2029.000000	6.036357
2030.000000	6.023354
2031.000000	6.008789
2032.000000	5.993323
2033.000000	5.976957
2034.000000	5.959503
2035.000000	5.940943
2036.000000	5.921251
2037.000000	5.900974
2038.000000	5.880140
2039.000000	5.858460
2040.000000	5.836366
2041.000000	5.812766
2042.000000	5.787969
2043.000000	5.763034
2044.000000	5.737571
2045.000000	5.711326
2046.000000	5.684471
2047.000000	5.657443
2048.000000	5.630491
2049.000000	5.602834
2050.000000	5.575289
2051.000000	5.548074
2052.000000	5.520883
2053.000000	5.494369
2054.000000	5.468034
2055.000000	5.441657
2056.000000	5.415311
2057.000000	5.389329
2058.000000	5.364471
2059.000000	5.340354
2060.000000	5.316486
2061.000000	5.293369
2062.000000	5.270800
2063.000000	5.249320
2064.000000	5.228574
2065.000000	5.208934
2066.000000	5.190237
2067.000000	5.172586
2068.000000	5.155614
2069.000000	5.139654
2070.000000	5.124266
2071.000000	5.110043
2072.000000	5.096569
2073.000000	5.084246
2074.000000	5.073211
2075.000000	5.062557
2076.000000	5.052811
2077.000000	5.044717
2078.000000	5.037874
2079.000000	5.031829
2080.000000	5.026809
2081.000000	5.022860
2082.000000	5.019677
2083.000000	5.017077
2084.000000	5.015331
2085.000000	5.014074
2086.000000	5.013306
2087.000000	5.013283
2088.000000	5.013963
2089.000000	5.015163
2090.000000	5.017383
2091.000000	5.020443
2092.000000	5.023386
2093.000000	5.026537
2094.000000	5.030291
2095.000000	5.034583
2096.000000	5.038857
2097.000000	5.042811
2098.000000	5.046629
2099.000000	5.051071
2100.000000	5.055534
2101.000000	5.060577
2102.000000	5.065466
2103.000000	5.070697
2104.000000	5.076234
2105.000000	5.082486
2106.000000	5.088623
2107.000000	5.094517
2108.000000	5.100709
2109.000000	5.107086
2110.000000	5.113791
2111.000000	5.120740
2112.000000	5.127794
2113.000000	5.134803
2114.000000	5.142223
2115.000000	5.149614
2116.000000	5.156471
2117.000000	5.163691
2118.000000	5.171617
2119.000000	5.179531
2120.000000	5.187357
2121.000000	5.195494
2122.000000	5.203551
2123.000000	5.211549
2124.000000	5.219203
2125.000000	5.226746
2126.000000	5.234043
2127.000000	5.241494
2128.000000	5.248866
2129.000000	5.255749
2130.000000	5.262323
2131.000000	5.268849
2132.000000	5.275969
2133.000000	5.282951
2134.000000	5.289626
2135.000000	5.296006
2136.000000	5.301623
2137.000000	5.307046
2138.000000	5.312306
2139.000000	5.316834
2140.000000	5.321071
2141.000000	5.324829
2142.000000	5.328343
2143.000000	5.331080
2144.000000	5.333023
2145.000000	5.334446
2146.000000	5.335489
2147.000000	5.335409
2148.000000	5.334700
2149.000000	5.333469
2150.000000	5.331954
2151.000000	5.330169
2152.000000	5.327446
2153.000000	5.323800
2154.000000	5.319377
2155.000000	5.314906
2156.000000	5.309869
2157.000000	5.304100
2158.000000	5.297406
2159.000000	5.290563
2160.000000	5.282871
2161.000000	5.274874
2162.000000	5.266457
2163.000000	5.257594
2164.000000	5.248043
2165.000000	5.238277
2166.000000	5.227894
2167.000000	5.217091
2168.000000	5.206026
2169.000000	5.193771
2170.000000	5.181323
2171.000000	5.169117
2172.000000	5.156429
2173.000000	5.142840
2174.000000	5.129243
2175.000000	5.115286
2176.000000	5.101631
2177.000000	5.087600
2178.000000	5.073129
2179.000000	5.058237
2180.000000	5.042891
2181.000000	5.027363
2182.000000	5.012220
2183.000000	4.996900
2184.000000	4.980929
2185.000000	4.964220
2186.000000	4.946137
2187.000000	4.927974
2188.000000	4.909423
2189.000000	4.889546
2190.000000	4.868694
2191.000000	4.847066
2192.000000	4.824617
2193.000000	4.801363
2194.000000	4.776551
2195.000000	4.750157
2196.000000	4.722129
2197.000000	4.692703
2198.000000	4.661946
2199.000000	4.629877
2200.000000	4.596291
2201.000000	4.561423
2202.000000	4.525274
2203.000000	4.488097
2204.000000	4.450411
2205.000000	4.412100
2206.000000	4.372603
2207.000000	4.332709
2208.000000	4.293226
2209.000000	4.253286
2210.000000	4.213531
2211.000000	4.173303
2212.000000	4.133214
2213.000000	4.094300
2214.000000	4.056017
2215.000000	4.019449
2216.000000	3.983906
2217.000000	3.947771
2218.000000	3.912523
2219.000000	3.879434
2220.000000	3.847260
2221.000000	3.817591
2222.000000	3.788694
2223.000000	3.761806
2224.000000	3.737114
2225.000000	3.713660
2226.000000	3.691234
2227.000000	3.670611
2228.000000	3.651234
2229.000000	3.634640
2230.000000	3.620337
2231.000000	3.607797
2232.000000	3.596646
2233.000000	3.587357
2234.000000	3.580363
2235.000000	3.574506
2236.000000	3.569814
2237.000000	3.566506
2238.000000	3.564574
2239.000000	3.564106
2240.000000	3.563126
2241.000000	3.564226
2242.000000	3.565906
2243.000000	3.567580
2244.000000	3.569486
2245.000000	3.571311
2246.000000	3.572943
2247.000000	3.574480
2248.000000	3.575037
2249.000000	3.576197
2250.000000	3.575937
2251.000000	3.574917
2252.000000	3.573969
2253.000000	3.573229
2254.000000	3.569874
2255.000000	3.567043
2256.000000	3.562663
2257.000000	3.557943
2258.000000	3.551846
2259.000000	3.545249
2260.000000	3.538680
2261.000000	3.532089
2262.000000	3.524977
2263.000000	3.518786
2264.000000	3.511389
2265.000000	3.504546
2266.000000	3.497663
2267.000000	3.491517
2268.000000	3.484806
2269.000000	3.478686
2270.000000	3.473411
2271.000000	3.469026
2272.000000	3.465723
2273.000000	3.462931
2274.000000	3.459846
2275.000000	3.459291
2276.000000	3.458454
2277.000000	3.458554
2278.000000	3.459440
2279.000000	3.461474
2280.000000	3.464306
2281.000000	3.468426
2282.000000	3.473251
2283.000000	3.478889
2284.000000	3.484423
2285.000000	3.491349
2286.000000	3.498563
2287.000000	3.507057
2288.000000	3.515434
2289.000000	3.525297
2290.000000	3.535363
2291.000000	3.546360
2292.000000	3.558351
2293.000000	3.570371
2294.000000	3.583263
2295.000000	3.596269
2296.000000	3.609669
2297.000000	3.622617
2298.000000	3.634877
2299.000000	3.647929
2300.000000	3.659863
2301.000000	3.672769
2302.000000	3.685374
2303.000000	3.698526
2304.000000	3.711014
2305.000000	3.723189
2306.000000	3.735306
2307.000000	3.746683
2308.000000	3.758331
2309.000000	3.770323
2310.000000	3.781254
2311.000000	3.792346
2312.000000	3.803466
2313.000000	3.814729
2314.000000	3.825789
2315.000000	3.836477
2316.000000	3.847191
2317.000000	3.857931
2318.000000	3.869109
2319.000000	3.880171
2320.000000	3.890720
2321.000000	3.901029
2322.000000	3.911694
2323.000000	3.922320
2324.000000	3.932500
2325.000000	3.942329
2326.000000	3.953117
2327.000000	3.963740
2328.000000	3.974446
2329.000000	3.984754
2330.000000	3.995534
2331.000000	4.005900
2332.000000	4.016926
2333.000000	4.027731
2334.000000	4.038023
2335.000000	4.049117
2336.000000	4.059849
2337.000000	4.070469
2338.000000	4.080651
2339.000000	4.090814
2340.000000	4.101371
2341.000000	4.111849
2342.000000	4.121340
2343.000000	4.130186
2344.000000	4.139426
2345.000000	4.148357
2346.000000	4.156331
2347.000000	4.163617
2348.000000	4.170334
2349.000000	4.177257
2350.000000	4.184266
2351.000000	4.190306
2352.000000	4.195391
2353.000000	4.199823
2354.000000	4.204243
2355.000000	4.208329
2356.000000	4.212314
2357.000000	4.215554
2358.000000	4.218691
2359.000000	4.222160
2360.000000	4.225651
2361.000000	4.228426
2362.000000	4.230654
2363.000000	4.232943
2364.000000	4.235286
2365.000000	4.237129
2366.000000	4.238731
2367.000000	4.240089
2368.000000	4.241620
2369.000000	4.243214
2370.000000	4.244740
2371.000000	4.246003
2372.000000	4.247174
2373.000000	4.248489
2374.000000	4.249569
2375.000000	4.250183
2376.000000	4.250960
2377.000000	4.252689
2378.000000	4.254129
2379.000000	4.255243
2380.000000	4.256123
2381.000000	4.256857
2382.000000	4.258071
2383.000000	4.259391
2384.000000	4.260286
2385.000000	4.261060
2386.000000	4.261740
2387.000000	4.262220
2388.000000	4.262769
2389.000000	4.263606
2390.000000	4.264037
2391.000000	4.264257
2392.000000	4.264234
2393.000000	4.263966
2394.000000	4.263666
2395.000000	4.262626
2396.000000	4.260860
2397.000000	4.258680
2398.000000	4.256091
2399.000000	4.253154
2400.000000	4.250186
2401.000000	4.246983
2402.000000	4.243771
2403.000000	4.240189
2404.000000	4.236034
2405.000000	4.231517
2406.000000	4.226440
2407.000000	4.220531
2408.000000	4.214989
2409.000000	4.209863
2410.000000	4.204509
2411.000000	4.198709
2412.000000	4.192257
2413.000000	4.185423
2414.000000	4.178134
2415.000000	4.171257
2416.000000	4.164643
2417.000000	4.157671
2418.000000	4.150089
2419.000000	4.142726
2420.000000	4.134877
2421.000000	4.126794
2422.000000	4.118817
2423.000000	4.110614
2424.000000	4.101914
2425.000000	4.093357
2426.000000	4.084766
2427.000000	4.076246
2428.000000	4.067414
2429.000000	4.057814
2430.000000	4.048823
2431.000000	4.040289
2432.000000	4.031409
2433.000000	4.022577
2434.000000	4.013483
2435.000000	4.003751
2436.000000	3.994323
2437.000000	3.985040
2438.000000	3.975437
2439.000000	3.965934
2440.000000	3.956511
2441.000000	3.947283
2442.000000	3.938606
2443.000000	3.929654
2444.000000	3.919989
2445.000000	3.910280
2446.000000	3.900480
2447.000000	3.891166
2448.000000	3.882051
2449.000000	3.873180
2450.000000	3.863926
2451.000000	3.854243
2452.000000	3.845094
2453.000000	3.836249
2454.000000	3.827077
2455.000000	3.817411
2456.000000	3.808554
2457.000000	3.799414
2458.000000	3.790809
2459.000000	3.782357
2460.000000	3.773826
2461.000000	3.765900
2462.000000	3.757983
2463.000000	3.750049
2464.000000	3.741757
2465.000000	3.733403
2466.000000	3.725131
2467.000000	3.717017
2468.000000	3.709420
2469.000000	3.701471
2470.000000	3.695409
2471.000000	3.689546
2472.000000	3.683314
2473.000000	3.677806
2474.000000	3.672211
2475.000000	3.667740
2476.000000	3.661680
2477.000000	3.656343
2478.000000	3.652840
2479.000000	3.649114
2480.000000	3.646171
2481.000000	3.641354
2482.000000	3.637794
2483.000000	3.635429
2484.000000	3.633623
2485.000000	3.632369
2486.000000	3.630657
2487.000000	3.629371
2488.000000	3.630503
2489.000000	3.630369
2490.000000	3.628306
2491.000000	3.627071
2492.000000	3.626846
2493.000000	3.628997
2494.000000	3.629291
2495.000000	3.630280
2496.000000	3.629200
2497.000000	3.629294
2498.000000	3.630851
2499.000000	3.633443
2500.000000	3.639363
