PE UV       SUBTECH     SPECTRUM    ASCII       PEDS        4.00        
   -1
CICIMAUCR0044-1.ASC
24/04/03
11:33:37.00
24/04/03
11:33:37.00
Vinicio Soto Monge
C optima #8 17
250,000000
1
Lambda 1050
1050L1511233
PerkinElmer UV WinLab 6.3.2.0749 / 2.02.05 Lambda 900 UV/VIS/NIR, Aug  7 2015 09:38:08

0
0
3350/servo 860,8/2
0
0
UV/VIS
1
1
1
DoubleDePol,CommonBeamDepol,RBeamAtt,SBeamAtt,60mm sphere, WB InGaAs Detector
0
0
0
0
Program
Program
3350/servo 860,8/2
3350/0,2 860,8/0,2
3350/0,2 860,8/0,2
0
15.00
 
 
 
0
 
860,8
319,2
860,8
Front
100
on
S:100 R:100
0
0
0
0
 
0
 
 
 
0
 
 
0
0
0
0
0
 
 
 
 
0
0


0
0
#HDR
-1
-1
#GR
nm
%R
1.0
0.0
2000,000000
-1,000000
1751
8
60,646000
5,166000
#DATA
250.000000	nan
251.000000	nan
252.000000	nan
253.000000	nan
254.000000	nan
255.000000	nan
256.000000	nan
257.000000	nan
258.000000	nan
259.000000	nan
260.000000	nan
261.000000	nan
262.000000	nan
263.000000	nan
264.000000	nan
265.000000	nan
266.000000	nan
267.000000	nan
268.000000	nan
269.000000	nan
270.000000	nan
271.000000	nan
272.000000	nan
273.000000	nan
274.000000	nan
275.000000	nan
276.000000	nan
277.000000	nan
278.000000	nan
279.000000	nan
280.000000	nan
281.000000	nan
282.000000	nan
283.000000	nan
284.000000	5.076012
285.000000	5.067780
286.000000	5.058999
287.000000	5.049993
288.000000	5.041772
289.000000	5.035185
290.000000	5.027697
291.000000	5.020534
292.000000	5.012680
293.000000	5.006657
294.000000	4.999561
295.000000	4.993069
296.000000	4.987927
297.000000	4.981342
298.000000	4.976143
299.000000	4.972026
300.000000	4.969773
301.000000	4.968243
302.000000	4.965650
303.000000	4.963395
304.000000	4.960846
305.000000	4.959821
306.000000	4.958345
307.000000	4.956552
308.000000	4.957400
309.000000	4.957919
310.000000	4.959359
311.000000	4.960302
312.000000	4.961865
313.000000	4.964474
314.000000	4.964922
315.000000	4.968501
316.000000	4.970814
317.000000	4.977024
318.000000	4.981837
319.000000	4.986220
320.000000	4.992452
321.000000	4.999132
322.000000	5.009723
323.000000	5.018109
324.000000	5.025053
325.000000	5.032084
326.000000	5.039503
327.000000	5.047515
328.000000	5.055390
329.000000	5.063060
330.000000	5.071685
331.000000	5.080923
332.000000	5.093525
333.000000	5.105529
334.000000	5.117459
335.000000	5.128558
336.000000	5.142894
337.000000	5.153675
338.000000	5.164711
339.000000	5.178267
340.000000	5.191920
341.000000	5.210020
342.000000	5.228003
343.000000	5.247537
344.000000	5.265387
345.000000	5.286329
346.000000	5.309851
347.000000	5.333405
348.000000	5.360829
349.000000	5.391381
350.000000	5.423077
351.000000	5.459504
352.000000	5.494858
353.000000	5.535322
354.000000	5.581658
355.000000	5.627820
356.000000	5.681393
357.000000	5.739443
358.000000	5.801732
359.000000	5.871728
360.000000	5.948159
361.000000	6.034521
362.000000	6.128348
363.000000	6.230584
364.000000	6.342865
365.000000	6.465996
366.000000	6.595493
367.000000	6.733037
368.000000	6.884272
369.000000	7.047427
370.000000	7.221455
371.000000	7.403514
372.000000	7.603007
373.000000	7.818616
374.000000	8.045332
375.000000	8.279801
376.000000	8.527991
377.000000	8.797459
378.000000	9.078571
379.000000	9.376221
380.000000	9.685686
381.000000	10.008170
382.000000	10.345106
383.000000	10.691597
384.000000	11.050046
385.000000	11.420937
386.000000	11.801053
387.000000	12.191063
388.000000	12.588168
389.000000	12.994290
390.000000	13.409555
391.000000	13.829686
392.000000	14.252707
393.000000	14.682824
394.000000	15.115924
395.000000	15.552726
396.000000	15.988914
397.000000	16.424966
398.000000	16.858838
399.000000	17.288965
400.000000	17.713263
401.000000	18.136455
402.000000	18.555666
403.000000	18.965718
404.000000	19.367788
405.000000	19.762042
406.000000	20.148475
407.000000	20.525249
408.000000	20.887927
409.000000	21.238715
410.000000	21.581953
411.000000	21.909065
412.000000	22.215473
413.000000	22.507723
414.000000	22.784606
415.000000	23.046445
416.000000	23.291924
417.000000	23.521346
418.000000	23.735098
419.000000	23.932909
420.000000	24.113251
421.000000	24.278003
422.000000	24.427532
423.000000	24.561168
424.000000	24.678109
425.000000	24.779073
426.000000	24.863410
427.000000	24.932825
428.000000	24.986939
429.000000	25.024777
430.000000	25.047804
431.000000	25.055424
432.000000	25.050913
433.000000	25.034571
434.000000	25.006400
435.000000	24.967546
436.000000	24.919582
437.000000	24.863959
438.000000	24.802105
439.000000	24.736275
440.000000	24.668304
441.000000	24.598085
442.000000	24.527833
443.000000	24.460636
444.000000	24.397320
445.000000	24.339722
446.000000	24.287893
447.000000	24.244215
448.000000	24.208429
449.000000	24.180671
450.000000	24.160649
451.000000	24.149404
452.000000	24.146496
453.000000	24.151407
454.000000	24.163870
455.000000	24.182567
456.000000	24.207442
457.000000	24.238638
458.000000	24.275071
459.000000	24.315018
460.000000	24.360112
461.000000	24.409465
462.000000	24.462734
463.000000	24.519664
464.000000	24.580181
465.000000	24.643029
466.000000	24.709123
467.000000	24.777187
468.000000	24.847237
469.000000	24.919307
470.000000	24.992426
471.000000	25.065447
472.000000	25.138074
473.000000	25.210067
474.000000	25.280675
475.000000	25.349244
476.000000	25.415422
477.000000	25.478377
478.000000	25.536695
479.000000	25.589673
480.000000	25.636039
481.000000	25.675546
482.000000	25.707158
483.000000	25.732198
484.000000	25.751567
485.000000	25.765286
486.000000	25.774882
487.000000	25.780875
488.000000	25.784204
489.000000	25.785761
490.000000	25.786196
491.000000	25.786185
492.000000	25.785302
493.000000	25.785473
494.000000	25.788359
495.000000	25.793509
496.000000	25.800950
497.000000	25.809918
498.000000	25.821327
499.000000	25.836231
500.000000	25.854018
501.000000	25.874272
502.000000	25.896636
503.000000	25.921087
504.000000	25.947954
505.000000	25.976794
506.000000	26.006995
507.000000	26.038139
508.000000	26.069648
509.000000	26.101553
510.000000	26.134024
511.000000	26.167832
512.000000	26.203382
513.000000	26.241606
514.000000	26.283289
515.000000	26.329476
516.000000	26.381038
517.000000	26.439245
518.000000	26.503868
519.000000	26.575066
520.000000	26.653413
521.000000	26.738615
522.000000	26.831355
523.000000	26.931465
524.000000	27.039876
525.000000	27.156518
526.000000	27.281449
527.000000	27.415509
528.000000	27.558039
529.000000	27.708261
530.000000	27.867182
531.000000	28.034516
532.000000	28.210393
533.000000	28.394370
534.000000	28.585770
535.000000	28.785423
536.000000	28.992096
537.000000	29.205392
538.000000	29.424637
539.000000	29.649798
540.000000	29.880688
541.000000	30.116038
542.000000	30.355537
543.000000	30.599227
544.000000	30.846130
545.000000	31.095644
546.000000	31.345672
547.000000	31.596461
548.000000	31.846643
549.000000	32.094418
550.000000	32.339427
551.000000	32.580994
552.000000	32.817746
553.000000	33.049291
554.000000	33.275007
555.000000	33.494099
556.000000	33.706085
557.000000	33.909513
558.000000	34.104343
559.000000	34.289831
560.000000	34.469129
561.000000	34.639418
562.000000	34.798907
563.000000	34.948618
564.000000	35.088496
565.000000	35.217482
566.000000	35.336711
567.000000	35.445591
568.000000	35.545683
569.000000	35.637317
570.000000	35.720084
571.000000	35.796333
572.000000	35.866941
573.000000	35.932752
574.000000	35.994383
575.000000	36.052000
576.000000	36.107593
577.000000	36.161454
578.000000	36.213924
579.000000	36.264339
580.000000	36.314581
581.000000	36.364412
582.000000	36.413811
583.000000	36.462666
584.000000	36.511323
585.000000	36.559051
586.000000	36.605037
587.000000	36.648995
588.000000	36.689428
589.000000	36.726606
590.000000	36.760297
591.000000	36.790082
592.000000	36.816210
593.000000	36.839136
594.000000	36.857864
595.000000	36.869658
596.000000	36.877393
597.000000	36.881795
598.000000	36.882877
599.000000	36.880200
600.000000	36.874254
601.000000	36.865584
602.000000	36.854431
603.000000	36.839547
604.000000	36.822042
605.000000	36.800445
606.000000	36.774393
607.000000	36.743238
608.000000	36.705832
609.000000	36.661322
610.000000	36.608798
611.000000	36.546846
612.000000	36.475975
613.000000	36.396573
614.000000	36.307083
615.000000	36.208032
616.000000	36.101010
617.000000	35.984966
618.000000	35.861641
619.000000	35.730935
620.000000	35.593253
621.000000	35.450763
622.000000	35.304001
623.000000	35.154174
624.000000	35.001960
625.000000	34.847347
626.000000	34.692021
627.000000	34.537245
628.000000	34.382971
629.000000	34.229891
630.000000	34.079117
631.000000	33.930265
632.000000	33.783615
633.000000	33.639595
634.000000	33.498651
635.000000	33.361110
636.000000	33.226317
637.000000	33.094255
638.000000	32.966277
639.000000	32.841145
640.000000	32.719891
641.000000	32.602733
642.000000	32.489140
643.000000	32.380876
644.000000	32.277442
645.000000	32.180033
646.000000	32.088727
647.000000	32.003705
648.000000	31.924613
649.000000	31.854614
650.000000	31.791097
651.000000	31.734923
652.000000	31.687799
653.000000	31.647237
654.000000	31.614658
655.000000	31.589927
656.000000	31.572154
657.000000	31.562618
658.000000	31.560636
659.000000	31.565525
660.000000	31.576758
661.000000	31.593664
662.000000	31.613987
663.000000	31.639935
664.000000	31.670906
665.000000	31.703754
666.000000	31.739622
667.000000	31.779398
668.000000	31.820543
669.000000	31.865398
670.000000	31.914430
671.000000	31.965962
672.000000	32.023074
673.000000	32.084548
674.000000	32.152478
675.000000	32.228443
676.000000	32.312263
677.000000	32.405463
678.000000	32.507354
679.000000	32.619756
680.000000	32.742054
681.000000	32.875483
682.000000	33.020057
683.000000	33.174282
684.000000	33.337956
685.000000	33.509824
686.000000	33.688255
687.000000	33.873817
688.000000	34.066608
689.000000	34.264495
690.000000	34.467181
691.000000	34.673835
692.000000	34.882084
693.000000	35.093803
694.000000	35.308007
695.000000	35.525317
696.000000	35.743567
697.000000	35.963581
698.000000	36.186579
699.000000	36.411017
700.000000	36.639312
701.000000	36.869155
702.000000	37.101651
703.000000	37.338061
704.000000	37.574775
705.000000	37.811350
706.000000	38.049763
707.000000	38.287985
708.000000	38.525264
709.000000	38.759541
710.000000	38.991403
711.000000	39.219975
712.000000	39.444547
713.000000	39.665949
714.000000	39.882789
715.000000	40.095406
716.000000	40.304247
717.000000	40.506547
718.000000	40.705431
719.000000	40.899774
720.000000	41.090095
721.000000	41.278932
722.000000	41.462777
723.000000	41.642167
724.000000	41.818350
725.000000	41.991620
726.000000	42.161004
727.000000	42.328198
728.000000	42.491260
729.000000	42.649882
730.000000	42.805477
731.000000	42.958342
732.000000	43.108686
733.000000	43.253880
734.000000	43.397166
735.000000	43.536055
736.000000	43.671555
737.000000	43.802253
738.000000	43.929559
739.000000	44.056140
740.000000	44.180829
741.000000	44.304828
742.000000	44.427753
743.000000	44.549141
744.000000	44.669223
745.000000	44.787784
746.000000	44.904375
747.000000	45.019533
748.000000	45.133650
749.000000	45.245971
750.000000	45.356461
751.000000	45.464689
752.000000	45.574461
753.000000	45.681703
754.000000	45.785882
755.000000	45.890476
756.000000	45.992948
757.000000	46.093986
758.000000	46.194007
759.000000	46.292644
760.000000	46.388143
761.000000	46.483514
762.000000	46.578551
763.000000	46.672533
764.000000	46.769964
765.000000	46.867232
766.000000	46.964541
767.000000	47.062064
768.000000	47.158362
769.000000	47.254219
770.000000	47.351318
771.000000	47.450250
772.000000	47.550444
773.000000	47.650498
774.000000	47.751894
775.000000	47.855461
776.000000	47.957898
777.000000	48.057984
778.000000	48.157421
779.000000	48.259388
780.000000	48.361409
781.000000	48.461204
782.000000	48.560600
783.000000	48.658235
784.000000	48.755927
785.000000	48.856929
786.000000	48.956803
787.000000	49.052647
788.000000	49.148822
789.000000	49.248305
790.000000	49.348799
791.000000	49.449233
792.000000	49.550920
793.000000	49.653522
794.000000	49.753521
795.000000	49.854869
796.000000	49.959534
797.000000	50.066387
798.000000	50.171936
799.000000	50.272688
800.000000	50.374285
801.000000	50.476936
802.000000	50.580648
803.000000	50.686188
804.000000	50.793520
805.000000	50.899318
806.000000	51.001712
807.000000	51.103005
808.000000	51.206423
809.000000	51.310707
810.000000	51.413490
811.000000	51.516905
812.000000	51.619660
813.000000	51.723561
814.000000	51.828075
815.000000	51.934286
816.000000	52.044276
817.000000	52.152507
818.000000	52.261512
819.000000	52.372776
820.000000	52.479963
821.000000	52.587822
822.000000	52.700744
823.000000	52.816929
824.000000	52.931571
825.000000	53.042196
826.000000	53.153170
827.000000	53.265197
828.000000	53.377420
829.000000	53.494889
830.000000	53.615045
831.000000	53.733293
832.000000	53.844793
833.000000	53.954128
834.000000	54.066530
835.000000	54.178794
836.000000	54.293547
837.000000	54.406081
838.000000	54.519986
839.000000	54.627937
840.000000	54.736570
841.000000	54.848168
842.000000	54.956329
843.000000	55.063008
844.000000	55.173927
845.000000	55.283647
846.000000	55.385364
847.000000	55.494021
848.000000	55.596415
849.000000	55.696721
850.000000	55.792372
851.000000	55.894556
852.000000	55.995884
853.000000	56.092978
854.000000	56.181047
855.000000	56.270395
856.000000	56.354760
857.000000	56.442057
858.000000	56.486273
859.000000	56.594803
860.000000	56.703901
861.000000	56.811383
862.000000	56.917202
863.000000	57.023028
864.000000	57.127289
865.000000	57.229522
866.000000	57.329203
867.000000	57.431183
868.000000	57.535111
869.000000	57.635321
870.000000	57.731151
871.000000	57.820854
872.000000	57.909355
873.000000	57.992342
874.000000	58.075766
875.000000	58.156314
876.000000	58.232802
877.000000	58.310871
878.000000	58.385037
879.000000	58.448684
880.000000	58.509117
881.000000	58.573582
882.000000	58.629739
883.000000	58.688467
884.000000	58.743434
885.000000	58.797037
886.000000	58.839242
887.000000	58.881002
888.000000	58.923693
889.000000	58.969988
890.000000	59.012543
891.000000	59.057158
892.000000	59.092672
893.000000	59.164891
894.000000	59.169057
895.000000	59.170626
896.000000	59.169783
897.000000	59.165129
898.000000	59.155371
899.000000	59.141054
900.000000	59.122980
901.000000	59.102166
902.000000	59.078406
903.000000	59.053863
904.000000	59.027751
905.000000	59.000480
906.000000	58.972657
907.000000	58.943749
908.000000	58.913774
909.000000	58.883557
910.000000	58.852674
911.000000	58.821614
912.000000	58.789680
913.000000	58.756674
914.000000	58.722817
915.000000	58.688563
916.000000	58.652674
917.000000	58.616220
918.000000	58.579591
919.000000	58.540994
920.000000	58.501460
921.000000	58.461089
922.000000	58.419494
923.000000	58.376691
924.000000	58.332506
925.000000	58.287600
926.000000	58.240426
927.000000	58.191551
928.000000	58.141737
929.000000	58.090560
930.000000	58.038060
931.000000	57.984611
932.000000	57.929557
933.000000	57.874503
934.000000	57.818043
935.000000	57.760143
936.000000	57.701157
937.000000	57.642169
938.000000	57.581100
939.000000	57.518791
940.000000	57.455943
941.000000	57.391623
942.000000	57.326009
943.000000	57.260083
944.000000	57.192794
945.000000	57.124691
946.000000	57.056369
947.000000	56.987469
948.000000	56.918383
949.000000	56.848517
950.000000	56.778894
951.000000	56.709631
952.000000	56.640129
953.000000	56.570797
954.000000	56.502137
955.000000	56.433680
956.000000	56.365791
957.000000	56.298763
958.000000	56.232134
959.000000	56.166394
960.000000	56.100306
961.000000	56.035971
962.000000	55.973457
963.000000	55.912006
964.000000	55.851369
965.000000	55.791803
966.000000	55.732931
967.000000	55.676243
968.000000	55.619406
969.000000	55.564006
970.000000	55.510509
971.000000	55.458271
972.000000	55.406609
973.000000	55.357131
974.000000	55.310249
975.000000	55.264909
976.000000	55.221380
977.000000	55.179960
978.000000	55.140580
979.000000	55.102843
980.000000	55.066771
981.000000	55.031291
982.000000	54.997531
983.000000	54.965589
984.000000	54.935717
985.000000	54.906871
986.000000	54.878891
987.000000	54.851580
988.000000	54.825571
989.000000	54.801109
990.000000	54.778471
991.000000	54.756397
992.000000	54.736211
993.000000	54.717017
994.000000	54.699269
995.000000	54.683954
996.000000	54.669697
997.000000	54.656543
998.000000	54.644189
999.000000	54.633754
1000.000000	54.624720
1001.000000	54.616303
1002.000000	54.608594
1003.000000	54.601977
1004.000000	54.596469
1005.000000	54.591391
1006.000000	54.587414
1007.000000	54.584840
1008.000000	54.582329
1009.000000	54.579931
1010.000000	54.577874
1011.000000	54.576374
1012.000000	54.575274
1013.000000	54.574406
1014.000000	54.574206
1015.000000	54.574623
1016.000000	54.576597
1017.000000	54.578680
1018.000000	54.580849
1019.000000	54.584066
1020.000000	54.587874
1021.000000	54.592746
1022.000000	54.599306
1023.000000	54.605631
1024.000000	54.612700
1025.000000	54.620571
1026.000000	54.629180
1027.000000	54.637483
1028.000000	54.646974
1029.000000	54.656797
1030.000000	54.667006
1031.000000	54.678003
1032.000000	54.688917
1033.000000	54.699917
1034.000000	54.711317
1035.000000	54.723726
1036.000000	54.736680
1037.000000	54.749817
1038.000000	54.764377
1039.000000	54.779574
1040.000000	54.795460
1041.000000	54.811800
1042.000000	54.828726
1043.000000	54.846697
1044.000000	54.865091
1045.000000	54.884320
1046.000000	54.904403
1047.000000	54.925114
1048.000000	54.945923
1049.000000	54.967471
1050.000000	54.989357
1051.000000	55.011029
1052.000000	55.032991
1053.000000	55.055763
1054.000000	55.078549
1055.000000	55.101731
1056.000000	55.125077
1057.000000	55.148289
1058.000000	55.171751
1059.000000	55.195540
1060.000000	55.219140
1061.000000	55.243403
1062.000000	55.268206
1063.000000	55.292883
1064.000000	55.317200
1065.000000	55.341357
1066.000000	55.365486
1067.000000	55.390097
1068.000000	55.414926
1069.000000	55.439560
1070.000000	55.464246
1071.000000	55.489074
1072.000000	55.513891
1073.000000	55.538491
1074.000000	55.562943
1075.000000	55.587126
1076.000000	55.611389
1077.000000	55.635700
1078.000000	55.659866
1079.000000	55.684446
1080.000000	55.708843
1081.000000	55.732597
1082.000000	55.756626
1083.000000	55.780700
1084.000000	55.804143
1085.000000	55.827646
1086.000000	55.851437
1087.000000	55.875323
1088.000000	55.898803
1089.000000	55.921726
1090.000000	55.944709
1091.000000	55.967646
1092.000000	55.990020
1093.000000	56.012449
1094.000000	56.034743
1095.000000	56.056334
1096.000000	56.077903
1097.000000	56.098883
1098.000000	56.119529
1099.000000	56.140123
1100.000000	56.160489
1101.000000	56.180720
1102.000000	56.200431
1103.000000	56.219554
1104.000000	56.238529
1105.000000	56.257286
1106.000000	56.275966
1107.000000	56.294171
1108.000000	56.311946
1109.000000	56.328851
1110.000000	56.345597
1111.000000	56.362423
1112.000000	56.378254
1113.000000	56.393443
1114.000000	56.408054
1115.000000	56.422394
1116.000000	56.436446
1117.000000	56.450074
1118.000000	56.463380
1119.000000	56.476034
1120.000000	56.487966
1121.000000	56.498863
1122.000000	56.509569
1123.000000	56.520457
1124.000000	56.530920
1125.000000	56.540014
1126.000000	56.547886
1127.000000	56.555117
1128.000000	56.560723
1129.000000	56.565171
1130.000000	56.568934
1131.000000	56.570666
1132.000000	56.570186
1133.000000	56.567120
1134.000000	56.562769
1135.000000	56.558260
1136.000000	56.552114
1137.000000	56.544149
1138.000000	56.533680
1139.000000	56.520789
1140.000000	56.505731
1141.000000	56.489129
1142.000000	56.470723
1143.000000	56.450503
1144.000000	56.429180
1145.000000	56.406366
1146.000000	56.381543
1147.000000	56.357237
1148.000000	56.330837
1149.000000	56.302771
1150.000000	56.272960
1151.000000	56.241997
1152.000000	56.209386
1153.000000	56.175057
1154.000000	56.140006
1155.000000	56.102951
1156.000000	56.064411
1157.000000	56.023394
1158.000000	55.979834
1159.000000	55.934337
1160.000000	55.887186
1161.000000	55.838766
1162.000000	55.788454
1163.000000	55.735857
1164.000000	55.681474
1165.000000	55.624640
1166.000000	55.566617
1167.000000	55.507223
1168.000000	55.448000
1169.000000	55.387409
1170.000000	55.325540
1171.000000	55.263171
1172.000000	55.201523
1173.000000	55.140734
1174.000000	55.080566
1175.000000	55.020366
1176.000000	54.959620
1177.000000	54.898500
1178.000000	54.837366
1179.000000	54.775069
1180.000000	54.711611
1181.000000	54.647143
1182.000000	54.580480
1183.000000	54.513106
1184.000000	54.445397
1185.000000	54.376783
1186.000000	54.307306
1187.000000	54.237554
1188.000000	54.170917
1189.000000	54.105709
1190.000000	54.042920
1191.000000	53.982089
1192.000000	53.923191
1193.000000	53.867037
1194.000000	53.812471
1195.000000	53.759411
1196.000000	53.708243
1197.000000	53.659063
1198.000000	53.612611
1199.000000	53.568429
1200.000000	53.526389
1201.000000	53.486346
1202.000000	53.448829
1203.000000	53.412891
1204.000000	53.378329
1205.000000	53.344509
1206.000000	53.311203
1207.000000	53.277949
1208.000000	53.245409
1209.000000	53.213651
1210.000000	53.182869
1211.000000	53.152789
1212.000000	53.124660
1213.000000	53.097329
1214.000000	53.073166
1215.000000	53.051811
1216.000000	53.033760
1217.000000	53.018697
1218.000000	53.007737
1219.000000	53.000823
1220.000000	52.999280
1221.000000	53.002571
1222.000000	53.010963
1223.000000	53.021869
1224.000000	53.036094
1225.000000	53.053974
1226.000000	53.075760
1227.000000	53.101089
1228.000000	53.128546
1229.000000	53.159477
1230.000000	53.193817
1231.000000	53.230846
1232.000000	53.270137
1233.000000	53.312603
1234.000000	53.357231
1235.000000	53.404137
1236.000000	53.453011
1237.000000	53.504086
1238.000000	53.556646
1239.000000	53.611751
1240.000000	53.668669
1241.000000	53.727437
1242.000000	53.787960
1243.000000	53.851000
1244.000000	53.916011
1245.000000	53.982863
1246.000000	54.052471
1247.000000	54.123263
1248.000000	54.195949
1249.000000	54.268497
1250.000000	54.341403
1251.000000	54.414651
1252.000000	54.488106
1253.000000	54.560603
1254.000000	54.631746
1255.000000	54.700334
1256.000000	54.767043
1257.000000	54.831366
1258.000000	54.891889
1259.000000	54.949774
1260.000000	55.004214
1261.000000	55.055200
1262.000000	55.104149
1263.000000	55.150780
1264.000000	55.194754
1265.000000	55.236914
1266.000000	55.277297
1267.000000	55.316657
1268.000000	55.354277
1269.000000	55.390463
1270.000000	55.425697
1271.000000	55.460006
1272.000000	55.493443
1273.000000	55.526540
1274.000000	55.558734
1275.000000	55.589920
1276.000000	55.620463
1277.000000	55.650809
1278.000000	55.680011
1279.000000	55.708640
1280.000000	55.737014
1281.000000	55.764026
1282.000000	55.790346
1283.000000	55.816129
1284.000000	55.841960
1285.000000	55.867260
1286.000000	55.891860
1287.000000	55.915114
1288.000000	55.938286
1289.000000	55.960994
1290.000000	55.983566
1291.000000	56.005257
1292.000000	56.025694
1293.000000	56.046034
1294.000000	56.065443
1295.000000	56.084431
1296.000000	56.102751
1297.000000	56.119420
1298.000000	56.135440
1299.000000	56.151140
1300.000000	56.165920
1301.000000	56.179866
1302.000000	56.192894
1303.000000	56.204851
1304.000000	56.216080
1305.000000	56.227137
1306.000000	56.237666
1307.000000	56.247174
1308.000000	56.255383
1309.000000	56.263057
1310.000000	56.270451
1311.000000	56.277291
1312.000000	56.283180
1313.000000	56.288177
1314.000000	56.292197
1315.000000	56.295134
1316.000000	56.297251
1317.000000	56.298589
1318.000000	56.298691
1319.000000	56.297646
1320.000000	56.295706
1321.000000	56.292620
1322.000000	56.289029
1323.000000	56.284326
1324.000000	56.278200
1325.000000	56.270934
1326.000000	56.262591
1327.000000	56.253220
1328.000000	56.242466
1329.000000	56.230374
1330.000000	56.216874
1331.000000	56.201777
1332.000000	56.185323
1333.000000	56.167143
1334.000000	56.146971
1335.000000	56.124460
1336.000000	56.099674
1337.000000	56.073037
1338.000000	56.044454
1339.000000	56.013706
1340.000000	55.980197
1341.000000	55.943926
1342.000000	55.905243
1343.000000	55.863774
1344.000000	55.819354
1345.000000	55.772103
1346.000000	55.721291
1347.000000	55.667329
1348.000000	55.611229
1349.000000	55.552389
1350.000000	55.489526
1351.000000	55.423217
1352.000000	55.354049
1353.000000	55.281194
1354.000000	55.206283
1355.000000	55.131134
1356.000000	55.055683
1357.000000	54.978251
1358.000000	54.898546
1359.000000	54.817366
1360.000000	54.733566
1361.000000	54.650057
1362.000000	54.569334
1363.000000	54.490080
1364.000000	54.407371
1365.000000	54.322489
1366.000000	54.236500
1367.000000	54.147140
1368.000000	54.055194
1369.000000	53.961340
1370.000000	53.862654
1371.000000	53.758117
1372.000000	53.647394
1373.000000	53.527583
1374.000000	53.396031
1375.000000	53.251066
1376.000000	53.094094
1377.000000	52.924431
1378.000000	52.742860
1379.000000	52.550137
1380.000000	52.346697
1381.000000	52.137191
1382.000000	51.923191
1383.000000	51.706454
1384.000000	51.487380
1385.000000	51.268403
1386.000000	51.047849
1387.000000	50.826374
1388.000000	50.606380
1389.000000	50.388554
1390.000000	50.162817
1391.000000	49.920971
1392.000000	49.669603
1393.000000	49.426797
1394.000000	49.197860
1395.000000	48.980983
1396.000000	48.773866
1397.000000	48.570054
1398.000000	48.364446
1399.000000	48.160211
1400.000000	47.959414
1401.000000	47.764383
1402.000000	47.573974
1403.000000	47.380709
1404.000000	47.183443
1405.000000	46.990120
1406.000000	46.801091
1407.000000	46.614274
1408.000000	46.432531
1409.000000	46.258863
1410.000000	46.096057
1411.000000	45.941554
1412.000000	45.794123
1413.000000	45.655197
1414.000000	45.524606
1415.000000	45.404363
1416.000000	45.288026
1417.000000	45.172911
1418.000000	45.059140
1419.000000	44.948551
1420.000000	44.840111
1421.000000	44.733040
1422.000000	44.624031
1423.000000	44.514591
1424.000000	44.402986
1425.000000	44.296769
1426.000000	44.203963
1427.000000	44.119449
1428.000000	44.026586
1429.000000	43.919811
1430.000000	43.801626
1431.000000	43.671786
1432.000000	43.535074
1433.000000	43.397646
1434.000000	43.260957
1435.000000	43.121926
1436.000000	42.976623
1437.000000	42.829546
1438.000000	42.688071
1439.000000	42.552934
1440.000000	42.419109
1441.000000	42.287206
1442.000000	42.160209
1443.000000	42.038154
1444.000000	41.920531
1445.000000	41.806703
1446.000000	41.699171
1447.000000	41.598631
1448.000000	41.502511
1449.000000	41.409434
1450.000000	41.318689
1451.000000	41.233991
1452.000000	41.155237
1453.000000	41.078600
1454.000000	41.001829
1455.000000	40.925146
1456.000000	40.851509
1457.000000	40.782746
1458.000000	40.714851
1459.000000	40.647566
1460.000000	40.581994
1461.000000	40.518649
1462.000000	40.457380
1463.000000	40.396511
1464.000000	40.337317
1465.000000	40.279514
1466.000000	40.222254
1467.000000	40.166371
1468.000000	40.110517
1469.000000	40.055037
1470.000000	40.000929
1471.000000	39.949811
1472.000000	39.899971
1473.000000	39.850711
1474.000000	39.801306
1475.000000	39.752471
1476.000000	39.704234
1477.000000	39.656206
1478.000000	39.609534
1479.000000	39.564326
1480.000000	39.520283
1481.000000	39.476089
1482.000000	39.433980
1483.000000	39.394814
1484.000000	39.357906
1485.000000	39.322346
1486.000000	39.287980
1487.000000	39.254986
1488.000000	39.224889
1489.000000	39.197531
1490.000000	39.172446
1491.000000	39.149309
1492.000000	39.128343
1493.000000	39.110054
1494.000000	39.094854
1495.000000	39.082511
1496.000000	39.072706
1497.000000	39.065669
1498.000000	39.062497
1499.000000	39.061537
1500.000000	39.063711
1501.000000	39.069903
1502.000000	39.078583
1503.000000	39.091334
1504.000000	39.108843
1505.000000	39.129449
1506.000000	39.152854
1507.000000	39.179926
1508.000000	39.210869
1509.000000	39.245566
1510.000000	39.284400
1511.000000	39.326654
1512.000000	39.372683
1513.000000	39.421086
1514.000000	39.472043
1515.000000	39.525320
1516.000000	39.581297
1517.000000	39.638920
1518.000000	39.697897
1519.000000	39.759194
1520.000000	39.822254
1521.000000	39.886531
1522.000000	39.951640
1523.000000	40.017851
1524.000000	40.085389
1525.000000	40.154883
1526.000000	40.225177
1527.000000	40.296251
1528.000000	40.368780
1529.000000	40.441754
1530.000000	40.515354
1531.000000	40.589203
1532.000000	40.663837
1533.000000	40.738506
1534.000000	40.813006
1535.000000	40.887571
1536.000000	40.961414
1537.000000	41.034109
1538.000000	41.106080
1539.000000	41.176626
1540.000000	41.245843
1541.000000	41.312957
1542.000000	41.379143
1543.000000	41.443517
1544.000000	41.506960
1545.000000	41.569134
1546.000000	41.630926
1547.000000	41.691911
1548.000000	41.752346
1549.000000	41.812766
1550.000000	41.873117
1551.000000	41.933340
1552.000000	41.993106
1553.000000	42.052271
1554.000000	42.111309
1555.000000	42.169640
1556.000000	42.227089
1557.000000	42.284057
1558.000000	42.339751
1559.000000	42.394209
1560.000000	42.447609
1561.000000	42.500140
1562.000000	42.551123
1563.000000	42.600329
1564.000000	42.648117
1565.000000	42.693917
1566.000000	42.738231
1567.000000	42.780480
1568.000000	42.820654
1569.000000	42.859043
1570.000000	42.895400
1571.000000	42.930449
1572.000000	42.964954
1573.000000	42.998229
1574.000000	43.030003
1575.000000	43.061226
1576.000000	43.092437
1577.000000	43.122331
1578.000000	43.151857
1579.000000	43.180594
1580.000000	43.208271
1581.000000	43.234943
1582.000000	43.260374
1583.000000	43.284711
1584.000000	43.307583
1585.000000	43.329449
1586.000000	43.349717
1587.000000	43.369386
1588.000000	43.388903
1589.000000	43.407623
1590.000000	43.426174
1591.000000	43.444594
1592.000000	43.463377
1593.000000	43.482311
1594.000000	43.501623
1595.000000	43.521149
1596.000000	43.541174
1597.000000	43.562237
1598.000000	43.585049
1599.000000	43.609526
1600.000000	43.635871
1601.000000	43.663823
1602.000000	43.693406
1603.000000	43.725340
1604.000000	43.759443
1605.000000	43.795640
1606.000000	43.833909
1607.000000	43.873703
1608.000000	43.915091
1609.000000	43.958309
1610.000000	44.002643
1611.000000	44.047891
1612.000000	44.094186
1613.000000	44.140771
1614.000000	44.187886
1615.000000	44.235591
1616.000000	44.283451
1617.000000	44.331217
1618.000000	44.378940
1619.000000	44.426680
1620.000000	44.473877
1621.000000	44.521014
1622.000000	44.567437
1623.000000	44.613314
1624.000000	44.658417
1625.000000	44.702380
1626.000000	44.745431
1627.000000	44.787726
1628.000000	44.829126
1629.000000	44.869214
1630.000000	44.907743
1631.000000	44.944909
1632.000000	44.980363
1633.000000	45.013737
1634.000000	45.045066
1635.000000	45.073834
1636.000000	45.100551
1637.000000	45.125803
1638.000000	45.149120
1639.000000	45.171214
1640.000000	45.192183
1641.000000	45.211597
1642.000000	45.230071
1643.000000	45.248049
1644.000000	45.265783
1645.000000	45.282334
1646.000000	45.297617
1647.000000	45.311700
1648.000000	45.325026
1649.000000	45.337423
1650.000000	45.348543
1651.000000	45.358451
1652.000000	45.366826
1653.000000	45.373491
1654.000000	45.377697
1655.000000	45.379820
1656.000000	45.379571
1657.000000	45.376049
1658.000000	45.369037
1659.000000	45.358597
1660.000000	45.344331
1661.000000	45.325960
1662.000000	45.302740
1663.000000	45.275186
1664.000000	45.242340
1665.000000	45.204131
1666.000000	45.160629
1667.000000	45.112554
1668.000000	45.060460
1669.000000	45.002591
1670.000000	44.939463
1671.000000	44.871160
1672.000000	44.797111
1673.000000	44.717631
1674.000000	44.632517
1675.000000	44.541760
1676.000000	44.446049
1677.000000	44.345063
1678.000000	44.237880
1679.000000	44.123323
1680.000000	44.002949
1681.000000	43.875231
1682.000000	43.740440
1683.000000	43.598460
1684.000000	43.448300
1685.000000	43.291240
1686.000000	43.128660
1687.000000	42.960177
1688.000000	42.787634
1689.000000	42.612431
1690.000000	42.435200
1691.000000	42.256889
1692.000000	42.079651
1693.000000	41.902894
1694.000000	41.727640
1695.000000	41.554197
1696.000000	41.382080
1697.000000	41.211489
1698.000000	41.041777
1699.000000	40.875051
1700.000000	40.710717
1701.000000	40.548443
1702.000000	40.387977
1703.000000	40.227677
1704.000000	40.068829
1705.000000	39.910686
1706.000000	39.752211
1707.000000	39.593209
1708.000000	39.433186
1709.000000	39.271469
1710.000000	39.108137
1711.000000	38.941877
1712.000000	38.773683
1713.000000	38.603357
1714.000000	38.431994
1715.000000	38.259594
1716.000000	38.087091
1717.000000	37.913809
1718.000000	37.740063
1719.000000	37.567246
1720.000000	37.394517
1721.000000	37.222237
1722.000000	37.050483
1723.000000	36.880291
1724.000000	36.711540
1725.000000	36.544746
1726.000000	36.379860
1727.000000	36.215903
1728.000000	36.052846
1729.000000	35.889680
1730.000000	35.726403
1731.000000	35.564940
1732.000000	35.408311
1733.000000	35.260117
1734.000000	35.122774
1735.000000	34.997186
1736.000000	34.884091
1737.000000	34.782954
1738.000000	34.693906
1739.000000	34.616086
1740.000000	34.550271
1741.000000	34.495923
1742.000000	34.452283
1743.000000	34.419763
1744.000000	34.398169
1745.000000	34.386680
1746.000000	34.386171
1747.000000	34.395426
1748.000000	34.415186
1749.000000	34.444817
1750.000000	34.482414
1751.000000	34.527189
1752.000000	34.579380
1753.000000	34.638034
1754.000000	34.702294
1755.000000	34.771863
1756.000000	34.844894
1757.000000	34.921466
1758.000000	35.000117
1759.000000	35.079934
1760.000000	35.159100
1761.000000	35.236817
1762.000000	35.313091
1763.000000	35.388549
1764.000000	35.464329
1765.000000	35.541051
1766.000000	35.619917
1767.000000	35.700457
1768.000000	35.781737
1769.000000	35.861260
1770.000000	35.938366
1771.000000	36.011854
1772.000000	36.081694
1773.000000	36.147549
1774.000000	36.210114
1775.000000	36.269023
1776.000000	36.324883
1777.000000	36.379149
1778.000000	36.431369
1779.000000	36.481994
1780.000000	36.530949
1781.000000	36.578737
1782.000000	36.624526
1783.000000	36.669631
1784.000000	36.714437
1785.000000	36.760214
1786.000000	36.808531
1787.000000	36.858971
1788.000000	36.911474
1789.000000	36.966220
1790.000000	37.023726
1791.000000	37.083986
1792.000000	37.147631
1793.000000	37.213400
1794.000000	37.281223
1795.000000	37.352086
1796.000000	37.426223
1797.000000	37.502829
1798.000000	37.581626
1799.000000	37.662529
1800.000000	37.745186
1801.000000	37.827923
1802.000000	37.908729
1803.000000	37.984066
1804.000000	38.053003
1805.000000	38.116654
1806.000000	38.176060
1807.000000	38.231709
1808.000000	38.284149
1809.000000	38.333663
1810.000000	38.380660
1811.000000	38.426383
1812.000000	38.470640
1813.000000	38.512854
1814.000000	38.552869
1815.000000	38.590994
1816.000000	38.627317
1817.000000	38.662731
1818.000000	38.694566
1819.000000	38.723283
1820.000000	38.750906
1821.000000	38.778023
1822.000000	38.804791
1823.000000	38.830886
1824.000000	38.853677
1825.000000	38.874086
1826.000000	38.894014
1827.000000	38.914714
1828.000000	38.935783
1829.000000	38.957486
1830.000000	38.979597
1831.000000	39.001920
1832.000000	39.025163
1833.000000	39.048454
1834.000000	39.071409
1835.000000	39.094494
1836.000000	39.117529
1837.000000	39.141126
1838.000000	39.166691
1839.000000	39.193363
1840.000000	39.220106
1841.000000	39.246934
1842.000000	39.274323
1843.000000	39.303034
1844.000000	39.330640
1845.000000	39.356000
1846.000000	39.379529
1847.000000	39.403437
1848.000000	39.430880
1849.000000	39.462657
1850.000000	39.495974
1851.000000	39.526237
1852.000000	39.553714
1853.000000	39.581374
1854.000000	39.610786
1855.000000	39.640314
1856.000000	39.667697
1857.000000	39.692537
1858.000000	39.716123
1859.000000	39.741429
1860.000000	39.768086
1861.000000	39.793706
1862.000000	39.815749
1863.000000	39.833980
1864.000000	39.847906
1865.000000	39.857634
1866.000000	39.864014
1867.000000	39.867123
1868.000000	39.868429
1869.000000	39.867977
1870.000000	39.863960
1871.000000	39.856120
1872.000000	39.843354
1873.000000	39.824046
1874.000000	39.798486
1875.000000	39.765943
1876.000000	39.725174
1877.000000	39.675489
1878.000000	39.616271
1879.000000	39.549603
1880.000000	39.475460
1881.000000	39.393097
1882.000000	39.299746
1883.000000	39.192311
1884.000000	39.070583
1885.000000	38.936846
1886.000000	38.793906
1887.000000	38.641614
1888.000000	38.478060
1889.000000	38.300700
1890.000000	38.108191
1891.000000	37.902191
1892.000000	37.682734
1893.000000	37.448414
1894.000000	37.199500
1895.000000	36.935334
1896.000000	36.656689
1897.000000	36.365883
1898.000000	36.062294
1899.000000	35.746189
1900.000000	35.418280
1901.000000	35.077394
1902.000000	34.723860
1903.000000	34.358429
1904.000000	33.981260
1905.000000	33.594400
1906.000000	33.196697
1907.000000	32.788206
1908.000000	32.372571
1909.000000	31.951486
1910.000000	31.526757
1911.000000	31.099700
1912.000000	30.671291
1913.000000	30.242543
1914.000000	29.813817
1915.000000	29.386297
1916.000000	28.960520
1917.000000	28.537823
1918.000000	28.119243
1919.000000	27.704437
1920.000000	27.295177
1921.000000	26.892940
1922.000000	26.498026
1923.000000	26.110783
1924.000000	25.732709
1925.000000	25.365703
1926.000000	25.008789
1927.000000	24.663040
1928.000000	24.331186
1929.000000	24.012729
1930.000000	23.707740
1931.000000	23.416634
1932.000000	23.138363
1933.000000	22.874200
1934.000000	22.625071
1935.000000	22.390106
1936.000000	22.170806
1937.000000	21.966431
1938.000000	21.776529
1939.000000	21.600783
1940.000000	21.439037
1941.000000	21.291491
1942.000000	21.158406
1943.000000	21.038469
1944.000000	20.930766
1945.000000	20.834580
1946.000000	20.749369
1947.000000	20.675197
1948.000000	20.611683
1949.000000	20.558969
1950.000000	20.516677
1951.000000	20.483649
1952.000000	20.459671
1953.000000	20.444509
1954.000000	20.438854
1955.000000	20.440800
1956.000000	20.450074
1957.000000	20.466709
1958.000000	20.490703
1959.000000	20.520969
1960.000000	20.557500
1961.000000	20.601306
1962.000000	20.650986
1963.000000	20.706086
1964.000000	20.766391
1965.000000	20.831946
1966.000000	20.901777
1967.000000	20.975674
1968.000000	21.054149
1969.000000	21.136466
1970.000000	21.222494
1971.000000	21.310340
1972.000000	21.401334
1973.000000	21.494914
1974.000000	21.590697
1975.000000	21.688214
1976.000000	21.788054
1977.000000	21.889906
1978.000000	21.993766
1979.000000	22.098509
1980.000000	22.205089
1981.000000	22.313417
1982.000000	22.422374
1983.000000	22.531666
1984.000000	22.641306
1985.000000	22.751780
1986.000000	22.863846
1987.000000	22.976177
1988.000000	23.088649
1989.000000	23.200429
1990.000000	23.313051
1991.000000	23.425611
1992.000000	23.538186
1993.000000	23.650709
1994.000000	23.763049
1995.000000	23.874863
1996.000000	23.985609
1997.000000	24.095880
1998.000000	24.204383
1999.000000	24.312074
2000.000000	24.418683
