PE UV       SUBTECH     SPECTRUM    ASCII       PEDS        4.00        
   -1
CICIMAUCR0158-1.ASC
24/04/03
16:46:49.00
24/04/03
16:46:49.00
Vinicio Soto Monge
C. cupreomarginata
250,000000
1
Lambda 1050
1050L1511233
PerkinElmer UV WinLab 6.3.2.0749 / 2.02.05 Lambda 900 UV/VIS/NIR, Aug  7 2015 09:38:08

0
0
3350/servo 860,8/2
0
0
UV/VIS
1
1
1
DoubleDePol,CommonBeamDepol,RBeamAtt,SBeamAtt,60mm sphere, WB InGaAs Detector
0
0
0
0
Program
Program
3350/servo 860,8/2
3350/0,2 860,8/0,2
3350/0,2 860,8/0,2
0
15.00
 
 
 
0
 
860,8
319,2
860,8
Front
100
on
S:100 R:100
0
0
0
0
 
0
 
 
 
0
 
 
0
0
0
0
0
 
 
 
 
0
0


0
0
#HDR
-1
-1
#GR
nm
%R
1.0
0.0
2500,000000
-1,000000
2251
8
61,268000
5,280400
#DATA
250.000000	nan
251.000000	nan
252.000000	nan
253.000000	nan
254.000000	nan
255.000000	nan
256.000000	nan
257.000000	nan
258.000000	nan
259.000000	nan
260.000000	nan
261.000000	nan
262.000000	nan
263.000000	nan
264.000000	nan
265.000000	nan
266.000000	nan
267.000000	nan
268.000000	nan
269.000000	nan
270.000000	nan
271.000000	nan
272.000000	nan
273.000000	nan
274.000000	nan
275.000000	nan
276.000000	nan
277.000000	nan
278.000000	nan
279.000000	nan
280.000000	nan
281.000000	nan
282.000000	nan
283.000000	nan
284.000000	5.572989
285.000000	5.559441
286.000000	5.544282
287.000000	5.530475
288.000000	5.517893
289.000000	5.502993
290.000000	5.488282
291.000000	5.472804
292.000000	5.458915
293.000000	5.446981
294.000000	5.433940
295.000000	5.422863
296.000000	5.411683
297.000000	5.400729
298.000000	5.392505
299.000000	5.384404
300.000000	5.376889
301.000000	5.370056
302.000000	5.365178
303.000000	5.359975
304.000000	5.351678
305.000000	5.346318
306.000000	5.341701
307.000000	5.337118
308.000000	5.334890
309.000000	5.332409
310.000000	5.328314
311.000000	5.327181
312.000000	5.325387
313.000000	5.324446
314.000000	5.322585
315.000000	5.323421
316.000000	5.323973
317.000000	5.338144
318.000000	5.348627
319.000000	5.356139
320.000000	5.364434
321.000000	5.369346
322.000000	5.373036
323.000000	5.379376
324.000000	5.385886
325.000000	5.391556
326.000000	5.395082
327.000000	5.400090
328.000000	5.401465
329.000000	5.401146
330.000000	5.400411
331.000000	5.405681
332.000000	5.406233
333.000000	5.403459
334.000000	5.400698
335.000000	5.401586
336.000000	5.402005
337.000000	5.405729
338.000000	5.409368
339.000000	5.413672
340.000000	5.418488
341.000000	5.421772
342.000000	5.426104
343.000000	5.428527
344.000000	5.429622
345.000000	5.431735
346.000000	5.434754
347.000000	5.440517
348.000000	5.441565
349.000000	5.443165
350.000000	5.445689
351.000000	5.446342
352.000000	5.435861
353.000000	5.428707
354.000000	5.424755
355.000000	5.419254
356.000000	5.422448
357.000000	5.424231
358.000000	5.423465
359.000000	5.424586
360.000000	5.426400
361.000000	5.430588
362.000000	5.434264
363.000000	5.443083
364.000000	5.455831
365.000000	5.466853
366.000000	5.473463
367.000000	5.486775
368.000000	5.502354
369.000000	5.521431
370.000000	5.538040
371.000000	5.558408
372.000000	5.574276
373.000000	5.591069
374.000000	5.613062
375.000000	5.637783
376.000000	5.668938
377.000000	5.702112
378.000000	5.739692
379.000000	5.781699
380.000000	5.829002
381.000000	5.877778
382.000000	5.928550
383.000000	5.988083
384.000000	6.051421
385.000000	6.117741
386.000000	6.191095
387.000000	6.267054
388.000000	6.347444
389.000000	6.433664
390.000000	6.525957
391.000000	6.619007
392.000000	6.719316
393.000000	6.823867
394.000000	6.932755
395.000000	7.046601
396.000000	7.165134
397.000000	7.287804
398.000000	7.412347
399.000000	7.540431
400.000000	7.673475
401.000000	7.809592
402.000000	7.947537
403.000000	8.089825
404.000000	8.233341
405.000000	8.377989
406.000000	8.522255
407.000000	8.670976
408.000000	8.820976
409.000000	8.969917
410.000000	9.115515
411.000000	9.257082
412.000000	9.399449
413.000000	9.540461
414.000000	9.678828
415.000000	9.813742
416.000000	9.945020
417.000000	10.072631
418.000000	10.196467
419.000000	10.316014
420.000000	10.429961
421.000000	10.538393
422.000000	10.641274
423.000000	10.737642
424.000000	10.827589
425.000000	10.911364
426.000000	10.988790
427.000000	11.058888
428.000000	11.122316
429.000000	11.179328
430.000000	11.229926
431.000000	11.274322
432.000000	11.312757
433.000000	11.345461
434.000000	11.373360
435.000000	11.397437
436.000000	11.418798
437.000000	11.437892
438.000000	11.455122
439.000000	11.471002
440.000000	11.487586
441.000000	11.505660
442.000000	11.525230
443.000000	11.547544
444.000000	11.573094
445.000000	11.603170
446.000000	11.638513
447.000000	11.678878
448.000000	11.724626
449.000000	11.776424
450.000000	11.835159
451.000000	11.901193
452.000000	11.974284
453.000000	12.054246
454.000000	12.141548
455.000000	12.236463
456.000000	12.338526
457.000000	12.448099
458.000000	12.565198
459.000000	12.689234
460.000000	12.819997
461.000000	12.957221
462.000000	13.100593
463.000000	13.249793
464.000000	13.404055
465.000000	13.563632
466.000000	13.728788
467.000000	13.898840
468.000000	14.073184
469.000000	14.251705
470.000000	14.433939
471.000000	14.619463
472.000000	14.808228
473.000000	14.999726
474.000000	15.194586
475.000000	15.391785
476.000000	15.590262
477.000000	15.790032
478.000000	15.991442
479.000000	16.194127
480.000000	16.397426
481.000000	16.601255
482.000000	16.805363
483.000000	17.010155
484.000000	17.215327
485.000000	17.420387
486.000000	17.624802
487.000000	17.829270
488.000000	18.033893
489.000000	18.239108
490.000000	18.445294
491.000000	18.652556
492.000000	18.861559
493.000000	19.072399
494.000000	19.285038
495.000000	19.499139
496.000000	19.715598
497.000000	19.935214
498.000000	20.157607
499.000000	20.383105
500.000000	20.611793
501.000000	20.844492
502.000000	21.081048
503.000000	21.321231
504.000000	21.564628
505.000000	21.810788
506.000000	22.060151
507.000000	22.312279
508.000000	22.567608
509.000000	22.825248
510.000000	23.086258
511.000000	23.351441
512.000000	23.620177
513.000000	23.892264
514.000000	24.168740
515.000000	24.450130
516.000000	24.736737
517.000000	25.029090
518.000000	25.327778
519.000000	25.634493
520.000000	25.948917
521.000000	26.272335
522.000000	26.605380
523.000000	26.947928
524.000000	27.300819
525.000000	27.664593
526.000000	28.039972
527.000000	28.427449
528.000000	28.827859
529.000000	29.243049
530.000000	29.673930
531.000000	30.120189
532.000000	30.582467
533.000000	31.062338
534.000000	31.559911
535.000000	32.074953
536.000000	32.607450
537.000000	33.155675
538.000000	33.720200
539.000000	34.299644
540.000000	34.893062
541.000000	35.499236
542.000000	36.116534
543.000000	36.743253
544.000000	37.378723
545.000000	38.020285
546.000000	38.664932
547.000000	39.312362
548.000000	39.961259
549.000000	40.608438
550.000000	41.252876
551.000000	41.892422
552.000000	42.525676
553.000000	43.150595
554.000000	43.764653
555.000000	44.367202
556.000000	44.956914
557.000000	45.530987
558.000000	46.089999
559.000000	46.632233
560.000000	47.160992
561.000000	47.671809
562.000000	48.163377
563.000000	48.635102
564.000000	49.086531
565.000000	49.515978
566.000000	49.923723
567.000000	50.308411
568.000000	50.667974
569.000000	51.002580
570.000000	51.311641
571.000000	51.593851
572.000000	51.852337
573.000000	52.087408
574.000000	52.300087
575.000000	52.491303
576.000000	52.661504
577.000000	52.811476
578.000000	52.942697
579.000000	53.057582
580.000000	53.156156
581.000000	53.239844
582.000000	53.307779
583.000000	53.360661
584.000000	53.401007
585.000000	53.428086
586.000000	53.443383
587.000000	53.447591
588.000000	53.442163
589.000000	53.426455
590.000000	53.402280
591.000000	53.371764
592.000000	53.335280
593.000000	53.293597
594.000000	53.246976
595.000000	53.190730
596.000000	53.129618
597.000000	53.064007
598.000000	52.992755
599.000000	52.914337
600.000000	52.830254
601.000000	52.739773
602.000000	52.641232
603.000000	52.534980
604.000000	52.419831
605.000000	52.296104
606.000000	52.163184
607.000000	52.020448
608.000000	51.866953
609.000000	51.703286
610.000000	51.528314
611.000000	51.340115
612.000000	51.141023
613.000000	50.929781
614.000000	50.704636
615.000000	50.466957
616.000000	50.218659
617.000000	49.960891
618.000000	49.695209
619.000000	49.419128
620.000000	49.135695
621.000000	48.843446
622.000000	48.542286
623.000000	48.233320
624.000000	47.916175
625.000000	47.590927
626.000000	47.256907
627.000000	46.915590
628.000000	46.567253
629.000000	46.212872
630.000000	45.853343
631.000000	45.489216
632.000000	45.122630
633.000000	44.756237
634.000000	44.392890
635.000000	44.033510
636.000000	43.680703
637.000000	43.338760
638.000000	43.009715
639.000000	42.695885
640.000000	42.397598
641.000000	42.118269
642.000000	41.858313
643.000000	41.617366
644.000000	41.395570
645.000000	41.195406
646.000000	41.018073
647.000000	40.861820
648.000000	40.728554
649.000000	40.616998
650.000000	40.528277
651.000000	40.460074
652.000000	40.413496
653.000000	40.385566
654.000000	40.379842
655.000000	40.392715
656.000000	40.424934
657.000000	40.476301
658.000000	40.546866
659.000000	40.637165
660.000000	40.746617
661.000000	40.873579
662.000000	41.017808
663.000000	41.176695
664.000000	41.349862
665.000000	41.535875
666.000000	41.734482
667.000000	41.942263
668.000000	42.156460
669.000000	42.375146
670.000000	42.597745
671.000000	42.820823
672.000000	43.041340
673.000000	43.258622
674.000000	43.470681
675.000000	43.677315
676.000000	43.876758
677.000000	44.067819
678.000000	44.250642
679.000000	44.425304
680.000000	44.591193
681.000000	44.748001
682.000000	44.896378
683.000000	45.037202
684.000000	45.170077
685.000000	45.293778
686.000000	45.409466
687.000000	45.516509
688.000000	45.617736
689.000000	45.710471
690.000000	45.796756
691.000000	45.878011
692.000000	45.953981
693.000000	46.023867
694.000000	46.089611
695.000000	46.149580
696.000000	46.207216
697.000000	46.262175
698.000000	46.315066
699.000000	46.365633
700.000000	46.414814
701.000000	46.461979
702.000000	46.508611
703.000000	46.557339
704.000000	46.607897
705.000000	46.658188
706.000000	46.710719
707.000000	46.765818
708.000000	46.823249
709.000000	46.883303
710.000000	46.946547
711.000000	47.012457
712.000000	47.080518
713.000000	47.153818
714.000000	47.231569
715.000000	47.310944
716.000000	47.393230
717.000000	47.479593
718.000000	47.566864
719.000000	47.655326
720.000000	47.746332
721.000000	47.839213
722.000000	47.933850
723.000000	48.029232
724.000000	48.126753
725.000000	48.225896
726.000000	48.325283
727.000000	48.425291
728.000000	48.525859
729.000000	48.628449
730.000000	48.731668
731.000000	48.830853
732.000000	48.928678
733.000000	49.025576
734.000000	49.120282
735.000000	49.214268
736.000000	49.306107
737.000000	49.396369
738.000000	49.484939
739.000000	49.571505
740.000000	49.657075
741.000000	49.740667
742.000000	49.821465
743.000000	49.899703
744.000000	49.976335
745.000000	50.050624
746.000000	50.124941
747.000000	50.199193
748.000000	50.270367
749.000000	50.340715
750.000000	50.410286
751.000000	50.478908
752.000000	50.546729
753.000000	50.614360
754.000000	50.683711
755.000000	50.753443
756.000000	50.823735
757.000000	50.894550
758.000000	50.965887
759.000000	51.038658
760.000000	51.111798
761.000000	51.187808
762.000000	51.266003
763.000000	51.343058
764.000000	51.421707
765.000000	51.502525
766.000000	51.586306
767.000000	51.671748
768.000000	51.757047
769.000000	51.845315
770.000000	51.937850
771.000000	52.033619
772.000000	52.130945
773.000000	52.228941
774.000000	52.326318
775.000000	52.427492
776.000000	52.529606
777.000000	52.632642
778.000000	52.737857
779.000000	52.845284
780.000000	52.954071
781.000000	53.064032
782.000000	53.175222
783.000000	53.286882
784.000000	53.396010
785.000000	53.506391
786.000000	53.619927
787.000000	53.733553
788.000000	53.846641
789.000000	53.958200
790.000000	54.072220
791.000000	54.185922
792.000000	54.298227
793.000000	54.412718
794.000000	54.526138
795.000000	54.639125
796.000000	54.751799
797.000000	54.861402
798.000000	54.973919
799.000000	55.084942
800.000000	55.192870
801.000000	55.300714
802.000000	55.406949
803.000000	55.511697
804.000000	55.614462
805.000000	55.713267
806.000000	55.814268
807.000000	55.913470
808.000000	56.012081
809.000000	56.109373
810.000000	56.202128
811.000000	56.294536
812.000000	56.388156
813.000000	56.476914
814.000000	56.564657
815.000000	56.652948
816.000000	56.735041
817.000000	56.812141
818.000000	56.889157
819.000000	56.968693
820.000000	57.043390
821.000000	57.113558
822.000000	57.181081
823.000000	57.252300
824.000000	57.321395
825.000000	57.387612
826.000000	57.456354
827.000000	57.524421
828.000000	57.582669
829.000000	57.641453
830.000000	57.699456
831.000000	57.751071
832.000000	57.808302
833.000000	57.858658
834.000000	57.908371
835.000000	57.954823
836.000000	58.001346
837.000000	58.047350
838.000000	58.094653
839.000000	58.133781
840.000000	58.166564
841.000000	58.197530
842.000000	58.224443
843.000000	58.252351
844.000000	58.276827
845.000000	58.295575
846.000000	58.322198
847.000000	58.339464
848.000000	58.352251
849.000000	58.366388
850.000000	58.371720
851.000000	58.374289
852.000000	58.389811
853.000000	58.391512
854.000000	58.399526
855.000000	58.399709
856.000000	58.385473
857.000000	58.374891
858.000000	58.365754
859.000000	58.382962
860.000000	58.398978
861.000000	58.410605
862.000000	58.422046
863.000000	58.437893
864.000000	58.449847
865.000000	58.459279
866.000000	58.470180
867.000000	58.473182
868.000000	58.478583
869.000000	58.479391
870.000000	58.482066
871.000000	58.481902
872.000000	58.479999
873.000000	58.476037
874.000000	58.477964
875.000000	58.484106
876.000000	58.485112
877.000000	58.488617
878.000000	58.488419
879.000000	58.490857
880.000000	58.497655
881.000000	58.494018
882.000000	58.495881
883.000000	58.503732
884.000000	58.506281
885.000000	58.514264
886.000000	58.525570
887.000000	58.525367
888.000000	58.536340
889.000000	58.536855
890.000000	58.546363
891.000000	58.569172
892.000000	58.587078
893.000000	58.597517
894.000000	58.581331
895.000000	58.562977
896.000000	58.543480
897.000000	58.523666
898.000000	58.503466
899.000000	58.482569
900.000000	58.462269
901.000000	58.441823
902.000000	58.422269
903.000000	58.403380
904.000000	58.384037
905.000000	58.365017
906.000000	58.345354
907.000000	58.325674
908.000000	58.305680
909.000000	58.285660
910.000000	58.264663
911.000000	58.244529
912.000000	58.224023
913.000000	58.202091
914.000000	58.180800
915.000000	58.159117
916.000000	58.135963
917.000000	58.112857
918.000000	58.089157
919.000000	58.065580
920.000000	58.040583
921.000000	58.016191
922.000000	57.990840
923.000000	57.965683
924.000000	57.939363
925.000000	57.912906
926.000000	57.886997
927.000000	57.862040
928.000000	57.836114
929.000000	57.810780
930.000000	57.786134
931.000000	57.762260
932.000000	57.737686
933.000000	57.714077
934.000000	57.691583
935.000000	57.668051
936.000000	57.645480
937.000000	57.622611
938.000000	57.599811
939.000000	57.577949
940.000000	57.555497
941.000000	57.533969
942.000000	57.512777
943.000000	57.492974
944.000000	57.473554
945.000000	57.455283
946.000000	57.437526
947.000000	57.420283
948.000000	57.405546
949.000000	57.389937
950.000000	57.375503
951.000000	57.363166
952.000000	57.352323
953.000000	57.341551
954.000000	57.331349
955.000000	57.322857
956.000000	57.314274
957.000000	57.306600
958.000000	57.299389
959.000000	57.293469
960.000000	57.287757
961.000000	57.282183
962.000000	57.276471
963.000000	57.271991
964.000000	57.267726
965.000000	57.263374
966.000000	57.259334
967.000000	57.256694
968.000000	57.253980
969.000000	57.251503
970.000000	57.251114
971.000000	57.250991
972.000000	57.252051
973.000000	57.253189
974.000000	57.255469
975.000000	57.259197
976.000000	57.263460
977.000000	57.268060
978.000000	57.273280
979.000000	57.279020
980.000000	57.285840
981.000000	57.292449
982.000000	57.300149
983.000000	57.307346
984.000000	57.315886
985.000000	57.324154
986.000000	57.331957
987.000000	57.340231
988.000000	57.349731
989.000000	57.359674
990.000000	57.369897
991.000000	57.381346
992.000000	57.393551
993.000000	57.406129
994.000000	57.419600
995.000000	57.434234
996.000000	57.449854
997.000000	57.465957
998.000000	57.482829
999.000000	57.500434
1000.000000	57.518689
1001.000000	57.537900
1002.000000	57.557597
1003.000000	57.578126
1004.000000	57.599166
1005.000000	57.619894
1006.000000	57.641083
1007.000000	57.663246
1008.000000	57.686211
1009.000000	57.709617
1010.000000	57.733611
1011.000000	57.757703
1012.000000	57.782623
1013.000000	57.807449
1014.000000	57.833280
1015.000000	57.858946
1016.000000	57.885483
1017.000000	57.912509
1018.000000	57.939614
1019.000000	57.966903
1020.000000	57.995409
1021.000000	58.024706
1022.000000	58.054506
1023.000000	58.084997
1024.000000	58.116143
1025.000000	58.147863
1026.000000	58.179723
1027.000000	58.211183
1028.000000	58.243060
1029.000000	58.275597
1030.000000	58.308337
1031.000000	58.341214
1032.000000	58.374460
1033.000000	58.407794
1034.000000	58.441346
1035.000000	58.475674
1036.000000	58.510206
1037.000000	58.544537
1038.000000	58.578711
1039.000000	58.613209
1040.000000	58.648474
1041.000000	58.683714
1042.000000	58.718986
1043.000000	58.754483
1044.000000	58.789737
1045.000000	58.824986
1046.000000	58.860151
1047.000000	58.895443
1048.000000	58.931366
1049.000000	58.967169
1050.000000	59.002723
1051.000000	59.038037
1052.000000	59.073594
1053.000000	59.110086
1054.000000	59.146354
1055.000000	59.182100
1056.000000	59.218034
1057.000000	59.253691
1058.000000	59.288554
1059.000000	59.323071
1060.000000	59.357717
1061.000000	59.392497
1062.000000	59.427606
1063.000000	59.462503
1064.000000	59.497014
1065.000000	59.531963
1066.000000	59.566840
1067.000000	59.601266
1068.000000	59.635683
1069.000000	59.670094
1070.000000	59.704726
1071.000000	59.739089
1072.000000	59.773454
1073.000000	59.807837
1074.000000	59.841740
1075.000000	59.875606
1076.000000	59.909717
1077.000000	59.943914
1078.000000	59.977477
1079.000000	60.011346
1080.000000	60.045169
1081.000000	60.079269
1082.000000	60.112937
1083.000000	60.146077
1084.000000	60.179646
1085.000000	60.213597
1086.000000	60.247703
1087.000000	60.280686
1088.000000	60.313269
1089.000000	60.345914
1090.000000	60.378240
1091.000000	60.409706
1092.000000	60.440871
1093.000000	60.472394
1094.000000	60.503946
1095.000000	60.534586
1096.000000	60.564011
1097.000000	60.593331
1098.000000	60.622206
1099.000000	60.650486
1100.000000	60.678183
1101.000000	60.705131
1102.000000	60.731414
1103.000000	60.757334
1104.000000	60.782343
1105.000000	60.806380
1106.000000	60.829511
1107.000000	60.851934
1108.000000	60.873823
1109.000000	60.895711
1110.000000	60.916574
1111.000000	60.936806
1112.000000	60.956109
1113.000000	60.975071
1114.000000	60.993286
1115.000000	61.010806
1116.000000	61.027954
1117.000000	61.044837
1118.000000	61.061186
1119.000000	61.076254
1120.000000	61.090011
1121.000000	61.102789
1122.000000	61.115391
1123.000000	61.126377
1124.000000	61.136149
1125.000000	61.144731
1126.000000	61.152411
1127.000000	61.157663
1128.000000	61.159994
1129.000000	61.160237
1130.000000	61.158020
1131.000000	61.153109
1132.000000	61.144937
1133.000000	61.133920
1134.000000	61.121700
1135.000000	61.106626
1136.000000	61.088020
1137.000000	61.064983
1138.000000	61.038329
1139.000000	61.008040
1140.000000	60.974494
1141.000000	60.938331
1142.000000	60.899117
1143.000000	60.857894
1144.000000	60.814237
1145.000000	60.768269
1146.000000	60.720051
1147.000000	60.669171
1148.000000	60.616220
1149.000000	60.560600
1150.000000	60.503077
1151.000000	60.442794
1152.000000	60.380483
1153.000000	60.316054
1154.000000	60.249431
1155.000000	60.180674
1156.000000	60.109100
1157.000000	60.034503
1158.000000	59.958214
1159.000000	59.878577
1160.000000	59.796337
1161.000000	59.711471
1162.000000	59.625011
1163.000000	59.535883
1164.000000	59.444691
1165.000000	59.352834
1166.000000	59.260074
1167.000000	59.166229
1168.000000	59.071677
1169.000000	58.974651
1170.000000	58.877280
1171.000000	58.780389
1172.000000	58.685014
1173.000000	58.591003
1174.000000	58.497860
1175.000000	58.406126
1176.000000	58.314823
1177.000000	58.224394
1178.000000	58.134454
1179.000000	58.043894
1180.000000	57.953617
1181.000000	57.863514
1182.000000	57.774326
1183.000000	57.685797
1184.000000	57.598591
1185.000000	57.512714
1186.000000	57.428414
1187.000000	57.346371
1188.000000	57.266220
1189.000000	57.189069
1190.000000	57.115600
1191.000000	57.046551
1192.000000	56.982103
1193.000000	56.921880
1194.000000	56.867809
1195.000000	56.818834
1196.000000	56.774597
1197.000000	56.735386
1198.000000	56.702517
1199.000000	56.674843
1200.000000	56.651346
1201.000000	56.633420
1202.000000	56.620386
1203.000000	56.611806
1204.000000	56.608506
1205.000000	56.608671
1206.000000	56.613669
1207.000000	56.623126
1208.000000	56.635929
1209.000000	56.652874
1210.000000	56.671911
1211.000000	56.694983
1212.000000	56.721963
1213.000000	56.751463
1214.000000	56.784723
1215.000000	56.821269
1216.000000	56.860723
1217.000000	56.902366
1218.000000	56.946517
1219.000000	56.992571
1220.000000	57.040023
1221.000000	57.089294
1222.000000	57.138826
1223.000000	57.189129
1224.000000	57.239486
1225.000000	57.288997
1226.000000	57.337857
1227.000000	57.386043
1228.000000	57.432677
1229.000000	57.477174
1230.000000	57.520523
1231.000000	57.562246
1232.000000	57.602951
1233.000000	57.642437
1234.000000	57.680317
1235.000000	57.716969
1236.000000	57.751560
1237.000000	57.784740
1238.000000	57.816600
1239.000000	57.846871
1240.000000	57.876614
1241.000000	57.904977
1242.000000	57.932763
1243.000000	57.959186
1244.000000	57.984920
1245.000000	58.010954
1246.000000	58.035886
1247.000000	58.059517
1248.000000	58.082820
1249.000000	58.106569
1250.000000	58.129886
1251.000000	58.152843
1252.000000	58.175937
1253.000000	58.198540
1254.000000	58.220797
1255.000000	58.242711
1256.000000	58.264646
1257.000000	58.286206
1258.000000	58.307077
1259.000000	58.326983
1260.000000	58.347069
1261.000000	58.366200
1262.000000	58.384614
1263.000000	58.402666
1264.000000	58.420500
1265.000000	58.437729
1266.000000	58.454746
1267.000000	58.470909
1268.000000	58.486280
1269.000000	58.501186
1270.000000	58.515591
1271.000000	58.529577
1272.000000	58.543186
1273.000000	58.556640
1274.000000	58.569531
1275.000000	58.581957
1276.000000	58.593623
1277.000000	58.604286
1278.000000	58.614503
1279.000000	58.624080
1280.000000	58.633203
1281.000000	58.642171
1282.000000	58.651137
1283.000000	58.659543
1284.000000	58.666469
1285.000000	58.672686
1286.000000	58.678426
1287.000000	58.683714
1288.000000	58.688486
1289.000000	58.693423
1290.000000	58.698200
1291.000000	58.701909
1292.000000	58.705089
1293.000000	58.708280
1294.000000	58.711700
1295.000000	58.714543
1296.000000	58.717511
1297.000000	58.719926
1298.000000	58.721831
1299.000000	58.723637
1300.000000	58.725231
1301.000000	58.726769
1302.000000	58.728091
1303.000000	58.728880
1304.000000	58.729311
1305.000000	58.729729
1306.000000	58.729997
1307.000000	58.729743
1308.000000	58.728400
1309.000000	58.726371
1310.000000	58.723454
1311.000000	58.719526
1312.000000	58.714334
1313.000000	58.708009
1314.000000	58.700246
1315.000000	58.690503
1316.000000	58.678583
1317.000000	58.664731
1318.000000	58.649160
1319.000000	58.631740
1320.000000	58.612257
1321.000000	58.590877
1322.000000	58.567309
1323.000000	58.541666
1324.000000	58.513317
1325.000000	58.482340
1326.000000	58.449026
1327.000000	58.413546
1328.000000	58.375966
1329.000000	58.335634
1330.000000	58.292809
1331.000000	58.247226
1332.000000	58.199177
1333.000000	58.149074
1334.000000	58.096163
1335.000000	58.039860
1336.000000	57.980846
1337.000000	57.918911
1338.000000	57.853831
1339.000000	57.785594
1340.000000	57.714106
1341.000000	57.639177
1342.000000	57.560566
1343.000000	57.479177
1344.000000	57.394706
1345.000000	57.306583
1346.000000	57.214991
1347.000000	57.120331
1348.000000	57.022871
1349.000000	56.921723
1350.000000	56.817320
1351.000000	56.709817
1352.000000	56.599349
1353.000000	56.486257
1354.000000	56.372386
1355.000000	56.256971
1356.000000	56.140177
1357.000000	56.022003
1358.000000	55.902429
1359.000000	55.783011
1360.000000	55.664329
1361.000000	55.547217
1362.000000	55.429911
1363.000000	55.310054
1364.000000	55.189800
1365.000000	55.068286
1366.000000	54.944577
1367.000000	54.818300
1368.000000	54.689997
1369.000000	54.557366
1370.000000	54.420363
1371.000000	54.277794
1372.000000	54.126983
1373.000000	53.966346
1374.000000	53.793597
1375.000000	53.608100
1376.000000	53.411100
1377.000000	53.202949
1378.000000	52.983031
1379.000000	52.753791
1380.000000	52.516083
1381.000000	52.274769
1382.000000	52.029571
1383.000000	51.780606
1384.000000	51.530171
1385.000000	51.276643
1386.000000	51.022080
1387.000000	50.768294
1388.000000	50.516494
1389.000000	50.261266
1390.000000	50.005071
1391.000000	49.749057
1392.000000	49.494166
1393.000000	49.238706
1394.000000	48.982420
1395.000000	48.725163
1396.000000	48.464806
1397.000000	48.200037
1398.000000	47.932669
1399.000000	47.664777
1400.000000	47.397694
1401.000000	47.129606
1402.000000	46.857649
1403.000000	46.581734
1404.000000	46.305991
1405.000000	46.033057
1406.000000	45.760829
1407.000000	45.492917
1408.000000	45.230694
1409.000000	44.977831
1410.000000	44.732277
1411.000000	44.494483
1412.000000	44.264623
1413.000000	44.044157
1414.000000	43.831120
1415.000000	43.624306
1416.000000	43.417680
1417.000000	43.211734
1418.000000	43.009554
1419.000000	42.808631
1420.000000	42.610363
1421.000000	42.410789
1422.000000	42.209846
1423.000000	42.006814
1424.000000	41.805569
1425.000000	41.603623
1426.000000	41.399137
1427.000000	41.193086
1428.000000	40.987546
1429.000000	40.780654
1430.000000	40.572769
1431.000000	40.366434
1432.000000	40.164134
1433.000000	39.965766
1434.000000	39.768057
1435.000000	39.570331
1436.000000	39.375743
1437.000000	39.187826
1438.000000	39.006686
1439.000000	38.830129
1440.000000	38.656494
1441.000000	38.489509
1442.000000	38.326603
1443.000000	38.169651
1444.000000	38.017477
1445.000000	37.873474
1446.000000	37.735946
1447.000000	37.603474
1448.000000	37.474751
1449.000000	37.349900
1450.000000	37.231449
1451.000000	37.119883
1452.000000	37.013363
1453.000000	36.908609
1454.000000	36.806603
1455.000000	36.708203
1456.000000	36.615243
1457.000000	36.525486
1458.000000	36.438266
1459.000000	36.353060
1460.000000	36.271566
1461.000000	36.193240
1462.000000	36.117520
1463.000000	36.043837
1464.000000	35.973157
1465.000000	35.903909
1466.000000	35.835680
1467.000000	35.769791
1468.000000	35.705169
1469.000000	35.642529
1470.000000	35.582654
1471.000000	35.525369
1472.000000	35.469049
1473.000000	35.413849
1474.000000	35.360343
1475.000000	35.307517
1476.000000	35.256026
1477.000000	35.207520
1478.000000	35.160780
1479.000000	35.115346
1480.000000	35.070300
1481.000000	35.026954
1482.000000	34.986411
1483.000000	34.948369
1484.000000	34.911797
1485.000000	34.875894
1486.000000	34.841023
1487.000000	34.808846
1488.000000	34.778889
1489.000000	34.751186
1490.000000	34.724986
1491.000000	34.700471
1492.000000	34.678394
1493.000000	34.657809
1494.000000	34.639371
1495.000000	34.622857
1496.000000	34.609023
1497.000000	34.597874
1498.000000	34.588854
1499.000000	34.582160
1500.000000	34.578369
1501.000000	34.576966
1502.000000	34.577529
1503.000000	34.581929
1504.000000	34.588691
1505.000000	34.597403
1506.000000	34.608157
1507.000000	34.621957
1508.000000	34.638074
1509.000000	34.657426
1510.000000	34.680237
1511.000000	34.704943
1512.000000	34.731263
1513.000000	34.759769
1514.000000	34.790737
1515.000000	34.823826
1516.000000	34.858154
1517.000000	34.894840
1518.000000	34.933614
1519.000000	34.974380
1520.000000	35.016463
1521.000000	35.060431
1522.000000	35.105789
1523.000000	35.153031
1524.000000	35.202246
1525.000000	35.253229
1526.000000	35.305894
1527.000000	35.360006
1528.000000	35.415586
1529.000000	35.472214
1530.000000	35.529800
1531.000000	35.588343
1532.000000	35.647283
1533.000000	35.706751
1534.000000	35.766351
1535.000000	35.826669
1536.000000	35.887203
1537.000000	35.947411
1538.000000	36.006891
1539.000000	36.066366
1540.000000	36.125637
1541.000000	36.184263
1542.000000	36.242597
1543.000000	36.300563
1544.000000	36.357606
1545.000000	36.414514
1546.000000	36.471486
1547.000000	36.529169
1548.000000	36.587106
1549.000000	36.645086
1550.000000	36.703397
1551.000000	36.762303
1552.000000	36.820711
1553.000000	36.878846
1554.000000	36.937674
1555.000000	36.996751
1556.000000	37.055749
1557.000000	37.114306
1558.000000	37.171946
1559.000000	37.228797
1560.000000	37.284837
1561.000000	37.339726
1562.000000	37.392720
1563.000000	37.444623
1564.000000	37.495874
1565.000000	37.545700
1566.000000	37.593826
1567.000000	37.640226
1568.000000	37.685240
1569.000000	37.728763
1570.000000	37.770371
1571.000000	37.810743
1572.000000	37.850526
1573.000000	37.889363
1574.000000	37.926983
1575.000000	37.963649
1576.000000	37.999574
1577.000000	38.034740
1578.000000	38.069223
1579.000000	38.103169
1580.000000	38.136394
1581.000000	38.168717
1582.000000	38.199951
1583.000000	38.230006
1584.000000	38.259177
1585.000000	38.287509
1586.000000	38.314871
1587.000000	38.341509
1588.000000	38.367800
1589.000000	38.393680
1590.000000	38.419054
1591.000000	38.443757
1592.000000	38.468480
1593.000000	38.493691
1594.000000	38.519640
1595.000000	38.546000
1596.000000	38.573186
1597.000000	38.601646
1598.000000	38.631914
1599.000000	38.663731
1600.000000	38.696800
1601.000000	38.731671
1602.000000	38.768257
1603.000000	38.806940
1604.000000	38.847380
1605.000000	38.889763
1606.000000	38.934009
1607.000000	38.979537
1608.000000	39.026583
1609.000000	39.074909
1610.000000	39.124160
1611.000000	39.174283
1612.000000	39.225023
1613.000000	39.276491
1614.000000	39.327931
1615.000000	39.379706
1616.000000	39.431369
1617.000000	39.482611
1618.000000	39.533977
1619.000000	39.585306
1620.000000	39.635900
1621.000000	39.685820
1622.000000	39.735697
1623.000000	39.785277
1624.000000	39.834626
1625.000000	39.883506
1626.000000	39.932740
1627.000000	39.982177
1628.000000	40.030949
1629.000000	40.078937
1630.000000	40.126914
1631.000000	40.174283
1632.000000	40.221426
1633.000000	40.267723
1634.000000	40.312743
1635.000000	40.356531
1636.000000	40.399554
1637.000000	40.441209
1638.000000	40.481874
1639.000000	40.521323
1640.000000	40.559671
1641.000000	40.596300
1642.000000	40.631449
1643.000000	40.665203
1644.000000	40.697883
1645.000000	40.729669
1646.000000	40.760431
1647.000000	40.790620
1648.000000	40.819403
1649.000000	40.847863
1650.000000	40.875083
1651.000000	40.901537
1652.000000	40.926540
1653.000000	40.950134
1654.000000	40.972034
1655.000000	40.992951
1656.000000	41.012611
1657.000000	41.029166
1658.000000	41.043637
1659.000000	41.054066
1660.000000	41.061749
1661.000000	41.065791
1662.000000	41.066043
1663.000000	41.062626
1664.000000	41.054871
1665.000000	41.042671
1666.000000	41.026517
1667.000000	41.005771
1668.000000	40.980594
1669.000000	40.950454
1670.000000	40.916149
1671.000000	40.876803
1672.000000	40.833334
1673.000000	40.784957
1674.000000	40.732180
1675.000000	40.674457
1676.000000	40.612631
1677.000000	40.546266
1678.000000	40.475631
1679.000000	40.399800
1680.000000	40.318746
1681.000000	40.232506
1682.000000	40.140554
1683.000000	40.043897
1684.000000	39.942043
1685.000000	39.835257
1686.000000	39.725186
1687.000000	39.613046
1688.000000	39.500369
1689.000000	39.387180
1690.000000	39.274789
1691.000000	39.163843
1692.000000	39.056623
1693.000000	38.951597
1694.000000	38.850640
1695.000000	38.752354
1696.000000	38.657037
1697.000000	38.564483
1698.000000	38.475294
1699.000000	38.389606
1700.000000	38.307131
1701.000000	38.227389
1702.000000	38.150843
1703.000000	38.077086
1704.000000	38.007071
1705.000000	37.940003
1706.000000	37.876223
1707.000000	37.814557
1708.000000	37.755383
1709.000000	37.697854
1710.000000	37.641806
1711.000000	37.587400
1712.000000	37.533994
1713.000000	37.481029
1714.000000	37.429551
1715.000000	37.378011
1716.000000	37.326669
1717.000000	37.276271
1718.000000	37.225769
1719.000000	37.175460
1720.000000	37.125529
1721.000000	37.075197
1722.000000	37.025680
1723.000000	36.975266
1724.000000	36.924611
1725.000000	36.873694
1726.000000	36.822423
1727.000000	36.769709
1728.000000	36.716183
1729.000000	36.662071
1730.000000	36.607974
1731.000000	36.553780
1732.000000	36.500311
1733.000000	36.446631
1734.000000	36.394054
1735.000000	36.342297
1736.000000	36.291534
1737.000000	36.241800
1738.000000	36.193849
1739.000000	36.147451
1740.000000	36.103754
1741.000000	36.062234
1742.000000	36.024031
1743.000000	35.988334
1744.000000	35.956611
1745.000000	35.929234
1746.000000	35.905197
1747.000000	35.885657
1748.000000	35.870449
1749.000000	35.859757
1750.000000	35.854489
1751.000000	35.854529
1752.000000	35.859274
1753.000000	35.868754
1754.000000	35.882929
1755.000000	35.901800
1756.000000	35.924740
1757.000000	35.950431
1758.000000	35.977820
1759.000000	36.006043
1760.000000	36.034886
1761.000000	36.063849
1762.000000	36.093169
1763.000000	36.122211
1764.000000	36.150557
1765.000000	36.179346
1766.000000	36.208400
1767.000000	36.236946
1768.000000	36.266183
1769.000000	36.295103
1770.000000	36.323943
1771.000000	36.353151
1772.000000	36.382609
1773.000000	36.411511
1774.000000	36.440274
1775.000000	36.468137
1776.000000	36.495140
1777.000000	36.521011
1778.000000	36.546557
1779.000000	36.571203
1780.000000	36.594780
1781.000000	36.617214
1782.000000	36.638531
1783.000000	36.659451
1784.000000	36.679309
1785.000000	36.699166
1786.000000	36.718506
1787.000000	36.736857
1788.000000	36.755034
1789.000000	36.773109
1790.000000	36.791034
1791.000000	36.808543
1792.000000	36.825471
1793.000000	36.842940
1794.000000	36.861369
1795.000000	36.879620
1796.000000	36.897729
1797.000000	36.915871
1798.000000	36.934197
1799.000000	36.952906
1800.000000	36.971606
1801.000000	36.990503
1802.000000	37.009251
1803.000000	37.026951
1804.000000	37.044037
1805.000000	37.061006
1806.000000	37.077703
1807.000000	37.093937
1808.000000	37.109780
1809.000000	37.124734
1810.000000	37.139726
1811.000000	37.155740
1812.000000	37.171526
1813.000000	37.186771
1814.000000	37.201283
1815.000000	37.216326
1816.000000	37.231791
1817.000000	37.246743
1818.000000	37.261306
1819.000000	37.276611
1820.000000	37.292989
1821.000000	37.309823
1822.000000	37.326800
1823.000000	37.342837
1824.000000	37.357529
1825.000000	37.372511
1826.000000	37.388226
1827.000000	37.404491
1828.000000	37.421531
1829.000000	37.439497
1830.000000	37.457920
1831.000000	37.476934
1832.000000	37.495574
1833.000000	37.514249
1834.000000	37.533340
1835.000000	37.552954
1836.000000	37.573434
1837.000000	37.594723
1838.000000	37.616700
1839.000000	37.639146
1840.000000	37.661609
1841.000000	37.683654
1842.000000	37.704857
1843.000000	37.724620
1844.000000	37.743343
1845.000000	37.761311
1846.000000	37.778806
1847.000000	37.797234
1848.000000	37.815923
1849.000000	37.833594
1850.000000	37.847969
1851.000000	37.860091
1852.000000	37.871169
1853.000000	37.881489
1854.000000	37.890194
1855.000000	37.895897
1856.000000	37.899540
1857.000000	37.901900
1858.000000	37.903637
1859.000000	37.904397
1860.000000	37.901957
1861.000000	37.895209
1862.000000	37.884057
1863.000000	37.867509
1864.000000	37.846311
1865.000000	37.821403
1866.000000	37.792889
1867.000000	37.761311
1868.000000	37.726243
1869.000000	37.685491
1870.000000	37.638046
1871.000000	37.583257
1872.000000	37.520523
1873.000000	37.449700
1874.000000	37.369771
1875.000000	37.280271
1876.000000	37.180994
1877.000000	37.072374
1878.000000	36.954923
1879.000000	36.828520
1880.000000	36.691946
1881.000000	36.544063
1882.000000	36.383557
1883.000000	36.211260
1884.000000	36.027883
1885.000000	35.833577
1886.000000	35.627234
1887.000000	35.409029
1888.000000	35.178469
1889.000000	34.934200
1890.000000	34.678049
1891.000000	34.408777
1892.000000	34.125614
1893.000000	33.829077
1894.000000	33.520411
1895.000000	33.200577
1896.000000	32.872446
1897.000000	32.535817
1898.000000	32.189474
1899.000000	31.833894
1900.000000	31.467591
1901.000000	31.091129
1902.000000	30.705857
1903.000000	30.312891
1904.000000	29.914480
1905.000000	29.510043
1906.000000	29.099729
1907.000000	28.685783
1908.000000	28.270400
1909.000000	27.855620
1910.000000	27.443106
1911.000000	27.032854
1912.000000	26.625663
1913.000000	26.221423
1914.000000	25.819791
1915.000000	25.421874
1916.000000	25.028957
1917.000000	24.642437
1918.000000	24.262923
1919.000000	23.890674
1920.000000	23.528271
1921.000000	23.175383
1922.000000	22.831377
1923.000000	22.496917
1924.000000	22.174554
1925.000000	21.861837
1926.000000	21.561266
1927.000000	21.274217
1928.000000	21.000960
1929.000000	20.739994
1930.000000	20.491117
1931.000000	20.253517
1932.000000	20.026960
1933.000000	19.812669
1934.000000	19.610994
1935.000000	19.421877
1936.000000	19.246214
1937.000000	19.082637
1938.000000	18.929717
1939.000000	18.787840
1940.000000	18.657937
1941.000000	18.539891
1942.000000	18.433003
1943.000000	18.336203
1944.000000	18.248683
1945.000000	18.169371
1946.000000	18.098820
1947.000000	18.035997
1948.000000	17.982426
1949.000000	17.938266
1950.000000	17.902849
1951.000000	17.874000
1952.000000	17.851597
1953.000000	17.835860
1954.000000	17.827094
1955.000000	17.824483
1956.000000	17.829023
1957.000000	17.839706
1958.000000	17.856331
1959.000000	17.877926
1960.000000	17.905249
1961.000000	17.937917
1962.000000	17.973929
1963.000000	18.013969
1964.000000	18.059183
1965.000000	18.108057
1966.000000	18.159977
1967.000000	18.214723
1968.000000	18.273757
1969.000000	18.334840
1970.000000	18.399223
1971.000000	18.465320
1972.000000	18.533183
1973.000000	18.604549
1974.000000	18.676709
1975.000000	18.750483
1976.000000	18.826000
1977.000000	18.903511
1978.000000	18.982231
1979.000000	19.062491
1980.000000	19.143366
1981.000000	19.225231
1982.000000	19.308417
1983.000000	19.391989
1984.000000	19.476474
1985.000000	19.560840
1986.000000	19.646051
1987.000000	19.733511
1988.000000	19.820669
1989.000000	19.908317
1990.000000	19.995546
1991.000000	20.082314
1992.000000	20.169797
1993.000000	20.257226
1994.000000	20.344389
1995.000000	20.431591
1996.000000	20.518366
1997.000000	20.605651
1998.000000	20.692749
1999.000000	20.778503
2000.000000	20.864657
2001.000000	20.949609
2002.000000	21.034900
2003.000000	21.118737
2004.000000	21.202577
2005.000000	21.285311
2006.000000	21.366811
2007.000000	21.446669
2008.000000	21.524566
2009.000000	21.600837
2010.000000	21.675569
2011.000000	21.748577
2012.000000	21.819520
2013.000000	21.888697
2014.000000	21.954946
2015.000000	22.019431
2016.000000	22.081086
2017.000000	22.139743
2018.000000	22.195437
2019.000000	22.247691
2020.000000	22.297523
2021.000000	22.344549
2022.000000	22.386980
2023.000000	22.426411
2024.000000	22.462191
2025.000000	22.494983
2026.000000	22.523820
2027.000000	22.549349
2028.000000	22.571214
2029.000000	22.589480
2030.000000	22.603520
2031.000000	22.613763
2032.000000	22.620049
2033.000000	22.621794
2034.000000	22.620274
2035.000000	22.614343
2036.000000	22.604680
2037.000000	22.590409
2038.000000	22.572226
2039.000000	22.549540
2040.000000	22.522631
2041.000000	22.492046
2042.000000	22.458129
2043.000000	22.419540
2044.000000	22.377669
2045.000000	22.332277
2046.000000	22.283449
2047.000000	22.231111
2048.000000	22.176117
2049.000000	22.118940
2050.000000	22.059537
2051.000000	21.999277
2052.000000	21.938586
2053.000000	21.877886
2054.000000	21.817403
2055.000000	21.757780
2056.000000	21.699626
2057.000000	21.643414
2058.000000	21.589546
2059.000000	21.538186
2060.000000	21.489946
2061.000000	21.445291
2062.000000	21.403643
2063.000000	21.366097
2064.000000	21.332631
2065.000000	21.304123
2066.000000	21.279566
2067.000000	21.260226
2068.000000	21.245531
2069.000000	21.235257
2070.000000	21.229657
2071.000000	21.228897
2072.000000	21.233463
2073.000000	21.243551
2074.000000	21.258254
2075.000000	21.277874
2076.000000	21.301920
2077.000000	21.330451
2078.000000	21.363746
2079.000000	21.401649
2080.000000	21.443946
2081.000000	21.490134
2082.000000	21.539926
2083.000000	21.592717
2084.000000	21.648131
2085.000000	21.705943
2086.000000	21.765389
2087.000000	21.826226
2088.000000	21.887017
2089.000000	21.947543
2090.000000	22.007657
2091.000000	22.067186
2092.000000	22.125223
2093.000000	22.181777
2094.000000	22.236977
2095.000000	22.289689
2096.000000	22.340163
2097.000000	22.388597
2098.000000	22.434643
2099.000000	22.477726
2100.000000	22.517863
2101.000000	22.555160
2102.000000	22.589589
2103.000000	22.621837
2104.000000	22.650871
2105.000000	22.677717
2106.000000	22.702057
2107.000000	22.723503
2108.000000	22.742063
2109.000000	22.758337
2110.000000	22.772963
2111.000000	22.785583
2112.000000	22.796077
2113.000000	22.804837
2114.000000	22.811937
2115.000000	22.816320
2116.000000	22.819094
2117.000000	22.820737
2118.000000	22.820806
2119.000000	22.819537
2120.000000	22.817134
2121.000000	22.813331
2122.000000	22.807571
2123.000000	22.800666
2124.000000	22.793206
2125.000000	22.784697
2126.000000	22.774874
2127.000000	22.763523
2128.000000	22.750557
2129.000000	22.735706
2130.000000	22.719080
2131.000000	22.700686
2132.000000	22.680323
2133.000000	22.657626
2134.000000	22.633177
2135.000000	22.606231
2136.000000	22.576949
2137.000000	22.545026
2138.000000	22.509923
2139.000000	22.472097
2140.000000	22.431549
2141.000000	22.388486
2142.000000	22.342354
2143.000000	22.292906
2144.000000	22.240374
2145.000000	22.184466
2146.000000	22.125314
2147.000000	22.063986
2148.000000	21.999611
2149.000000	21.931589
2150.000000	21.861746
2151.000000	21.789517
2152.000000	21.714186
2153.000000	21.636651
2154.000000	21.556646
2155.000000	21.474237
2156.000000	21.389837
2157.000000	21.304471
2158.000000	21.218174
2159.000000	21.129937
2160.000000	21.040349
2161.000000	20.949523
2162.000000	20.858303
2163.000000	20.766640
2164.000000	20.675334
2165.000000	20.584040
2166.000000	20.492771
2167.000000	20.402206
2168.000000	20.312140
2169.000000	20.221520
2170.000000	20.131849
2171.000000	20.043617
2172.000000	19.956789
2173.000000	19.871154
2174.000000	19.787420
2175.000000	19.705174
2176.000000	19.624426
2177.000000	19.545657
2178.000000	19.468883
2179.000000	19.393283
2180.000000	19.319520
2181.000000	19.247963
2182.000000	19.176983
2183.000000	19.107114
2184.000000	19.039617
2185.000000	18.971960
2186.000000	18.904240
2187.000000	18.836709
2188.000000	18.769443
2189.000000	18.701280
2190.000000	18.631343
2191.000000	18.559923
2192.000000	18.486346
2193.000000	18.410089
2194.000000	18.330826
2195.000000	18.247989
2196.000000	18.161671
2197.000000	18.071900
2198.000000	17.977151
2199.000000	17.877966
2200.000000	17.774431
2201.000000	17.667166
2202.000000	17.555517
2203.000000	17.439874
2204.000000	17.322811
2205.000000	17.203329
2206.000000	17.081669
2207.000000	16.957777
2208.000000	16.834051
2209.000000	16.710389
2210.000000	16.587494
2211.000000	16.465646
2212.000000	16.346220
2213.000000	16.229263
2214.000000	16.116751
2215.000000	16.008089
2216.000000	15.902840
2217.000000	15.803414
2218.000000	15.709094
2219.000000	15.620494
2220.000000	15.538206
2221.000000	15.462223
2222.000000	15.393509
2223.000000	15.330611
2224.000000	15.275083
2225.000000	15.227474
2226.000000	15.187266
2227.000000	15.154366
2228.000000	15.129266
2229.000000	15.111766
2230.000000	15.102191
2231.000000	15.100694
2232.000000	15.105877
2233.000000	15.119254
2234.000000	15.139746
2235.000000	15.167203
2236.000000	15.200380
2237.000000	15.239183
2238.000000	15.283437
2239.000000	15.331003
2240.000000	15.382360
2241.000000	15.435926
2242.000000	15.491974
2243.000000	15.548729
2244.000000	15.605134
2245.000000	15.660480
2246.000000	15.714091
2247.000000	15.765800
2248.000000	15.814654
2249.000000	15.858880
2250.000000	15.898894
2251.000000	15.935814
2252.000000	15.966966
2253.000000	15.993683
2254.000000	16.014177
2255.000000	16.029780
2256.000000	16.040691
2257.000000	16.046694
2258.000000	16.048083
2259.000000	16.045357
2260.000000	16.038909
2261.000000	16.029154
2262.000000	16.016394
2263.000000	16.000569
2264.000000	15.983549
2265.000000	15.964729
2266.000000	15.944103
2267.000000	15.923029
2268.000000	15.901657
2269.000000	15.880340
2270.000000	15.858889
2271.000000	15.838751
2272.000000	15.819557
2273.000000	15.801754
2274.000000	15.785980
2275.000000	15.771083
2276.000000	15.758257
2277.000000	15.747629
2278.000000	15.738551
2279.000000	15.731657
2280.000000	15.727043
2281.000000	15.724529
2282.000000	15.723789
2283.000000	15.724557
2284.000000	15.728289
2285.000000	15.734574
2286.000000	15.742003
2287.000000	15.752189
2288.000000	15.764571
2289.000000	15.779151
2290.000000	15.796429
2291.000000	15.815891
2292.000000	15.837057
2293.000000	15.859723
2294.000000	15.884471
2295.000000	15.910403
2296.000000	15.937414
2297.000000	15.966100
2298.000000	15.995760
2299.000000	16.026246
2300.000000	16.057694
2301.000000	16.089863
2302.000000	16.123366
2303.000000	16.157183
2304.000000	16.191289
2305.000000	16.226326
2306.000000	16.261083
2307.000000	16.296420
2308.000000	16.332260
2309.000000	16.368163
2310.000000	16.404791
2311.000000	16.442277
2312.000000	16.480123
2313.000000	16.518146
2314.000000	16.556914
2315.000000	16.595609
2316.000000	16.635169
2317.000000	16.674314
2318.000000	16.714726
2319.000000	16.755140
2320.000000	16.795114
2321.000000	16.835397
2322.000000	16.875109
2323.000000	16.914249
2324.000000	16.953014
2325.000000	16.990323
2326.000000	17.026671
2327.000000	17.061617
2328.000000	17.096706
2329.000000	17.130489
2330.000000	17.163263
2331.000000	17.195466
2332.000000	17.226117
2333.000000	17.256011
2334.000000	17.284966
2335.000000	17.312817
2336.000000	17.339554
2337.000000	17.364269
2338.000000	17.388231
2339.000000	17.410880
2340.000000	17.432260
2341.000000	17.452751
2342.000000	17.472266
2343.000000	17.490500
2344.000000	17.507374
2345.000000	17.522949
2346.000000	17.537243
2347.000000	17.550331
2348.000000	17.562997
2349.000000	17.574160
2350.000000	17.584723
2351.000000	17.594703
2352.000000	17.604731
2353.000000	17.614000
2354.000000	17.622737
2355.000000	17.631463
2356.000000	17.639951
2357.000000	17.648511
2358.000000	17.656943
2359.000000	17.665851
2360.000000	17.675369
2361.000000	17.684854
2362.000000	17.694800
2363.000000	17.704409
2364.000000	17.714074
2365.000000	17.724217
2366.000000	17.734040
2367.000000	17.744163
2368.000000	17.754357
2369.000000	17.764314
2370.000000	17.774549
2371.000000	17.784794
2372.000000	17.795191
2373.000000	17.805600
2374.000000	17.816097
2375.000000	17.825877
2376.000000	17.835463
2377.000000	17.845040
2378.000000	17.854271
2379.000000	17.863220
2380.000000	17.871814
2381.000000	17.879794
2382.000000	17.887180
2383.000000	17.893800
2384.000000	17.900066
2385.000000	17.905977
2386.000000	17.910809
2387.000000	17.914629
2388.000000	17.917883
2389.000000	17.920020
2390.000000	17.921440
2391.000000	17.922411
2392.000000	17.922089
2393.000000	17.920389
2394.000000	17.917840
2395.000000	17.913883
2396.000000	17.909214
2397.000000	17.904006
2398.000000	17.897911
2399.000000	17.890926
2400.000000	17.882297
2401.000000	17.872583
2402.000000	17.861646
2403.000000	17.849366
2404.000000	17.835960
2405.000000	17.820669
2406.000000	17.803991
2407.000000	17.785791
2408.000000	17.765554
2409.000000	17.743520
2410.000000	17.720240
2411.000000	17.694980
2412.000000	17.667751
2413.000000	17.638643
2414.000000	17.607546
2415.000000	17.574366
2416.000000	17.539571
2417.000000	17.502783
2418.000000	17.463823
2419.000000	17.422766
2420.000000	17.379511
2421.000000	17.333946
2422.000000	17.285703
2423.000000	17.235077
2424.000000	17.182654
2425.000000	17.127989
2426.000000	17.070706
2427.000000	17.011589
2428.000000	16.951546
2429.000000	16.889206
2430.000000	16.825240
2431.000000	16.759114
2432.000000	16.690771
2433.000000	16.620671
2434.000000	16.548289
2435.000000	16.474391
2436.000000	16.398611
2437.000000	16.321054
2438.000000	16.242286
2439.000000	16.161294
2440.000000	16.078914
2441.000000	15.994883
2442.000000	15.909549
2443.000000	15.822149
2444.000000	15.732891
2445.000000	15.642520
2446.000000	15.551231
2447.000000	15.458711
2448.000000	15.364831
2449.000000	15.270191
2450.000000	15.174760
2451.000000	15.079271
2452.000000	14.982597
2453.000000	14.885600
2454.000000	14.788423
2455.000000	14.690531
2456.000000	14.593363
2457.000000	14.497020
2458.000000	14.401509
2459.000000	14.306291
2460.000000	14.211791
2461.000000	14.118294
2462.000000	14.025229
2463.000000	13.932406
2464.000000	13.839709
2465.000000	13.748140
2466.000000	13.658220
2467.000000	13.569740
2468.000000	13.482634
2469.000000	13.397911
2470.000000	13.313686
2471.000000	13.230969
2472.000000	13.151326
2473.000000	13.071837
2474.000000	12.996034
2475.000000	12.921017
2476.000000	12.847791
2477.000000	12.775720
2478.000000	12.705729
2479.000000	12.638437
2480.000000	12.572051
2481.000000	12.507071
2482.000000	12.445994
2483.000000	12.387731
2484.000000	12.329920
2485.000000	12.273600
2486.000000	12.220171
2487.000000	12.167917
2488.000000	12.116569
2489.000000	12.069560
2490.000000	12.025489
2491.000000	11.982651
2492.000000	11.940071
2493.000000	11.898740
2494.000000	11.858786
2495.000000	11.823620
2496.000000	11.784983
2497.000000	11.753206
2498.000000	11.720894
2499.000000	11.693557
2500.000000	11.667037
