PE UV       SUBTECH     SPECTRUM    ASCII       PEDS        4.00        
   -1
CICIMAUCR0098-2.Sample.ASC
24/04/18
13:18:25.00
24/04/18
13:18:25.00
Vinicio Soto Monge
C. cupreomarginata
250,000000
1
Lambda 1050
1050L1511233
PerkinElmer UV WinLab 6.3.2.0749 / 2.02.05 Lambda 900 UV/VIS/NIR, Aug  7 2015 09:38:08

0
0
3350/servo 860,8/2
0
0
UV/VIS
1
1
1
DoubleDePol,CommonBeamDepol,RBeamAtt,SBeamAtt,60mm sphere, WB InGaAs Detector
0
0
0
0
Program
Program
3350/servo 860,8/2
3350/0,2 860,8/0,2
3350/0,2 860,8/0,2
0
15.00
 
 
 
0
 
860,8
319,2
860,8
Front
100
on
S:100 R:100
0
0
0
0
 
0
 
 
 
0
 
 
0
0
0
0
0
 
 
 
 
0
0


0
0
#HDR
-1
-1
#GR
nm
%R
1.0
0.0
2500,000000
-1,000000
2251
8
74,574200
5,346500
#DATA
2482.000000	16.029467
2481.000000	16.075127
2480.000000	16.073825
2479.000000	16.067860
2478.000000	16.144863
2477.000000	16.127944
2476.000000	16.185534
2475.000000	16.181630
2474.000000	16.194102
2473.000000	16.234556
2472.000000	16.284554
2471.000000	16.323272
2470.000000	16.354290
2469.000000	16.368498
2468.000000	16.419689
2467.000000	16.430968
2466.000000	16.508948
2465.000000	16.598640
2464.000000	16.647228
2463.000000	16.710457
2462.000000	16.781712
2461.000000	16.855245
2460.000000	16.961748
2459.000000	17.025194
2458.000000	17.150569
2457.000000	17.245684
2456.000000	17.352187
2455.000000	17.471705
2454.000000	17.573327
2453.000000	17.684928
2452.000000	17.831559
2451.000000	17.942617
2450.000000	18.050747
2449.000000	18.196945
2448.000000	18.336201
2447.000000	18.469167
2446.000000	18.612545
2445.000000	18.755055
2444.000000	18.870669
2443.000000	19.006129
2442.000000	19.134432
2441.000000	19.270435
2440.000000	19.419561
2439.000000	19.527148
2438.000000	19.676166
2437.000000	19.798720
2436.000000	19.921166
2435.000000	20.052831
2434.000000	20.174409
2433.000000	20.285142
2432.000000	20.376353
2431.000000	20.495654
2430.000000	20.616907
2429.000000	20.719397
2428.000000	20.833492
2427.000000	20.927522
2426.000000	21.036737
2425.000000	21.121766
2424.000000	21.212976
2423.000000	21.295945
2422.000000	21.393338
2421.000000	21.487694
2420.000000	21.556997
2419.000000	21.616972
2418.000000	21.692782
2417.000000	21.748528
2416.000000	21.827592
2415.000000	21.882579
2414.000000	21.946351
2413.000000	22.006327
2412.000000	22.060012
2411.000000	22.115216
2410.000000	22.162068
2409.000000	22.200678
2408.000000	22.233866
2407.000000	22.288093
2406.000000	22.307181
2405.000000	22.367699
2404.000000	22.408912
2403.000000	22.425614
2402.000000	22.454680
2401.000000	22.477022
2400.000000	22.523007
2399.000000	22.541770
2398.000000	22.555544
2397.000000	22.591659
2396.000000	22.623220
2395.000000	22.651310
2394.000000	22.667144
2393.000000	22.678424
2392.000000	22.693065
2391.000000	22.696102
2390.000000	22.722348
2389.000000	22.732109
2388.000000	22.735580
2387.000000	22.729181
2386.000000	22.726578
2385.000000	22.724951
2384.000000	22.724626
2383.000000	22.701525
2382.000000	22.678098
2381.000000	22.664216
2380.000000	22.646321
2379.000000	22.623762
2378.000000	22.605216
2377.000000	22.571270
2376.000000	22.528213
2375.000000	22.521706
2374.000000	22.496653
2373.000000	22.444811
2372.000000	22.397633
2371.000000	22.363903
2370.000000	22.341779
2369.000000	22.306856
2368.000000	22.268463
2367.000000	22.239831
2366.000000	22.193086
2365.000000	22.140594
2364.000000	22.090922
2363.000000	22.051010
2362.000000	22.024764
2361.000000	21.989516
2360.000000	21.957739
2359.000000	21.910561
2358.000000	21.865443
2357.000000	21.829545
2356.000000	21.798852
2355.000000	21.773365
2354.000000	21.741045
2353.000000	21.720330
2352.000000	21.700049
2351.000000	21.672393
2350.000000	21.666862
2349.000000	21.662849
2348.000000	21.678249
2347.000000	21.683238
2346.000000	21.679551
2345.000000	21.684757
2344.000000	21.694084
2343.000000	21.720005
2342.000000	21.725753
2341.000000	21.724885
2340.000000	21.716643
2339.000000	21.723367
2338.000000	21.734212
2337.000000	21.731609
2336.000000	21.725861
2335.000000	21.727705
2334.000000	21.713389
2333.000000	21.696795
2332.000000	21.671959
2331.000000	21.667295
2330.000000	21.670766
2329.000000	21.665343
2328.000000	21.630746
2327.000000	21.606235
2326.000000	21.597016
2325.000000	21.589967
2324.000000	21.547236
2323.000000	21.500708
2322.000000	21.453422
2321.000000	21.403858
2320.000000	21.337700
2319.000000	21.269156
2318.000000	21.204951
2317.000000	21.116343
2316.000000	21.042810
2315.000000	20.960276
2314.000000	20.847699
2313.000000	20.756163
2312.000000	20.681437
2311.000000	20.579489
2310.000000	20.501293
2309.000000	20.420169
2308.000000	20.359108
2307.000000	20.299241
2306.000000	20.283732
2305.000000	20.267138
2304.000000	20.257269
2303.000000	20.279068
2302.000000	20.293059
2301.000000	20.325270
2300.000000	20.371906
2299.000000	20.420277
2298.000000	20.464093
2297.000000	20.514308
2296.000000	20.573958
2295.000000	20.645322
2294.000000	20.690114
2293.000000	20.744016
2292.000000	20.802365
2291.000000	20.845530
2290.000000	20.884249
2289.000000	20.908326
2288.000000	20.970145
2287.000000	20.988691
2286.000000	21.006803
2285.000000	21.007237
2284.000000	21.049751
2283.000000	21.059187
2282.000000	21.078058
2281.000000	21.072527
2280.000000	21.093567
2279.000000	21.091724
2278.000000	21.076974
2277.000000	21.081095
2276.000000	21.088036
2275.000000	21.082722
2274.000000	21.094435
2273.000000	21.097797
2272.000000	21.141613
2271.000000	21.163629
2270.000000	21.220135
2269.000000	21.280869
2268.000000	21.376202
2267.000000	21.474137
2266.000000	21.574566
2265.000000	21.712521
2264.000000	21.860780
2263.000000	22.055023
2262.000000	22.235601
2261.000000	22.457392
2260.000000	22.658143
2259.000000	22.915941
2258.000000	23.176233
2257.000000	23.413425
2256.000000	23.679249
2255.000000	23.930865
2254.000000	24.224128
2253.000000	24.483661
2252.000000	24.726275
2251.000000	24.979844
2250.000000	25.230809
2249.000000	25.450106
2248.000000	25.661376
2247.000000	25.865706
2246.000000	26.047043
2245.000000	26.218728
2244.000000	26.386400
2243.000000	26.547347
2242.000000	26.673806
2241.000000	26.769138
2240.000000	26.876726
2239.000000	26.968696
2238.000000	27.036372
2237.000000	27.109254
2236.000000	27.145586
2235.000000	27.187884
2234.000000	27.225084
2233.000000	27.257078
2232.000000	27.246341
2231.000000	27.255777
2230.000000	27.235387
2229.000000	27.211744
2228.000000	27.175520
2227.000000	27.128125
2226.000000	27.072271
2225.000000	27.028129
2224.000000	26.950150
2223.000000	26.878027
2222.000000	26.783671
2221.000000	26.695497
2220.000000	26.630316
2219.000000	26.522945
2218.000000	26.451798
2217.000000	26.339981
2216.000000	26.261134
2215.000000	26.169815
2214.000000	26.086738
2213.000000	25.999865
2212.000000	25.904208
2211.000000	25.832844
2210.000000	25.774278
2209.000000	25.683393
2208.000000	25.631985
2207.000000	25.583723
2206.000000	25.512901
2205.000000	25.470495
2204.000000	25.417027
2203.000000	25.384165
2202.000000	25.349568
2201.000000	25.318766
2200.000000	25.303908
2199.000000	25.246969
2198.000000	25.232870
2197.000000	25.203153
2196.000000	25.169207
2195.000000	25.151854
2194.000000	25.148383
2193.000000	25.135152
2192.000000	25.129729
2191.000000	25.097735
2190.000000	25.078213
2189.000000	25.071380
2188.000000	25.065198
2187.000000	25.044808
2186.000000	25.024636
2185.000000	24.985483
2184.000000	24.980603
2183.000000	24.964335
2182.000000	24.955658
2181.000000	24.930714
2180.000000	24.912168
2179.000000	24.906636
2178.000000	24.872907
2177.000000	24.859133
2176.000000	24.865423
2175.000000	24.868569
2174.000000	24.871497
2173.000000	24.884403
2172.000000	24.867809
2171.000000	24.904901
2170.000000	24.909239
2169.000000	24.954791
2168.000000	24.977024
2167.000000	24.995678
2166.000000	25.035264
2165.000000	25.081466
2164.000000	25.136670
2163.000000	25.189705
2162.000000	25.255429
2161.000000	25.309331
2160.000000	25.382972
2159.000000	25.442514
2158.000000	25.541642
2157.000000	25.632202
2156.000000	25.729053
2155.000000	25.829699
2154.000000	25.916789
2153.000000	26.033812
2152.000000	26.168513
2151.000000	26.283693
2150.000000	26.413730
2149.000000	26.534333
2148.000000	26.666540
2147.000000	26.791914
2146.000000	26.907527
2145.000000	27.029431
2144.000000	27.153721
2143.000000	27.274214
2142.000000	27.373342
2141.000000	27.505549
2140.000000	27.628646
2139.000000	27.732221
2138.000000	27.844255
2137.000000	27.943058
2136.000000	28.054767
2135.000000	28.172332
2134.000000	28.278618
2133.000000	28.363647
2132.000000	28.444663
2131.000000	28.548238
2130.000000	28.637063
2129.000000	28.721007
2128.000000	28.797251
2127.000000	28.862541
2126.000000	28.922300
2125.000000	28.989325
2124.000000	29.048650
2123.000000	29.090297
2122.000000	29.142139
2121.000000	29.183135
2120.000000	29.215021
2119.000000	29.254065
2118.000000	29.271092
2117.000000	29.302002
2116.000000	29.334647
2115.000000	29.346468
2114.000000	29.366750
2113.000000	29.392020
2112.000000	29.395599
2111.000000	29.395707
2110.000000	29.395382
2109.000000	29.401455
2108.000000	29.405360
2107.000000	29.405902
2106.000000	29.408179
2105.000000	29.390284
2104.000000	29.380632
2103.000000	29.380415
2102.000000	29.382367
2101.000000	29.374016
2100.000000	29.360025
2099.000000	29.360134
2098.000000	29.371088
2097.000000	29.356663
2096.000000	29.350156
2095.000000	29.362086
2094.000000	29.347445
2093.000000	29.350590
2092.000000	29.374450
2091.000000	29.367943
2090.000000	29.354169
2089.000000	29.359158
2088.000000	29.363604
2087.000000	29.350590
2086.000000	29.337141
2085.000000	29.314366
2084.000000	29.280528
2083.000000	29.250052
2082.000000	29.188775
2081.000000	29.126847
2080.000000	29.066220
2079.000000	28.981734
2078.000000	28.905056
2077.000000	28.831198
2076.000000	28.740421
2075.000000	28.633701
2074.000000	28.537284
2073.000000	28.433492
2072.000000	28.312348
2071.000000	28.181768
2070.000000	28.060623
2069.000000	27.929067
2068.000000	27.797836
2067.000000	27.670293
2066.000000	27.550558
2065.000000	27.416508
2064.000000	27.288422
2063.000000	27.162505
2062.000000	27.041144
2061.000000	26.936268
2060.000000	26.851890
2059.000000	26.776296
2058.000000	26.721960
2057.000000	26.678578
2056.000000	26.642788
2055.000000	26.634437
2054.000000	26.663503
2053.000000	26.714694
2052.000000	26.783671
2051.000000	26.859807
2050.000000	26.961429
2049.000000	27.120967
2048.000000	27.269442
2047.000000	27.430498
2046.000000	27.605545
2045.000000	27.809875
2044.000000	28.022772
2043.000000	28.205628
2042.000000	28.412669
2041.000000	28.631315
2040.000000	28.816122
2039.000000	29.012643
2038.000000	29.231940
2037.000000	29.402323
2036.000000	29.584962
2035.000000	29.737016
2034.000000	29.891348
2033.000000	30.049584
2032.000000	30.193612
2031.000000	30.331242
2030.000000	30.456399
2029.000000	30.575700
2028.000000	30.691964
2027.000000	30.800745
2026.000000	30.906272
2025.000000	31.019607
2024.000000	31.116892
2023.000000	31.201812
2022.000000	31.274369
2021.000000	31.341503
2020.000000	31.420783
2019.000000	31.494750
2018.000000	31.513946
2017.000000	31.602337
2016.000000	31.642357
2015.000000	31.697127
2014.000000	31.729338
2013.000000	31.755693
2012.000000	31.775215
2011.000000	31.803522
2010.000000	31.801027
2009.000000	31.819248
2008.000000	31.807643
2007.000000	31.808402
2006.000000	31.809487
2005.000000	31.799075
2004.000000	31.767406
2003.000000	31.750379
2002.000000	31.698646
2001.000000	31.658843
2000.000000	31.601795
1999.000000	31.562968
1998.000000	31.505921
1997.000000	31.436726
1996.000000	31.363410
1995.000000	31.308641
1994.000000	31.221551
1993.000000	31.135438
1992.000000	31.090103
1991.000000	30.998350
1990.000000	30.883062
1989.000000	30.794020
1988.000000	30.704762
1987.000000	30.611057
1986.000000	30.509434
1985.000000	30.412692
1984.000000	30.335472
1983.000000	30.230596
1982.000000	30.122032
1981.000000	30.030279
1980.000000	29.951540
1979.000000	29.828552
1978.000000	29.720314
1977.000000	29.633549
1976.000000	29.531276
1975.000000	29.444620
1974.000000	29.376511
1973.000000	29.274671
1972.000000	29.180315
1971.000000	29.106132
1970.000000	28.997243
1969.000000	28.930760
1968.000000	28.852997
1967.000000	28.787599
1966.000000	28.698557
1965.000000	28.615372
1964.000000	28.525029
1963.000000	28.440108
1962.000000	28.368311
1961.000000	28.259964
1960.000000	28.179707
1959.000000	28.086436
1958.000000	27.986874
1957.000000	27.913233
1956.000000	27.833626
1955.000000	27.744151
1954.000000	27.636238
1953.000000	27.541231
1952.000000	27.454250
1951.000000	27.370631
1950.000000	27.292218
1949.000000	27.221830
1948.000000	27.153612
1947.000000	27.079537
1946.000000	27.018694
1945.000000	26.983880
1944.000000	26.908178
1943.000000	26.859048
1942.000000	26.862193
1941.000000	26.842020
1940.000000	26.828572
1939.000000	26.828789
1938.000000	26.804928
1937.000000	26.803952
1936.000000	26.828572
1935.000000	26.853733
1934.000000	26.901454
1933.000000	26.969130
1932.000000	27.063486
1931.000000	27.143092
1930.000000	27.225084
1929.000000	27.341457
1928.000000	27.453599
1927.000000	27.570080
1926.000000	27.693394
1925.000000	27.848268
1924.000000	28.059756
1923.000000	28.233826
1922.000000	28.441410
1921.000000	28.647583
1920.000000	28.873495
1919.000000	29.070016
1918.000000	29.341154
1917.000000	29.614244
1916.000000	29.912496
1915.000000	30.213677
1914.000000	30.566264
1913.000000	30.899005
1912.000000	31.210055
1911.000000	31.547242
1910.000000	31.935837
1909.000000	32.313587
1908.000000	32.737430
1907.000000	33.175155
1906.000000	33.690101
1905.000000	34.171750
1904.000000	34.654918
1903.000000	35.150993
1902.000000	35.686870
1901.000000	36.192597
1900.000000	36.782919
1899.000000	37.335607
1898.000000	37.914974
1897.000000	38.509851
1896.000000	39.076638
1895.000000	39.630736
1894.000000	40.237218
1893.000000	40.865282
1892.000000	41.496817
1891.000000	42.127050
1890.000000	42.718348
1889.000000	43.260191
1888.000000	43.873071
1887.000000	44.439533
1886.000000	44.984846
1885.000000	45.532545
1884.000000	46.106815
1883.000000	46.608421
1882.000000	47.062197
1881.000000	47.506322
1880.000000	47.955109
1879.000000	48.372120
1878.000000	48.766029
1877.000000	49.116231
1876.000000	49.484111
1875.000000	49.802319
1874.000000	50.107729
1873.000000	50.389713
1872.000000	50.648487
1871.000000	50.854552
1870.000000	51.025911
1869.000000	51.181653
1868.000000	51.311907
1867.000000	51.424918
1866.000000	51.493570
1865.000000	51.588902
1864.000000	51.713951
1863.000000	51.826311
1862.000000	51.948540
1861.000000	52.057754
1860.000000	52.146037
1859.000000	52.211110
1858.000000	52.239417
1857.000000	52.286269
1856.000000	52.346353
1855.000000	52.376504
1854.000000	52.394291
1853.000000	52.365225
1852.000000	52.354596
1851.000000	52.405245
1850.000000	52.474222
1849.000000	52.558709
1848.000000	52.528667
1847.000000	52.416090
1846.000000	52.309153
1845.000000	52.262409
1844.000000	52.278352
1843.000000	52.327808
1842.000000	52.357090
1841.000000	52.313817
1840.000000	52.252106
1839.000000	52.195492
1838.000000	52.165450
1837.000000	52.106342
1836.000000	52.011010
1835.000000	51.905700
1834.000000	51.811127
1833.000000	51.769805
1832.000000	51.747897
1831.000000	51.724471
1830.000000	51.672846
1829.000000	51.611569
1828.000000	51.531529
1827.000000	51.447910
1826.000000	51.398672
1825.000000	51.363424
1824.000000	51.339889
1823.000000	51.378607
1822.000000	51.437173
1821.000000	51.449537
1820.000000	51.388368
1819.000000	51.288481
1818.000000	51.265814
1817.000000	51.276443
1816.000000	51.270369
1815.000000	51.247160
1814.000000	51.218744
1813.000000	51.211369
1812.000000	51.195643
1811.000000	51.149008
1810.000000	51.086863
1809.000000	51.042721
1808.000000	51.017126
1807.000000	50.995110
1806.000000	50.938713
1805.000000	50.879605
1804.000000	50.852166
1803.000000	50.839910
1802.000000	50.824835
1801.000000	50.769197
1800.000000	50.709222
1799.000000	50.656838
1798.000000	50.616384
1797.000000	50.592307
1796.000000	50.560313
1795.000000	50.527234
1794.000000	50.481899
1793.000000	50.451640
1792.000000	50.423442
1791.000000	50.390363
1790.000000	50.355766
1789.000000	50.339389
1788.000000	50.318024
1787.000000	50.309239
1786.000000	50.289825
1785.000000	50.262386
1784.000000	50.218570
1783.000000	50.180177
1782.000000	50.148291
1781.000000	50.126817
1780.000000	50.050139
1779.000000	49.988103
1778.000000	49.920318
1777.000000	49.847219
1776.000000	49.772494
1775.000000	49.687356
1774.000000	49.603087
1773.000000	49.502006
1772.000000	49.404614
1771.000000	49.325658
1770.000000	49.238460
1769.000000	49.136838
1768.000000	49.043241
1767.000000	48.961791
1766.000000	48.892813
1765.000000	48.808110
1764.000000	48.747809
1763.000000	48.693798
1762.000000	48.663214
1761.000000	48.636967
1760.000000	48.622977
1759.000000	48.604431
1758.000000	48.577317
1757.000000	48.547383
1756.000000	48.545865
1755.000000	48.527428
1754.000000	48.461921
1753.000000	48.434048
1752.000000	48.389256
1751.000000	48.336221
1750.000000	48.254446
1749.000000	48.172887
1748.000000	48.088401
1747.000000	47.997407
1746.000000	47.896760
1745.000000	47.789064
1744.000000	47.666402
1743.000000	47.537665
1742.000000	47.414785
1741.000000	47.273360
1740.000000	47.148962
1739.000000	47.011440
1738.000000	46.891489
1737.000000	46.804833
1736.000000	46.741278
1735.000000	46.692474
1734.000000	46.667420
1733.000000	46.656575
1732.000000	46.654080
1731.000000	46.649308
1730.000000	46.690088
1729.000000	46.689654
1728.000000	46.689220
1727.000000	46.698764
1726.000000	46.727613
1725.000000	46.728264
1724.000000	46.758523
1723.000000	46.793337
1722.000000	46.863941
1721.000000	47.002330
1720.000000	47.129006
1719.000000	47.310343
1718.000000	47.527362
1717.000000	47.725293
1716.000000	47.925284
1715.000000	48.151413
1714.000000	48.316048
1713.000000	48.474718
1712.000000	48.626773
1711.000000	48.732408
1710.000000	48.838152
1709.000000	48.940425
1708.000000	48.998883
1707.000000	49.040096
1706.000000	49.070246
1705.000000	49.090202
1704.000000	49.062763
1703.000000	49.042048
1702.000000	48.996388
1701.000000	48.938039
1700.000000	48.871231
1699.000000	48.828066
1698.000000	48.783707
1697.000000	48.726768
1696.000000	48.711910
1695.000000	48.711042
1694.000000	48.679265
1693.000000	48.690219
1692.000000	48.702366
1691.000000	48.688484
1690.000000	48.727744
1689.000000	48.745314
1688.000000	48.830777
1687.000000	48.960815
1686.000000	49.107880
1685.000000	49.311667
1684.000000	49.569682
1683.000000	49.853401
1682.000000	50.185491
1681.000000	50.561289
1680.000000	50.906936
1679.000000	51.270911
1678.000000	51.612545
1677.000000	51.943768
1676.000000	52.241152
1675.000000	52.546453
1674.000000	52.832884
1673.000000	53.077776
1672.000000	53.346202
1671.000000	53.599771
1670.000000	53.849977
1669.000000	54.109185
1668.000000	54.342147
1667.000000	54.579989
1666.000000	54.780848
1665.000000	54.964246
1664.000000	55.130074
1663.000000	55.300566
1662.000000	55.455440
1661.000000	55.600444
1660.000000	55.733627
1659.000000	55.865075
1658.000000	55.985569
1657.000000	56.049015
1656.000000	56.128621
1655.000000	56.185886
1654.000000	56.235016
1653.000000	56.252803
1652.000000	56.287400
1651.000000	56.292714
1650.000000	56.312128
1649.000000	56.317008
1648.000000	56.300631
1647.000000	56.290220
1646.000000	56.258768
1645.000000	56.242391
1644.000000	56.224604
1643.000000	56.195321
1642.000000	56.171678
1641.000000	56.162026
1640.000000	56.147601
1639.000000	56.109967
1638.000000	56.078840
1637.000000	56.063982
1636.000000	56.031229
1635.000000	56.009104
1634.000000	55.977869
1633.000000	55.942187
1632.000000	55.871149
1631.000000	55.818331
1630.000000	55.756078
1629.000000	55.694583
1628.000000	55.628860
1627.000000	55.564979
1626.000000	55.507498
1625.000000	55.436785
1624.000000	55.377569
1623.000000	55.330065
1622.000000	55.292106
1621.000000	55.237878
1620.000000	55.184735
1619.000000	55.134087
1618.000000	55.096887
1617.000000	55.038321
1616.000000	54.992227
1615.000000	54.945158
1614.000000	54.890171
1613.000000	54.822712
1612.000000	54.770545
1611.000000	54.702543
1610.000000	54.624239
1609.000000	54.547452
1608.000000	54.473594
1607.000000	54.394097
1606.000000	54.278592
1605.000000	54.185754
1604.000000	54.101810
1603.000000	54.024373
1602.000000	53.926329
1601.000000	53.817766
1600.000000	53.719180
1599.000000	53.634693
1598.000000	53.555304
1597.000000	53.456501
1596.000000	53.358783
1595.000000	53.278526
1594.000000	53.196751
1593.000000	53.122459
1592.000000	53.031899
1591.000000	52.951859
1590.000000	52.894052
1589.000000	52.831257
1588.000000	52.771173
1587.000000	52.714993
1586.000000	52.649920
1585.000000	52.585172
1584.000000	52.529100
1583.000000	52.488104
1582.000000	52.441252
1581.000000	52.385397
1580.000000	52.343642
1579.000000	52.303731
1578.000000	52.278569
1577.000000	52.261216
1576.000000	52.251021
1575.000000	52.243972
1574.000000	52.246575
1573.000000	52.263060
1572.000000	52.275424
1571.000000	52.283232
1570.000000	52.307526
1569.000000	52.336918
1568.000000	52.367068
1567.000000	52.400256
1566.000000	52.429105
1565.000000	52.452097
1564.000000	52.465654
1563.000000	52.481163
1562.000000	52.494069
1561.000000	52.500251
1560.000000	52.487237
1559.000000	52.463594
1558.000000	52.436371
1557.000000	52.403726
1556.000000	52.353403
1555.000000	52.295163
1554.000000	52.220437
1553.000000	52.145494
1552.000000	52.058079
1551.000000	51.958301
1550.000000	51.875875
1549.000000	51.781952
1548.000000	51.682824
1547.000000	51.595084
1546.000000	51.508754
1545.000000	51.445307
1544.000000	51.390321
1543.000000	51.336201
1542.000000	51.296073
1541.000000	51.258981
1540.000000	51.231976
1539.000000	51.204537
1538.000000	51.174495
1537.000000	51.148140
1536.000000	51.123412
1535.000000	51.085453
1534.000000	51.047277
1533.000000	51.015499
1532.000000	50.982312
1531.000000	50.941858
1530.000000	50.908129
1529.000000	50.869302
1528.000000	50.825594
1527.000000	50.775705
1526.000000	50.739806
1525.000000	50.686880
1524.000000	50.624084
1523.000000	50.586125
1522.000000	50.546539
1521.000000	50.499361
1520.000000	50.448604
1519.000000	50.399257
1518.000000	50.341667
1517.000000	50.301755
1516.000000	50.255770
1515.000000	50.197204
1514.000000	50.156642
1513.000000	50.110657
1512.000000	50.058599
1511.000000	49.992983
1510.000000	49.950794
1509.000000	49.899603
1508.000000	49.842447
1507.000000	49.803187
1506.000000	49.774446
1505.000000	49.733992
1504.000000	49.695382
1503.000000	49.642890
1502.000000	49.612848
1501.000000	49.589747
1500.000000	49.561006
1499.000000	49.554499
1498.000000	49.527276
1497.000000	49.543219
1496.000000	49.548425
1495.000000	49.578901
1494.000000	49.605256
1493.000000	49.630092
1492.000000	49.667509
1491.000000	49.714253
1490.000000	49.768047
1489.000000	49.803837
1488.000000	49.873791
1487.000000	49.937454
1486.000000	49.980077
1485.000000	50.040812
1484.000000	50.098727
1483.000000	50.163366
1482.000000	50.251215
1481.000000	50.310866
1480.000000	50.366286
1479.000000	50.440795
1478.000000	50.493721
1477.000000	50.585691
1476.000000	50.639810
1475.000000	50.695665
1474.000000	50.811929
1473.000000	50.895765
1472.000000	51.000641
1471.000000	51.090442
1470.000000	51.182086
1469.000000	51.223625
1468.000000	51.320367
1467.000000	51.421773
1466.000000	51.527083
1465.000000	51.606797
1464.000000	51.700286
1463.000000	51.832709
1462.000000	51.936501
1461.000000	52.046366
1460.000000	52.136167
1459.000000	52.234319
1458.000000	52.350366
1457.000000	52.492876
1456.000000	52.649920
1455.000000	52.744167
1454.000000	52.850670
1453.000000	52.975828
1452.000000	53.155321
1451.000000	53.293059
1450.000000	53.368110
1449.000000	53.457477
1448.000000	53.538710
1447.000000	53.718204
1446.000000	53.906048
1445.000000	53.980991
1444.000000	54.064827
1443.000000	54.180657
1442.000000	54.361994
1441.000000	54.474787
1440.000000	54.605042
1439.000000	54.771629
1438.000000	54.921623
1437.000000	55.030187
1436.000000	55.173239
1435.000000	55.327354
1434.000000	55.533094
1433.000000	55.680267
1432.000000	55.864099
1431.000000	56.023094
1430.000000	56.158338
1429.000000	56.403772
1428.000000	56.622743
1427.000000	56.827507
1426.000000	57.014701
1425.000000	57.308072
1424.000000	57.601335
1423.000000	57.818896
1422.000000	58.049580
1421.000000	58.349676
1420.000000	58.733499
1419.000000	59.051056
1418.000000	59.280330
1417.000000	59.495397
1416.000000	59.864687
1415.000000	60.274214
1414.000000	60.661399
1413.000000	60.942841
1412.000000	61.265278
1411.000000	61.634568
1410.000000	62.070884
1409.000000	62.543423
1408.000000	62.894167
1407.000000	63.308900
1406.000000	63.684372
1405.000000	64.108974
1404.000000	64.422627
1403.000000	64.826297
1402.000000	65.211205
1401.000000	65.731790
1400.000000	66.108347
1399.000000	66.330788
1398.000000	66.498243
1397.000000	66.908638
1396.000000	67.370223
1395.000000	67.700036
1394.000000	67.862936
1393.000000	68.102296
1392.000000	68.414647
1391.000000	68.670819
1390.000000	68.929159
1389.000000	69.261574
1388.000000	69.706891
1387.000000	69.946252
1386.000000	70.243203
1385.000000	70.575184
1384.000000	70.941546
1383.000000	71.201622
1382.000000	71.449225
1381.000000	71.569610
1380.000000	71.608329
1379.000000	71.772530
1378.000000	71.887059
1377.000000	71.994212
1376.000000	72.131625
1375.000000	72.276413
1374.000000	72.425973
1373.000000	72.594187
1372.000000	72.803072
1371.000000	72.998074
1370.000000	73.128546
1369.000000	73.304460
1368.000000	73.516056
1367.000000	73.613449
1366.000000	73.759104
1365.000000	73.923848
1364.000000	74.048463
1363.000000	74.156159
1362.000000	74.323614
1361.000000	74.432937
1360.000000	74.457665
1359.000000	74.491503
1358.000000	74.573386
1357.000000	74.658524
1356.000000	74.798539
1355.000000	74.996253
1354.000000	75.179109
1353.000000	75.328560
1352.000000	75.523237
1351.000000	75.745787
1350.000000	75.978966
1349.000000	76.190779
1348.000000	76.412353
1347.000000	76.601933
1346.000000	76.746829
1345.000000	76.955172
1344.000000	77.147246
1343.000000	77.308302
1342.000000	77.460248
1341.000000	77.624883
1340.000000	77.752860
1339.000000	77.863268
1338.000000	78.017491
1337.000000	78.146010
1336.000000	78.251103
1335.000000	78.357390
1334.000000	78.462808
1333.000000	78.559333
1332.000000	78.650327
1331.000000	78.745442
1330.000000	78.822229
1329.000000	78.887302
1328.000000	78.940228
1327.000000	78.997275
1326.000000	79.051937
1325.000000	79.118962
1324.000000	79.177853
1323.000000	79.216030
1322.000000	79.261147
1321.000000	79.312013
1320.000000	79.357238
1319.000000	79.396825
1318.000000	79.435109
1317.000000	79.476322
1316.000000	79.514498
1315.000000	79.549746
1314.000000	79.582934
1313.000000	79.612976
1312.000000	79.644211
1311.000000	79.665685
1310.000000	79.686292
1309.000000	79.712538
1308.000000	79.737808
1307.000000	79.750714
1306.000000	79.758523
1305.000000	79.762969
1304.000000	79.766223
1303.000000	79.762969
1302.000000	79.759933
1301.000000	79.767308
1300.000000	79.763403
1299.000000	79.762102
1298.000000	79.764379
1297.000000	79.749304
1296.000000	79.726203
1295.000000	79.715900
1294.000000	79.705922
1293.000000	79.684556
1292.000000	79.669373
1291.000000	79.649308
1290.000000	79.617531
1289.000000	79.597467
1288.000000	79.569051
1287.000000	79.546059
1286.000000	79.521548
1285.000000	79.481528
1284.000000	79.447690
1283.000000	79.410165
1282.000000	79.363963
1281.000000	79.343573
1280.000000	79.328715
1279.000000	79.299974
1278.000000	79.275029
1277.000000	79.254531
1276.000000	79.247048
1275.000000	79.259412
1274.000000	79.266244
1273.000000	79.267546
1272.000000	79.266787
1271.000000	79.272643
1270.000000	79.300516
1269.000000	79.316242
1268.000000	79.335656
1267.000000	79.351490
1266.000000	79.359299
1265.000000	79.371338
1264.000000	79.378604
1263.000000	79.385871
1262.000000	79.407779
1261.000000	79.411791
1260.000000	79.424155
1259.000000	79.422420
1258.000000	79.416346
1257.000000	79.407128
1256.000000	79.413635
1255.000000	79.398994
1254.000000	79.366240
1253.000000	79.353442
1252.000000	79.337825
1251.000000	79.287068
1250.000000	79.253013
1249.000000	79.225682
1248.000000	79.170370
1247.000000	79.124927
1246.000000	79.080244
1245.000000	79.026016
1244.000000	78.967342
1243.000000	78.922658
1242.000000	78.876782
1241.000000	78.823096
1240.000000	78.768218
1239.000000	78.723534
1238.000000	78.680369
1237.000000	78.642627
1236.000000	78.602173
1235.000000	78.573432
1234.000000	78.532653
1233.000000	78.495128
1232.000000	78.456301
1231.000000	78.416606
1230.000000	78.358908
1229.000000	78.316068
1228.000000	78.291666
1227.000000	78.243295
1226.000000	78.188199
1225.000000	78.128766
1224.000000	78.089180
1223.000000	78.026276
1222.000000	77.989835
1221.000000	77.938644
1220.000000	77.878126
1219.000000	77.809474
1218.000000	77.756331
1217.000000	77.693427
1216.000000	77.617616
1215.000000	77.556773
1214.000000	77.494520
1213.000000	77.406671
1212.000000	77.308302
1211.000000	77.236939
1210.000000	77.148331
1209.000000	77.028813
1208.000000	76.940964
1207.000000	76.851706
1206.000000	76.736635
1205.000000	76.660390
1204.000000	76.566577
1203.000000	76.448035
1202.000000	76.355848
1201.000000	76.263336
1200.000000	76.153471
1199.000000	76.043063
1198.000000	75.936126
1197.000000	75.824634
1196.000000	75.693621
1195.000000	75.553605
1194.000000	75.412505
1193.000000	75.241688
1192.000000	75.112843
1191.000000	74.956450
1190.000000	74.825219
1189.000000	74.719692
1188.000000	74.630651
1187.000000	74.608526
1186.000000	74.597789
1185.000000	74.605164
1184.000000	74.665899
1183.000000	74.741058
1182.000000	74.852659
1181.000000	74.955149
1180.000000	75.082041
1179.000000	75.224009
1178.000000	75.348841
1177.000000	75.455561
1176.000000	75.564667
1175.000000	75.668784
1174.000000	75.765093
1173.000000	75.911941
1172.000000	76.014323
1171.000000	76.161171
1170.000000	76.285895
1169.000000	76.436105
1168.000000	76.600415
1167.000000	76.754421
1166.000000	76.915586
1165.000000	77.076533
1164.000000	77.241927
1163.000000	77.400923
1162.000000	77.567944
1161.000000	77.723903
1160.000000	77.887995
1159.000000	78.036037
1158.000000	78.161194
1157.000000	78.282989
1156.000000	78.394264
1155.000000	78.499032
1154.000000	78.578638
1153.000000	78.649026
1152.000000	78.692082
1151.000000	78.742297
1150.000000	78.780690
1149.000000	78.816372
1148.000000	78.868431
1147.000000	78.926780
1146.000000	78.966040
1145.000000	79.053889
1144.000000	79.116359
1143.000000	79.178070
1142.000000	79.271993
1141.000000	79.368192
1140.000000	79.475455
1139.000000	79.582608
1138.000000	79.695076
1137.000000	79.847348
1136.000000	80.017839
1135.000000	80.133778
1134.000000	80.260562
1133.000000	80.334854
1132.000000	80.367282
1131.000000	80.474761
1130.000000	80.583542
1129.000000	80.660979
1128.000000	80.702083
1127.000000	80.749587
1126.000000	80.798392
1125.000000	80.834182
1124.000000	80.875612
1123.000000	80.868237
1122.000000	80.879625
1121.000000	80.853161
1120.000000	80.836893
1119.000000	80.810647
1118.000000	80.806417
1117.000000	80.794704
1116.000000	80.756202
1115.000000	80.712387
1114.000000	80.677572
1113.000000	80.640264
1112.000000	80.620308
1111.000000	80.599702
1110.000000	80.575299
1109.000000	80.537774
1108.000000	80.492114
1107.000000	80.459577
1106.000000	80.420100
1105.000000	80.383767
1104.000000	80.355786
1103.000000	80.319019
1102.000000	80.296244
1101.000000	80.246897
1100.000000	80.214143
1099.000000	80.179221
1098.000000	80.141044
1097.000000	80.097771
1096.000000	80.067295
1095.000000	79.999076
1094.000000	79.965672
1093.000000	79.936715
1092.000000	79.886283
1091.000000	79.828043
1090.000000	79.791385
1089.000000	79.746484
1088.000000	79.688352
1087.000000	79.629136
1086.000000	79.584344
1085.000000	79.547469
1084.000000	79.514715
1083.000000	79.460488
1082.000000	79.417323
1081.000000	79.361360
1080.000000	79.307457
1079.000000	79.260496
1078.000000	79.193471
1077.000000	79.149764
1076.000000	79.117227
1075.000000	79.071784
1074.000000	79.020810
1073.000000	78.975151
1072.000000	78.917127
1071.000000	78.861273
1070.000000	78.816914
1069.000000	78.774183
1068.000000	78.726680
1067.000000	78.677549
1066.000000	78.620177
1065.000000	78.559875
1064.000000	78.509444
1063.000000	78.464218
1062.000000	78.427235
1061.000000	78.360969
1060.000000	78.308042
1059.000000	78.250236
1058.000000	78.189175
1057.000000	78.153168
1056.000000	78.110220
1055.000000	78.062825
1054.000000	78.007405
1053.000000	77.941681
1052.000000	77.886911
1051.000000	77.851988
1050.000000	77.795266
1049.000000	77.740822
1048.000000	77.696463
1047.000000	77.636271
1046.000000	77.573909
1045.000000	77.517295
1044.000000	77.470117
1043.000000	77.423915
1042.000000	77.378690
1041.000000	77.323377
1040.000000	77.275982
1039.000000	77.219477
1038.000000	77.144968
1037.000000	77.087487
1036.000000	77.035646
1035.000000	76.975453
1034.000000	76.905282
1033.000000	76.839450
1032.000000	76.783704
1031.000000	76.706701
1030.000000	76.651606
1029.000000	76.595100
1028.000000	76.521026
1027.000000	76.450313
1026.000000	76.385890
1025.000000	76.312575
1024.000000	76.257479
1023.000000	76.210084
1022.000000	76.144794
1021.000000	76.066273
1020.000000	75.984064
1019.000000	75.932005
1018.000000	75.887105
1017.000000	75.832552
1016.000000	75.773552
1015.000000	75.705008
1014.000000	75.643840
1013.000000	75.596011
1012.000000	75.556208
1011.000000	75.519984
1010.000000	75.484193
1009.000000	75.446885
1008.000000	75.406106
1007.000000	75.365760
1006.000000	75.312617
1005.000000	75.270320
1004.000000	75.234855
1003.000000	75.206657
1002.000000	75.174337
1001.000000	75.137787
1000.000000	75.104709
999.000000	75.063062
998.000000	75.024994
997.000000	74.990505
996.000000	74.942893
995.000000	74.924564
994.000000	74.904283
993.000000	74.869578
992.000000	74.835197
991.000000	74.827822
990.000000	74.803420
989.000000	74.775330
988.000000	74.771426
987.000000	74.761556
986.000000	74.731839
985.000000	74.721319
984.000000	74.718825
983.000000	74.720126
982.000000	74.733792
981.000000	74.720669
980.000000	74.699954
979.000000	74.710365
978.000000	74.739974
977.000000	74.733792
976.000000	74.751578
975.000000	74.748650
974.000000	74.757435
973.000000	74.753097
972.000000	74.798539
971.000000	74.793659
970.000000	74.822400
969.000000	74.826304
968.000000	74.846802
967.000000	74.871096
966.000000	74.888232
965.000000	74.922504
964.000000	74.925974
963.000000	74.955257
962.000000	74.968163
961.000000	74.991481
960.000000	75.033670
959.000000	75.059049
958.000000	75.111975
957.000000	75.132473
956.000000	75.146464
955.000000	75.185074
954.000000	75.253835
953.000000	75.249930
952.000000	75.293095
951.000000	75.312292
950.000000	75.326283
949.000000	75.362724
948.000000	75.401225
947.000000	75.421073
946.000000	75.482241
945.000000	75.499377
944.000000	75.490050
943.000000	75.526057
942.000000	75.574211
941.000000	75.583105
940.000000	75.631801
939.000000	75.640911
938.000000	75.687872
937.000000	75.719433
936.000000	75.734400
935.000000	75.769431
934.000000	75.818669
933.000000	75.813572
932.000000	75.811837
931.000000	75.896974
930.000000	75.918448
929.000000	75.937103
928.000000	75.984172
927.000000	76.003477
926.000000	76.014323
925.000000	76.045558
924.000000	76.068008
923.000000	76.135359
922.000000	76.138287
921.000000	76.177873
920.000000	76.198371
919.000000	76.243705
918.000000	76.267999
917.000000	76.303356
916.000000	76.327758
915.000000	76.430357
914.000000	76.430248
913.000000	76.437298
912.000000	76.469292
911.000000	76.506276
910.000000	76.610501
909.000000	76.603994
908.000000	76.638266
907.000000	76.649653
906.000000	76.692276
905.000000	76.703664
904.000000	76.766026
903.000000	76.789018
902.000000	76.824592
901.000000	76.865371
900.000000	76.879579
899.000000	76.880880
898.000000	76.907343
897.000000	76.867974
896.000000	76.862985
895.000000	76.859514
894.000000	76.856044
893.000000	76.863527
892.000000	76.815698
891.000000	76.808107
890.000000	76.776004
889.000000	76.711364
888.000000	76.605621
887.000000	76.549549
886.000000	76.511698
885.000000	76.457688
884.000000	76.364525
883.000000	76.222014
882.000000	76.157700
881.000000	76.040677
880.000000	75.898276
879.000000	75.832769
878.000000	75.717481
877.000000	75.618244
876.000000	75.466949
875.000000	75.352095
874.000000	75.195919
873.000000	75.114795
872.000000	75.000483
871.000000	74.846802
870.000000	74.737913
869.000000	74.567421
868.000000	74.460268
867.000000	74.325675
866.000000	74.206916
865.000000	74.054753
864.000000	73.910291
863.000000	73.739799
862.000000	73.595662
861.000000	73.395454
860.000000	73.185051
859.000000	72.974105
858.000000	73.933067
857.000000	74.174300
856.000000	74.003200
855.000000	73.621700
854.000000	74.206400
853.000000	73.731300
852.000000	73.897700
851.000000	73.840500
850.000000	74.156700
849.000000	73.957600
848.000000	74.021500
847.000000	73.629100
846.000000	73.790400
845.000000	74.090000
844.000000	73.987200
843.000000	73.787700
842.000000	73.699700
841.000000	73.658700
840.000000	73.514700
839.000000	73.567400
838.000000	73.428300
837.000000	73.308300
836.000000	73.123600
835.000000	73.230500
834.000000	73.227800
833.000000	73.149900
832.000000	73.012400
831.000000	72.968300
830.000000	72.613000
829.000000	72.544800
828.000000	72.485300
827.000000	72.374200
826.000000	72.443000
825.000000	72.232800
824.000000	72.095600
823.000000	72.000300
822.000000	71.852000
821.000000	71.691800
820.000000	71.345000
819.000000	71.184700
818.000000	71.183000
817.000000	71.057800
816.000000	70.775100
815.000000	70.767100
814.000000	70.578100
813.000000	70.328700
812.000000	70.168000
811.000000	70.021100
810.000000	69.884800
809.000000	69.671600
808.000000	69.509000
807.000000	69.298400
806.000000	69.235900
805.000000	69.145700
804.000000	68.960100
803.000000	68.841100
802.000000	68.692700
801.000000	68.647800
800.000000	68.552300
799.000000	68.418600
798.000000	68.352000
797.000000	68.303700
796.000000	68.255800
795.000000	68.019600
794.000000	67.845800
793.000000	67.813000
792.000000	67.754400
791.000000	67.584500
790.000000	67.530200
789.000000	67.486200
788.000000	67.384700
787.000000	67.237600
786.000000	67.170500
785.000000	67.043200
784.000000	67.075200
783.000000	66.957700
782.000000	66.835600
781.000000	66.738900
780.000000	66.674200
779.000000	66.529900
778.000000	66.523700
777.000000	66.442800
776.000000	66.276200
775.000000	66.174700
774.000000	66.040100
773.000000	65.974100
772.000000	65.916600
771.000000	65.744000
770.000000	65.569600
769.000000	65.537900
768.000000	65.456000
767.000000	65.324700
766.000000	65.219800
765.000000	65.096800
764.000000	64.988800
763.000000	64.845500
762.000000	64.747900
761.000000	64.697400
760.000000	64.580400
759.000000	64.444600
758.000000	64.367500
757.000000	64.270400
756.000000	64.128200
755.000000	64.072600
754.000000	63.981300
753.000000	63.868800
752.000000	63.766300
751.000000	63.658700
750.000000	63.569300
749.000000	63.458600
748.000000	63.317600
747.000000	63.173300
746.000000	63.075200
745.000000	62.955700
744.000000	62.834500
743.000000	62.777400
742.000000	62.669300
741.000000	62.539300
740.000000	62.449500
739.000000	62.391800
738.000000	62.335300
737.000000	62.182700
736.000000	62.079200
735.000000	61.991700
734.000000	61.928800
733.000000	61.832500
732.000000	61.772700
731.000000	61.651500
730.000000	61.520300
729.000000	61.541500
728.000000	61.467400
727.000000	61.323200
726.000000	61.256000
725.000000	61.189500
724.000000	61.131400
723.000000	60.985400
722.000000	60.883300
721.000000	60.877400
720.000000	60.861000
719.000000	60.835000
718.000000	60.731400
717.000000	60.668600
716.000000	60.625200
715.000000	60.505100
714.000000	60.488300
713.000000	60.475700
712.000000	60.422300
711.000000	60.318900
710.000000	60.227300
709.000000	60.152000
708.000000	60.035000
707.000000	59.944200
706.000000	59.845900
705.000000	59.755600
704.000000	59.634300
703.000000	59.521400
702.000000	59.384600
701.000000	59.289300
700.000000	59.133700
699.000000	58.950600
698.000000	58.776300
697.000000	58.617600
696.000000	58.454800
695.000000	58.244900
694.000000	58.061100
693.000000	57.860600
692.000000	57.616200
691.000000	57.386800
690.000000	57.160200
689.000000	56.956500
688.000000	56.769700
687.000000	56.508400
686.000000	56.204000
685.000000	55.971100
684.000000	55.700400
683.000000	55.399000
682.000000	55.136300
681.000000	54.945400
680.000000	54.705700
679.000000	54.454200
678.000000	54.173300
677.000000	53.975100
676.000000	53.762200
675.000000	53.632300
674.000000	53.496700
673.000000	53.359800
672.000000	53.261700
671.000000	53.172200
670.000000	53.051600
669.000000	52.983700
668.000000	52.918600
667.000000	52.831200
666.000000	52.770500
665.000000	52.681000
664.000000	52.605800
663.000000	52.581300
662.000000	52.532400
661.000000	52.444400
660.000000	52.364800
659.000000	52.394800
658.000000	52.440900
657.000000	52.420500
656.000000	52.466600
655.000000	52.528000
654.000000	52.536300
653.000000	52.578100
652.000000	52.616900
651.000000	52.618900
650.000000	52.636200
649.000000	52.578300
648.000000	52.486600
647.000000	52.358600
646.000000	52.235800
645.000000	52.026500
644.000000	51.785900
643.000000	51.493000
642.000000	51.164100
641.000000	50.813200
640.000000	50.447800
639.000000	50.125300
638.000000	49.750700
637.000000	49.502800
636.000000	49.226300
635.000000	48.942300
634.000000	48.707900
633.000000	48.532900
632.000000	48.409300
631.000000	48.257700
630.000000	48.118000
629.000000	48.054000
628.000000	47.962100
627.000000	47.866800
626.000000	47.819600
625.000000	47.808700
624.000000	47.802100
623.000000	47.840900
622.000000	47.869900
621.000000	48.024700
620.000000	48.213800
619.000000	48.469100
618.000000	48.775400
617.000000	49.176400
616.000000	49.662800
615.000000	50.257500
614.000000	50.898600
613.000000	51.659800
612.000000	52.443400
611.000000	53.287700
610.000000	54.192400
609.000000	55.059100
608.000000	56.016600
607.000000	56.885000
606.000000	57.710000
605.000000	58.465900
604.000000	59.146900
603.000000	59.745400
602.000000	60.285200
601.000000	60.758900
600.000000	61.118900
599.000000	61.505800
598.000000	61.824500
597.000000	62.160300
596.000000	62.465100
595.000000	62.849200
594.000000	63.170400
593.000000	63.524200
592.000000	63.938100
591.000000	64.366800
590.000000	64.807400
589.000000	65.273400
588.000000	65.729600
587.000000	66.195600
586.000000	66.587600
585.000000	66.967200
584.000000	67.308300
583.000000	67.559900
582.000000	67.788800
581.000000	67.985700
580.000000	68.090000
579.000000	68.155500
578.000000	68.158100
577.000000	68.111700
576.000000	68.020400
575.000000	67.974200
574.000000	67.910800
573.000000	67.876100
572.000000	67.848700
571.000000	67.873900
570.000000	67.905400
569.000000	68.001700
568.000000	68.113800
567.000000	68.218300
566.000000	68.319200
565.000000	68.393800
564.000000	68.422200
563.000000	68.487800
562.000000	68.435500
561.000000	68.385400
560.000000	68.290700
559.000000	68.067300
558.000000	67.906300
557.000000	67.690400
556.000000	67.443700
555.000000	67.164600
554.000000	66.879000
553.000000	66.618700
552.000000	66.325100
551.000000	66.007000
550.000000	65.678700
549.000000	65.406300
548.000000	65.037900
547.000000	64.584100
546.000000	64.147400
545.000000	63.640200
544.000000	62.985500
543.000000	62.347900
542.000000	61.601800
541.000000	60.812200
540.000000	59.955500
539.000000	59.089000
538.000000	58.184800
537.000000	57.272800
536.000000	56.347700
535.000000	55.368300
534.000000	54.419600
533.000000	53.405300
532.000000	52.435400
531.000000	51.419700
530.000000	50.416000
529.000000	49.382600
528.000000	48.334900
527.000000	47.278200
526.000000	46.244400
525.000000	45.203400
524.000000	44.155200
523.000000	43.111800
522.000000	42.066900
521.000000	41.071500
520.000000	40.085200
519.000000	39.155000
518.000000	38.269400
517.000000	37.417100
516.000000	36.605800
515.000000	35.802100
514.000000	35.036500
513.000000	34.302500
512.000000	33.594400
511.000000	32.913000
510.000000	32.233400
509.000000	31.588400
508.000000	30.968000
507.000000	30.341400
506.000000	29.713500
505.000000	29.110800
504.000000	28.481200
503.000000	27.840500
502.000000	27.221500
501.000000	26.641600
500.000000	26.065300
499.000000	25.517600
498.000000	25.004900
497.000000	24.521100
496.000000	24.080500
495.000000	23.681700
494.000000	23.333700
493.000000	23.013600
492.000000	22.738400
491.000000	22.510600
490.000000	22.317500
489.000000	22.157100
488.000000	22.039600
487.000000	21.943300
486.000000	21.866300
485.000000	21.800700
484.000000	21.743800
483.000000	21.695400
482.000000	21.631100
481.000000	21.578900
480.000000	21.520900
479.000000	21.464000
478.000000	21.398200
477.000000	21.341600
476.000000	21.273000
475.000000	21.200200
474.000000	21.125700
473.000000	21.051500
472.000000	20.973200
471.000000	20.881100
470.000000	20.784500
469.000000	20.695600
468.000000	20.594900
467.000000	20.487700
466.000000	20.364000
465.000000	20.230800
464.000000	20.084400
463.000000	19.947700
462.000000	19.809000
461.000000	19.643700
460.000000	19.485400
459.000000	19.319000
458.000000	19.141900
457.000000	18.986900
456.000000	18.813900
455.000000	18.619900
454.000000	18.433900
453.000000	18.238300
452.000000	18.042600
451.000000	17.837700
450.000000	17.624200
449.000000	17.416100
448.000000	17.182300
447.000000	16.936700
446.000000	16.681600
445.000000	16.409100
444.000000	16.135000
443.000000	15.855100
442.000000	15.564100
441.000000	15.272800
440.000000	14.992800
439.000000	14.706900
438.000000	14.415600
437.000000	14.116400
436.000000	13.815300
435.000000	13.517100
434.000000	13.227000
433.000000	12.933400
432.000000	12.627700
431.000000	12.322700
430.000000	12.015400
429.000000	11.714600
428.000000	11.412800
427.000000	11.122900
426.000000	10.829800
425.000000	10.542300
424.000000	10.272900
423.000000	10.001000
422.000000	9.723600
421.000000	9.458300
420.000000	9.205600
419.000000	8.960000
418.000000	8.745600
417.000000	8.528900
416.000000	8.321400
415.000000	8.120800
414.000000	7.916800
413.000000	7.732900
412.000000	7.557000
411.000000	7.388400
410.000000	7.244200
409.000000	7.119000
408.000000	6.988400
407.000000	6.870600
406.000000	6.765200
405.000000	6.666000
404.000000	6.575400
403.000000	6.487800
402.000000	6.416700
401.000000	6.346700
400.000000	6.292900
399.000000	6.229700
398.000000	6.171000
397.000000	6.105800
396.000000	6.069100
395.000000	6.045500
394.000000	6.008700
393.000000	5.985300
392.000000	5.959500
391.000000	5.933300
390.000000	5.898500
389.000000	5.881000
388.000000	5.855100
387.000000	5.838700
386.000000	5.816300
385.000000	5.792500
384.000000	5.778900
383.000000	5.767400
382.000000	5.736700
381.000000	5.724400
380.000000	5.716100
379.000000	5.700600
378.000000	5.689400
377.000000	5.665100
376.000000	5.605700
375.000000	5.495100
374.000000	5.491700
373.000000	5.507900
372.000000	5.524600
371.000000	5.491900
370.000000	5.440800
369.000000	5.509100
368.000000	5.559300
367.000000	5.606500
366.000000	5.557300
365.000000	5.552400
364.000000	5.526100
363.000000	5.540400
362.000000	5.500300
361.000000	5.515700
360.000000	5.561800
359.000000	5.543800
358.000000	5.455700
357.000000	5.426700
356.000000	5.424800
355.000000	5.418000
354.000000	5.510500
353.000000	5.549100
352.000000	5.535600
351.000000	5.492900
350.000000	5.359700
349.000000	5.346500
348.000000	5.424000
347.000000	5.528300
346.000000	5.475200
345.000000	5.482000
344.000000	5.487700
343.000000	5.434600
342.000000	5.469600
341.000000	5.591400
340.000000	5.685500
339.000000	5.560900
338.000000	5.522200
337.000000	5.443800
336.000000	5.549900
335.000000	5.594100
334.000000	5.647000
333.000000	5.481800
332.000000	5.480000
331.000000	5.592000
330.000000	5.572000
329.000000	5.791500
328.000000	5.563300
327.000000	5.476800
326.000000	5.410900
325.000000	5.539400
324.000000	5.643200
323.000000	5.579300
322.000000	5.490600
321.000000	5.660500
320.000000	5.753700
319.000000	5.758600
318.000000	5.995800
317.000000	5.930800
316.000000	5.579100
315.000000	5.603600
314.000000	5.637200
313.000000	5.595500
312.000000	5.563500
311.000000	5.608800
310.000000	5.630300
309.000000	5.582100
308.000000	5.691100
307.000000	5.622500
306.000000	5.558100
305.000000	5.583200
304.000000	5.600300
303.000000	5.677400
302.000000	5.689900
301.000000	5.627300
300.000000	5.623700
299.000000	5.645700
298.000000	5.714900
297.000000	5.668000
296.000000	5.642100
295.000000	5.685600
294.000000	5.698900
293.000000	5.705200
292.000000	5.704500
291.000000	5.729900
290.000000	5.691600
289.000000	5.723600
288.000000	5.746500
287.000000	5.730300
286.000000	5.686900
285.000000	5.759300
284.000000	5.801900
283.000000	5.734400
282.000000	5.763700
281.000000	5.761200
280.000000	5.784400
279.000000	5.792600
278.000000	5.787700
277.000000	5.841300
276.000000	5.854200
275.000000	5.855100
274.000000	5.853800
273.000000	5.890100
272.000000	5.946000
271.000000	5.937500
270.000000	5.937700
269.000000	5.942300
268.000000	5.955400
267.000000	5.988400
266.000000	5.977200
265.000000	5.996100
264.000000	6.027200
263.000000	6.124000
262.000000	6.122000
261.000000	6.120200
260.000000	6.154000
259.000000	6.233600
258.000000	6.216700
257.000000	6.226400
256.000000	6.240600
255.000000	6.269900
254.000000	6.277100
253.000000	6.289000
252.000000	6.288400
251.000000	6.325400
250.000000	6.339000
