PE UV       SUBTECH     SPECTRUM    ASCII       PEDS        4.00        
   -1
CICIMAUCR0240-1.ASC
24/06/20
15:47:24.00
24/06/20
15:47:24.00
Vinicio Soto Monge
C. resplendens. Sex M. Ventral 
250,000000
1
Lambda 1050
1050L1511233
PerkinElmer UV WinLab 6.3.2.0749 / 2.02.05 Lambda 900 UV/VIS/NIR, Aug  7 2015 09:38:08

0
0
3350/servo 860,8/2
0
0
UV/VIS
1
1
1
DoubleDePol,CommonBeamDepol,RBeamAtt,SBeamAtt,60mm sphere, WB InGaAs Detector
0
0
0
0
Program
Program
3350/servo 860,8/2
3350/0,2 860,8/0,2
3350/0,2 860,8/0,2
0
15.00
 
 
 
0
 
860,8
319,2
860,8
Front
100
on
S:100 R:100
0
0
0
0
 
0
 
 
 
0
 
 
0
0
0
0
0
 
 
 
 
0
0


0
0
#HDR
-1
-1
#GR
nm
%R
1.0
0.0
2500,000000
-1,000000
2251
8
61,039600
4,365700
#DATA
2482.000000	6.409548
2481.000000	6.437950
2480.000000	6.448086
2479.000000	6.389500
2478.000000	6.437393
2477.000000	6.347733
2476.000000	6.366110
2475.000000	6.454100
2474.000000	6.358759
2473.000000	6.350072
2472.000000	6.379476
2471.000000	6.426701
2470.000000	6.364774
2469.000000	6.324455
2468.000000	6.348067
2467.000000	6.373239
2466.000000	6.378362
2465.000000	6.387941
2464.000000	6.375800
2463.000000	6.378251
2462.000000	6.400304
2461.000000	6.370788
2460.000000	6.380033
2459.000000	6.459001
2458.000000	6.469582
2457.000000	6.447417
2456.000000	6.503664
2455.000000	6.485955
2454.000000	6.509344
2453.000000	6.515582
2452.000000	6.535518
2451.000000	6.580182
2450.000000	6.596554
2449.000000	6.612816
2448.000000	6.645561
2447.000000	6.662825
2446.000000	6.690447
2445.000000	6.704035
2444.000000	6.750481
2443.000000	6.765851
2442.000000	6.799822
2441.000000	6.863419
2440.000000	6.868097
2439.000000	6.879681
2438.000000	6.890373
2437.000000	6.953080
2436.000000	6.989946
2435.000000	7.011999
2434.000000	7.031379
2433.000000	7.054769
2432.000000	7.076599
2431.000000	7.097650
2430.000000	7.114580
2429.000000	7.152894
2428.000000	7.178846
2427.000000	7.188981
2426.000000	7.214487
2425.000000	7.251576
2424.000000	7.263605
2423.000000	7.271291
2422.000000	7.322414
2421.000000	7.313281
2420.000000	7.347585
2419.000000	7.357275
2418.000000	7.371086
2417.000000	7.404055
2416.000000	7.437357
2415.000000	7.438248
2414.000000	7.466984
2413.000000	7.470214
2412.000000	7.476117
2411.000000	7.492490
2410.000000	7.506301
2409.000000	7.530136
2408.000000	7.545618
2407.000000	7.561322
2406.000000	7.584935
2405.000000	7.607211
2404.000000	7.617458
2403.000000	7.621690
2402.000000	7.633274
2401.000000	7.649424
2400.000000	7.648867
2399.000000	7.673593
2398.000000	7.704445
2397.000000	7.727389
2396.000000	7.745544
2395.000000	7.773277
2394.000000	7.810144
2393.000000	7.823398
2392.000000	7.825292
2391.000000	7.830638
2390.000000	7.843224
2389.000000	7.866836
2388.000000	7.881093
2387.000000	7.896463
2386.000000	7.922860
2385.000000	7.941237
2384.000000	7.931213
2383.000000	7.930100
2382.000000	7.934221
2381.000000	7.938453
2380.000000	7.952598
2379.000000	7.949702
2378.000000	7.946806
2377.000000	7.957944
2376.000000	7.974651
2375.000000	7.972535
2374.000000	7.957610
2373.000000	7.969973
2372.000000	7.984898
2371.000000	7.973983
2370.000000	7.960840
2369.000000	7.958390
2368.000000	7.955271
2367.000000	7.955717
2366.000000	7.955383
2365.000000	7.940124
2364.000000	7.919964
2363.000000	7.910051
2362.000000	7.920521
2361.000000	7.901921
2360.000000	7.871180
2359.000000	7.866613
2358.000000	7.861044
2357.000000	7.847790
2356.000000	7.833534
2355.000000	7.835427
2354.000000	7.834202
2353.000000	7.817606
2352.000000	7.814376
2351.000000	7.815824
2350.000000	7.817829
2349.000000	7.821505
2348.000000	7.832865
2347.000000	7.853471
2346.000000	7.860710
2345.000000	7.868284
2344.000000	7.877974
2343.000000	7.904928
2342.000000	7.934443
2341.000000	7.942797
2340.000000	7.960729
2339.000000	7.975876
2338.000000	7.973203
2337.000000	7.986123
2336.000000	8.002273
2335.000000	8.014080
2334.000000	8.016307
2333.000000	8.013077
2332.000000	8.011629
2331.000000	8.017421
2330.000000	8.005726
2329.000000	8.003944
2328.000000	7.991915
2327.000000	7.973872
2326.000000	7.968637
2325.000000	7.958167
2324.000000	7.934443
2323.000000	7.926535
2322.000000	7.897688
2321.000000	7.871514
2320.000000	7.831863
2319.000000	7.799117
2318.000000	7.772386
2317.000000	7.752227
2316.000000	7.699656
2315.000000	7.655215
2314.000000	7.618126
2313.000000	7.593734
2312.000000	7.565555
2311.000000	7.521114
2310.000000	7.495052
2309.000000	7.468321
2308.000000	7.435909
2307.000000	7.424883
2306.000000	7.406394
2305.000000	7.395033
2304.000000	7.402161
2303.000000	7.392471
2302.000000	7.399711
2301.000000	7.427333
2300.000000	7.440364
2299.000000	7.459188
2298.000000	7.510533
2297.000000	7.522674
2296.000000	7.543836
2295.000000	7.571347
2294.000000	7.611109
2293.000000	7.650649
2292.000000	7.673481
2291.000000	7.698765
2290.000000	7.729505
2289.000000	7.741200
2288.000000	7.758687
2287.000000	7.759689
2286.000000	7.748997
2285.000000	7.754009
2284.000000	7.766260
2283.000000	7.748328
2282.000000	7.741534
2281.000000	7.728837
2280.000000	7.731622
2279.000000	7.713133
2278.000000	7.665239
2277.000000	7.659782
2276.000000	7.644968
2275.000000	7.661341
2274.000000	7.628930
2273.000000	7.603424
2272.000000	7.611443
2271.000000	7.605874
2270.000000	7.601976
2269.000000	7.631269
2268.000000	7.644189
2267.000000	7.639622
2266.000000	7.684619
2265.000000	7.711907
2264.000000	7.772386
2263.000000	7.819945
2262.000000	7.881872
2261.000000	7.945470
2260.000000	8.031789
2259.000000	8.108084
2258.000000	8.210664
2257.000000	8.311351
2256.000000	8.405021
2255.000000	8.520856
2254.000000	8.632903
2253.000000	8.733924
2252.000000	8.855105
2251.000000	8.993438
2250.000000	9.087665
2249.000000	9.170754
2248.000000	9.267766
2247.000000	9.388390
2246.000000	9.466801
2245.000000	9.540757
2244.000000	9.623177
2243.000000	9.697690
2242.000000	9.767748
2241.000000	9.851394
2240.000000	9.924347
2239.000000	9.959654
2238.000000	9.976027
2237.000000	10.058114
2236.000000	10.096317
2235.000000	10.146883
2234.000000	10.155571
2233.000000	10.191769
2232.000000	10.213933
2231.000000	10.229972
2230.000000	10.243115
2229.000000	10.253362
2228.000000	10.284102
2227.000000	10.262606
2226.000000	10.295909
2225.000000	10.285885
2224.000000	10.273967
2223.000000	10.265613
2222.000000	10.247236
2221.000000	10.237880
2220.000000	10.218834
2219.000000	10.200568
2218.000000	10.207808
2217.000000	10.176621
2216.000000	10.175953
2215.000000	10.136191
2214.000000	10.111464
2213.000000	10.089077
2212.000000	10.078830
2211.000000	10.059450
2210.000000	10.043523
2209.000000	10.010555
2208.000000	10.019799
2207.000000	9.985606
2206.000000	9.983935
2205.000000	9.966783
2204.000000	9.943950
2203.000000	9.945843
2202.000000	9.946846
2201.000000	9.936376
2200.000000	9.922899
2199.000000	9.910202
2198.000000	9.923790
2197.000000	9.917107
2196.000000	9.910759
2195.000000	9.890154
2194.000000	9.881912
2193.000000	9.879461
2192.000000	9.899398
2191.000000	9.865539
2190.000000	9.855292
2189.000000	9.868435
2188.000000	9.847718
2187.000000	9.856406
2186.000000	9.837694
2185.000000	9.833016
2184.000000	9.825442
2183.000000	9.835689
2182.000000	9.815529
2181.000000	9.815975
2180.000000	9.799491
2179.000000	9.789912
2178.000000	9.794033
2177.000000	9.792474
2176.000000	9.787016
2175.000000	9.764852
2174.000000	9.772871
2173.000000	9.771535
2172.000000	9.792474
2171.000000	9.793254
2170.000000	9.765186
2169.000000	9.777215
2168.000000	9.778217
2167.000000	9.811743
2166.000000	9.823883
2165.000000	9.807956
2164.000000	9.814304
2163.000000	9.842260
2162.000000	9.847273
2161.000000	9.833350
2160.000000	9.875117
2159.000000	9.891602
2158.000000	9.923122
2157.000000	9.937490
2156.000000	9.936710
2155.000000	9.963664
2154.000000	9.983712
2153.000000	10.020022
2152.000000	10.060675
2151.000000	10.074041
2150.000000	10.101663
2149.000000	10.122268
2148.000000	10.152563
2147.000000	10.195444
2146.000000	10.209256
2145.000000	10.227188
2144.000000	10.244674
2143.000000	10.290117
2142.000000	10.320746
2141.000000	10.339569
2140.000000	10.363739
2139.000000	10.399491
2138.000000	10.433685
2137.000000	10.438029
2136.000000	10.446939
2135.000000	10.470997
2134.000000	10.493384
2133.000000	10.506193
2132.000000	10.528357
2131.000000	10.544842
2130.000000	10.562551
2129.000000	10.558318
2128.000000	10.551302
2127.000000	10.587166
2126.000000	10.588614
2125.000000	10.605432
2124.000000	10.593292
2123.000000	10.586163
2122.000000	10.595742
2121.000000	10.589727
2120.000000	10.593069
2119.000000	10.602759
2118.000000	10.584938
2117.000000	10.573577
2116.000000	10.573466
2115.000000	10.549185
2114.000000	10.561660
2113.000000	10.551970
2112.000000	10.540721
2111.000000	10.536822
2110.000000	10.534706
2109.000000	10.529805
2108.000000	10.508086
2107.000000	10.490377
2106.000000	10.489040
2105.000000	10.472445
2104.000000	10.448387
2103.000000	10.435578
2102.000000	10.440368
2101.000000	10.443264
2100.000000	10.410184
2099.000000	10.382896
2098.000000	10.384455
2097.000000	10.366969
2096.000000	10.349371
2095.000000	10.345918
2094.000000	10.325647
2093.000000	10.320858
2092.000000	10.324088
2091.000000	10.318407
2090.000000	10.325536
2089.000000	10.316180
2088.000000	10.290006
2087.000000	10.276863
2086.000000	10.281875
2085.000000	10.277642
2084.000000	10.276751
2083.000000	10.262495
2082.000000	10.242112
2081.000000	10.225071
2080.000000	10.200011
2079.000000	10.186423
2078.000000	10.170050
2077.000000	10.144990
2076.000000	10.127726
2075.000000	10.095092
2074.000000	10.057111
2073.000000	10.044971
2072.000000	10.028041
2071.000000	9.989838
2070.000000	9.941277
2069.000000	9.920560
2068.000000	9.897171
2067.000000	9.863200
2066.000000	9.830343
2065.000000	9.800048
2064.000000	9.765743
2063.000000	9.738566
2062.000000	9.705264
2061.000000	9.671961
2060.000000	9.659041
2059.000000	9.642780
2058.000000	9.602015
2057.000000	9.592659
2056.000000	9.593216
2055.000000	9.574839
2054.000000	9.572054
2053.000000	9.576732
2052.000000	9.587870
2051.000000	9.610257
2050.000000	9.623289
2049.000000	9.636654
2048.000000	9.668620
2047.000000	9.709942
2046.000000	9.760508
2045.000000	9.795481
2044.000000	9.835132
2043.000000	9.880909
2042.000000	9.937935
2041.000000	9.978255
2040.000000	10.023586
2039.000000	10.069140
2038.000000	10.094758
2037.000000	10.135188
2036.000000	10.203798
2035.000000	10.234093
2034.000000	10.249909
2033.000000	10.308829
2032.000000	10.340460
2031.000000	10.355608
2030.000000	10.367414
2029.000000	10.393588
2028.000000	10.426891
2027.000000	10.442150
2026.000000	10.464871
2025.000000	10.475118
2024.000000	10.487370
2023.000000	10.487927
2022.000000	10.488706
2021.000000	10.503186
2020.000000	10.510759
2019.000000	10.522120
2018.000000	10.521118
2017.000000	10.519558
2016.000000	10.519781
2015.000000	10.513433
2014.000000	10.519336
2013.000000	10.508643
2012.000000	10.495278
2011.000000	10.492827
2010.000000	10.476343
2009.000000	10.452842
2008.000000	10.449501
2007.000000	10.444266
2006.000000	10.404726
2005.000000	10.401496
2004.000000	10.360843
2003.000000	10.342799
2002.000000	10.298025
2001.000000	10.277086
2000.000000	10.265836
1999.000000	10.237323
1998.000000	10.183972
1997.000000	10.156907
1996.000000	10.125275
1995.000000	10.085624
1994.000000	10.052099
1993.000000	10.019911
1992.000000	9.989950
1991.000000	9.948182
1990.000000	9.901960
1989.000000	9.855849
1988.000000	9.810072
1987.000000	9.784120
1986.000000	9.728097
1985.000000	9.694906
1984.000000	9.638436
1983.000000	9.593550
1982.000000	9.544098
1981.000000	9.489522
1980.000000	9.470810
1979.000000	9.432273
1978.000000	9.383823
1977.000000	9.356090
1976.000000	9.304744
1975.000000	9.249722
1974.000000	9.237582
1973.000000	9.183563
1972.000000	9.147253
1971.000000	9.110498
1970.000000	9.043670
1969.000000	9.022620
1968.000000	8.984305
1967.000000	8.947550
1966.000000	8.928950
1965.000000	8.880611
1964.000000	8.848311
1963.000000	8.834500
1962.000000	8.782152
1961.000000	8.738714
1960.000000	8.692269
1959.000000	8.680685
1958.000000	8.644153
1957.000000	8.598376
1956.000000	8.580110
1955.000000	8.527873
1954.000000	8.487219
1953.000000	8.467059
1952.000000	8.458706
1951.000000	8.423510
1950.000000	8.389428
1949.000000	8.380406
1948.000000	8.362920
1947.000000	8.336634
1946.000000	8.301104
1945.000000	8.274707
1944.000000	8.268916
1943.000000	8.254436
1942.000000	8.241850
1941.000000	8.205095
1940.000000	8.190839
1939.000000	8.195739
1938.000000	8.173686
1937.000000	8.188945
1936.000000	8.184713
1935.000000	8.181928
1934.000000	8.178030
1933.000000	8.205429
1932.000000	8.217458
1931.000000	8.208325
1930.000000	8.241962
1929.000000	8.275041
1928.000000	8.282281
1927.000000	8.321821
1926.000000	8.362920
1925.000000	8.399898
1924.000000	8.430416
1923.000000	8.475636
1922.000000	8.506376
1921.000000	8.562289
1920.000000	8.639141
1919.000000	8.690041
1918.000000	8.745508
1917.000000	8.821803
1916.000000	8.898432
1915.000000	8.991322
1914.000000	9.056368
1913.000000	9.121525
1912.000000	9.249165
1911.000000	9.352748
1910.000000	9.459115
1909.000000	9.573725
1908.000000	9.654475
1907.000000	9.772314
1906.000000	9.894275
1905.000000	10.033053
1904.000000	10.188984
1903.000000	10.334446
1902.000000	10.488818
1901.000000	10.686627
1900.000000	10.837435
1899.000000	11.017536
1898.000000	11.232275
1897.000000	11.429194
1896.000000	11.619318
1895.000000	11.846644
1894.000000	12.055034
1893.000000	12.286481
1892.000000	12.524944
1891.000000	12.796821
1890.000000	13.084180
1889.000000	13.376773
1888.000000	13.665023
1887.000000	14.005398
1886.000000	14.302336
1885.000000	14.617428
1884.000000	14.991440
1883.000000	15.398977
1882.000000	15.825226
1881.000000	16.181751
1880.000000	16.595414
1879.000000	16.977000
1878.000000	17.339317
1877.000000	17.742176
1876.000000	18.128551
1875.000000	18.472491
1874.000000	18.839709
1873.000000	19.199909
1872.000000	19.554653
1871.000000	19.916079
1870.000000	20.252667
1869.000000	20.558292
1868.000000	20.869041
1867.000000	21.148826
1866.000000	21.381274
1865.000000	21.574406
1864.000000	21.763528
1863.000000	21.949532
1862.000000	22.095105
1861.000000	22.248140
1860.000000	22.418105
1859.000000	22.589740
1858.000000	22.716824
1857.000000	22.837559
1856.000000	22.950387
1855.000000	23.030803
1854.000000	23.100415
1853.000000	23.176487
1852.000000	23.237077
1851.000000	23.269600
1850.000000	23.295663
1849.000000	23.317493
1848.000000	23.336985
1847.000000	23.374408
1846.000000	23.408045
1845.000000	23.404592
1844.000000	23.364495
1843.000000	23.333309
1842.000000	23.340549
1841.000000	23.365498
1840.000000	23.370510
1839.000000	23.363716
1838.000000	23.354360
1837.000000	23.314486
1836.000000	23.305019
1835.000000	23.283411
1834.000000	23.246322
1833.000000	23.209344
1832.000000	23.142293
1831.000000	23.095069
1830.000000	23.061878
1829.000000	23.026793
1828.000000	23.007079
1827.000000	22.952726
1826.000000	22.878102
1825.000000	22.856383
1824.000000	22.817845
1823.000000	22.763492
1822.000000	22.745672
1821.000000	22.720166
1820.000000	22.706243
1819.000000	22.687309
1818.000000	22.646989
1817.000000	22.617251
1816.000000	22.612685
1815.000000	22.618142
1814.000000	22.614801
1813.000000	22.578825
1812.000000	22.548864
1811.000000	22.518903
1810.000000	22.496627
1809.000000	22.471456
1808.000000	22.431025
1807.000000	22.393601
1806.000000	22.366648
1805.000000	22.344594
1804.000000	22.291689
1803.000000	22.246915
1802.000000	22.209157
1801.000000	22.169283
1800.000000	22.135758
1799.000000	22.085303
1798.000000	22.030059
1797.000000	21.985841
1796.000000	21.942626
1795.000000	21.908767
1794.000000	21.880477
1793.000000	21.836705
1792.000000	21.794492
1791.000000	21.750720
1790.000000	21.711291
1789.000000	21.680773
1788.000000	21.630764
1787.000000	21.586212
1786.000000	21.556920
1785.000000	21.514595
1784.000000	21.475501
1783.000000	21.415690
1782.000000	21.357885
1781.000000	21.324805
1780.000000	21.262878
1779.000000	21.200394
1778.000000	21.151721
1777.000000	21.097480
1776.000000	21.031432
1775.000000	20.963490
1774.000000	20.893433
1773.000000	20.827385
1772.000000	20.755545
1771.000000	20.680587
1770.000000	20.601619
1769.000000	20.510733
1768.000000	20.433324
1767.000000	20.359257
1766.000000	20.285413
1765.000000	20.227941
1764.000000	20.169467
1763.000000	20.129370
1762.000000	20.125695
1761.000000	20.125695
1760.000000	20.128256
1759.000000	20.169801
1758.000000	20.215466
1757.000000	20.257011
1756.000000	20.307689
1755.000000	20.357030
1754.000000	20.398574
1753.000000	20.433547
1752.000000	20.462506
1751.000000	20.488457
1750.000000	20.498593
1749.000000	20.489237
1748.000000	20.464622
1747.000000	20.437780
1746.000000	20.392114
1745.000000	20.337650
1744.000000	20.268372
1743.000000	20.186619
1742.000000	20.099855
1741.000000	19.979454
1740.000000	19.850699
1739.000000	19.711698
1738.000000	19.570580
1737.000000	19.435143
1736.000000	19.301042
1735.000000	19.205367
1734.000000	19.126845
1733.000000	19.061465
1732.000000	19.026826
1731.000000	19.025601
1730.000000	19.040191
1729.000000	19.074719
1728.000000	19.129183
1727.000000	19.190665
1726.000000	19.258272
1725.000000	19.310955
1724.000000	19.360630
1723.000000	19.432358
1722.000000	19.459646
1721.000000	19.527810
1720.000000	19.586619
1719.000000	19.619810
1718.000000	19.694100
1717.000000	19.761484
1716.000000	19.850699
1715.000000	19.935570
1714.000000	20.021889
1713.000000	20.107874
1712.000000	20.185283
1711.000000	20.258125
1710.000000	20.318047
1709.000000	20.362710
1708.000000	20.407150
1707.000000	20.425751
1706.000000	20.419291
1705.000000	20.419625
1704.000000	20.385877
1703.000000	20.350792
1702.000000	20.297776
1701.000000	20.233510
1700.000000	20.144184
1699.000000	20.060315
1698.000000	19.953168
1697.000000	19.862505
1696.000000	19.784985
1695.000000	19.714482
1694.000000	19.680511
1693.000000	19.652555
1692.000000	19.692540
1691.000000	19.759591
1690.000000	19.862171
1689.000000	19.948490
1688.000000	20.032582
1687.000000	20.122019
1686.000000	20.216357
1685.000000	20.270376
1684.000000	20.354022
1683.000000	20.476651
1682.000000	20.606074
1681.000000	20.807002
1680.000000	21.090463
1679.000000	21.412015
1678.000000	21.784913
1677.000000	22.157588
1676.000000	22.532714
1675.000000	22.916193
1674.000000	23.226051
1673.000000	23.507284
1672.000000	23.804889
1671.000000	24.050481
1670.000000	24.251966
1669.000000	24.431175
1668.000000	24.577973
1667.000000	24.791042
1666.000000	24.904538
1665.000000	25.027723
1664.000000	25.136764
1663.000000	25.220521
1662.000000	25.326666
1661.000000	25.397057
1660.000000	25.458205
1659.000000	25.519575
1658.000000	25.545526
1657.000000	25.611574
1656.000000	25.662474
1655.000000	25.646770
1654.000000	25.655569
1653.000000	25.673390
1652.000000	25.680518
1651.000000	25.675951
1650.000000	25.663700
1649.000000	25.623380
1648.000000	25.602998
1647.000000	25.571589
1646.000000	25.526257
1645.000000	25.497744
1644.000000	25.425236
1643.000000	25.411759
1642.000000	25.336578
1641.000000	25.302051
1640.000000	25.265518
1639.000000	25.221746
1638.000000	25.151020
1637.000000	25.100565
1636.000000	25.035854
1635.000000	24.995757
1634.000000	24.905429
1633.000000	24.860877
1632.000000	24.812093
1631.000000	24.744263
1630.000000	24.662510
1629.000000	24.600695
1628.000000	24.535427
1627.000000	24.437970
1626.000000	24.375709
1625.000000	24.302755
1624.000000	24.249182
1623.000000	24.166427
1622.000000	24.093139
1621.000000	24.019072
1620.000000	23.950239
1619.000000	23.880961
1618.000000	23.827054
1617.000000	23.740178
1616.000000	23.689500
1615.000000	23.627796
1614.000000	23.568654
1613.000000	23.481221
1612.000000	23.443463
1611.000000	23.370955
1610.000000	23.293769
1609.000000	23.242423
1608.000000	23.175039
1607.000000	23.086158
1606.000000	23.022895
1605.000000	22.952949
1604.000000	22.884005
1603.000000	22.819071
1602.000000	22.753245
1601.000000	22.685193
1600.000000	22.613019
1599.000000	22.534273
1598.000000	22.477804
1597.000000	22.394492
1596.000000	22.303941
1595.000000	22.245467
1594.000000	22.188663
1593.000000	22.125623
1592.000000	22.069822
1591.000000	21.997982
1590.000000	21.943851
1589.000000	21.895736
1588.000000	21.845058
1587.000000	21.772550
1586.000000	21.732788
1585.000000	21.689350
1584.000000	21.628536
1583.000000	21.564716
1582.000000	21.519496
1581.000000	21.469821
1580.000000	21.436184
1579.000000	21.379269
1578.000000	21.347526
1577.000000	21.308655
1576.000000	21.284151
1575.000000	21.254970
1574.000000	21.233585
1573.000000	21.214205
1572.000000	21.182573
1571.000000	21.175334
1570.000000	21.155397
1569.000000	21.140027
1568.000000	21.103049
1567.000000	21.105833
1566.000000	21.121092
1565.000000	21.111959
1564.000000	21.087790
1563.000000	21.083223
1562.000000	21.081664
1561.000000	21.072085
1560.000000	21.050032
1559.000000	21.011718
1558.000000	20.997127
1557.000000	20.993785
1556.000000	20.960149
1555.000000	20.916154
1554.000000	20.881961
1553.000000	20.853782
1552.000000	20.811792
1551.000000	20.768354
1550.000000	20.740063
1549.000000	20.695957
1548.000000	20.658979
1547.000000	20.600059
1546.000000	20.552946
1545.000000	20.518196
1544.000000	20.476762
1543.000000	20.441678
1542.000000	20.421741
1541.000000	20.379194
1540.000000	20.344555
1539.000000	20.314928
1538.000000	20.291316
1537.000000	20.256009
1536.000000	20.220367
1535.000000	20.184392
1534.000000	20.146634
1533.000000	20.110770
1532.000000	20.085153
1531.000000	20.050291
1530.000000	20.000170
1529.000000	19.953948
1528.000000	19.910844
1527.000000	19.872752
1526.000000	19.824970
1525.000000	19.776854
1524.000000	19.717712
1523.000000	19.663693
1522.000000	19.637185
1521.000000	19.598870
1520.000000	19.540285
1519.000000	19.477021
1518.000000	19.420663
1517.000000	19.374886
1516.000000	19.314742
1515.000000	19.250253
1514.000000	19.205924
1513.000000	19.150457
1512.000000	19.086414
1511.000000	19.042642
1510.000000	18.972027
1509.000000	18.903974
1508.000000	18.849176
1507.000000	18.799389
1506.000000	18.744702
1505.000000	18.680325
1504.000000	18.624412
1503.000000	18.566049
1502.000000	18.503788
1501.000000	18.454225
1500.000000	18.402879
1499.000000	18.335828
1498.000000	18.296177
1497.000000	18.258531
1496.000000	18.207519
1495.000000	18.167200
1494.000000	18.119195
1493.000000	18.071079
1492.000000	18.041898
1491.000000	18.004586
1490.000000	17.970949
1489.000000	17.935085
1488.000000	17.912364
1487.000000	17.883517
1486.000000	17.860238
1485.000000	17.824151
1484.000000	17.790403
1483.000000	17.757101
1482.000000	17.735493
1481.000000	17.713106
1480.000000	17.695397
1479.000000	17.689494
1478.000000	17.674569
1477.000000	17.667329
1476.000000	17.655857
1475.000000	17.641823
1474.000000	17.618434
1473.000000	17.620216
1472.000000	17.627010
1471.000000	17.636923
1470.000000	17.647615
1469.000000	17.646835
1468.000000	17.624894
1467.000000	17.624560
1466.000000	17.648506
1465.000000	17.676017
1464.000000	17.671896
1463.000000	17.690385
1462.000000	17.717339
1461.000000	17.727697
1460.000000	17.763672
1459.000000	17.800650
1458.000000	17.824820
1457.000000	17.871265
1456.000000	17.905124
1455.000000	17.942993
1454.000000	17.999017
1453.000000	18.043123
1452.000000	18.088343
1451.000000	18.150493
1450.000000	18.208076
1449.000000	18.267107
1448.000000	18.335717
1447.000000	18.386840
1446.000000	18.439077
1445.000000	18.509691
1444.000000	18.572398
1443.000000	18.656489
1442.000000	18.731114
1441.000000	18.800280
1440.000000	18.882033
1439.000000	18.961223
1438.000000	19.035848
1437.000000	19.134641
1436.000000	19.237890
1435.000000	19.308059
1434.000000	19.415317
1433.000000	19.523689
1432.000000	19.627940
1431.000000	19.757920
1430.000000	19.867183
1429.000000	19.981236
1428.000000	20.123133
1427.000000	20.280623
1426.000000	20.416061
1425.000000	20.558626
1424.000000	20.723802
1423.000000	20.924842
1422.000000	21.097480
1421.000000	21.285265
1420.000000	21.475167
1419.000000	21.684449
1418.000000	21.927145
1417.000000	22.141438
1416.000000	22.341030
1415.000000	22.580273
1414.000000	22.860838
1413.000000	23.151872
1412.000000	23.424752
1411.000000	23.675912
1410.000000	23.991672
1409.000000	24.341181
1408.000000	24.702718
1407.000000	25.074614
1406.000000	25.453193
1405.000000	25.824977
1404.000000	26.268712
1403.000000	26.672685
1402.000000	27.046252
1401.000000	27.449556
1400.000000	27.932497
1399.000000	28.406416
1398.000000	28.806603
1397.000000	29.084271
1396.000000	29.506399
1395.000000	30.019078
1394.000000	30.471835
1393.000000	30.861440
1392.000000	31.224649
1391.000000	31.728417
1390.000000	32.181175
1389.000000	32.636939
1388.000000	33.104955
1387.000000	33.738258
1386.000000	34.303174
1385.000000	34.892705
1384.000000	35.494265
1383.000000	36.114982
1382.000000	36.752629
1381.000000	37.385932
1380.000000	37.948175
1379.000000	38.278749
1378.000000	38.673701
1377.000000	38.985897
1376.000000	39.241735
1375.000000	39.532213
1374.000000	39.811329
1373.000000	40.099022
1372.000000	40.405873
1371.000000	40.786456
1370.000000	41.163252
1369.000000	41.506746
1368.000000	41.817717
1367.000000	42.147957
1366.000000	42.455141
1365.000000	42.711982
1364.000000	42.967152
1363.000000	43.200158
1362.000000	43.411111
1361.000000	43.627409
1360.000000	43.840255
1359.000000	44.006656
1358.000000	44.092975
1357.000000	44.217052
1356.000000	44.382116
1355.000000	44.586163
1354.000000	44.925424
1353.000000	45.304003
1352.000000	45.620654
1351.000000	46.103818
1350.000000	46.559471
1349.000000	47.031942
1348.000000	47.461755
1347.000000	47.881099
1346.000000	48.291754
1345.000000	48.661088
1344.000000	49.039556
1343.000000	49.457562
1342.000000	49.796824
1341.000000	50.147892
1340.000000	50.520121
1339.000000	50.884777
1338.000000	51.239632
1337.000000	51.578782
1336.000000	51.919715
1335.000000	52.261538
1334.000000	52.612606
1333.000000	52.927698
1332.000000	53.256824
1331.000000	53.598090
1330.000000	53.902824
1329.000000	54.194193
1328.000000	54.501934
1327.000000	54.794973
1326.000000	55.066850
1325.000000	55.333492
1324.000000	55.592561
1323.000000	55.849847
1322.000000	56.109584
1321.000000	56.344928
1320.000000	56.574815
1319.000000	56.798799
1318.000000	57.034478
1317.000000	57.220036
1316.000000	57.405483
1315.000000	57.596721
1314.000000	57.807228
1313.000000	57.995125
1312.000000	58.140252
1311.000000	58.318459
1310.000000	58.478623
1309.000000	58.619963
1308.000000	58.763420
1307.000000	58.874799
1306.000000	58.997094
1305.000000	59.116047
1304.000000	59.235000
1303.000000	59.334907
1302.000000	59.405188
1301.000000	59.462882
1300.000000	59.529264
1299.000000	59.611685
1298.000000	59.659912
1297.000000	59.711147
1296.000000	59.754362
1295.000000	59.796129
1294.000000	59.825979
1293.000000	59.867523
1292.000000	59.886012
1291.000000	59.894254
1290.000000	59.906729
1289.000000	59.923659
1288.000000	59.909068
1287.000000	59.911741
1286.000000	59.878661
1285.000000	59.841349
1284.000000	59.817403
1283.000000	59.779868
1282.000000	59.730527
1281.000000	59.680517
1280.000000	59.637414
1279.000000	59.592862
1278.000000	59.530489
1277.000000	59.480369
1276.000000	59.449739
1275.000000	59.412539
1274.000000	59.378679
1273.000000	59.335910
1272.000000	59.309958
1271.000000	59.284118
1270.000000	59.258835
1269.000000	59.238007
1268.000000	59.215731
1267.000000	59.186550
1266.000000	59.152802
1265.000000	59.126516
1264.000000	59.091989
1263.000000	59.033292
1262.000000	58.983951
1261.000000	58.957443
1260.000000	58.919128
1259.000000	58.868339
1258.000000	58.801177
1257.000000	58.733570
1256.000000	58.671755
1255.000000	58.624418
1254.000000	58.548680
1253.000000	58.449553
1252.000000	58.368357
1251.000000	58.298968
1250.000000	58.188034
1249.000000	58.089240
1248.000000	57.994234
1247.000000	57.872830
1246.000000	57.758889
1245.000000	57.638043
1244.000000	57.516082
1243.000000	57.380534
1242.000000	57.234404
1241.000000	57.103979
1240.000000	56.971994
1239.000000	56.833215
1238.000000	56.685638
1237.000000	56.536946
1236.000000	56.405964
1235.000000	56.258943
1234.000000	56.099448
1233.000000	55.952427
1232.000000	55.792375
1231.000000	55.627200
1230.000000	55.468150
1229.000000	55.284374
1228.000000	55.099261
1227.000000	54.930299
1226.000000	54.736499
1225.000000	54.538800
1224.000000	54.345223
1223.000000	54.149418
1222.000000	53.947042
1221.000000	53.740433
1220.000000	53.538614
1219.000000	53.336794
1218.000000	53.145444
1217.000000	52.952424
1216.000000	52.769762
1215.000000	52.582867
1214.000000	52.403658
1213.000000	52.232579
1212.000000	52.047244
1211.000000	51.887526
1210.000000	51.720902
1209.000000	51.555950
1208.000000	51.405253
1207.000000	51.251438
1206.000000	51.119677
1205.000000	50.990254
1204.000000	50.858715
1203.000000	50.767829
1202.000000	50.703229
1201.000000	50.635956
1200.000000	50.557990
1199.000000	50.469332
1198.000000	50.379895
1197.000000	50.266176
1196.000000	50.119601
1195.000000	49.948300
1194.000000	49.740911
1193.000000	49.501891
1192.000000	49.199942
1191.000000	48.865247
1190.000000	48.505269
1189.000000	48.129586
1188.000000	47.793889
1187.000000	47.507866
1186.000000	47.319190
1185.000000	47.206251
1184.000000	47.230532
1183.000000	47.350487
1182.000000	47.578481
1181.000000	47.918299
1180.000000	48.322495
1179.000000	48.757209
1178.000000	49.195598
1177.000000	49.634655
1176.000000	50.025597
1175.000000	50.383904
1174.000000	50.700333
1173.000000	50.988360
1172.000000	51.289976
1171.000000	51.598385
1170.000000	51.909690
1169.000000	52.233136
1168.000000	52.564712
1167.000000	52.896289
1166.000000	53.227754
1165.000000	53.589291
1164.000000	53.974775
1163.000000	54.321722
1162.000000	54.708765
1161.000000	55.109620
1160.000000	55.495772
1159.000000	55.891503
1158.000000	56.281553
1157.000000	56.642868
1156.000000	56.989815
1155.000000	57.329856
1154.000000	57.639268
1153.000000	57.918050
1152.000000	58.139138
1151.000000	58.333050
1150.000000	58.502012
1149.000000	58.677212
1148.000000	58.831584
1147.000000	58.999544
1146.000000	59.175078
1145.000000	59.407861
1144.000000	59.687089
1143.000000	60.025793
1142.000000	60.377641
1141.000000	60.769251
1140.000000	61.194052
1139.000000	61.654048
1138.000000	62.122844
1137.000000	62.599325
1136.000000	63.091288
1135.000000	63.632814
1134.000000	64.199958
1133.000000	64.742598
1132.000000	65.202706
1131.000000	65.611691
1130.000000	66.007979
1129.000000	66.362054
1128.000000	66.676701
1127.000000	66.954815
1126.000000	67.155855
1125.000000	67.338517
1124.000000	67.463596
1123.000000	67.597697
1122.000000	67.725449
1121.000000	67.799071
1120.000000	67.836160
1119.000000	67.881826
1118.000000	67.916242
1117.000000	67.943753
1116.000000	67.954000
1115.000000	67.961016
1114.000000	67.985520
1113.000000	67.944310
1112.000000	67.935622
1111.000000	67.925598
1110.000000	67.898533
1109.000000	67.882940
1108.000000	67.861109
1107.000000	67.837831
1106.000000	67.811880
1105.000000	67.795395
1104.000000	67.751735
1103.000000	67.745609
1102.000000	67.729793
1101.000000	67.711415
1100.000000	67.684907
1099.000000	67.645701
1098.000000	67.619639
1097.000000	67.587227
1096.000000	67.553145
1095.000000	67.506477
1094.000000	67.454909
1093.000000	67.415146
1092.000000	67.364914
1091.000000	67.337626
1090.000000	67.267123
1089.000000	67.178911
1088.000000	67.122775
1087.000000	67.072766
1086.000000	66.997808
1085.000000	66.905029
1084.000000	66.863373
1083.000000	66.785741
1082.000000	66.695970
1081.000000	66.621902
1080.000000	66.534692
1079.000000	66.470538
1078.000000	66.376645
1077.000000	66.306253
1076.000000	66.198995
1075.000000	66.127601
1074.000000	66.025466
1073.000000	65.964096
1072.000000	65.869646
1071.000000	65.770518
1070.000000	65.697231
1069.000000	65.593537
1068.000000	65.509222
1067.000000	65.402855
1066.000000	65.312749
1065.000000	65.212396
1064.000000	65.098233
1063.000000	65.030625
1062.000000	64.919580
1061.000000	64.823905
1060.000000	64.723775
1059.000000	64.608609
1058.000000	64.503578
1057.000000	64.391308
1056.000000	64.281710
1055.000000	64.180801
1054.000000	64.061513
1053.000000	63.966730
1052.000000	63.850227
1051.000000	63.744305
1050.000000	63.642170
1049.000000	63.543043
1048.000000	63.460065
1047.000000	63.337548
1046.000000	63.249669
1045.000000	63.167026
1044.000000	63.054533
1043.000000	62.963758
1042.000000	62.858282
1041.000000	62.750801
1040.000000	62.676845
1039.000000	62.560565
1038.000000	62.460769
1037.000000	62.369661
1036.000000	62.262403
1035.000000	62.127856
1034.000000	62.001663
1033.000000	61.914565
1032.000000	61.810648
1031.000000	61.708958
1030.000000	61.588557
1029.000000	61.452340
1028.000000	61.330269
1027.000000	61.227688
1026.000000	61.096038
1025.000000	60.969956
1024.000000	60.835967
1023.000000	60.720801
1022.000000	60.586589
1021.000000	60.467970
1020.000000	60.328411
1019.000000	60.200548
1018.000000	60.065445
1017.000000	59.963310
1016.000000	59.862957
1015.000000	59.751689
1014.000000	59.659690
1013.000000	59.535836
1012.000000	59.429468
1011.000000	59.360413
1010.000000	59.284675
1009.000000	59.214283
1008.000000	59.136875
1007.000000	59.068822
1006.000000	58.999210
1005.000000	58.920353
1004.000000	58.865555
1003.000000	58.821003
1002.000000	58.747938
1001.000000	58.657387
1000.000000	58.578084
999.000000	58.522506
998.000000	58.465591
997.000000	58.379606
996.000000	58.315229
995.000000	58.243501
994.000000	58.189482
993.000000	58.136688
992.000000	58.060616
991.000000	57.991227
990.000000	57.948457
989.000000	57.878177
988.000000	57.827388
987.000000	57.769916
986.000000	57.721800
985.000000	57.661321
984.000000	57.600062
983.000000	57.561748
982.000000	57.539472
981.000000	57.492358
980.000000	57.428538
979.000000	57.394679
978.000000	57.352466
977.000000	57.300675
976.000000	57.268486
975.000000	57.222486
974.000000	57.183392
973.000000	57.147528
972.000000	57.110327
971.000000	57.049514
970.000000	57.004851
969.000000	56.976338
968.000000	56.928333
967.000000	56.877767
966.000000	56.848586
965.000000	56.814949
964.000000	56.765831
963.000000	56.746896
962.000000	56.723284
961.000000	56.691207
960.000000	56.652112
959.000000	56.623488
958.000000	56.613130
957.000000	56.592302
956.000000	56.570026
955.000000	56.549198
954.000000	56.513000
953.000000	56.494733
952.000000	56.486269
951.000000	56.478361
950.000000	56.438041
949.000000	56.392153
948.000000	56.356512
947.000000	56.314856
946.000000	56.291355
945.000000	56.246692
944.000000	56.185878
943.000000	56.153356
942.000000	56.087196
941.000000	56.006558
940.000000	55.940844
939.000000	55.870898
938.000000	55.815208
937.000000	55.752279
936.000000	55.672420
935.000000	55.608599
934.000000	55.564270
933.000000	55.487753
932.000000	55.400765
931.000000	55.323468
930.000000	55.246839
929.000000	55.176447
928.000000	55.092579
927.000000	55.002361
926.000000	54.916154
925.000000	54.837186
924.000000	54.748750
923.000000	54.635923
922.000000	54.541696
921.000000	54.454375
920.000000	54.362264
919.000000	54.287751
918.000000	54.211456
917.000000	54.102750
916.000000	53.993598
915.000000	53.880326
914.000000	53.765716
913.000000	53.698332
912.000000	53.603325
911.000000	53.490943
910.000000	53.389143
909.000000	53.280102
908.000000	53.184205
907.000000	53.094210
906.000000	53.044535
905.000000	52.960889
904.000000	52.882701
903.000000	52.797941
902.000000	52.721646
901.000000	52.671303
900.000000	52.617952
899.000000	52.579415
898.000000	52.508355
897.000000	52.440636
896.000000	52.375590
895.000000	52.314332
894.000000	52.242937
893.000000	52.162633
892.000000	52.054818
891.000000	51.983424
890.000000	51.920494
889.000000	51.826267
888.000000	51.736496
887.000000	51.624671
886.000000	51.517858
885.000000	51.410934
884.000000	51.272712
883.000000	51.152868
882.000000	51.043493
881.000000	50.910840
880.000000	50.778299
879.000000	50.648319
878.000000	50.483923
877.000000	50.327101
876.000000	50.139204
875.000000	49.908649
874.000000	49.690345
873.000000	49.451771
872.000000	49.169312
871.000000	48.967159
870.000000	48.906457
869.000000	48.899440
868.000000	48.894540
867.000000	48.904230
866.000000	48.880283
865.000000	48.855668
864.000000	48.869591
863.000000	48.865024
862.000000	48.856448
861.000000	48.837847
860.000000	48.840298
859.000000	48.828492
858.000000	48.818133
857.000000	48.396100
856.000000	48.999100
855.000000	49.059200
854.000000	49.204200
853.000000	49.448600
852.000000	49.444800
851.000000	49.514500
850.000000	49.347100
849.000000	49.443700
848.000000	49.218400
847.000000	49.396800
846.000000	49.520500
845.000000	49.676200
844.000000	49.869400
843.000000	49.969900
842.000000	49.725400
841.000000	49.639400
840.000000	49.687200
839.000000	49.223800
838.000000	49.596500
837.000000	49.546300
836.000000	49.433100
835.000000	49.545100
834.000000	49.575400
833.000000	49.460100
832.000000	49.442700
831.000000	49.486200
830.000000	49.517800
829.000000	49.363300
828.000000	49.627300
827.000000	49.511900
826.000000	49.505700
825.000000	49.729400
824.000000	49.568700
823.000000	49.514100
822.000000	49.335300
821.000000	49.354800
820.000000	49.495000
819.000000	49.367800
818.000000	49.274000
817.000000	49.416800
816.000000	49.378000
815.000000	49.251600
814.000000	49.130200
813.000000	49.254400
812.000000	49.092400
811.000000	49.049100
810.000000	49.173700
809.000000	49.156600
808.000000	49.139600
807.000000	49.101600
806.000000	49.006500
805.000000	48.964300
804.000000	49.131300
803.000000	48.930200
802.000000	48.996300
801.000000	48.829400
800.000000	48.941400
799.000000	48.727600
798.000000	48.733900
797.000000	48.636300
796.000000	48.769100
795.000000	48.468900
794.000000	48.542500
793.000000	48.355600
792.000000	48.578400
791.000000	48.329400
790.000000	48.365900
789.000000	48.412500
788.000000	48.282700
787.000000	48.311400
786.000000	48.271500
785.000000	48.162500
784.000000	48.198000
783.000000	48.121900
782.000000	47.946000
781.000000	47.995600
780.000000	47.890300
779.000000	47.896300
778.000000	47.745800
777.000000	47.779800
776.000000	47.710400
775.000000	47.582600
774.000000	47.587600
773.000000	47.461600
772.000000	47.460700
771.000000	47.466200
770.000000	47.399800
769.000000	47.276200
768.000000	47.190700
767.000000	47.177000
766.000000	47.133000
765.000000	47.128200
764.000000	47.038000
763.000000	46.961600
762.000000	46.907100
761.000000	46.896200
760.000000	46.756600
759.000000	46.584600
758.000000	46.539800
757.000000	46.568200
756.000000	46.450700
755.000000	46.392800
754.000000	46.271200
753.000000	46.243100
752.000000	46.140800
751.000000	46.045100
750.000000	45.980300
749.000000	45.950900
748.000000	45.850900
747.000000	45.707200
746.000000	45.695100
745.000000	45.617100
744.000000	45.539200
743.000000	45.452700
742.000000	45.238600
741.000000	45.154600
740.000000	45.042200
739.000000	44.988700
738.000000	44.989700
737.000000	44.864200
736.000000	44.753800
735.000000	44.590800
734.000000	44.557600
733.000000	44.443900
732.000000	44.393500
731.000000	44.294200
730.000000	44.126400
729.000000	44.050500
728.000000	43.924600
727.000000	43.837000
726.000000	43.722100
725.000000	43.655600
724.000000	43.484800
723.000000	43.351100
722.000000	43.195300
721.000000	43.085000
720.000000	42.988800
719.000000	42.902000
718.000000	42.801100
717.000000	42.627500
716.000000	42.538300
715.000000	42.408000
714.000000	42.218000
713.000000	42.099100
712.000000	42.031400
711.000000	41.871100
710.000000	41.734900
709.000000	41.604800
708.000000	41.412600
707.000000	41.288400
706.000000	41.199200
705.000000	41.058400
704.000000	40.900700
703.000000	40.746700
702.000000	40.620800
701.000000	40.467400
700.000000	40.380200
699.000000	40.193800
698.000000	39.997900
697.000000	39.879100
696.000000	39.737800
695.000000	39.592600
694.000000	39.415500
693.000000	39.219800
692.000000	39.035600
691.000000	38.892700
690.000000	38.732000
689.000000	38.569100
688.000000	38.392300
687.000000	38.180400
686.000000	38.009200
685.000000	37.851800
684.000000	37.677800
683.000000	37.502600
682.000000	37.287900
681.000000	37.134800
680.000000	36.925100
679.000000	36.769300
678.000000	36.579400
677.000000	36.374700
676.000000	36.192100
675.000000	35.998900
674.000000	35.822700
673.000000	35.656700
672.000000	35.458400
671.000000	35.253000
670.000000	35.039400
669.000000	34.881400
668.000000	34.672100
667.000000	34.430900
666.000000	34.218800
665.000000	34.052700
664.000000	33.908200
663.000000	33.713400
662.000000	33.531100
661.000000	33.368700
660.000000	33.185700
659.000000	32.992200
658.000000	32.795500
657.000000	32.607500
656.000000	32.422900
655.000000	32.259300
654.000000	32.081700
653.000000	31.887700
652.000000	31.742300
651.000000	31.602900
650.000000	31.452500
649.000000	31.305800
648.000000	31.153400
647.000000	31.003500
646.000000	30.855300
645.000000	30.717300
644.000000	30.588000
643.000000	30.434400
642.000000	30.289400
641.000000	30.161100
640.000000	30.027200
639.000000	29.917500
638.000000	29.809600
637.000000	29.684700
636.000000	29.570300
635.000000	29.484200
634.000000	29.379100
633.000000	29.252400
632.000000	29.134900
631.000000	29.069700
630.000000	28.982200
629.000000	28.854900
628.000000	28.750900
627.000000	28.677700
626.000000	28.602400
625.000000	28.531700
624.000000	28.480600
623.000000	28.418100
622.000000	28.345100
621.000000	28.270900
620.000000	28.197500
619.000000	28.147800
618.000000	28.111000
617.000000	28.064100
616.000000	28.018300
615.000000	27.991700
614.000000	27.974700
613.000000	27.960600
612.000000	27.942200
611.000000	27.923200
610.000000	27.933200
609.000000	27.943900
608.000000	27.941600
607.000000	27.954500
606.000000	27.976800
605.000000	28.025500
604.000000	28.049100
603.000000	28.089500
602.000000	28.132200
601.000000	28.151100
600.000000	28.219300
599.000000	28.280500
598.000000	28.316900
597.000000	28.385100
596.000000	28.448000
595.000000	28.530800
594.000000	28.604300
593.000000	28.665000
592.000000	28.738600
591.000000	28.846600
590.000000	28.942100
589.000000	29.013100
588.000000	29.088800
587.000000	29.163100
586.000000	29.239000
585.000000	29.323700
584.000000	29.413500
583.000000	29.483700
582.000000	29.551800
581.000000	29.643800
580.000000	29.704600
579.000000	29.776000
578.000000	29.846700
577.000000	29.888500
576.000000	29.926000
575.000000	29.980100
574.000000	30.025100
573.000000	30.057400
572.000000	30.083400
571.000000	30.112100
570.000000	30.127800
569.000000	30.121100
568.000000	30.146300
567.000000	30.145900
566.000000	30.133400
565.000000	30.122400
564.000000	30.084800
563.000000	30.054600
562.000000	30.033200
561.000000	29.981600
560.000000	29.918500
559.000000	29.882400
558.000000	29.843100
557.000000	29.784600
556.000000	29.702700
555.000000	29.653700
554.000000	29.550800
553.000000	29.457800
552.000000	29.328400
551.000000	29.225100
550.000000	29.082100
549.000000	28.969200
548.000000	28.838000
547.000000	28.694500
546.000000	28.560500
545.000000	28.406400
544.000000	28.214700
543.000000	28.026600
542.000000	27.841900
541.000000	27.647300
540.000000	27.456800
539.000000	27.238500
538.000000	27.017300
537.000000	26.822600
536.000000	26.565200
535.000000	26.339600
534.000000	26.082700
533.000000	25.808900
532.000000	25.569500
531.000000	25.293400
530.000000	25.016000
529.000000	24.737500
528.000000	24.451100
527.000000	24.143600
526.000000	23.858200
525.000000	23.547800
524.000000	23.220100
523.000000	22.907900
522.000000	22.600700
521.000000	22.269800
520.000000	21.927700
519.000000	21.608000
518.000000	21.270200
517.000000	20.942400
516.000000	20.621700
515.000000	20.297700
514.000000	19.960700
513.000000	19.658400
512.000000	19.348400
511.000000	19.037200
510.000000	18.729100
509.000000	18.432600
508.000000	18.126800
507.000000	17.813700
506.000000	17.558100
505.000000	17.306100
504.000000	17.034500
503.000000	16.773100
502.000000	16.523600
501.000000	16.272700
500.000000	16.037100
499.000000	15.822200
498.000000	15.592000
497.000000	15.405400
496.000000	15.198200
495.000000	15.021200
494.000000	14.825000
493.000000	14.654900
492.000000	14.480000
491.000000	14.313500
490.000000	14.170700
489.000000	14.019300
488.000000	13.866300
487.000000	13.757800
486.000000	13.605700
485.000000	13.483300
484.000000	13.347300
483.000000	13.235800
482.000000	13.119400
481.000000	12.981200
480.000000	12.855100
479.000000	12.721300
478.000000	12.595600
477.000000	12.471200
476.000000	12.355600
475.000000	12.256800
474.000000	12.151600
473.000000	12.046400
472.000000	11.936300
471.000000	11.839300
470.000000	11.749700
469.000000	11.671600
468.000000	11.576100
467.000000	11.500800
466.000000	11.442900
465.000000	11.342500
464.000000	11.281300
463.000000	11.201800
462.000000	11.137500
461.000000	11.100200
460.000000	11.009900
459.000000	10.966300
458.000000	10.913400
457.000000	10.856400
456.000000	10.783100
455.000000	10.734200
454.000000	10.690000
453.000000	10.643400
452.000000	10.574800
451.000000	10.542500
450.000000	10.485800
449.000000	10.427200
448.000000	10.392100
447.000000	10.318900
446.000000	10.263800
445.000000	10.235600
444.000000	10.181300
443.000000	10.123400
442.000000	10.080200
441.000000	10.007800
440.000000	9.965300
439.000000	9.899500
438.000000	9.832800
437.000000	9.774200
436.000000	9.713300
435.000000	9.658200
434.000000	9.591500
433.000000	9.536600
432.000000	9.474300
431.000000	9.398700
430.000000	9.346700
429.000000	9.283600
428.000000	9.217900
427.000000	9.165300
426.000000	9.090700
425.000000	9.029100
424.000000	8.958200
423.000000	8.894000
422.000000	8.826000
421.000000	8.779900
420.000000	8.707000
419.000000	8.623900
418.000000	8.543700
417.000000	8.461400
416.000000	8.419000
415.000000	8.344500
414.000000	8.258300
413.000000	8.186900
412.000000	8.098100
411.000000	8.021800
410.000000	7.966300
409.000000	7.879700
408.000000	7.800300
407.000000	7.727100
406.000000	7.639100
405.000000	7.559700
404.000000	7.458400
403.000000	7.401700
402.000000	7.317400
401.000000	7.228000
400.000000	7.146200
399.000000	7.075600
398.000000	6.996000
397.000000	6.915700
396.000000	6.846000
395.000000	6.756100
394.000000	6.671000
393.000000	6.587700
392.000000	6.504000
391.000000	6.429900
390.000000	6.359100
389.000000	6.286400
388.000000	6.211000
387.000000	6.145100
386.000000	6.055400
385.000000	5.995900
384.000000	5.924200
383.000000	5.848000
382.000000	5.782100
381.000000	5.731100
380.000000	5.673300
379.000000	5.620500
378.000000	5.563500
377.000000	5.510600
376.000000	5.479400
375.000000	5.254700
374.000000	4.921900
373.000000	4.955900
372.000000	4.886300
371.000000	4.818600
370.000000	4.823400
369.000000	4.842900
368.000000	4.881500
367.000000	5.007100
366.000000	4.872600
365.000000	4.714100
364.000000	4.800800
363.000000	4.958400
362.000000	4.889500
361.000000	4.721500
360.000000	4.601000
359.000000	4.690600
358.000000	4.810900
357.000000	4.754700
356.000000	4.715900
355.000000	4.589900
354.000000	4.535000
353.000000	4.679200
352.000000	4.676600
351.000000	4.740700
350.000000	4.556100
349.000000	4.477800
348.000000	4.537800
347.000000	4.497300
346.000000	4.582300
345.000000	4.739800
344.000000	4.663600
343.000000	4.582700
342.000000	4.727100
341.000000	4.778800
340.000000	4.731600
339.000000	4.717100
338.000000	4.783000
337.000000	4.864400
336.000000	4.966900
335.000000	4.862200
334.000000	4.700100
333.000000	4.517200
332.000000	4.395200
331.000000	4.365700
330.000000	4.481200
329.000000	4.582300
328.000000	4.659700
327.000000	4.774800
326.000000	4.736500
325.000000	4.531400
324.000000	4.767600
323.000000	4.955100
322.000000	5.072200
321.000000	5.232000
320.000000	5.601700
319.000000	5.253500
318.000000	4.862600
317.000000	4.758500
316.000000	4.565300
315.000000	4.533600
314.000000	4.539300
313.000000	4.546800
312.000000	4.504000
311.000000	4.497300
310.000000	4.508900
309.000000	4.516700
308.000000	4.527300
307.000000	4.483600
306.000000	4.507200
305.000000	4.528000
304.000000	4.521300
303.000000	4.522300
302.000000	4.525600
301.000000	4.556000
300.000000	4.554000
299.000000	4.534700
298.000000	4.525300
297.000000	4.528600
296.000000	4.542400
295.000000	4.555500
294.000000	4.550300
293.000000	4.532800
292.000000	4.534400
291.000000	4.559400
290.000000	4.589500
289.000000	4.556600
288.000000	4.525200
287.000000	4.534500
286.000000	4.583400
285.000000	4.577700
284.000000	4.565100
283.000000	4.565000
282.000000	4.561900
281.000000	4.568300
280.000000	4.584400
279.000000	4.579000
278.000000	4.573000
277.000000	4.605200
276.000000	4.603900
275.000000	4.641700
274.000000	4.608500
273.000000	4.615500
272.000000	4.619900
271.000000	4.671600
270.000000	4.634000
269.000000	4.671900
268.000000	4.705000
267.000000	4.701900
266.000000	4.727600
265.000000	4.754600
264.000000	4.741600
263.000000	4.785500
262.000000	4.812600
261.000000	4.828000
260.000000	4.820400
259.000000	4.840500
258.000000	4.874400
257.000000	4.868800
256.000000	4.870500
255.000000	4.878100
254.000000	4.859700
253.000000	4.934700
252.000000	4.926000
251.000000	4.889800
250.000000	4.959300
