Time1=100ms:Average1=5:Objective=10X:Aperture=1: (11/28/2018 9:49:41 AM)
11/28/2018 9:49:41 AM
Reflectance
10X
Ap#: 1
Avg1: 5.000000
Avg2: 0.000000
Int.Time1:100.000000

350.166136	86.287541
350.601937	86.783453
351.037728	86.651241
351.473509	86.461484
351.909281	86.592328
352.345042	86.295599
352.780794	86.522403
353.216536	86.787704
353.652267	86.899288
354.087989	86.644392
354.523701	86.346465
354.959403	86.200685
355.395095	86.017254
355.830777	85.370885
356.266449	85.531496
356.702110	85.292010
357.137762	85.774547
357.573404	85.394866
358.009035	85.061166
358.444656	85.158064
358.880268	85.396371
359.315869	85.607210
359.751459	85.494759
360.187040	85.893668
360.622610	85.126162
361.058170	85.011482
361.493720	85.312334
361.929260	85.140030
362.364789	85.402106
362.800308	85.429053
363.235816	85.421311
363.671314	85.185845
364.106802	84.829914
364.542279	84.695052
364.977746	84.969461
365.413203	85.161519
365.848649	85.291504
366.284084	84.780298
366.719509	84.449761
367.154924	84.234274
367.590328	84.494958
368.025721	84.911504
368.461104	84.531994
368.896477	84.575313
369.331838	84.708374
369.767189	84.560844
370.202530	84.673145
370.637859	84.210063
371.073178	84.283959
371.508486	84.380752
371.943784	84.441326
372.379071	84.347902
372.814347	84.424359
373.249612	84.501229
373.684866	84.287337
374.120110	84.633549
374.555343	84.682637
374.990565	84.332401
375.425776	84.514276
375.860976	84.283473
376.296165	84.322071
376.731343	84.410745
377.166511	84.348277
377.601667	84.997404
378.036812	85.450926
378.471946	85.140632
378.907070	85.386943
379.342182	85.746372
379.777283	86.096674
380.212373	86.140928
380.647452	86.236708
381.082520	86.211951
381.517576	85.970355
381.952622	86.419006
382.387656	86.582953
382.822679	86.623600
383.257691	86.641516
383.692692	86.298446
384.127681	86.491573
384.562659	86.282051
384.997626	85.907698
385.432581	86.117026
385.867525	86.777142
386.302458	86.622901
386.737379	86.562978
387.172289	86.365179
387.607188	86.289777
388.042075	86.098200
388.476951	86.683034
388.911815	86.957997
389.346668	86.814114
389.781509	86.680743
390.216338	86.424958
390.651157	86.426826
391.085963	85.921552
391.520758	85.720303
391.955541	85.775392
392.390313	85.480624
392.825073	85.178676
393.259821	85.209326
393.694558	85.067534
394.129283	84.824029
394.563996	84.601283
394.998698	84.732380
395.433388	84.617297
395.868066	84.278318
396.302732	84.265489
396.737386	83.803772
397.172029	83.798402
397.606659	83.312294
398.041278	82.954959
398.475885	82.626589
398.910480	81.614153
399.345063	79.992914
399.779634	79.454129
400.214194	78.221900
400.648741	76.955563
401.083276	75.112247
401.517799	73.445223
401.952310	71.197578
402.386809	68.815175
402.821296	66.407267
403.255771	64.175219
403.690234	61.580687
404.124684	58.535857
404.559123	55.636085
404.993549	52.875242
405.427963	49.707471
405.862365	46.898844
406.296754	44.022870
406.731131	41.531507
407.165496	39.254146
407.599849	37.180149
408.034190	34.927105
408.468518	32.931538
408.902833	31.063479
409.337137	29.339456
409.771428	27.786506
410.205706	26.365800
410.639973	24.978106
411.074226	23.836674
411.508467	22.757375
411.942696	21.830900
412.376912	21.002541
412.811116	20.233147
413.245307	19.438445
413.679486	18.822591
414.113652	18.241542
414.547805	17.708118
414.981946	17.189353
415.416074	16.655218
415.850190	16.242301
416.284293	15.827409
416.718383	15.418091
417.152460	15.048906
417.586525	14.749516
418.020577	14.448296
418.454616	14.172398
418.888643	13.983653
419.322656	13.806258
419.756657	13.627309
420.190645	13.438829
420.624620	13.277283
421.058582	13.124233
421.492531	12.985346
421.926468	12.828810
422.360391	12.710350
422.794301	12.602822
423.228199	12.503664
423.662083	12.413980
424.095955	12.362931
424.529813	12.295412
424.963658	12.251667
425.397491	12.214599
425.831310	12.165423
426.265116	12.113070
426.698909	12.066213
427.132689	12.003128
427.566455	11.924739
428.000209	11.869979
428.433949	11.808152
428.867676	11.784850
429.301389	11.748512
429.735090	11.733326
430.168777	11.714133
430.602451	11.684632
431.036111	11.678305
431.469759	11.681391
431.903392	11.667616
432.337013	11.652744
432.770620	11.618990
433.204213	11.609227
433.637794	11.601854
434.071360	11.568100
434.504914	11.542446
434.938453	11.532273
435.371979	11.518561
435.805492	11.498234
436.238991	11.500075
436.672477	11.496275
437.105949	11.510771
437.539407	11.498234
437.972852	11.495100
438.406283	11.474040
438.839700	11.463934
439.273104	11.458553
439.706494	11.463078
440.139871	11.452628
440.573233	11.446130
441.006582	11.464118
441.439917	11.473741
441.873238	11.487741
442.306546	11.495869
442.739839	11.500950
443.173119	11.510302
443.606385	11.524577
444.039636	11.555530
444.472874	11.581130
444.906099	11.595831
445.339309	11.613436
445.772505	11.618901
446.205687	11.624769
446.638855	11.636617
447.072009	11.626675
447.505149	11.637945
447.938275	11.640739
448.371387	11.644751
448.804485	11.656128
449.237569	11.657183
449.670638	11.665589
450.103694	11.687711
450.536735	11.702941
450.969762	11.720178
451.402774	11.754798
451.835773	11.788344
452.268757	11.805204
452.701727	11.813581
453.134683	11.826125
453.567624	11.840740
454.000551	11.840350
454.433464	11.835160
454.866362	11.828568
455.299246	11.835858
455.732116	11.824256
456.164971	11.827777
456.597811	11.820944
457.030638	11.811940
457.463449	11.817432
457.896246	11.803384
458.329029	11.818989
458.761797	11.829232
459.194551	11.844141
459.627290	11.860625
460.060014	11.860596
460.492724	11.877529
460.925419	11.889709
461.358099	11.914896
461.790765	11.936294
462.223416	11.946440
462.656052	11.976627
463.088674	11.987617
463.521281	12.003554
463.953873	12.024664
464.386450	12.053225
464.819012	12.075607
465.251560	12.096294
465.684093	12.136675
466.116611	12.180697
466.549114	12.219438
466.981602	12.251602
467.414075	12.294013
467.846533	12.314494
468.278977	12.340602
468.711405	12.356553
469.143818	12.382439
469.576216	12.382318
470.008600	12.382968
470.440968	12.390223
470.873321	12.383905
471.305659	12.398586
471.737982	12.400372
472.170289	12.421375
472.602582	12.441960
473.034859	12.476903
473.467122	12.515633
473.899369	12.551320
474.331600	12.589010
474.763817	12.614307
475.196018	12.641704
475.628204	12.655531
476.060375	12.657766
476.492530	12.660271
476.924670	12.643786
477.356795	12.617325
477.788904	12.578896
478.220998	12.528455
478.653076	12.481230
479.085139	12.448022
479.517186	12.408472
479.949219	12.390792
480.381235	12.386687
480.813236	12.390986
481.245221	12.422499
481.677191	12.456412
482.109146	12.503395
482.541084	12.552185
482.973008	12.620265
483.404915	12.691644
483.836807	12.762073
484.268683	12.829232
484.700544	12.892039
485.132388	12.946628
485.564217	12.986037
485.996031	13.026529
486.427828	13.067169
486.859610	13.115443
487.291376	13.188478
487.723126	13.253737
488.154860	13.351103
488.586579	13.464503
489.018281	13.592999
489.449968	13.736979
489.881639	13.896861
490.313293	14.073662
490.744932	14.258542
491.176555	14.453820
491.608162	14.645359
492.039753	14.840150
492.471328	15.013786
492.902886	15.183948
493.334429	15.327411
493.765956	15.459436
494.197466	15.576016
494.628960	15.677503
495.060439	15.765763
495.491901	15.849837
495.923347	15.941228
496.354776	16.027097
496.786190	16.123108
497.217587	16.244351
497.648968	16.386068
498.080332	16.538320
498.511681	16.711373
498.943013	16.916516
499.374328	17.132596
499.805628	17.356847
500.236911	17.590406
500.668177	17.824070
501.099427	18.064202
501.530661	18.273539
501.961878	18.465428
502.393079	18.655241
502.824264	18.814926
503.255431	18.962844
503.686583	19.083552
504.117717	19.190485
504.548835	19.289421
504.979937	19.396698
505.411022	19.495515
505.842090	19.596141
506.273142	19.702527
506.704177	19.834157
507.135195	19.971065
507.566197	20.124801
507.997182	20.296512
508.428150	20.480510
508.859102	20.680434
509.290036	20.883260
509.720954	21.090670
510.151855	21.297283
510.582739	21.487994
511.013607	21.676168
511.444457	21.845182
511.875291	22.005949
512.306107	22.157556
512.736907	22.300130
513.167690	22.434976
513.598456	22.562549
514.029205	22.682085
514.459936	22.809268
514.890651	22.958419
515.321349	23.106409
515.752030	23.281266
516.182693	23.488403
516.613340	23.716501
517.043969	23.980932
517.474582	24.267607
517.905177	24.573219
518.335755	24.893929
518.766315	25.246670
519.196859	25.614180
519.627385	25.987960
520.057894	26.362586
520.488386	26.734258
520.918860	27.091913
521.349318	27.444523
521.779757	27.789969
522.210180	28.109883
522.640585	28.415092
523.070973	28.710266
523.501343	28.980204
523.931696	29.225896
524.362031	29.446373
524.792349	29.663503
525.222650	29.856313
525.652933	30.028098
526.083198	30.197275
526.513446	30.358341
526.943677	30.506872
527.373890	30.655881
527.804085	30.817656
528.234262	30.967150
528.664422	31.143228
529.094565	31.323933
529.524689	31.514003
529.954796	31.733786
530.384885	31.968045
530.814957	32.227428
531.245011	32.511430
531.675047	32.839134
532.105065	33.189030
532.535065	33.570427
532.965048	34.001776
533.395013	34.480316
533.824959	35.014764
534.254888	35.617842
534.684799	36.308973
535.114693	37.046621
535.544568	37.832732
535.974425	38.662604
536.404264	39.557669
536.834086	40.504506
537.263889	41.520877
537.693674	42.567821
538.123441	43.669726
538.553190	44.818539
538.982921	45.991768
539.412634	47.186387
539.842329	48.400805
540.272006	49.638185
540.701664	50.865991
541.131304	52.079226
541.560926	53.324876
541.990530	54.532821
542.420116	55.712620
542.849683	56.854783
543.279232	57.969734
543.708763	59.033286
544.138275	60.055992
544.567769	61.033670
544.997245	61.955699
545.426702	62.832168
545.856141	63.663344
546.285562	64.453263
546.714964	65.191703
547.144347	65.898855
547.573713	66.556088
548.003059	67.153018
548.432387	67.719651
548.861697	68.263824
549.290988	68.794888
549.720260	69.289582
550.149514	69.809875
550.578750	70.300998
551.007966	70.793557
551.437164	71.259569
551.866344	71.748229
552.295504	72.236599
552.724646	72.748038
553.153769	73.268630
553.582874	73.811697
554.011960	74.381112
554.441027	74.962998
554.870075	75.526113
555.299104	76.118992
555.728115	76.736559
556.157106	77.393736
556.586079	78.019398
557.015033	78.672891
557.443968	79.343272
557.872884	80.020967
558.301781	80.682318
558.730659	81.353620
559.159518	82.010592
559.588358	82.664132
560.017180	83.311061
560.445982	83.951969
560.874765	84.583139
561.303528	85.203602
561.732273	85.805936
562.160999	86.396093
562.589705	86.965008
563.018393	87.520698
563.447061	88.028013
563.875710	88.498189
564.304340	88.959883
564.732950	89.397840
565.161542	89.817306
565.590114	90.216637
566.018666	90.568383
566.447200	90.899432
566.875714	91.203619
567.304208	91.483980
567.732684	91.745564
568.161140	91.981739
568.589576	92.192065
569.017993	92.368087
569.446391	92.517427
569.874769	92.674104
570.303128	92.782039
570.731467	92.875945
571.159787	92.967377
571.588087	93.056657
572.016368	93.120139
572.444629	93.185263
572.872870	93.259718
573.301092	93.331349
573.729294	93.394202
574.157476	93.454315
574.585639	93.525539
575.013782	93.608542
575.441906	93.691714
575.870009	93.802706
576.298093	93.893686
576.726157	94.007014
577.154202	94.134536
577.582226	94.263811
578.010231	94.409525
578.438216	94.538774
578.866181	94.695496
579.294126	94.871459
579.722051	95.045567
580.149957	95.242804
580.577842	95.444148
581.005707	95.666817
581.433553	95.891299
581.861378	96.137070
582.289184	96.400796
582.716969	96.658790
583.144734	96.925655
583.572479	97.220281
584.000205	97.499467
584.427910	97.801556
584.855594	98.088989
585.283259	98.377680
585.710904	98.658015
586.138528	98.928822
586.566132	99.190649
586.993716	99.447688
587.421280	99.693519
587.848823	99.931653
588.276346	100.151303
588.703849	100.347687
589.131332	100.522936
589.558794	100.699976
589.986236	100.821620
590.413657	100.932825
590.841058	101.005842
591.268438	101.042978
591.695799	101.047668
592.123138	101.018487
592.550458	100.950817
592.977756	100.865186
593.405034	100.727585
593.832292	100.560799
594.259529	100.348684
594.686746	100.124487
595.113942	99.867650
595.541117	99.578135
595.968272	99.281433
596.395406	98.963525
596.822519	98.625457
597.249612	98.275382
597.676684	97.901725
598.103735	97.530430
598.530766	97.142721
598.957775	96.777500
599.384764	96.396834
599.811733	96.016972
600.238680	95.646978
600.665606	95.280597
601.092512	94.900715
601.519397	94.520274
601.946261	94.185836
602.373104	93.845092
602.799926	93.507010
603.226727	93.187049
603.653507	92.880077
604.080266	92.603765
604.507004	92.339203
604.933721	92.097375
605.360417	91.872563
605.787092	91.660571
606.213746	91.454270
606.640379	91.282669
607.066991	91.126001
607.493581	90.997842
607.920150	90.880054
608.346699	90.771718
608.773226	90.691184
609.199731	90.602731
609.626216	90.520870
610.052679	90.440438
610.479121	90.379393
610.905542	90.300897
611.331941	90.230508
611.758319	90.182033
612.184676	90.112947
612.611011	90.025268
613.037325	89.942364
613.463617	89.850749
613.889888	89.745894
614.316138	89.630458
614.742366	89.513722
615.168573	89.368513
615.594758	89.214837
616.020921	89.069874
616.447063	88.927472
616.873184	88.751953
617.299283	88.561868
617.725360	88.352473
618.151416	88.138749
618.577450	87.903858
619.003462	87.656052
619.429453	87.395712
619.855422	87.115734
620.281369	86.815273
620.707295	86.494331
621.133199	86.151979
621.559081	85.797918
621.984941	85.398714
622.410779	84.994356
622.836596	84.549514
623.262391	84.082455
623.688163	83.573037
624.113914	83.029932
624.539644	82.450660
624.965351	81.837714
625.391036	81.189314
625.816699	80.529727
626.242340	79.812712
626.667960	79.060111
627.093557	78.280257
627.519132	77.460507
627.944685	76.614947
628.370216	75.741077
628.795725	74.846770
629.221212	73.902109
629.646677	72.940971
630.072119	71.962179
630.497540	70.976925
630.922938	69.993398
631.348314	68.999925
631.773668	68.010164
632.198999	67.043779
632.624308	66.095006
633.049595	65.168451
633.474860	64.286313
633.900102	63.430315
634.325322	62.619066
634.750520	61.846542
635.175695	61.121055
635.600848	60.433527
636.025978	59.783470
636.451086	59.183939
636.876171	58.627215
637.301234	58.127033
637.726275	57.657282
638.151293	57.227334
638.576288	56.835787
639.001261	56.483002
639.426211	56.178467
639.851139	55.925620
640.276044	55.711955
640.700927	55.558485
641.125787	55.458131
641.550624	55.389299
641.975438	55.356877
642.400230	55.380925
642.824999	55.445256
643.249745	55.546316
643.674469	55.664457
644.099169	55.815028
644.523847	55.983605
644.948502	56.159038
645.373135	56.333400
645.797744	56.509030
646.222330	56.677674
646.646894	56.825475
647.071435	56.957287
647.495953	57.064927
647.920447	57.149643
648.344919	57.200135
648.769368	57.223187
649.193794	57.234123
649.618197	57.203757
650.042576	57.164448
650.466933	57.087949
650.891267	56.986625
651.315577	56.874454
651.739864	56.739557
652.164129	56.591690
652.588370	56.420304
653.012587	56.225507
653.436782	56.020909
653.860953	55.805532
654.285102	55.572924
654.709226	55.342043
655.133328	55.110375
655.557406	54.875892
655.981461	54.635686
656.405493	54.413568
656.829501	54.209935
657.253486	54.016919
657.677448	53.838371
658.101386	53.700842
658.525301	53.584074
658.949192	53.505455
659.373060	53.458637
659.796904	53.447597
660.220725	53.472189
660.644522	53.541957
661.068296	53.631822
661.492046	53.769640
661.915772	53.942346
662.339475	54.150418
662.763154	54.387851
663.186810	54.643120
663.610442	54.934066
664.034050	55.267175
664.457635	55.628802
664.881196	56.024190
665.304733	56.436303
665.728247	56.895012
666.151736	57.379316
666.575202	57.894506
666.998644	58.428995
667.422062	58.982828
667.845457	59.555941
668.268827	60.147366
668.692174	60.757753
669.115496	61.379318
669.538795	62.005078
669.962070	62.628693
670.385321	63.259099
670.808547	63.883230
671.231750	64.483074
671.654929	65.072777
672.078084	65.636497
672.501214	66.175726
672.924321	66.695199
673.347404	67.180896
673.770462	67.616843
674.193496	68.046685
674.616506	68.434425
675.039492	68.775556
675.462454	69.075445
675.885391	69.358460
676.308305	69.614453
676.731194	69.835164
677.154058	70.020916
677.576899	70.160318
677.999715	70.257722
678.422507	70.328952
678.845274	70.359427
679.268017	70.348940
679.690736	70.303394
680.113430	70.227942
680.536100	70.120014
680.958746	69.982920
681.381367	69.814172
681.803963	69.611189
682.226535	69.391718
682.649083	69.153570
683.071605	68.909962
683.494104	68.646305
683.916578	68.382602
684.339027	68.119306
684.761451	67.858942
685.183851	67.601283
685.606227	67.354646
686.028577	67.115937
686.450903	66.906034
686.873204	66.709266
687.295481	66.513063
687.717733	66.343445
688.139959	66.203551
688.562162	66.082279
688.984339	65.966316
689.406492	65.871974
689.828619	65.796976
690.250722	65.730746
690.672800	65.687041
691.094853	65.670658
691.516881	65.663438
691.938884	65.667445
692.360863	65.686347
692.782816	65.738328
693.204744	65.807206
693.626647	65.900493
694.048526	66.007704
694.470379	66.146679
694.892207	66.303214
695.314010	66.478779
695.735788	66.676661
696.157540	66.886278
696.579268	67.115175
697.000970	67.360359
697.422648	67.612551
697.844300	67.880350
698.265926	68.167793
698.687528	68.453147
699.109104	68.747108
699.530655	69.032879
699.952181	69.329902
700.373681	69.634815
700.795156	69.931985
701.216606	70.220648
701.638030	70.511304
702.059429	70.812588
702.480803	71.090651
702.902151	71.364007
703.323473	71.640688
703.744770	71.903543
704.166042	72.145300
704.587288	72.380261
705.008509	72.599874
705.429704	72.811346
705.850873	72.989452
706.272017	73.136736
706.693135	73.245058
707.114228	73.339166
707.535295	73.392346
707.956336	73.423857
708.377352	73.413136
708.798342	73.372958
709.219306	73.301388
709.640245	73.202837
710.061157	73.070183
710.482044	72.912768
710.902905	72.728300
711.323741	72.507621
711.744550	72.290682
712.165334	72.046677
712.586092	71.791367
713.006823	71.526771
713.427529	71.260965
713.848209	70.991456
714.268863	70.723977
714.689492	70.454195
715.110094	70.183484
715.530670	69.933935
715.951220	69.683905
716.371744	69.441092
716.792242	69.212983
717.212714	69.003986
717.633159	68.806358
718.053579	68.628066
718.473973	68.464721
718.894340	68.316707
719.314681	68.183002
719.734996	68.077938
720.155285	67.974074
720.575547	67.891744
720.995784	67.821779
721.415994	67.763359
721.836177	67.722064
722.256335	67.694964
722.676466	67.682528
723.096570	67.691597
723.516649	67.727436
723.936701	67.777038
724.356726	67.855093
724.776725	67.930254
725.196698	68.023154
725.616644	68.118592
726.036564	68.230433
726.456457	68.334315
726.876324	68.454770
727.296164	68.579101
727.715977	68.710672
728.135764	68.840112
728.555525	68.968578
728.975258	69.103146
729.394966	69.230050
729.814646	69.351378
730.234300	69.469789
730.653927	69.578057
731.073527	69.685586
731.493101	69.774272
731.912648	69.845912
732.332168	69.932483
732.751661	70.007103
733.171128	70.075844
733.590568	70.149415
734.009980	70.206623
734.429366	70.273903
734.848726	70.332666
735.268058	70.388075
735.687363	70.435327
736.106641	70.481113
736.525893	70.521519
736.945117	70.559094
737.364314	70.590633
737.783485	70.627303
738.202628	70.672578
738.621744	70.720296
739.040834	70.767034
739.459896	70.836885
739.878931	70.895249
740.297939	70.959254
740.716919	71.026861
741.135873	71.096708
741.554799	71.170009
741.973698	71.236768
742.392570	71.320798
742.811415	71.392865
743.230232	71.465158
743.649022	71.547441
744.067785	71.624170
744.486521	71.695899
744.905229	71.779767
745.323909	71.842644
745.742563	71.897264
746.161189	71.966643
746.579787	72.020155
746.998358	72.075528
747.416902	72.140908
747.835418	72.189511
748.253907	72.237733
748.672368	72.281814
749.090802	72.312111
749.509208	72.320898
749.927586	72.338801
750.345937	72.339257
750.764261	72.325608
751.182556	72.287396
751.600824	72.245731
752.019065	72.198903
752.437277	72.121922
752.855462	72.043977
753.273620	71.960218
753.691749	71.846382
754.109851	71.741789
754.527925	71.614177
754.945971	71.478150
755.363989	71.322981
755.781980	71.163610
756.199943	71.007530
756.617877	70.839125
757.035784	70.668687
757.453663	70.503740
757.871514	70.328921
758.289337	70.155238
758.707132	69.993644
759.124899	69.819241
759.542639	69.648252
759.960350	69.487480
760.378033	69.315592
760.795688	69.164098
761.213314	69.011889
761.630913	68.878183
762.048484	68.750449
762.466026	68.650063
762.883541	68.537024
763.301027	68.447098
763.718485	68.357613
764.135914	68.284025
764.553316	68.226626
764.970689	68.165557
765.388034	68.123362
765.805351	68.077172
766.222639	68.034221
766.639899	68.016006
767.057131	67.977710
767.474334	67.957438
767.891509	67.955825
768.308655	67.955119
768.725773	67.972169
769.142863	67.983125
769.559924	68.015069
769.976957	68.053139
770.393961	68.098990
770.810936	68.151269
771.227883	68.223368
771.644802	68.301339
772.061692	68.394276
772.478553	68.482566
772.895386	68.582971
773.312190	68.685179
773.728965	68.795768
774.145712	68.925726
774.562430	69.055877
774.979119	69.195028
775.395780	69.342656
775.812411	69.497071
776.229014	69.651348
776.645589	69.826481
777.062134	70.019925
777.478651	70.226305
777.895138	70.436631
778.311597	70.661627
778.728027	70.906618
779.144428	71.160381
779.560800	71.439444
779.977143	71.743302
780.393458	72.061854
780.809743	72.406627
781.225999	72.764283
781.642226	73.139634
782.058425	73.536386
782.474594	73.930145
782.890734	74.337958
783.306845	74.771454
783.722926	75.205264
784.138979	75.638938
784.555003	76.083889
784.970997	76.538085
785.386962	76.999380
785.802898	77.467946
786.218805	77.920279
786.634682	78.372778
787.050531	78.806189
787.466349	79.233167
787.882139	79.658695
788.297899	80.050521
788.713630	80.448575
789.129332	80.829384
789.545004	81.177003
789.960647	81.503434
790.376260	81.791300
790.791844	82.060423
791.207399	82.299315
791.622924	82.533398
792.038419	82.738234
792.453885	82.917013
792.869321	83.069947
793.284728	83.200014
793.700106	83.293524
794.115453	83.374644
794.530771	83.432803
794.946060	83.466999
795.361319	83.496908
795.776548	83.501436
796.191747	83.492495
796.606917	83.477293
797.022057	83.444680
797.437167	83.409676
797.852248	83.330278
798.267298	83.269183
798.682319	83.192794
799.097310	83.123625
799.512271	83.055251
799.927203	82.979305
800.342104	82.906720
800.756976	82.830216
801.171818	82.745053
801.586629	82.653998
802.001411	82.561165
802.416163	82.497352
802.830885	82.425262
803.245577	82.349729
803.660238	82.270376
804.074870	82.179201
804.489472	82.096702
804.904043	82.012751
805.318585	81.910666
805.733096	81.812770
806.147577	81.721626
806.562028	81.618116
806.976449	81.499741
807.390840	81.384586
807.805200	81.264015
808.219530	81.119157
808.633830	80.963260
809.048100	80.800884
809.462339	80.642749
809.876548	80.474973
810.290727	80.268662
810.704875	80.086956
811.118993	79.870570
811.533080	79.641694
811.947137	79.414003
812.361164	79.171357
812.775160	78.932531
813.189126	78.686587
813.603061	78.425388
814.016966	78.194531
814.430840	77.952666
814.844684	77.713710
815.258497	77.454081
815.672280	77.202754
816.086032	76.967500
816.499753	76.761620
816.913444	76.553728
817.327104	76.346487
817.740733	76.159293
818.154331	75.984230
818.567899	75.834373
818.981436	75.679911
819.394943	75.529903
819.808418	75.397061
820.221863	75.277048
820.635277	75.171599
821.048660	75.071803
821.462013	74.993426
821.875334	74.906384
822.288625	74.811593
822.701884	74.737660
823.115113	74.687187
823.528311	74.653508
823.941478	74.605042
824.354614	74.573889
824.767718	74.555575
825.180792	74.534731
825.593835	74.509766
826.006847	74.460555
826.419827	74.446853
826.832777	74.412895
827.245695	74.373180
827.658582	74.337134
828.071438	74.312495
828.484263	74.248694
828.897057	74.179212
829.309819	74.081073
829.722551	73.993110
830.135251	73.887271
830.547919	73.780044
830.960557	73.663573
831.373163	73.525266
831.785738	73.363366
832.198281	73.217963
832.610793	73.064550
833.023274	72.884839
833.435723	72.707688
833.848141	72.547135
834.260528	72.382708
834.672883	72.226546
835.085206	72.095329
835.497498	71.969863
835.909758	71.833979
836.321987	71.665560
836.734185	71.557922
837.146350	71.454792
837.558485	71.333983
837.970587	71.247568
838.382658	71.160638
838.794697	71.109969
839.206705	71.049590
839.618681	70.977304
840.030625	70.922637
840.442538	70.879699
840.854418	70.829725
841.266267	70.795468
841.678084	70.781038
842.089870	70.770359
842.501623	70.762088
842.913345	70.753114
843.325035	70.729345
843.736693	70.735259
844.148319	70.732650
844.559913	70.742184
844.971475	70.748083
845.383005	70.746342
845.794504	70.754610
846.205970	70.731374
846.617404	70.714312
847.028806	70.676034
847.440176	70.621372
847.851514	70.553262
848.262820	70.450285
848.674094	70.364350
849.085336	70.290189
849.496546	70.159991
849.907723	70.007260
850.318868	69.848311
850.729981	69.660183
851.141062	69.476166
851.552110	69.269518
851.963127	69.028392
852.374111	68.806619
852.785062	68.570220
853.195982	68.312623
853.606869	68.048557
854.017723	67.794392
854.428546	67.515407
854.839336	67.230762
855.250093	66.941007
855.660818	66.648647
856.071511	66.369815
856.482171	66.058074
856.892799	65.767352
857.303394	65.472733
857.713956	65.172942
858.124486	64.877168
858.534984	64.561316
858.945449	64.261470
859.355881	63.945146
859.766280	63.634397
860.176647	63.316760
860.586982	63.003023
860.997283	62.695627
861.407552	62.347419
861.817789	61.990609
862.227992	61.655684
862.638163	61.317299
863.048301	60.971356
863.458406	60.579393
863.868478	60.181001
864.278518	59.747133
864.688524	59.318977
865.098498	58.869918
865.508439	58.421310
865.918347	57.937047
866.328222	57.433868
866.738064	56.917608
867.147873	56.394504
867.557649	55.862646
867.967392	55.333671
868.377102	54.776517
868.786779	54.226562
869.196423	53.678112
869.606034	53.088337
870.015612	52.511404
870.425156	51.926051
870.834668	51.351968
871.244146	50.785799
871.653591	50.224759
872.063003	49.673517
872.472382	49.120611
872.881728	48.593990
873.291040	48.070053
873.700319	47.544462
874.109564	47.070637
874.518777	46.587185
874.927956	46.118135
875.337102	45.663229
875.746214	45.232655
876.155293	44.852326
876.564338	44.478637
876.973350	44.151728
877.382329	43.845267
877.791274	43.549313
878.200186	43.275605
878.609064	43.055541
879.017909	42.863801
879.426720	42.698873
879.835497	42.545648
880.244241	42.424211
880.652952	42.313898
881.061629	42.233763
881.470272	42.163568
881.878881	42.102641
882.287457	42.073294
882.695999	42.026845
883.104507	42.006537
883.512982	41.976129
883.921423	41.948255
884.329830	41.919810
884.738203	41.882342
885.146543	41.862973
885.554849	41.829177
885.963120	41.788205
886.371358	41.749330
886.779563	41.692405
887.187733	41.646874
887.595869	41.575487
888.003971	41.481578
888.412040	41.392953
888.820074	41.279920
889.228074	41.180777
889.636041	41.044246
890.043973	40.897897
890.451871	40.748917
890.859736	40.593022
891.267566	40.411470
891.675362	40.218422
892.083124	40.031322
892.490851	39.833043
892.898545	39.631128
893.306204	39.406035
893.713829	39.181156
894.121420	38.943356
894.528977	38.694423
894.936499	38.452323
895.343987	38.225363
895.751441	37.969922
896.158860	37.721614
896.566246	37.492921
896.973596	37.253202
897.380913	37.027163
897.788195	36.775845
898.195442	36.551954
898.602655	36.321901
899.009834	36.079397
899.416978	35.852118
899.824088	35.614083
900.231163	35.398932
900.638204	35.197292
901.045210	34.982632
901.452181	34.750398
901.859118	34.523929
902.266021	34.323952
902.672888	34.108800
903.079721	33.914666
903.486520	33.696929
903.893283	33.472415
904.300012	33.257101
904.706707	33.015959
905.113366	32.774789
905.519991	32.522049
905.926581	32.289738
906.333136	32.036636
906.739656	31.773576
907.146142	31.525487
907.552592	31.234292
907.959008	30.952967
908.365389	30.647319
908.771735	30.335650
909.178046	30.009631
909.584322	29.711001
909.990563	29.385553
910.396769	29.063321
910.802940	28.731310
911.209076	28.392175
911.615177	28.073280
912.021243	27.739852
912.427274	27.428731
912.833270	27.101097
913.239231	26.776556
913.645156	26.454225
914.051046	26.153636
914.456902	25.832230
914.862721	25.504829
915.268506	25.208914
915.674256	24.892824
916.079970	24.600063
916.485649	24.346215
916.891292	24.074163
917.296901	23.819695
917.702474	23.577496
918.108011	23.326085
918.513514	23.089863
918.918980	22.881343
919.324412	22.675316
919.729808	22.476445
920.135169	22.305788
920.540494	22.142077
920.945783	22.015564
921.351037	21.897551
921.756256	21.794877
922.161439	21.674456
922.566586	21.568635
922.971698	21.479223
923.376775	21.390181
923.781815	21.317021
924.186820	21.238029
924.591790	21.163177
924.996723	21.081771
925.401621	21.023457
925.806484	20.963756
926.211310	20.902669
926.616101	20.849761
927.020856	20.803322
927.425575	20.754878
927.830259	20.700476
928.234906	20.674624
928.639518	20.628097
929.044094	20.564226
929.448634	20.519323
929.853138	20.463739
930.257606	20.416868
930.662038	20.378210
931.066434	20.326743
931.470795	20.276639
931.875119	20.228517
932.279407	20.170364
932.683659	20.106354
933.087875	20.049170
933.492055	19.979785
933.896199	19.914002
934.300307	19.856060
934.704379	19.796422
935.108414	19.717180
935.512414	19.661240
935.916377	19.590553
936.320304	19.535584
936.724195	19.487972
937.128049	19.452081
937.531867	19.416324
937.935649	19.362946
938.339395	19.337602
938.743104	19.321289
939.146777	19.319443
939.550414	19.297162
939.954014	19.293382
940.357578	19.335814
940.761105	19.337639
941.164596	19.387786
941.568050	19.422738
941.971468	19.487162
942.374850	19.555526
942.778195	19.625595
943.181503	19.713766
943.584775	19.793851
943.988010	19.848653
944.391209	19.930837
944.794371	20.025176
945.197496	20.124688
945.600585	20.203744
946.003637	20.320626
946.406653	20.431075
946.809632	20.519323
947.212574	20.602709
947.615479	20.709866
948.018347	20.803890
948.421179	20.925799
948.823974	21.023798
949.226732	21.112302
949.629453	21.188396
950.032138	21.258761
950.434785	21.340378
950.837396	21.394455
951.239969	21.445958
951.642506	21.503493
952.045006	21.570382
952.447469	21.631924
952.849895	21.636443
953.252283	21.696427
953.654635	21.687257
954.056950	21.707968
954.459227	21.688220
954.861468	21.678208
955.263671	21.657186
955.665838	21.609662
956.067967	21.585739
956.470059	21.552459
956.872114	21.517863
957.274131	21.456567
957.676112	21.394156
958.078055	21.366377
958.479961	21.299297
958.881829	21.202554
959.283661	21.120538
959.685455	21.059992
960.087211	20.985751
960.488931	20.908300
960.890613	20.811559
961.292257	20.724377
961.693864	20.643781
962.095434	20.578227
962.496966	20.506575
962.898461	20.451741
963.299918	20.401251
963.701338	20.364335
964.102720	20.262487
964.504065	20.207245
964.905372	20.156259
965.306641	20.072662
965.707873	19.974855
966.109068	19.929291
966.510224	19.843938
966.911343	19.769675
967.312425	19.729405
967.713468	19.645636
968.114474	19.584881
968.515442	19.526978
968.916373	19.495429
969.317265	19.453323
969.718120	19.428268
970.118937	19.396826
970.519716	19.335472
970.920458	19.290760
971.321161	19.305683
971.721827	19.266181
972.122454	19.219582
972.523044	19.194696
972.923596	19.148860
973.324110	19.117818
973.724585	19.079916
974.125023	19.054338
974.525423	19.040625
974.925785	19.047436
975.326108	19.037812
975.726394	19.012725
976.126642	18.949357
976.526851	18.957632
976.927022	18.934828
977.327155	18.933106
977.727250	18.925954
978.127307	18.918520
978.527325	18.938142
978.927306	18.919793
979.327248	18.975053
979.727151	18.943825
980.127017	18.992226
980.526844	19.016384
980.926633	19.074221
981.326383	19.097056
981.726095	19.120471
982.125769	19.106423
982.525404	19.170608
982.925001	19.237913
983.324560	19.259600
983.724079	19.279824
984.123561	19.331962
984.523004	19.426210
984.922408	19.457762
985.321774	19.494076
985.721102	19.619305
986.120390	19.702723
986.519641	19.829659
986.918852	19.807640
987.318025	19.882807
987.717159	19.955690
988.116255	20.014715
988.515312	20.098067
988.914330	20.199155
989.313310	20.294478
989.712250	20.352542
990.111152	20.498453
990.510015	20.647518
990.908840	20.718254
991.307625	20.864705
991.706372	20.893643
992.105080	21.044863
992.503749	21.188449
992.902379	21.371402
993.300970	21.564885
993.699522	21.750385
994.098035	21.921093
994.496510	22.221568
994.894945	22.345382
995.293341	22.482147
995.691698	22.708093
996.090016	22.866345
996.488296	23.111756
996.886535	23.387550
997.284736	23.642224
997.682898	23.891805
998.081021	24.102280
998.479104	24.379544
998.877148	24.574903
999.275153	25.059389
999.673119	25.203274
1000.071046	25.482146
1000.468933	25.778355
1000.866781	26.042108
1001.264590	26.404365
1001.662359	26.766690
1002.060089	27.133028
1002.457780	27.478833
1002.855431	27.801054
1003.253043	28.238040
1003.650615	28.764620
1004.048148	29.295784
1004.445642	29.814054
1004.843096	30.311554
1005.240511	30.814928
1005.637886	31.033710
1006.035221	31.461881
1006.432517	32.002046
1006.829774	32.357212
1007.226991	32.831500
1007.624168	33.378602
1008.021306	33.808448
1008.418404	34.415932
1008.815462	34.917950
1009.212481	35.517306
1009.609460	36.212705
1010.006399	36.971080
1010.403298	37.618465
1010.800158	38.275412
1011.196978	38.731676
1011.593758	39.215254
1011.990498	40.097550
1012.387199	40.796165
1012.783860	41.489298
1013.180480	42.382391
1013.577061	43.172563
1013.973602	44.203421
1014.370103	44.988503
1014.766564	45.510726
1015.162985	46.050269
1015.559366	46.499131
1015.955708	46.989059
1016.352009	47.548068
1016.748270	47.795629
1017.144491	48.117986
1017.540671	48.281316
1017.936812	48.940227
1018.332913	49.428979
1018.728973	49.784756
1019.124994	50.520622
1019.520974	51.502831
1019.916914	52.108057
1020.312814	53.002876
