Time1=100ms:Average1=5:Objective=10X:Aperture=1: (11/28/2018 9:59:12 AM)
11/28/2018 9:59:12 AM
Reflectance
10X
Ap#: 1
Avg1: 5.000000
Avg2: 0.000000
Int.Time1:100.000000

350.166136	95.171195
350.601937	95.785274
351.037728	96.369138
351.473509	96.183953
351.909281	96.413916
352.345042	96.145917
352.780794	96.372452
353.216536	96.099227
353.652267	96.095934
354.087989	95.981578
354.523701	96.006476
354.959403	95.910647
355.395095	96.090942
355.830777	95.228272
356.266449	95.436650
356.702110	95.619850
357.137762	95.916353
357.573404	95.850103
358.009035	95.446022
358.444656	95.329523
358.880268	95.522388
359.315869	95.404658
359.751459	94.990229
360.187040	94.852614
360.622610	94.581673
361.058170	94.656421
361.493720	94.416917
361.929260	94.151427
362.364789	94.028134
362.800308	94.329577
363.235816	94.275524
363.671314	94.277565
364.106802	94.102496
364.542279	93.803665
364.977746	94.104630
365.413203	94.222577
365.848649	94.107714
366.284084	93.887314
366.719509	93.948254
367.154924	93.506149
367.590328	93.543251
368.025721	93.389381
368.461104	93.266349
368.896477	93.095532
369.331838	93.188035
369.767189	93.379420
370.202530	93.109541
370.637859	92.320549
371.073178	92.172692
371.508486	92.199141
371.943784	92.378530
372.379071	92.134536
372.814347	92.330642
373.249612	92.483316
373.684866	92.484488
374.120110	92.426098
374.555343	92.175205
374.990565	91.847256
375.425776	91.765320
375.860976	91.623082
376.296165	91.149136
376.731343	91.360485
377.166511	90.913017
377.601667	90.906731
378.036812	90.990133
378.471946	90.999567
378.907070	90.773887
379.342182	90.886317
379.777283	91.259529
380.212373	91.395429
380.647452	91.622720
381.082520	91.609899
381.517576	91.580489
381.952622	91.740821
382.387656	91.726155
382.822679	91.739879
383.257691	91.511618
383.692692	91.198566
384.127681	91.727265
384.562659	91.555556
384.997626	91.680858
385.432581	91.670215
385.867525	91.910823
386.302458	91.576434
386.737379	91.305456
387.172289	90.929917
387.607188	90.766757
388.042075	90.889884
388.476951	91.440908
388.911815	91.692830
389.346668	91.803140
389.781509	91.984797
390.216338	91.568297
390.651157	91.684219
391.085963	91.615352
391.520758	91.566976
391.955541	90.992200
392.390313	90.857239
392.825073	90.693782
393.259821	90.415309
393.694558	90.145073
394.129283	90.032449
394.563996	90.059162
394.998698	90.151263
395.433388	90.265633
395.868066	90.122179
396.302732	90.403269
396.737386	90.159826
397.172029	89.956976
397.606659	89.554913
398.041278	89.061552
398.475885	88.626185
398.910480	87.927798
399.345063	86.673753
399.779634	86.345459
400.214194	85.090965
400.648741	83.850955
401.083276	82.379996
401.517799	80.283042
401.952310	77.854612
402.386809	75.565266
402.821296	72.832957
403.255771	70.154088
403.690234	67.164823
404.124684	63.893339
404.559123	60.691591
404.993549	57.662922
405.427963	54.385690
405.862365	51.374459
406.296754	48.524922
406.731131	45.746316
407.165496	43.165250
407.599849	40.796908
408.034190	38.398491
408.468518	36.150835
408.902833	34.072762
409.337137	32.278041
409.771428	30.517594
410.205706	29.006381
410.639973	27.583058
411.074226	26.299779
411.508467	25.175326
411.942696	24.155416
412.376912	23.263425
412.811116	22.425161
413.245307	21.584214
413.679486	20.878404
414.113652	20.211281
414.547805	19.587618
414.981946	19.018841
415.416074	18.475594
415.850190	17.970344
416.284293	17.538118
416.718383	17.133972
417.152460	16.757964
417.586525	16.424934
418.020577	16.111694
418.454616	15.775673
418.888643	15.571066
419.322656	15.341045
419.756657	15.107520
420.190645	14.904442
420.624620	14.715403
421.058582	14.530871
421.492531	14.360723
421.926468	14.208428
422.360391	14.078692
422.794301	13.932340
423.228199	13.831246
423.662083	13.701204
424.095955	13.603385
424.529813	13.502541
424.963658	13.401436
425.397491	13.328069
425.831310	13.234120
426.265116	13.167806
426.698909	13.088387
427.132689	13.010491
427.566455	12.930919
428.000209	12.852950
428.433949	12.789307
428.867676	12.739276
429.301389	12.689319
429.735090	12.653375
430.168777	12.577424
430.602451	12.548665
431.036111	12.486248
431.469759	12.424701
431.903392	12.389515
432.337013	12.304304
432.770620	12.230309
433.204213	12.164840
433.637794	12.099136
434.071360	12.031086
434.504914	11.962308
434.938453	11.897748
435.371979	11.839574
435.805492	11.775502
436.238991	11.714595
436.672477	11.651909
437.105949	11.607106
437.539407	11.550640
437.972852	11.495724
438.406283	11.425956
438.839700	11.340925
439.273104	11.277445
439.706494	11.201729
440.139871	11.127476
440.573233	11.068216
441.006582	11.007417
441.439917	10.954534
441.873238	10.910250
442.306546	10.861878
442.739839	10.821461
443.173119	10.756015
443.606385	10.712506
444.039636	10.650100
444.472874	10.601522
444.906099	10.553226
445.339309	10.498475
445.772505	10.465157
446.205687	10.419932
446.638855	10.382193
447.072009	10.344409
447.505149	10.317825
447.938275	10.281699
448.371387	10.265354
448.804485	10.241976
449.237569	10.202865
449.670638	10.158561
450.103694	10.120125
450.536735	10.066873
450.969762	10.018809
451.402774	9.977897
451.835773	9.942023
452.268757	9.908558
452.701727	9.861260
453.134683	9.813836
453.567624	9.780103
454.000551	9.734520
454.433464	9.682086
454.866362	9.628363
455.299246	9.577954
455.732116	9.522853
456.164971	9.456511
456.597811	9.398083
457.030638	9.339945
457.463449	9.279611
457.896246	9.223261
458.329029	9.162996
458.761797	9.111348
459.194551	9.061487
459.627290	9.016192
460.060014	8.969373
460.492724	8.924081
460.925419	8.878836
461.358099	8.843035
461.790765	8.791047
462.223416	8.750635
462.656052	8.720050
463.088674	8.692294
463.521281	8.657824
463.953873	8.638909
464.386450	8.620990
464.819012	8.596586
465.251560	8.575211
465.684093	8.554352
466.116611	8.545213
466.549114	8.549131
466.981602	8.541809
467.414075	8.533974
467.846533	8.529886
468.278977	8.529880
468.711405	8.519446
469.143818	8.517666
469.576216	8.513171
470.008600	8.514316
470.440968	8.513037
470.873321	8.513514
471.305659	8.501331
471.737982	8.501300
472.170289	8.497425
472.602582	8.484941
473.034859	8.479682
473.467122	8.466883
473.899369	8.451594
474.331600	8.434595
474.763817	8.413212
475.196018	8.400342
475.628204	8.390792
476.060375	8.386217
476.492530	8.374559
476.924670	8.362486
477.356795	8.346128
477.788904	8.323369
478.220998	8.305098
478.653076	8.285271
479.085139	8.270108
479.517186	8.246002
479.949219	8.226085
480.381235	8.206938
480.813236	8.186342
481.245221	8.176862
481.677191	8.165128
482.109146	8.166686
482.541084	8.155988
482.973008	8.156709
483.404915	8.154734
483.836807	8.158109
484.268683	8.164912
484.700544	8.184049
485.132388	8.199103
485.564217	8.214397
485.996031	8.240781
486.427828	8.264810
486.859610	8.296873
487.291376	8.339009
487.723126	8.370710
488.154860	8.410620
488.586579	8.453861
489.018281	8.495247
489.449968	8.531804
489.881639	8.577612
490.313293	8.624651
490.744932	8.678750
491.176555	8.743853
491.608162	8.805204
492.039753	8.876279
492.471328	8.948843
492.902886	9.030097
493.334429	9.106783
493.765956	9.183479
494.197466	9.261461
494.628960	9.334498
495.060439	9.407593
495.491901	9.470928
495.923347	9.540533
496.354776	9.603917
496.786190	9.672465
497.217587	9.740178
497.648968	9.803628
498.080332	9.868786
498.511681	9.934335
498.943013	10.006306
499.374328	10.074927
499.805628	10.148860
500.236911	10.216310
500.668177	10.283717
501.099427	10.366342
501.530661	10.447627
501.961878	10.521376
502.393079	10.588800
502.824264	10.666717
503.255431	10.745527
503.686583	10.828169
504.117717	10.901530
504.548835	10.965257
504.979937	11.037722
505.411022	11.100401
505.842090	11.162917
506.273142	11.225653
506.704177	11.295272
507.135195	11.359023
507.566197	11.433318
507.997182	11.512246
508.428150	11.599318
508.859102	11.692340
509.290036	11.787686
509.720954	11.892970
510.151855	11.999476
510.582739	12.107589
511.013607	12.225742
511.444457	12.337983
511.875291	12.456366
512.306107	12.565658
512.736907	12.676717
513.167690	12.783006
513.598456	12.888324
514.029205	12.988815
514.459936	13.083034
514.890651	13.176730
515.321349	13.268745
515.752030	13.374300
516.182693	13.475230
516.613340	13.574088
517.043969	13.673668
517.474582	13.785390
517.905177	13.905167
518.335755	14.025225
518.766315	14.153660
519.196859	14.281176
519.627385	14.418671
520.057894	14.552319
520.488386	14.702218
520.918860	14.844911
521.349318	14.984409
521.779757	15.119772
522.210180	15.258225
522.640585	15.397560
523.070973	15.532490
523.501343	15.665151
523.931696	15.798882
524.362031	15.927661
524.792349	16.074813
525.222650	16.212527
525.652933	16.367926
526.083198	16.531769
526.513446	16.707300
526.943677	16.894184
527.373890	17.101478
527.804085	17.326156
528.234262	17.569347
528.664422	17.838279
529.094565	18.120607
529.524689	18.417944
529.954796	18.731701
530.384885	19.069376
530.814957	19.418015
531.245011	19.791315
531.675047	20.182467
532.105065	20.594433
532.535065	21.030757
532.965048	21.483662
533.395013	21.971932
533.824959	22.475896
534.254888	23.007185
534.684799	23.593244
535.114693	24.201907
535.544568	24.828829
535.974425	25.479050
536.404264	26.167434
536.834086	26.879074
537.263889	27.623547
537.693674	28.398036
538.123441	29.193752
538.553190	30.018723
538.982921	30.856469
539.412634	31.719167
539.842329	32.593861
540.272006	33.495962
540.701664	34.398361
541.131304	35.308656
541.560926	36.238833
541.990530	37.175267
542.420116	38.090083
542.849683	38.999548
543.279232	39.917496
543.708763	40.821671
544.138275	41.727112
544.567769	42.617456
544.997245	43.502490
545.426702	44.394289
545.856141	45.286852
546.285562	46.176385
546.714964	47.057277
547.144347	47.945763
547.573713	48.850283
548.003059	49.728969
548.432387	50.616210
548.861697	51.517310
549.290988	52.432781
549.720260	53.351888
550.149514	54.280891
550.578750	55.211110
551.007966	56.128937
551.437164	57.050554
551.866344	58.002176
552.295504	58.956402
552.724646	59.914725
553.153769	60.880576
553.582874	61.859965
554.011960	62.872169
554.441027	63.875513
554.870075	64.867211
555.299104	65.859459
555.728115	66.859354
556.157106	67.887866
556.586079	68.874785
557.015033	69.877910
557.443968	70.872779
557.872884	71.850671
558.301781	72.816438
558.730659	73.775725
559.159518	74.705872
559.588358	75.640318
560.017180	76.545942
560.445982	77.439386
560.874765	78.305590
561.303528	79.158675
561.732273	79.997117
562.160999	80.791537
562.589705	81.553681
563.018393	82.286643
563.447061	83.003968
563.875710	83.682594
564.304340	84.356521
564.732950	84.994242
565.161542	85.614567
565.590114	86.237665
566.018666	86.843224
566.447200	87.418622
566.875714	87.976845
567.304208	88.499282
567.732684	89.016002
568.161140	89.530275
568.589576	90.012734
569.017993	90.512323
569.446391	90.956353
569.874769	91.423604
570.303128	91.856120
570.731467	92.290596
571.159787	92.729239
571.588087	93.157143
572.016368	93.563379
572.444629	93.949187
572.872870	94.350921
573.301092	94.742355
573.729294	95.129937
574.157476	95.510773
574.585639	95.889367
575.013782	96.260339
575.441906	96.639963
575.870009	97.018449
576.298093	97.375854
576.726157	97.730175
577.154202	98.068779
577.582226	98.402609
578.010231	98.728819
578.438216	99.030553
578.866181	99.308706
579.294126	99.580129
579.722051	99.861783
580.149957	100.127498
580.577842	100.374404
581.005707	100.612500
581.433553	100.816002
581.861378	101.036265
582.289184	101.231232
582.716969	101.415011
583.144734	101.582376
583.572479	101.750027
584.000205	101.892643
584.427910	102.029246
584.855594	102.147556
585.283259	102.260807
585.710904	102.381952
586.138528	102.465719
586.566132	102.551827
586.993716	102.626419
587.421280	102.687709
587.848823	102.740900
588.276346	102.781779
588.703849	102.827236
589.131332	102.860782
589.558794	102.907886
589.986236	102.928167
590.413657	102.956619
590.841058	102.973961
591.268438	102.982511
591.695799	102.981121
592.123138	102.987907
592.550458	102.988379
592.977756	102.994955
593.405034	103.001500
593.832292	103.014529
594.259529	103.029217
594.686746	103.046989
595.113942	103.077055
595.541117	103.087278
595.968272	103.136030
596.395406	103.192511
596.822519	103.235992
597.249612	103.295386
597.676684	103.352091
598.103735	103.410728
598.530766	103.466042
598.957775	103.554124
599.384764	103.634329
599.811733	103.722211
600.238680	103.797021
600.665606	103.890209
601.092512	103.969284
601.519397	104.042193
601.946261	104.111142
602.373104	104.187304
602.799926	104.245639
603.226727	104.309199
603.653507	104.375314
604.080266	104.439856
604.507004	104.513143
604.933721	104.592373
605.360417	104.652859
605.787092	104.697917
606.213746	104.731493
606.640379	104.756274
607.066991	104.780495
607.493581	104.804899
607.920150	104.832751
608.346699	104.826349
608.773226	104.838163
609.199731	104.815346
609.626216	104.783860
610.052679	104.740409
610.479121	104.681385
610.905542	104.621315
611.331941	104.548877
611.758319	104.498097
612.184676	104.406995
612.611011	104.297065
613.037325	104.167854
613.463617	104.055566
613.889888	103.904809
614.316138	103.745915
614.742366	103.587295
615.168573	103.422065
615.594758	103.239404
616.020921	103.061521
616.447063	102.871013
616.873184	102.675272
617.299283	102.475954
617.725360	102.266054
618.151416	102.056508
618.577450	101.839348
619.003462	101.624720
619.429453	101.403010
619.855422	101.185512
620.281369	100.977170
620.707295	100.773662
621.133199	100.569813
621.559081	100.377819
621.984941	100.187537
622.410779	100.008485
622.836596	99.820327
623.262391	99.659750
623.688163	99.489596
624.113914	99.322074
624.539644	99.164190
624.965351	98.987556
625.391036	98.830360
625.816699	98.684229
626.242340	98.531764
626.667960	98.375789
627.093557	98.222843
627.519132	98.083079
627.944685	97.942949
628.370216	97.784442
628.795725	97.632749
629.221212	97.459212
629.646677	97.302337
630.072119	97.111599
630.497540	96.909470
630.922938	96.689881
631.348314	96.434249
631.773668	96.179750
632.198999	95.904402
632.624308	95.604443
633.049595	95.288237
633.474860	94.931060
633.900102	94.538247
634.325322	94.112414
634.750520	93.666634
635.175695	93.170957
635.600848	92.646389
636.025978	92.090080
636.451086	91.496188
636.876171	90.878293
637.301234	90.221928
637.726275	89.533711
638.151293	88.811406
638.576288	88.039442
639.001261	87.236430
639.426211	86.408324
639.851139	85.545584
640.276044	84.646727
640.700927	83.705166
641.125787	82.725968
641.550624	81.730967
641.975438	80.688230
642.400230	79.620810
642.824999	78.515682
643.249745	77.391092
643.674469	76.240285
644.099169	75.084690
644.523847	73.917017
644.948502	72.724959
645.373135	71.527772
645.797744	70.329511
646.222330	69.130278
646.646894	67.946618
647.071435	66.781386
647.495953	65.638295
647.920447	64.514533
648.344919	63.420583
648.769368	62.357387
649.193794	61.336711
649.618197	60.341277
650.042576	59.399915
650.466933	58.504488
650.891267	57.650443
651.315577	56.846512
651.739864	56.095010
652.164129	55.398771
652.588370	54.742513
653.012587	54.117900
653.436782	53.549598
653.860953	53.023856
654.285102	52.549718
654.709226	52.111201
655.133328	51.726553
655.557406	51.391942
655.981461	51.085765
656.405493	50.830772
656.829501	50.611036
657.253486	50.427820
657.677448	50.278910
658.101386	50.176512
658.525301	50.107040
658.949192	50.077602
659.373060	50.070528
659.796904	50.092796
660.220725	50.140805
660.644522	50.226732
661.068296	50.320152
661.492046	50.429351
661.915772	50.570499
662.339475	50.714739
662.763154	50.873430
663.186810	51.033847
663.610442	51.197835
664.034050	51.368560
664.457635	51.548409
664.881196	51.730156
665.304733	51.904895
665.728247	52.092151
666.151736	52.280988
666.575202	52.477102
666.998644	52.679257
667.422062	52.873924
667.845457	53.073357
668.268827	53.280925
668.692174	53.483796
669.115496	53.705876
669.538795	53.943395
669.962070	54.197779
670.385321	54.465347
670.808547	54.760087
671.231750	55.060680
671.654929	55.388975
672.078084	55.732243
672.501214	56.104970
672.924321	56.500293
673.347404	56.913489
673.770462	57.336491
674.193496	57.785521
674.616506	58.268629
675.039492	58.740637
675.462454	59.236969
675.885391	59.745555
676.308305	60.267779
676.731194	60.795086
677.154058	61.329654
677.576899	61.855257
677.999715	62.381504
678.422507	62.902613
678.845274	63.402048
679.268017	63.896621
679.690736	64.376431
680.113430	64.838367
680.536100	65.297301
680.958746	65.739093
681.381367	66.152407
681.803963	66.544522
682.226535	66.919459
682.649083	67.260438
683.071605	67.583747
683.494104	67.887947
683.916578	68.163936
684.339027	68.417859
684.761451	68.635623
685.183851	68.823801
685.606227	68.989347
686.028577	69.128941
686.450903	69.242658
686.873204	69.329518
687.295481	69.390899
687.717733	69.399692
688.139959	69.392548
688.562162	69.350785
688.984339	69.274636
689.406492	69.154880
689.828619	69.020431
690.250722	68.857162
690.672800	68.668258
691.094853	68.456918
691.516881	68.222675
691.938884	67.984309
692.360863	67.722016
692.782816	67.448638
693.204744	67.180331
693.626647	66.895269
694.048526	66.599778
694.470379	66.318899
694.892207	66.036321
695.314010	65.749261
695.735788	65.469257
696.157540	65.193231
696.579268	64.927036
697.000970	64.660699
697.422648	64.405974
697.844300	64.165245
698.265926	63.941706
698.687528	63.725185
699.109104	63.520046
699.530655	63.316366
699.952181	63.128559
700.373681	62.956564
700.795156	62.815063
701.216606	62.684561
701.638030	62.570070
702.059429	62.484832
702.480803	62.415667
702.902151	62.362007
703.323473	62.333386
703.744770	62.319017
704.166042	62.312709
704.587288	62.337438
705.008509	62.367870
705.429704	62.428404
705.850873	62.509149
706.272017	62.595942
706.693135	62.697777
707.114228	62.821004
707.535295	62.938153
707.956336	63.074103
708.377352	63.225472
708.798342	63.397224
709.219306	63.568059
709.640245	63.739210
710.061157	63.921458
710.482044	64.099288
710.902905	64.276665
711.323741	64.445354
711.744550	64.626729
712.165334	64.797203
712.586092	64.984547
713.006823	65.158448
713.427529	65.319983
713.848209	65.469766
714.268863	65.624836
714.689492	65.774786
715.110094	65.917144
715.530670	66.067330
715.951220	66.199747
716.371744	66.324578
716.792242	66.462140
717.212714	66.590717
717.633159	66.717095
718.053579	66.844318
718.473973	66.969087
718.894340	67.080202
719.314681	67.173172
719.734996	67.255760
720.155285	67.322136
720.575547	67.380802
720.995784	67.433997
721.415994	67.452650
721.836177	67.453007
722.256335	67.437389
722.676466	67.396024
723.096570	67.346568
723.516649	67.281520
723.936701	67.208579
724.356726	67.127209
724.776725	67.019579
725.196698	66.910878
725.616644	66.777164
726.036564	66.650096
726.456457	66.507914
726.876324	66.372338
727.296164	66.225074
727.715977	66.070716
728.135764	65.934319
728.555525	65.785496
728.975258	65.651282
729.394966	65.535226
729.814646	65.405439
730.234300	65.304915
730.653927	65.207963
731.073527	65.125959
731.493101	65.052890
731.912648	64.988296
732.332168	64.961697
732.751661	64.963285
733.171128	64.978287
733.590568	65.032675
734.009980	65.101098
734.429366	65.208432
734.848726	65.329915
735.268058	65.480824
735.687363	65.670477
736.106641	65.877493
736.525893	66.116175
736.945117	66.375441
737.364314	66.655345
737.783485	66.948490
738.202628	67.271963
738.621744	67.606917
739.040834	67.959315
739.459896	68.340327
739.878931	68.722353
740.297939	69.112720
740.716919	69.511126
741.135873	69.899954
741.554799	70.291249
741.973698	70.676259
742.392570	71.049833
742.811415	71.416241
743.230232	71.767929
743.649022	72.111675
744.067785	72.445077
744.486521	72.739136
744.905229	73.025924
745.323909	73.288090
745.742563	73.522530
746.161189	73.747735
746.579787	73.936607
746.998358	74.111427
747.416902	74.273081
747.835418	74.418005
748.253907	74.544042
748.672368	74.648488
749.090802	74.740502
749.509208	74.800281
749.927586	74.851946
750.345937	74.877619
750.764261	74.903904
751.182556	74.912790
751.600824	74.925287
752.019065	74.926409
752.437277	74.906891
752.855462	74.895126
753.273620	74.889565
753.691749	74.874040
754.109851	74.860237
754.527925	74.865424
754.945971	74.859917
755.363989	74.855631
755.781980	74.866488
756.199943	74.879467
756.617877	74.885635
757.035784	74.887320
757.453663	74.918830
757.871514	74.947153
758.289337	74.963217
758.707132	74.977608
759.124899	74.991096
759.542639	75.002907
759.960350	74.998871
760.378033	74.981675
760.795688	74.962666
761.213314	74.938228
761.630913	74.903689
762.048484	74.843303
762.466026	74.800896
762.883541	74.733345
763.301027	74.680441
763.718485	74.608316
764.135914	74.531326
764.553316	74.454866
764.970689	74.362483
765.388034	74.286102
765.805351	74.187617
766.222639	74.095441
766.639899	74.015372
767.057131	73.914835
767.474334	73.815900
767.891509	73.729220
768.308655	73.643811
768.725773	73.576352
769.142863	73.505194
769.559924	73.462584
769.976957	73.437195
770.393961	73.410203
770.810936	73.406823
771.227883	73.420631
771.644802	73.450982
772.061692	73.503218
772.478553	73.557959
772.895386	73.631934
773.312190	73.726979
773.728965	73.830465
774.145712	73.958240
774.562430	74.112263
774.979119	74.287273
775.395780	74.477418
775.812411	74.669970
776.229014	74.872900
776.645589	75.102664
777.062134	75.342037
777.478651	75.592389
777.895138	75.846238
778.311597	76.109105
778.728027	76.394339
779.144428	76.648530
779.560800	76.922335
779.977143	77.214436
780.393458	77.505530
780.809743	77.801715
781.225999	78.083080
781.642226	78.346551
782.058425	78.606682
782.474594	78.848325
782.890734	79.066845
783.306845	79.278585
783.722926	79.460493
784.138979	79.636543
784.555003	79.797766
784.970997	79.947848
785.386962	80.089841
785.802898	80.232467
786.218805	80.332992
786.634682	80.441022
787.050531	80.521105
787.466349	80.573806
787.882139	80.642806
788.297899	80.663067
788.713630	80.714946
789.129332	80.743376
789.545004	80.765841
789.960647	80.778795
790.376260	80.771924
790.791844	80.763507
791.207399	80.752121
791.622924	80.735916
792.038419	80.743404
792.453885	80.735957
792.869321	80.721447
793.284728	80.696307
793.700106	80.677317
794.115453	80.679029
794.530771	80.671892
794.946060	80.667529
795.361319	80.664057
795.776548	80.663639
796.191747	80.666186
796.606917	80.676730
797.022057	80.675475
797.437167	80.673178
797.852248	80.641289
798.267298	80.625174
798.682319	80.590571
799.097310	80.555212
799.512271	80.493018
799.927203	80.421268
800.342104	80.343480
800.756976	80.241725
801.171818	80.135822
801.586629	80.000426
802.001411	79.862790
802.416163	79.707398
802.830885	79.553168
803.245577	79.401208
803.660238	79.227492
804.074870	79.032066
804.489472	78.864523
804.904043	78.673420
805.318585	78.482511
805.733096	78.305600
806.147577	78.153090
806.562028	77.993313
806.976449	77.830795
807.390840	77.689514
807.805200	77.570519
808.219530	77.451035
808.633830	77.354644
809.048100	77.281191
809.462339	77.226499
809.876548	77.178308
810.290727	77.158245
810.704875	77.148837
811.118993	77.139267
811.533080	77.154703
811.947137	77.187540
812.361164	77.252738
812.775160	77.337901
813.189126	77.445698
813.603061	77.551186
814.016966	77.693227
814.430840	77.858033
814.844684	78.026734
815.258497	78.217634
815.672280	78.400319
816.086032	78.587034
816.499753	78.820792
816.913444	79.050365
817.327104	79.257221
817.740733	79.484310
818.154331	79.703394
818.567899	79.931315
818.981436	80.129703
819.394943	80.334309
819.808418	80.521984
820.221863	80.695457
820.635277	80.864739
821.048660	81.015256
821.462013	81.157200
821.875334	81.276035
822.288625	81.375258
822.701884	81.473463
823.115113	81.560144
823.528311	81.666363
823.941478	81.753167
824.354614	81.823748
824.767718	81.924851
825.180792	81.996204
825.593835	82.062091
826.006847	82.102242
826.419827	82.175143
826.832777	82.237080
827.245695	82.282457
827.658582	82.355402
828.071438	82.421638
828.484263	82.492585
828.897057	82.569335
829.309819	82.634062
829.722551	82.728829
830.135251	82.829725
830.547919	82.932729
830.960557	83.032543
831.373163	83.107244
831.785738	83.193598
832.198281	83.281048
832.610793	83.381280
833.023274	83.469843
833.435723	83.554852
833.848141	83.664495
834.260528	83.766091
834.672883	83.863649
835.085206	83.947053
835.497498	84.041142
835.909758	84.099597
836.321987	84.123767
836.734185	84.173435
837.146350	84.220080
837.558485	84.211035
837.970587	84.188166
838.382658	84.175652
838.794697	84.163590
839.206705	84.119367
839.618681	84.049939
840.030625	83.969400
840.442538	83.867659
840.854418	83.750918
841.266267	83.620815
841.678084	83.482342
842.089870	83.336128
842.501623	83.167056
842.913345	82.974124
843.325035	82.790066
843.736693	82.630418
844.148319	82.478577
844.559913	82.318099
844.971475	82.175869
845.383005	82.029151
845.794504	81.906571
846.205970	81.784739
846.617404	81.657323
847.028806	81.530885
847.440176	81.407776
847.851514	81.304013
848.262820	81.193985
848.674094	81.121488
849.085336	81.090905
849.496546	81.040504
849.907723	80.972544
850.318868	80.966578
850.729981	80.973499
851.141062	80.968542
851.552110	80.987061
851.963127	80.995445
852.374111	81.024274
852.785062	81.065535
853.195982	81.101662
853.606869	81.119415
854.017723	81.148244
854.428546	81.192505
854.839336	81.224187
855.250093	81.218829
855.660818	81.235141
856.071511	81.239283
856.482171	81.206461
856.892799	81.166498
857.303394	81.103106
857.713956	81.015537
858.124486	80.925812
858.534984	80.807126
858.945449	80.674798
859.355881	80.535864
859.766280	80.372137
860.176647	80.187012
860.586982	79.998279
860.997283	79.801986
861.407552	79.569533
861.817789	79.314738
862.227992	79.062852
862.638163	78.857726
863.048301	78.601937
863.458406	78.324783
863.868478	78.046461
864.278518	77.764066
864.688524	77.479199
865.098498	77.219487
865.508439	76.967661
865.918347	76.683844
866.328222	76.416748
866.738064	76.166062
867.147873	75.893550
867.557649	75.618264
867.967392	75.401510
868.377102	75.146847
868.786779	74.898494
869.196423	74.684431
869.606034	74.451627
870.015612	74.242319
870.425156	74.045765
870.834668	73.836627
871.244146	73.647780
871.653591	73.453985
872.063003	73.247660
872.472382	73.048776
872.881728	72.894055
873.291040	72.723693
873.700319	72.556089
874.109564	72.379640
874.518777	72.199328
874.927956	72.010117
875.337102	71.804184
875.746214	71.596321
876.155293	71.418735
876.564338	71.199191
876.973350	70.985905
877.382329	70.795830
877.791274	70.549936
878.200186	70.316393
878.609064	70.132635
879.017909	69.945051
879.426720	69.734007
879.835497	69.535958
880.244241	69.334158
880.652952	69.129565
881.061629	68.940057
881.470272	68.753939
881.878881	68.556519
882.287457	68.381423
882.695999	68.204824
883.104507	68.029205
883.512982	67.868946
883.921423	67.720705
884.329830	67.564059
884.738203	67.425371
885.146543	67.292027
885.554849	67.148678
885.963120	67.020546
886.371358	66.891269
886.779563	66.780354
887.187733	66.659216
887.595869	66.545587
888.003971	66.412792
888.412040	66.287629
888.820074	66.173723
889.228074	66.094568
889.636041	65.983872
890.043973	65.864985
890.451871	65.748147
890.859736	65.631779
891.267566	65.489614
891.675362	65.365516
892.083124	65.222537
892.490851	65.063334
892.898545	64.908679
893.306204	64.733491
893.713829	64.561404
894.121420	64.377189
894.528977	64.180676
894.936499	63.970487
895.343987	63.767267
895.751441	63.519234
896.158860	63.275148
896.566246	63.003367
896.973596	62.733406
897.380913	62.450162
897.788195	62.148352
898.195442	61.822803
898.602655	61.511190
899.009834	61.166165
899.416978	60.808631
899.824088	60.463182
900.231163	60.127377
900.638204	59.766999
901.045210	59.425129
901.452181	59.057543
901.859118	58.717192
902.266021	58.387273
902.672888	58.044143
903.079721	57.741117
903.486520	57.417445
903.893283	57.127712
904.300012	56.785745
904.706707	56.491810
905.113366	56.243653
905.519991	56.000976
905.926581	55.793788
906.333136	55.582444
906.739656	55.389015
907.146142	55.230930
907.552592	55.078970
907.959008	54.930060
908.365389	54.801329
908.771735	54.681600
909.178046	54.584950
909.584322	54.514322
909.990563	54.426574
910.396769	54.374546
910.802940	54.339289
911.209076	54.307405
911.615177	54.291280
912.021243	54.299978
912.427274	54.307858
912.833270	54.286046
913.239231	54.276843
913.645156	54.276929
914.051046	54.269250
914.456902	54.237180
914.862721	54.213085
915.268506	54.191834
915.674256	54.138404
916.079970	54.110764
916.485649	54.064733
916.891292	54.024480
917.296901	53.968562
917.702474	53.865693
918.108011	53.772494
918.513514	53.668249
918.918980	53.560821
919.324412	53.432993
919.729808	53.280068
920.135169	53.126710
920.540494	52.988088
920.945783	52.892462
921.351037	52.724016
921.756256	52.589315
922.161439	52.412772
922.566586	52.258726
922.971698	52.096255
923.376775	51.948887
923.781815	51.770465
924.186820	51.610408
924.591790	51.455946
924.996723	51.292078
925.401621	51.138642
925.806484	50.989838
926.211310	50.823497
926.616101	50.672636
927.020856	50.524681
927.425575	50.362454
927.830259	50.224192
928.234906	50.116223
928.639518	49.933622
929.044094	49.761137
929.448634	49.621023
929.853138	49.456892
930.257606	49.331999
930.662038	49.156495
931.066434	48.979324
931.470795	48.809169
931.875119	48.627623
932.279407	48.472719
932.683659	48.288506
933.087875	48.066251
933.492055	47.820059
933.896199	47.608804
934.300307	47.355155
934.704379	47.111034
935.108414	46.867540
935.512414	46.624485
935.916377	46.345912
936.320304	46.054256
936.724195	45.770307
937.128049	45.473364
937.531867	45.165214
937.935649	44.856972
938.339395	44.553356
938.743104	44.224578
939.146777	43.901729
939.550414	43.587716
939.954014	43.253387
940.357578	42.919564
940.761105	42.587358
941.164596	42.307530
941.568050	42.015726
941.971468	41.750374
942.374850	41.523002
942.778195	41.269806
943.181503	41.050350
943.584775	40.827487
943.988010	40.596112
944.391209	40.374662
944.794371	40.173251
945.197496	40.004417
945.600585	39.875820
946.003637	39.727178
946.406653	39.619128
946.809632	39.503459
947.212574	39.413542
947.615479	39.322692
948.018347	39.232357
948.421179	39.159445
948.823974	39.134222
949.226732	39.066243
949.629453	39.002389
950.032138	38.943588
950.434785	38.895052
950.837396	38.841896
951.239969	38.811626
951.642506	38.800354
952.045006	38.748006
952.447469	38.707537
952.849895	38.680147
953.252283	38.629872
953.654635	38.573119
954.056950	38.514314
954.459227	38.444366
954.861468	38.362894
955.263671	38.238584
955.665838	38.164133
956.067967	38.084786
956.470059	37.998063
956.872114	37.923001
957.274131	37.769913
957.676112	37.623520
958.078055	37.512171
958.479961	37.362133
958.881829	37.199780
959.283661	36.998526
959.685455	36.815624
960.087211	36.633008
960.488931	36.452461
960.890613	36.254839
961.292257	36.002637
961.693864	35.815218
962.095434	35.622997
962.496966	35.431207
962.898461	35.240425
963.299918	35.064633
963.701338	34.844391
964.102720	34.598325
964.504065	34.404714
964.905372	34.269758
965.306641	34.072878
965.707873	33.886028
966.109068	33.714689
966.510224	33.537995
966.911343	33.350629
967.312425	33.198820
967.713468	33.083501
968.114474	32.941126
968.515442	32.806921
968.916373	32.750374
969.317265	32.677261
969.718120	32.635815
970.118937	32.617140
970.519716	32.545194
970.920458	32.530306
971.321161	32.542546
971.721827	32.596255
972.122454	32.639039
972.523044	32.651056
972.923596	32.671686
973.324110	32.699123
973.724585	32.750088
974.125023	32.842885
974.525423	32.892964
974.925785	32.976974
975.326108	33.069656
975.726394	33.135762
976.126642	33.265273
976.526851	33.393493
976.927022	33.513791
977.327155	33.559710
977.727250	33.652134
978.127307	33.723033
978.527325	33.836666
978.927306	33.979780
979.327248	34.085985
979.727151	34.182948
980.127017	34.233672
980.526844	34.292677
980.926633	34.381034
981.326383	34.381482
981.726095	34.429444
982.125769	34.412038
982.525404	34.458641
982.925001	34.525816
983.324560	34.509701
983.724079	34.530279
984.123561	34.542954
984.523004	34.567515
984.922408	34.593675
985.321774	34.621219
985.721102	34.693602
986.120390	34.733241
986.519641	34.774157
986.918852	34.771034
987.318025	34.827540
987.717159	34.851100
988.116255	34.911226
988.515312	34.948416
988.914330	34.972211
989.313310	34.940115
989.712250	35.052354
990.111152	35.214975
990.510015	35.378874
990.908840	35.398985
991.307625	35.456189
991.706372	35.569399
992.105080	35.597089
992.503749	35.806197
992.902379	35.952193
993.300970	36.110907
993.699522	36.305661
994.098035	36.494236
994.496510	36.727123
994.894945	36.831325
995.293341	36.916195
995.691698	37.172247
996.090016	37.318304
996.488296	37.432955
996.886535	37.587456
997.284736	37.743755
997.682898	37.901081
998.081021	38.089844
998.479104	38.257548
998.877148	38.369746
999.275153	38.654204
999.673119	38.796199
1000.071046	38.949814
1000.468933	39.185976
1000.866781	39.276530
1001.264590	39.518504
1001.662359	39.852628
1002.060089	40.075167
1002.457780	40.154452
1002.855431	40.319304
1003.253043	40.639181
1003.650615	41.005449
1004.048148	41.251788
1004.445642	41.681176
1004.843096	41.954780
1005.240511	42.196953
1005.637886	42.548023
1006.035221	42.836325
1006.432517	43.247816
1006.829774	43.663278
1007.226991	44.122756
1007.624168	44.667487
1008.021306	44.850513
1008.418404	45.246369
1008.815462	45.787814
1009.212481	46.229247
1009.609460	47.035611
1010.006399	47.804951
1010.403298	48.338938
1010.800158	49.072380
1011.196978	49.761048
1011.593758	50.336162
1011.990498	51.122958
1012.387199	52.171626
1012.783860	52.629055
1013.180480	53.548308
1013.577061	54.384067
1013.973602	55.331280
1014.370103	56.370891
1014.766564	56.982526
1015.162985	57.488031
1015.559366	58.123913
1015.955708	58.723795
1016.352009	59.437291
1016.748270	59.891650
1017.144491	60.651505
1017.540671	61.503585
1017.936812	61.803297
1018.332913	62.360219
1018.728973	62.838693
1019.124994	63.678161
1019.520974	64.643531
1019.916914	65.209244
1020.312814	66.604635
