Time1=100ms:Average1=5:Objective=10X:Aperture=1: (11/28/2018 9:30:12 AM)
11/28/2018 9:30:12 AM
Reflectance
10X
Ap#: 1
Avg1: 5.000000
Avg2: 0.000000
Int.Time1:100.000000

350.166136	64.549508
350.601937	64.495707
351.037728	64.412210
351.473509	64.347981
351.909281	64.478145
352.345042	64.291476
352.780794	64.451827
353.216536	64.209959
353.652267	64.078983
354.087989	63.852267
354.523701	63.851412
354.959403	63.853360
355.395095	64.081596
355.830777	63.907077
356.266449	63.690050
356.702110	63.570405
357.137762	63.767726
357.573404	63.536356
358.009035	63.577105
358.444656	63.913199
358.880268	63.821611
359.315869	63.879718
359.751459	63.892343
360.187040	64.012824
360.622610	63.824701
361.058170	63.743155
361.493720	64.059459
361.929260	64.316636
362.364789	63.903388
362.800308	64.202680
363.235816	64.172983
363.671314	64.167929
364.106802	64.153122
364.542279	64.255997
364.977746	64.264849
365.413203	64.314874
365.848649	63.944188
366.284084	63.811127
366.719509	63.990785
367.154924	63.629125
367.590328	63.683000
368.025721	63.787611
368.461104	63.370351
368.896477	63.323327
369.331838	63.222448
369.767189	63.449437
370.202530	63.374558
370.637859	63.203730
371.073178	63.592489
371.508486	63.669033
371.943784	63.927381
372.379071	64.062363
372.814347	64.241839
373.249612	63.900597
373.684866	63.820676
374.120110	63.967116
374.555343	64.058402
374.990565	63.893743
375.425776	63.596797
375.860976	63.572176
376.296165	63.241553
376.731343	63.561525
377.166511	63.531139
377.601667	63.531753
378.036812	63.354682
378.471946	63.565556
378.907070	63.640294
379.342182	64.132688
379.777283	64.189189
380.212373	64.040859
380.647452	64.390075
381.082520	64.525308
381.517576	64.486384
381.952622	64.751620
382.387656	64.642642
382.822679	64.694229
383.257691	64.254480
383.692692	64.222298
384.127681	64.368209
384.562659	64.017094
384.997626	63.896458
385.432581	63.597649
385.867525	63.432135
386.302458	63.517776
386.737379	63.810981
387.172289	63.575428
387.607188	63.583277
388.042075	63.804614
388.476951	64.028107
388.911815	64.005091
389.346668	64.182002
389.781509	64.146959
390.216338	63.920742
390.651157	64.015503
391.085963	64.107971
391.520758	64.220725
391.955541	63.851380
392.390313	63.605100
392.825073	63.436271
393.259821	63.324141
393.694558	63.306653
394.129283	63.233214
394.563996	63.219732
394.998698	63.264628
395.433388	63.391488
395.868066	63.586664
396.302732	63.800718
396.737386	63.794733
397.172029	63.671379
397.606659	63.065521
398.041278	62.591558
398.475885	62.348194
398.910480	61.798650
399.345063	61.135388
399.779634	60.632061
400.214194	59.777261
400.648741	58.754718
401.083276	57.503194
401.517799	56.199552
401.952310	54.684006
402.386809	53.222763
402.821296	51.332465
403.255771	49.607968
403.690234	47.446472
404.124684	45.110924
404.559123	42.845477
404.993549	40.694082
405.427963	38.405326
405.862365	36.342162
406.296754	34.248653
406.731131	32.450954
407.165496	30.660830
407.599849	29.110913
408.034190	27.389570
408.468518	25.901013
408.902833	24.493462
409.337137	23.193246
409.771428	22.001507
410.205706	20.964612
410.639973	20.071925
411.074226	19.270281
411.508467	18.517012
411.942696	17.739324
412.376912	17.125303
412.811116	16.545039
413.245307	15.923933
413.679486	15.431286
414.113652	14.975049
414.547805	14.525673
414.981946	14.066641
415.416074	13.666071
415.850190	13.311366
416.284293	12.986363
416.718383	12.692212
417.152460	12.422493
417.586525	12.191386
418.020577	11.943317
418.454616	11.746611
418.888643	11.602885
419.322656	11.436858
419.756657	11.260554
420.190645	11.069336
420.624620	10.917481
421.058582	10.744920
421.492531	10.608639
421.926468	10.473351
422.360391	10.334306
422.794301	10.211726
423.228199	10.103442
423.662083	10.000307
424.095955	9.885030
424.529813	9.790718
424.963658	9.699517
425.397491	9.664257
425.831310	9.581152
426.265116	9.506742
426.698909	9.432975
427.132689	9.372474
427.566455	9.307377
428.000209	9.243912
428.433949	9.197594
428.867676	9.148641
429.301389	9.111654
429.735090	9.070827
430.168777	9.013538
430.602451	8.956678
431.036111	8.908762
431.469759	8.862600
431.903392	8.792225
432.337013	8.715989
432.770620	8.655924
433.204213	8.614996
433.637794	8.564533
434.071360	8.525184
434.504914	8.491999
434.938453	8.472430
435.371979	8.434051
435.805492	8.409146
436.238991	8.391656
436.672477	8.375867
437.105949	8.360740
437.539407	8.329519
437.972852	8.313253
438.406283	8.293057
438.839700	8.262948
439.273104	8.242228
439.706494	8.228774
440.139871	8.211695
440.573233	8.194910
441.006582	8.187547
441.439917	8.186471
441.873238	8.163518
442.306546	8.150638
442.739839	8.134978
443.173119	8.113580
443.606385	8.109246
444.039636	8.114425
444.472874	8.095915
444.906099	8.092875
445.339309	8.102032
445.772505	8.110798
446.205687	8.111942
446.638855	8.105282
447.072009	8.108706
447.505149	8.106312
447.938275	8.096558
448.371387	8.092303
448.804485	8.094352
449.237569	8.087116
449.670638	8.071749
450.103694	8.050777
450.536735	8.027471
450.969762	8.014299
451.402774	7.994532
451.835773	7.983316
452.268757	7.963236
452.701727	7.940476
453.134683	7.928680
453.567624	7.921823
454.000551	7.908980
454.433464	7.892256
454.866362	7.882390
455.299246	7.883737
455.732116	7.870554
456.164971	7.871166
456.597811	7.881838
457.030638	7.884132
457.463449	7.879659
457.896246	7.882679
458.329029	7.885005
458.761797	7.889297
459.194551	7.891307
459.627290	7.890323
460.060014	7.896686
460.492724	7.911271
460.925419	7.911991
461.358099	7.931716
461.790765	7.940579
462.223416	7.949302
462.656052	7.964511
463.088674	7.981163
463.521281	7.998647
463.953873	8.020552
464.386450	8.049162
464.819012	8.077790
465.251560	8.094146
465.684093	8.127778
466.116611	8.157327
466.549114	8.188987
466.981602	8.214220
467.414075	8.246129
467.846533	8.277657
468.278977	8.297976
468.711405	8.320670
469.143818	8.348732
469.576216	8.356072
470.008600	8.360680
470.440968	8.364331
470.873321	8.370405
471.305659	8.367722
471.737982	8.376183
472.170289	8.383329
472.602582	8.396298
473.034859	8.412825
473.467122	8.431999
473.899369	8.448909
474.331600	8.481915
474.763817	8.500273
475.196018	8.521311
475.628204	8.556404
476.060375	8.594419
476.492530	8.631041
476.924670	8.675252
477.356795	8.709262
477.788904	8.747021
478.220998	8.798652
478.653076	8.848438
479.085139	8.892809
479.517186	8.945603
479.949219	8.999471
480.381235	9.061541
480.813236	9.116360
481.245221	9.181310
481.677191	9.251630
482.109146	9.322664
482.541084	9.395598
482.973008	9.478305
483.404915	9.560870
483.836807	9.648336
484.268683	9.731912
484.700544	9.827969
485.132388	9.913333
485.564217	9.989635
485.996031	10.069567
486.427828	10.152510
486.859610	10.235838
487.291376	10.326522
487.723126	10.406267
488.154860	10.506857
488.586579	10.608506
489.018281	10.697907
489.449968	10.789898
489.881639	10.889841
490.313293	10.985668
490.744932	11.089011
491.176555	11.182276
491.608162	11.261524
492.039753	11.343753
492.471328	11.414154
492.902886	11.478223
493.334429	11.535036
493.765956	11.584918
494.197466	11.642597
494.628960	11.696988
495.060439	11.748977
495.491901	11.806960
495.923347	11.870422
496.354776	11.949330
496.786190	12.034887
497.217587	12.130871
497.648968	12.241054
498.080332	12.356823
498.511681	12.484014
498.943013	12.626946
499.374328	12.769117
499.805628	12.909925
500.236911	13.042441
500.668177	13.178693
501.099427	13.312162
501.530661	13.428353
501.961878	13.553939
502.393079	13.676948
502.824264	13.790124
503.255431	13.904862
503.686583	14.023742
504.117717	14.144237
504.548835	14.268236
504.979937	14.409317
505.411022	14.555408
505.842090	14.710305
506.273142	14.864938
506.704177	15.029537
507.135195	15.187317
507.566197	15.341757
507.997182	15.491170
508.428150	15.637945
508.859102	15.766309
509.290036	15.873368
509.720954	15.968054
510.151855	16.052716
510.582739	16.121234
511.013607	16.172392
511.444457	16.217379
511.875291	16.261041
512.306107	16.301679
512.736907	16.350476
513.167690	16.410564
513.598456	16.492544
514.029205	16.583680
514.459936	16.710840
514.890651	16.868874
515.321349	17.038298
515.752030	17.245238
516.182693	17.489812
516.613340	17.751926
517.043969	18.046158
517.474582	18.371105
517.905177	18.730876
518.335755	19.100591
518.766315	19.506762
519.196859	19.948416
519.627385	20.422120
520.057894	20.910616
520.488386	21.441425
520.918860	22.004153
521.349318	22.606197
521.779757	23.250666
522.210180	23.937558
522.640585	24.675049
523.070973	25.449195
523.501343	26.270425
523.931696	27.140151
524.362031	28.060492
524.792349	29.018805
525.222650	30.024280
525.652933	31.070679
526.083198	32.152047
526.513446	33.263890
526.943677	34.406361
527.373890	35.582526
527.804085	36.772125
528.234262	37.988608
528.664422	39.231679
529.094565	40.485175
529.524689	41.767064
529.954796	43.075211
530.384885	44.399556
530.814957	45.734256
531.245011	47.075147
531.675047	48.435831
532.105065	49.802753
532.535065	51.184194
532.965048	52.574288
533.395013	53.981062
533.824959	55.381544
534.254888	56.784325
534.684799	58.208150
535.114693	59.618048
535.544568	61.013147
535.974425	62.375051
536.404264	63.719706
536.834086	65.020983
537.263889	66.280361
537.693674	67.491111
538.123441	68.676230
538.553190	69.806924
538.982921	70.898893
539.412634	71.945431
539.842329	72.959869
540.272006	73.937330
540.701664	74.862752
541.131304	75.764134
541.560926	76.636622
541.990530	77.468212
542.420116	78.262277
542.849683	78.997999
543.279232	79.704253
543.708763	80.382334
544.138275	81.029066
544.567769	81.651365
544.997245	82.239780
545.426702	82.799803
545.856141	83.346487
546.285562	83.873345
546.714964	84.378621
547.144347	84.866001
547.573713	85.346170
548.003059	85.786228
548.432387	86.220424
548.861697	86.652754
549.290988	87.076438
549.720260	87.494423
550.149514	87.927058
550.578750	88.344724
551.007966	88.757513
551.437164	89.165142
551.866344	89.574630
552.295504	89.950536
552.724646	90.353140
553.153769	90.738842
553.582874	91.115153
554.011960	91.495582
554.441027	91.865645
554.870075	92.204585
555.299104	92.526684
555.728115	92.845880
556.157106	93.153119
556.586079	93.427665
557.015033	93.685990
557.443968	93.928886
557.872884	94.152650
558.301781	94.365444
558.730659	94.557557
559.159518	94.736178
559.588358	94.903440
560.017180	95.041115
560.445982	95.174980
560.874765	95.319193
561.303528	95.469907
561.732273	95.606801
562.160999	95.730912
562.589705	95.859769
563.018393	95.986070
563.447061	96.098913
563.875710	96.207599
564.304340	96.323511
564.732950	96.422445
565.161542	96.541104
565.590114	96.679271
566.018666	96.786940
566.447200	96.893435
566.875714	96.998998
567.304208	97.099390
567.732684	97.181580
568.161140	97.264928
568.589576	97.337742
569.017993	97.408913
569.446391	97.460502
569.874769	97.512373
570.303128	97.540219
570.731467	97.559377
571.159787	97.595546
571.588087	97.611355
572.016368	97.620253
572.444629	97.603831
572.872870	97.599872
573.301092	97.585839
573.729294	97.580942
574.157476	97.546949
574.585639	97.497396
575.013782	97.449331
575.441906	97.403859
575.870009	97.357548
576.298093	97.284159
576.726157	97.228685
577.154202	97.178042
577.582226	97.124027
578.010231	97.084782
578.438216	97.040886
578.866181	96.990025
579.294126	96.954974
579.722051	96.918862
580.149957	96.899686
580.577842	96.867979
581.005707	96.839333
581.433553	96.807039
581.861378	96.798665
582.289184	96.773573
582.716969	96.748902
583.144734	96.712123
583.572479	96.688204
584.000205	96.646501
584.427910	96.601277
584.855594	96.545802
585.283259	96.487836
585.710904	96.419594
586.138528	96.340821
586.566132	96.249226
586.993716	96.144913
587.421280	96.021394
587.848823	95.896574
588.276346	95.749868
588.703849	95.582146
589.131332	95.401735
589.558794	95.221834
589.986236	95.017320
590.413657	94.789556
590.841058	94.551150
591.268438	94.294255
591.695799	94.017377
592.123138	93.742109
592.550458	93.465943
592.977756	93.192590
593.405034	92.906736
593.832292	92.638382
594.259529	92.369840
594.686746	92.109411
595.113942	91.840595
595.541117	91.583782
595.968272	91.350724
596.395406	91.137236
596.822519	90.929892
597.249612	90.737529
597.676684	90.541446
598.103735	90.365822
598.530766	90.195368
598.957775	90.052212
599.384764	89.901019
599.811733	89.783656
600.238680	89.661079
600.665606	89.546687
601.092512	89.425586
601.519397	89.303572
601.946261	89.196795
602.373104	89.087768
602.799926	88.957163
603.226727	88.820812
603.653507	88.675764
604.080266	88.507930
604.507004	88.303630
604.933721	88.090974
605.360417	87.843655
605.787092	87.544858
606.213746	87.204570
606.640379	86.826113
607.066991	86.392616
607.493581	85.919683
607.920150	85.389909
608.346699	84.811478
608.773226	84.192208
609.199731	83.515642
609.626216	82.790129
610.052679	81.998616
610.479121	81.171715
610.905542	80.281720
611.331941	79.336656
611.758319	78.367185
612.184676	77.331437
612.611011	76.235117
613.037325	75.089052
613.463617	73.899903
613.889888	72.664534
614.316138	71.393644
614.742366	70.083288
615.168573	68.734924
615.594758	67.355890
616.020921	65.969628
616.447063	64.560384
616.873184	63.151099
617.299283	61.743232
617.725360	60.349444
618.151416	58.963048
618.577450	57.596871
619.003462	56.251391
619.429453	54.929131
619.855422	53.635061
620.281369	52.373693
620.707295	51.149239
621.133199	49.955321
621.559081	48.806842
621.984941	47.686071
622.410779	46.611702
622.836596	45.572896
623.262391	44.594306
623.688163	43.654624
624.113914	42.771422
624.539644	41.938420
624.965351	41.146746
625.391036	40.407234
625.816699	39.735792
626.242340	39.103433
626.667960	38.518819
627.093557	37.993001
627.519132	37.513339
627.944685	37.091555
628.370216	36.727195
628.795725	36.418871
629.221212	36.163970
629.646677	35.974223
630.072119	35.830438
630.497540	35.751645
630.922938	35.724010
631.348314	35.748793
631.773668	35.830052
632.198999	35.974131
632.624308	36.176878
633.049595	36.430587
633.474860	36.739277
633.900102	37.095388
634.325322	37.514866
634.750520	37.975403
635.175695	38.489405
635.600848	39.044554
636.025978	39.644003
636.451086	40.283495
636.876171	40.969641
637.301234	41.683813
637.726275	42.436266
638.151293	43.215793
638.576288	44.025743
639.001261	44.857686
639.426211	45.724687
639.851139	46.621307
640.276044	47.533596
640.700927	48.470516
641.125787	49.418262
641.550624	50.377568
641.975438	51.339179
642.400230	52.313242
642.824999	53.269121
643.249745	54.223230
643.674469	55.157864
644.099169	56.087204
644.523847	56.986381
644.948502	57.857754
645.373135	58.692720
645.797744	59.485350
646.222330	60.226424
646.646894	60.920110
647.071435	61.560791
647.495953	62.145589
647.920447	62.674623
648.344919	63.140774
648.769368	63.550154
649.193794	63.905706
649.618197	64.197391
650.042576	64.443543
650.466933	64.636275
650.891267	64.769201
651.315577	64.855197
651.739864	64.900008
652.164129	64.890518
652.588370	64.824802
653.012587	64.711174
653.436782	64.530800
653.860953	64.304771
654.285102	64.042105
654.709226	63.728652
655.133328	63.373165
655.557406	62.965134
655.981461	62.513960
656.405493	62.036712
656.829501	61.529699
657.253486	60.983480
657.677448	60.421646
658.101386	59.839525
658.525301	59.231858
658.949192	58.633312
659.373060	58.027097
659.796904	57.427410
660.220725	56.839768
660.644522	56.264686
661.068296	55.693261
661.492046	55.135207
661.915772	54.599223
662.339475	54.074649
662.763154	53.565013
663.186810	53.058131
663.610442	52.571243
664.034050	52.099450
664.457635	51.640393
664.881196	51.188420
665.304733	50.753301
665.728247	50.335416
666.151736	49.932821
666.575202	49.568765
666.998644	49.218994
667.422062	48.887073
667.845457	48.569765
668.268827	48.284668
668.692174	48.024689
669.115496	47.798907
669.538795	47.593064
669.962070	47.411951
670.385321	47.254045
670.808547	47.115139
671.231750	47.003586
671.654929	46.920218
672.078084	46.845347
672.501214	46.803712
672.924321	46.781820
673.347404	46.775513
673.770462	46.774633
674.193496	46.804552
674.616506	46.849376
675.039492	46.895924
675.462454	46.965265
675.885391	47.052996
676.308305	47.162463
676.731194	47.274207
677.154058	47.398510
677.576899	47.534161
677.999715	47.678446
678.422507	47.834494
678.845274	47.998248
679.268017	48.167288
679.690736	48.338144
680.113430	48.516600
680.536100	48.693939
680.958746	48.881174
681.381367	49.058741
681.803963	49.248918
682.226535	49.438582
682.649083	49.634499
683.071605	49.831723
683.494104	50.041121
683.916578	50.257969
684.339027	50.483202
684.761451	50.706751
685.183851	50.943357
685.606227	51.181658
686.028577	51.431961
686.450903	51.690106
686.873204	51.966063
687.295481	52.238546
687.717733	52.527215
688.139959	52.824994
688.562162	53.133370
688.984339	53.446700
689.406492	53.760950
689.828619	54.085500
690.250722	54.421395
690.672800	54.759415
691.094853	55.106695
691.516881	55.446159
691.938884	55.794849
692.360863	56.146337
692.782816	56.487959
693.204744	56.841749
693.626647	57.199379
694.048526	57.544587
694.470379	57.903787
694.892207	58.244788
695.314010	58.587761
695.735788	58.918298
696.157540	59.243709
696.579268	59.563850
697.000970	59.881851
697.422648	60.188844
697.844300	60.493652
698.265926	60.796090
698.687528	61.082865
699.109104	61.356339
699.530655	61.604572
699.952181	61.839696
700.373681	62.061326
700.795156	62.257516
701.216606	62.436705
701.638030	62.590701
702.059429	62.721959
702.480803	62.824800
702.902151	62.902835
703.323473	62.956452
703.744770	62.983605
704.166042	62.975057
704.587288	62.963176
705.008509	62.915268
705.429704	62.851872
705.850873	62.788479
706.272017	62.680503
706.693135	62.543897
707.114228	62.401982
707.535295	62.234374
707.956336	62.061062
708.377352	61.852901
708.798342	61.635277
709.219306	61.406059
709.640245	61.159700
710.061157	60.887998
710.482044	60.604965
710.902905	60.312718
711.323741	59.989467
711.744550	59.674144
712.165334	59.340270
712.586092	59.015012
713.006823	58.685247
713.427529	58.365032
713.848209	58.045849
714.268863	57.733179
714.689492	57.426461
715.110094	57.132194
715.530670	56.858605
715.951220	56.594566
716.371744	56.340380
716.792242	56.102296
717.212714	55.883371
717.633159	55.671770
718.053579	55.481229
718.473973	55.298845
718.894340	55.130242
719.314681	54.976296
719.734996	54.839784
720.155285	54.713129
720.575547	54.610190
720.995784	54.513925
721.415994	54.441714
721.836177	54.383115
722.256335	54.338261
722.676466	54.319141
723.096570	54.324556
723.516649	54.352790
723.936701	54.403569
724.356726	54.483488
724.776725	54.581497
725.196698	54.712179
725.616644	54.851942
726.036564	55.015924
726.456457	55.181473
726.876324	55.378718
727.296164	55.591994
727.715977	55.810689
728.135764	56.045241
728.555525	56.283621
728.975258	56.526595
729.394966	56.781004
729.814646	57.042386
730.234300	57.307835
730.653927	57.568443
731.073527	57.834978
731.493101	58.092973
731.912648	58.331651
732.332168	58.590759
732.751661	58.848954
733.171128	59.091539
733.590568	59.329441
734.009980	59.567800
734.429366	59.800089
734.848726	60.022762
735.268058	60.248818
735.687363	60.459359
736.106641	60.675164
736.525893	60.883409
736.945117	61.092083
737.364314	61.294889
737.783485	61.490010
738.202628	61.676139
738.621744	61.860150
739.040834	62.045092
739.459896	62.232492
739.878931	62.391278
740.297939	62.542260
740.716919	62.696369
741.135873	62.827999
741.554799	62.944681
741.973698	63.056102
742.392570	63.161443
742.811415	63.250351
743.230232	63.324448
743.649022	63.402627
744.067785	63.464880
744.486521	63.519369
744.905229	63.576749
745.323909	63.620086
745.742563	63.663816
746.161189	63.711297
746.579787	63.743108
746.998358	63.777681
747.416902	63.824349
747.835418	63.875642
748.253907	63.913072
748.672368	63.961868
749.090802	63.999155
749.509208	64.022839
749.927586	64.047447
750.345937	64.068214
750.764261	64.084668
751.182556	64.085712
751.600824	64.096560
752.019065	64.090470
752.437277	64.082548
752.855462	64.083883
753.273620	64.091063
753.691749	64.086265
754.109851	64.085877
754.527925	64.090181
754.945971	64.097183
755.363989	64.103153
755.781980	64.117876
756.199943	64.135345
756.617877	64.159079
757.035784	64.188246
757.453663	64.228075
757.871514	64.272570
758.289337	64.320870
758.707132	64.372024
759.124899	64.435020
759.542639	64.504468
759.960350	64.580716
760.378033	64.648306
760.795688	64.732698
761.213314	64.827676
761.630913	64.916637
762.048484	65.004083
762.466026	65.112669
762.883541	65.213808
763.301027	65.328828
763.718485	65.441906
764.135914	65.566693
764.553316	65.693754
764.970689	65.816921
765.388034	65.947972
765.805351	66.070677
766.222639	66.200010
766.639899	66.343054
767.057131	66.489871
767.474334	66.649986
767.891509	66.822146
768.308655	66.995137
768.725773	67.170962
769.142863	67.362887
769.559924	67.556085
769.976957	67.762367
770.393961	67.981475
770.810936	68.197340
771.227883	68.426182
771.644802	68.656458
772.061692	68.898863
772.478553	69.149429
772.895386	69.392761
773.312190	69.648385
773.728965	69.902961
774.145712	70.174232
774.562430	70.446841
774.979119	70.738897
775.395780	71.023654
775.812411	71.311885
776.229014	71.602670
776.645589	71.903854
777.062134	72.216943
777.478651	72.524622
777.895138	72.839633
778.311597	73.149479
778.728027	73.470471
779.144428	73.761947
779.560800	74.062627
779.977143	74.359312
780.393458	74.655570
780.809743	74.943071
781.225999	75.202652
781.642226	75.457048
782.058425	75.695944
782.474594	75.911482
782.890734	76.107296
783.306845	76.289177
783.722926	76.459289
784.138979	76.599679
784.555003	76.730981
784.970997	76.836743
785.386962	76.925985
785.802898	77.006486
786.218805	77.046144
786.634682	77.071856
787.050531	77.057686
787.466349	77.028805
787.882139	76.968682
788.297899	76.891843
788.713630	76.798432
789.129332	76.672941
789.545004	76.523972
789.960647	76.347632
790.376260	76.149001
790.791844	75.934165
791.207399	75.693407
791.622924	75.442867
792.038419	75.197728
792.453885	74.932643
792.869321	74.651686
793.284728	74.350781
793.700106	74.034501
794.115453	73.729691
794.530771	73.409102
794.946060	73.081129
795.361319	72.760273
795.776548	72.421651
796.191747	72.075234
796.606917	71.720726
797.022057	71.369321
797.437167	71.006252
797.852248	70.615570
798.267298	70.229867
798.682319	69.842650
799.097310	69.464265
799.512271	69.081506
799.927203	68.708503
800.342104	68.343102
800.756976	67.981812
801.171818	67.618981
801.586629	67.271250
802.001411	66.933329
802.416163	66.632651
802.830885	66.351070
803.245577	66.091627
803.660238	65.841777
804.074870	65.612326
804.489472	65.421703
804.904043	65.233989
805.318585	65.069595
805.733096	64.949723
806.147577	64.837076
806.562028	64.753466
806.976449	64.689384
807.390840	64.648103
807.805200	64.635031
808.219530	64.624630
808.633830	64.646630
809.048100	64.690456
809.462339	64.765857
809.876548	64.849756
810.290727	64.939988
810.704875	65.082787
811.118993	65.222238
811.533080	65.382295
811.947137	65.565415
812.361164	65.751919
812.775160	65.941805
813.189126	66.140883
813.603061	66.360497
814.016966	66.602210
814.430840	66.840089
814.844684	67.078807
815.258497	67.300121
815.672280	67.517611
816.086032	67.734613
816.499753	67.968364
816.913444	68.180635
817.327104	68.378973
817.740733	68.581393
818.154331	68.762034
818.567899	68.925605
818.981436	69.090702
819.394943	69.239899
819.808418	69.368516
820.221863	69.486172
820.635277	69.591414
821.048660	69.684874
821.462013	69.771190
821.875334	69.820862
822.288625	69.855274
822.701884	69.884504
823.115113	69.897494
823.528311	69.902757
823.941478	69.878719
824.354614	69.817487
824.767718	69.748470
825.180792	69.670425
825.593835	69.571718
826.006847	69.427293
826.419827	69.265172
826.832777	69.071397
827.245695	68.858395
827.658582	68.648066
828.071438	68.425614
828.484263	68.176575
828.897057	67.908020
829.309819	67.622057
829.722551	67.352064
830.135251	67.062779
830.547919	66.759622
830.960557	66.463526
831.373163	66.150136
831.785738	65.824261
832.198281	65.502209
832.610793	65.184798
833.023274	64.842861
833.435723	64.500196
833.848141	64.174114
834.260528	63.838736
834.672883	63.495696
835.085206	63.151269
835.497498	62.805513
835.909758	62.458372
836.321987	62.086564
836.734185	61.736817
837.146350	61.415636
837.558485	61.072980
837.970587	60.731814
838.382658	60.407266
838.794697	60.107314
839.206705	59.810192
839.618681	59.513801
840.030625	59.232195
840.442538	58.952435
840.854418	58.669436
841.266267	58.411023
841.678084	58.171253
842.089870	57.927102
842.501623	57.683232
842.913345	57.438261
843.325035	57.221427
843.736693	57.015221
844.148319	56.829839
844.559913	56.646901
844.971475	56.473626
845.383005	56.307339
845.794504	56.176217
846.205970	56.039643
846.617404	55.910534
847.028806	55.769269
847.440176	55.684424
847.851514	55.613007
848.262820	55.536833
848.674094	55.496245
849.085336	55.480150
849.496546	55.471560
849.907723	55.452601
850.318868	55.456375
850.729981	55.484374
851.141062	55.511105
851.552110	55.557837
851.963127	55.586960
852.374111	55.622707
852.785062	55.671327
853.195982	55.726519
853.606869	55.777855
854.017723	55.836151
854.428546	55.882718
854.839336	55.911843
855.250093	55.940357
855.660818	55.975383
856.071511	56.028447
856.482171	56.057790
856.892799	56.068877
857.303394	56.076323
857.713956	56.080882
858.124486	56.090092
858.534984	56.073594
858.945449	56.073363
859.355881	56.045697
859.766280	56.020261
860.176647	55.969204
860.586982	55.914754
860.997283	55.845953
861.407552	55.768322
861.817789	55.660872
862.227992	55.559449
862.638163	55.472566
863.048301	55.355620
863.458406	55.200586
863.868478	55.056729
864.278518	54.880314
864.688524	54.690743
865.098498	54.539165
865.508439	54.368274
865.918347	54.180529
866.328222	53.982314
866.738064	53.779467
867.147873	53.568350
867.557649	53.372197
867.967392	53.192148
868.377102	52.969611
868.786779	52.749380
869.196423	52.525178
869.606034	52.286179
870.015612	52.069931
870.425156	51.844880
870.834668	51.614205
871.244146	51.379364
871.653591	51.126135
872.063003	50.885984
872.472382	50.640023
872.881728	50.398978
873.291040	50.143889
873.700319	49.887757
874.109564	49.621796
874.518777	49.357408
874.927956	49.064357
875.337102	48.755029
875.746214	48.470462
876.155293	48.204987
876.564338	47.908484
876.973350	47.622982
877.382329	47.364535
877.791274	47.047025
878.200186	46.743387
878.609064	46.454843
879.017909	46.191046
879.426720	45.901749
879.835497	45.619781
880.244241	45.342489
880.652952	45.048244
881.061629	44.783890
881.470272	44.511720
881.878881	44.261325
882.287457	44.022201
882.695999	43.775425
883.104507	43.533263
883.512982	43.299719
883.921423	43.086640
884.329830	42.874931
884.738203	42.669718
885.146543	42.493903
885.554849	42.299322
885.963120	42.121564
886.371358	41.948819
886.779563	41.783753
887.187733	41.627151
887.595869	41.476857
888.003971	41.319978
888.412040	41.155672
888.820074	40.994674
889.228074	40.834726
889.636041	40.653416
890.043973	40.471114
890.451871	40.311101
890.859736	40.125707
891.267566	39.929462
891.675362	39.708921
892.083124	39.499482
892.490851	39.280930
892.898545	39.058011
893.306204	38.829004
893.713829	38.578889
894.121420	38.308955
894.528977	38.014978
894.936499	37.734860
895.343987	37.432994
895.751441	37.124363
896.158860	36.798988
896.566246	36.454733
896.973596	36.116585
897.380913	35.769065
897.788195	35.391929
898.195442	35.012993
898.602655	34.629812
899.009834	34.236566
899.416978	33.863888
899.824088	33.457838
900.231163	33.073140
900.638204	32.698570
901.045210	32.313097
901.452181	31.917216
901.859118	31.557484
902.266021	31.213085
902.672888	30.867645
903.079721	30.533379
903.486520	30.198265
903.893283	29.889699
904.300012	29.586219
904.706707	29.300771
905.113366	29.019832
905.519991	28.752902
905.926581	28.522948
906.333136	28.300748
906.739656	28.090195
907.146142	27.905903
907.552592	27.713720
907.959008	27.553356
908.365389	27.392722
908.771735	27.232412
909.178046	27.110787
909.584322	26.977183
909.990563	26.844719
910.396769	26.746314
910.802940	26.649868
911.209076	26.552797
911.615177	26.459389
912.021243	26.346683
912.427274	26.286033
912.833270	26.212489
913.239231	26.122818
913.645156	26.054805
914.051046	25.985320
914.456902	25.895794
914.862721	25.825190
915.268506	25.756671
915.674256	25.675909
916.079970	25.621159
916.485649	25.560118
916.891292	25.491571
917.296901	25.427092
917.702474	25.377639
918.108011	25.318313
918.513514	25.235342
918.918980	25.180410
919.324412	25.114801
919.729808	25.022215
920.135169	24.954452
920.540494	24.887373
920.945783	24.829299
921.351037	24.787111
921.756256	24.727907
922.161439	24.677426
922.566586	24.641241
922.971698	24.580421
923.376775	24.556127
923.781815	24.532180
924.186820	24.509496
924.591790	24.495851
924.996723	24.459721
925.401621	24.429778
925.806484	24.396846
926.211310	24.367224
926.616101	24.348490
927.020856	24.332060
927.425575	24.304603
927.830259	24.265743
928.234906	24.234079
928.639518	24.189906
929.044094	24.131239
929.448634	24.094426
929.853138	24.038415
930.257606	23.962601
930.662038	23.895506
931.066434	23.816009
931.470795	23.712185
931.875119	23.626176
932.279407	23.554458
932.683659	23.445017
933.087875	23.340618
933.492055	23.219822
933.896199	23.096131
934.300307	22.952670
934.704379	22.792600
935.108414	22.616750
935.512414	22.469585
935.916377	22.291146
936.320304	22.099640
936.724195	21.925833
937.128049	21.721868
937.531867	21.546270
937.935649	21.359740
938.339395	21.179983
938.743104	20.982373
939.146777	20.774558
939.550414	20.561381
939.954014	20.355119
940.357578	20.176078
940.761105	20.004712
941.164596	19.821292
941.568050	19.651839
941.971468	19.486546
942.374850	19.324231
942.778195	19.190226
943.181503	19.047286
943.584775	18.917556
943.988010	18.796100
944.391209	18.668196
944.794371	18.541449
945.197496	18.445455
945.600585	18.335637
946.003637	18.226145
946.406653	18.113641
946.809632	18.019550
947.212574	17.941629
947.615479	17.861802
948.018347	17.766692
948.421179	17.670063
948.823974	17.587107
949.226732	17.470427
949.629453	17.380899
950.032138	17.274017
950.434785	17.191008
950.837396	17.092684
951.239969	17.027234
951.642506	16.946177
952.045006	16.883659
952.447469	16.784485
952.849895	16.696545
953.252283	16.609201
953.654635	16.522497
954.056950	16.422579
954.459227	16.326643
954.861468	16.217898
955.263671	16.085829
955.665838	15.989177
956.067967	15.911046
956.470059	15.822773
956.872114	15.732960
957.274131	15.642571
957.676112	15.531406
958.078055	15.457644
958.479961	15.394734
958.881829	15.315587
959.283661	15.244241
959.685455	15.164954
960.087211	15.127791
960.488931	15.075367
960.890613	15.015212
961.292257	14.958803
961.693864	14.944026
962.095434	14.925069
962.496966	14.909838
962.898461	14.875742
963.299918	14.898904
963.701338	14.863825
964.102720	14.852206
964.504065	14.871546
964.905372	14.910024
965.306641	14.909344
965.707873	14.889874
966.109068	14.962137
966.510224	15.001062
966.911343	15.023617
967.312425	15.097447
967.713468	15.162686
968.114474	15.215272
968.515442	15.258670
968.916373	15.307096
969.317265	15.361554
969.718120	15.437922
970.118937	15.528727
970.519716	15.554260
970.920458	15.599654
971.321161	15.677842
971.721827	15.761674
972.122454	15.857393
972.523044	15.925138
972.923596	16.032836
973.324110	16.115726
973.724585	16.201985
974.125023	16.289312
974.525423	16.369638
974.925785	16.458897
975.326108	16.533658
975.726394	16.581730
976.126642	16.663987
976.526851	16.746970
976.927022	16.755238
977.327155	16.828304
977.727250	16.877012
978.127307	16.960172
978.527325	16.988134
978.927306	17.021793
979.327248	17.081844
979.727151	17.101703
980.127017	17.166014
980.526844	17.176679
980.926633	17.239521
981.326383	17.279001
981.726095	17.316308
982.125769	17.322370
982.525404	17.335707
982.925001	17.382622
983.324560	17.388355
983.724079	17.421918
984.123561	17.423769
984.523004	17.425584
984.922408	17.430272
985.321774	17.376228
985.721102	17.430922
986.120390	17.434297
986.519641	17.462530
986.918852	17.482089
987.318025	17.440405
987.717159	17.428948
988.116255	17.435485
988.515312	17.432402
988.914330	17.501303
989.313310	17.546114
989.712250	17.572881
990.111152	17.632118
990.510015	17.631960
990.908840	17.613334
991.307625	17.634391
991.706372	17.657924
992.105080	17.710157
992.503749	17.740718
992.902379	17.760749
993.300970	17.782957
993.699522	17.845219
994.098035	17.952702
994.496510	18.044596
994.894945	18.142570
995.293341	18.170812
995.691698	18.284875
996.090016	18.301664
996.488296	18.343885
996.886535	18.521518
997.284736	18.549557
997.682898	18.609195
998.081021	18.689449
998.479104	18.708564
998.877148	18.825370
999.275153	18.872650
999.673119	18.951954
1000.071046	19.126465
1000.468933	19.255654
1000.866781	19.431963
1001.264590	19.470585
1001.662359	19.596354
1002.060089	19.725396
1002.457780	19.901994
1002.855431	20.097759
1003.253043	20.296901
1003.650615	20.534290
1004.048148	20.676973
1004.445642	20.941570
1004.843096	21.142959
1005.240511	21.353597
1005.637886	21.447791
1006.035221	21.613744
1006.432517	21.759660
1006.829774	21.890126
1007.226991	21.970386
1007.624168	22.144888
1008.021306	22.353555
1008.418404	22.618729
1008.815462	23.074462
1009.212481	23.267048
1009.609460	23.589990
1010.006399	23.919837
1010.403298	24.177112
1010.800158	24.651163
1011.196978	24.829512
1011.593758	25.195635
1011.990498	25.640880
1012.387199	26.199801
1012.783860	26.404461
1013.180480	26.647759
1013.577061	26.889794
1013.973602	27.550954
1014.370103	27.776275
1014.766564	27.915897
1015.162985	28.096948
1015.559366	28.330963
1015.955708	28.639439
1016.352009	29.070383
1016.748270	28.955726
1017.144491	29.148873
1017.540671	29.449599
1017.936812	29.707301
1018.332913	30.061861
1018.728973	30.260826
1019.124994	30.791075
1019.520974	31.261798
1019.916914	31.901936
1020.312814	32.312637
