Time1=100ms:Average1=5:Objective=10X:Aperture=1: (11/21/2018 11:21:29 AM)
11/21/2018 11:21:29 AM
Reflectance
10X
Ap#: 1
Avg1: 5.000000
Avg2: 0.000000
Int.Time1:100.000000

350.166136	86.307574
350.601937	86.293052
351.037728	86.273513
351.473509	86.424745
351.909281	86.191492
352.345042	86.249490
352.780794	86.295766
353.216536	86.503318
353.652267	86.588235
354.087989	86.492286
354.523701	86.609512
354.959403	86.450168
355.395095	86.480139
355.830777	86.403017
356.266449	86.758550
356.702110	86.145738
357.137762	86.587229
357.573404	86.768474
358.009035	86.567011
358.444656	86.503698
358.880268	86.728395
359.315869	86.831530
359.751459	86.309952
360.187040	86.261586
360.622610	86.206541
361.058170	85.918977
361.493720	85.637584
361.929260	85.348212
362.364789	85.050380
362.800308	84.932210
363.235816	84.890308
363.671314	85.009235
364.106802	85.093933
364.542279	85.589833
364.977746	85.729016
365.413203	86.355179
365.848649	85.827910
366.284084	85.903084
366.719509	85.592699
367.154924	86.220351
367.590328	86.068175
368.025721	85.913186
368.461104	86.076079
368.896477	86.278927
369.331838	86.660524
369.767189	86.053352
370.202530	86.347391
370.637859	85.685402
371.073178	85.860427
371.508486	85.895356
371.943784	86.163841
372.379071	86.141525
372.814347	86.026645
373.249612	86.413597
373.684866	85.910514
374.120110	86.016392
374.555343	86.413758
374.990565	86.761301
375.425776	86.530530
375.860976	87.041516
376.296165	86.584752
376.731343	86.621906
377.166511	86.291457
377.601667	86.437794
378.036812	86.050943
378.471946	86.102508
378.907070	86.111665
379.342182	86.425159
379.777283	86.137924
380.212373	85.661801
380.647452	85.166139
381.082520	84.610826
381.517576	83.971197
381.952622	84.306714
382.387656	84.365958
382.822679	84.481212
383.257691	84.936443
383.692692	85.153448
384.127681	85.296767
384.562659	85.150973
384.997626	85.283618
385.432581	84.917192
385.867525	84.640362
386.302458	84.575458
386.737379	84.903997
387.172289	85.026424
387.607188	84.799922
388.042075	85.019455
388.476951	84.817518
388.911815	85.139078
389.346668	84.834031
389.781509	85.432340
390.216338	85.033747
390.651157	85.025381
391.085963	85.376618
391.520758	84.830691
391.955541	85.449554
392.390313	84.551026
392.825073	84.503891
393.259821	84.959389
393.694558	85.562549
394.129283	85.404243
394.563996	85.754958
394.998698	86.440343
395.433388	86.122549
395.868066	85.774813
396.302732	85.528241
396.737386	85.525932
397.172029	85.533340
397.606659	85.415054
398.041278	85.010119
398.475885	84.603235
398.910480	84.236618
399.345063	83.708847
399.779634	82.800580
400.214194	81.603535
400.648741	80.684242
401.083276	79.198685
401.517799	77.472741
401.952310	75.569869
402.386809	73.286758
402.821296	70.797351
403.255771	68.717873
403.690234	66.437129
404.124684	63.884196
404.559123	60.703074
404.993549	58.370526
405.427963	55.206603
405.862365	52.693881
406.296754	50.098209
406.731131	47.584950
407.165496	45.201491
407.599849	43.214009
408.034190	41.419724
408.468518	39.633325
408.902833	38.021734
409.337137	36.683613
409.771428	35.337996
410.205706	34.095567
410.639973	32.854262
411.074226	31.932032
411.508467	31.080228
411.942696	30.247032
412.376912	29.617273
412.811116	29.131373
413.245307	28.657029
413.679486	28.293767
414.113652	27.825344
414.547805	27.487896
414.981946	27.169729
415.416074	26.884120
415.850190	26.658235
416.284293	26.441058
416.718383	26.198634
417.152460	26.035668
417.586525	25.893639
418.020577	25.792593
418.454616	25.684114
418.888643	25.630186
419.322656	25.598044
419.756657	25.568465
420.190645	25.564616
420.624620	25.569946
421.058582	25.527977
421.492531	25.530957
421.926468	25.516278
422.360391	25.509932
422.794301	25.503210
423.228199	25.557836
423.662083	25.585844
424.095955	25.632042
424.529813	25.665962
424.963658	25.711844
425.397491	25.759100
425.831310	25.802430
426.265116	25.818300
426.698909	25.832509
427.132689	25.828700
427.566455	25.867569
428.000209	25.898166
428.433949	25.925731
428.867676	25.953555
429.301389	25.978831
429.735090	25.988427
430.168777	26.014693
430.602451	26.019338
431.036111	26.005164
431.469759	26.029772
431.903392	26.026184
432.337013	26.026107
432.770620	25.993718
433.204213	25.978761
433.637794	25.982787
434.071360	25.947466
434.504914	25.912413
434.938453	25.901058
435.371979	25.886304
435.805492	25.889734
436.238991	25.872832
436.672477	25.855075
437.105949	25.826769
437.539407	25.804962
437.972852	25.775318
438.406283	25.721699
438.839700	25.709390
439.273104	25.639375
439.706494	25.588870
440.139871	25.568053
440.573233	25.540041
441.006582	25.492610
441.439917	25.425179
441.873238	25.334427
442.306546	25.289391
442.739839	25.206690
443.173119	25.140957
443.606385	25.054873
444.039636	24.990124
444.472874	24.928815
444.906099	24.821099
445.339309	24.749361
445.772505	24.665253
446.205687	24.585290
446.638855	24.497669
447.072009	24.387790
447.505149	24.303470
447.938275	24.233552
448.371387	24.143167
448.804485	24.040822
449.237569	23.902393
449.670638	23.787358
450.103694	23.644442
450.536735	23.518621
450.969762	23.390010
451.402774	23.262481
451.835773	23.126228
452.268757	22.991703
452.701727	22.848746
453.134683	22.716441
453.567624	22.563660
454.000551	22.397546
454.433464	22.244408
454.866362	22.083363
455.299246	21.952513
455.732116	21.769979
456.164971	21.587464
456.597811	21.413266
457.030638	21.242057
457.463449	21.038690
457.896246	20.835453
458.329029	20.642703
458.761797	20.459894
459.194551	20.273037
459.627290	20.077097
460.060014	19.897822
460.492724	19.709124
460.925419	19.514872
461.358099	19.313454
461.790765	19.110852
462.223416	18.913930
462.656052	18.728404
463.088674	18.522983
463.521281	18.332455
463.953873	18.146275
464.386450	17.960692
464.819012	17.775152
465.251560	17.592530
465.684093	17.397611
466.116611	17.228088
466.549114	17.056956
466.981602	16.899985
467.414075	16.746973
467.846533	16.595142
468.278977	16.454335
468.711405	16.308405
469.143818	16.194983
469.576216	16.104378
470.008600	15.996662
470.440968	15.894126
470.873321	15.809006
471.305659	15.733841
471.737982	15.685165
472.170289	15.619082
472.602582	15.573107
473.034859	15.540952
473.467122	15.505262
473.899369	15.501489
474.331600	15.505105
474.763817	15.517607
475.196018	15.534075
475.628204	15.565859
476.060375	15.605443
476.492530	15.656206
476.924670	15.707246
477.356795	15.768737
477.788904	15.830154
478.220998	15.921538
478.653076	16.029956
479.085139	16.160157
479.517186	16.294518
479.949219	16.428724
480.381235	16.569046
480.813236	16.716136
481.245221	16.862427
481.677191	17.018522
482.109146	17.160957
482.541084	17.300822
482.973008	17.438566
483.404915	17.590657
483.836807	17.742483
484.268683	17.891929
484.700544	18.050149
485.132388	18.209697
485.564217	18.368142
485.996031	18.527563
486.427828	18.675334
486.859610	18.825250
487.291376	18.962195
487.723126	19.091872
488.154860	19.224753
488.586579	19.346263
489.018281	19.460936
489.449968	19.573244
489.881639	19.681714
490.313293	19.777676
490.744932	19.866269
491.176555	19.943630
491.608162	19.997033
492.039753	20.038397
492.471328	20.052566
492.902886	20.062513
493.334429	20.048016
493.765956	20.020174
494.197466	19.992250
494.628960	19.957140
495.060439	19.911160
495.491901	19.856905
495.923347	19.804772
496.354776	19.742333
496.786190	19.681234
497.217587	19.598421
497.648968	19.517752
498.080332	19.412410
498.511681	19.284031
498.943013	19.140104
499.374328	18.978076
499.805628	18.819023
500.236911	18.645550
500.668177	18.453527
501.099427	18.271152
501.530661	18.077506
501.961878	17.887986
502.393079	17.692154
502.824264	17.498372
503.255431	17.294458
503.686583	17.105449
504.117717	16.898944
504.548835	16.707310
504.979937	16.523630
505.411022	16.337409
505.842090	16.159472
506.273142	15.982789
506.704177	15.825574
507.135195	15.669738
507.566197	15.519497
507.997182	15.373365
508.428150	15.249138
508.859102	15.142829
509.290036	15.037777
509.720954	14.956378
510.151855	14.884993
510.582739	14.844836
511.013607	14.815080
511.444457	14.823668
511.875291	14.852413
512.306107	14.915896
512.736907	15.012467
513.167690	15.137131
513.598456	15.292249
514.029205	15.496743
514.459936	15.727424
514.890651	15.998071
515.321349	16.309379
515.752030	16.657903
516.182693	17.041369
516.613340	17.489513
517.043969	17.967130
517.474582	18.503541
517.905177	19.081247
518.335755	19.686980
518.766315	20.352996
519.196859	21.047565
519.627385	21.789366
520.057894	22.564104
520.488386	23.368425
520.918860	24.210710
521.349318	25.104214
521.779757	26.022338
522.210180	26.986445
522.640585	27.988464
523.070973	29.020412
523.501343	30.083872
523.931696	31.174413
524.362031	32.303956
524.792349	33.445133
525.222650	34.631902
525.652933	35.837314
526.083198	37.052436
526.513446	38.274566
526.943677	39.507866
527.373890	40.764145
527.804085	42.020237
528.234262	43.274612
528.664422	44.541417
529.094565	45.818546
529.524689	47.088969
529.954796	48.330627
530.384885	49.585003
530.814957	50.821318
531.245011	52.060977
531.675047	53.294653
532.105065	54.510947
532.535065	55.727620
532.965048	56.924205
533.395013	58.094364
533.824959	59.248347
534.254888	60.391761
534.684799	61.533307
535.114693	62.662809
535.544568	63.756259
535.974425	64.816585
536.404264	65.840133
536.834086	66.836490
537.263889	67.810553
537.693674	68.761309
538.123441	69.695191
538.553190	70.580492
538.982921	71.446279
539.412634	72.294176
539.842329	73.144539
540.272006	73.964477
540.701664	74.740936
541.131304	75.508892
541.560926	76.234525
541.990530	76.935553
542.420116	77.608670
542.849683	78.261999
543.279232	78.926867
543.708763	79.547912
544.138275	80.165944
544.567769	80.730953
544.997245	81.297527
545.426702	81.835683
545.856141	82.354842
546.285562	82.873598
546.714964	83.366209
547.144347	83.859816
547.573713	84.341922
548.003059	84.791742
548.432387	85.235687
548.861697	85.684188
549.290988	86.124135
549.720260	86.578384
550.149514	87.006017
550.578750	87.439023
551.007966	87.845730
551.437164	88.250918
551.866344	88.648718
552.295504	89.027312
552.724646	89.405066
553.153769	89.780291
553.582874	90.144009
554.011960	90.478500
554.441027	90.818255
554.870075	91.162469
555.299104	91.487018
555.728115	91.781054
556.157106	92.094040
556.586079	92.365184
557.015033	92.623429
557.443968	92.861311
557.872884	93.098922
558.301781	93.302688
558.730659	93.521413
559.159518	93.720483
559.588358	93.916390
560.017180	94.099851
560.445982	94.275035
560.874765	94.429391
561.303528	94.593896
561.732273	94.759296
562.160999	94.909020
562.589705	95.059605
563.018393	95.184442
563.447061	95.325786
563.875710	95.455143
564.304340	95.587905
564.732950	95.719202
565.161542	95.853974
565.590114	95.992006
566.018666	96.121896
566.447200	96.227903
566.875714	96.342908
567.304208	96.501947
567.732684	96.631043
568.161140	96.766789
568.589576	96.896578
569.017993	97.055454
569.446391	97.179123
569.874769	97.309270
570.303128	97.437384
570.731467	97.569305
571.159787	97.703182
571.588087	97.843084
572.016368	97.963288
572.444629	98.080662
572.872870	98.171528
573.301092	98.279878
573.729294	98.369502
574.157476	98.462847
574.585639	98.531903
575.013782	98.597815
575.441906	98.643967
575.870009	98.697912
576.298093	98.742351
576.726157	98.790269
577.154202	98.822612
577.582226	98.867526
578.010231	98.876278
578.438216	98.892969
578.866181	98.895753
579.294126	98.914535
579.722051	98.942914
580.149957	98.979375
580.577842	98.978529
581.005707	98.994440
581.433553	99.005182
581.861378	99.035160
582.289184	99.044261
582.716969	99.070936
583.144734	99.081065
583.572479	99.109433
584.000205	99.127899
584.427910	99.149467
584.855594	99.160962
585.283259	99.168225
585.710904	99.197474
586.138528	99.209479
586.566132	99.223410
586.993716	99.241999
587.421280	99.251135
587.848823	99.273388
588.276346	99.291228
588.703849	99.294943
589.131332	99.292770
589.558794	99.292453
589.986236	99.267407
590.413657	99.254437
590.841058	99.225246
591.268438	99.205035
591.695799	99.160889
592.123138	99.110682
592.550458	99.053749
592.977756	98.986253
593.405034	98.910048
593.832292	98.836589
594.259529	98.750551
594.686746	98.647124
595.113942	98.532019
595.541117	98.424350
595.968272	98.310047
596.395406	98.205865
596.822519	98.085606
597.249612	97.974787
597.676684	97.836970
598.103735	97.708689
598.530766	97.592607
598.957775	97.455330
599.384764	97.322733
599.811733	97.175387
600.238680	97.037779
600.665606	96.907547
601.092512	96.762037
601.519397	96.613579
601.946261	96.495282
602.373104	96.341894
602.799926	96.211812
603.226727	96.077064
603.653507	95.925155
604.080266	95.765411
604.507004	95.620039
604.933721	95.469219
605.360417	95.322613
605.787092	95.166078
606.213746	94.995891
606.640379	94.812078
607.066991	94.623782
607.493581	94.419402
607.920150	94.225356
608.346699	94.015345
608.773226	93.789440
609.199731	93.551168
609.626216	93.298330
610.052679	93.041066
610.479121	92.758805
610.905542	92.492023
611.331941	92.202084
611.758319	91.879215
612.184676	91.562918
612.611011	91.232469
613.037325	90.882326
613.463617	90.497402
613.889888	90.107114
614.316138	89.699563
614.742366	89.262423
615.168573	88.799124
615.594758	88.334662
616.020921	87.844258
616.447063	87.344591
616.873184	86.825789
617.299283	86.289063
617.725360	85.733730
618.151416	85.169571
618.577450	84.586285
619.003462	83.977489
619.429453	83.365240
619.855422	82.744400
620.281369	82.109299
620.707295	81.464685
621.133199	80.793080
621.559081	80.106635
621.984941	79.408318
622.410779	78.688392
622.836596	77.952817
623.262391	77.200815
623.688163	76.427400
624.113914	75.622890
624.539644	74.802639
624.965351	73.958381
625.391036	73.070637
625.816699	72.163301
626.242340	71.229806
626.667960	70.253612
627.093557	69.236407
627.519132	68.207606
627.944685	67.146024
628.370216	66.054126
628.795725	64.936230
629.221212	63.771461
629.646677	62.582199
630.072119	61.375759
630.497540	60.151992
630.922938	58.911801
631.348314	57.656096
631.773668	56.390902
632.198999	55.121911
632.624308	53.851255
633.049595	52.573556
633.474860	51.300004
633.900102	50.034991
634.325322	48.788779
634.750520	47.566018
635.175695	46.352588
635.600848	45.158813
636.025978	43.992227
636.451086	42.842163
636.876171	41.720545
637.301234	40.614653
637.726275	39.539740
638.151293	38.491990
638.576288	37.470239
639.001261	36.484464
639.426211	35.533219
639.851139	34.615453
640.276044	33.724007
640.700927	32.870475
641.125787	32.050663
641.550624	31.274410
641.975438	30.542978
642.400230	29.864300
642.824999	29.233802
643.249745	28.655974
643.674469	28.138907
644.099169	27.669782
644.523847	27.262350
644.948502	26.920334
645.373135	26.641778
645.797744	26.423584
646.222330	26.279455
646.646894	26.195569
647.071435	26.185428
647.495953	26.235830
647.920447	26.340427
648.344919	26.507327
648.769368	26.741554
649.193794	27.028498
649.618197	27.372482
650.042576	27.766901
650.466933	28.227805
650.891267	28.724391
651.315577	29.277839
651.739864	29.875787
652.164129	30.514683
652.588370	31.193205
653.012587	31.921638
653.436782	32.697371
653.860953	33.504244
654.285102	34.352793
654.709226	35.240109
655.133328	36.157789
655.557406	37.095013
655.981461	38.067172
656.405493	39.057755
656.829501	40.063014
657.253486	41.083195
657.677448	42.102766
658.101386	43.117483
658.525301	44.121689
658.949192	45.123300
659.373060	46.106700
659.796904	47.081089
660.220725	48.030245
660.644522	48.952143
661.068296	49.867597
661.492046	50.758028
661.915772	51.617407
662.339475	52.451813
662.763154	53.259624
663.186810	54.043944
663.610442	54.792890
664.034050	55.532703
664.457635	56.240101
664.881196	56.931937
665.304733	57.598335
665.728247	58.237733
666.151736	58.860693
666.575202	59.451820
666.998644	60.026364
667.422062	60.594907
667.845457	61.121750
668.268827	61.646407
668.692174	62.155514
669.115496	62.648768
669.538795	63.121634
669.962070	63.568507
670.385321	64.005524
670.808547	64.428362
671.231750	64.839157
671.654929	65.252085
672.078084	65.639188
672.501214	66.019526
672.924321	66.377684
673.347404	66.732392
673.770462	67.083923
674.193496	67.405494
674.616506	67.707535
675.039492	68.005258
675.462454	68.293240
675.885391	68.563865
676.308305	68.812239
676.731194	69.056720
677.154058	69.278916
677.576899	69.477538
677.999715	69.669094
678.422507	69.852684
678.845274	70.019623
679.268017	70.168938
679.690736	70.312548
680.113430	70.436065
680.536100	70.546756
680.958746	70.653961
681.381367	70.746601
681.803963	70.824475
682.226535	70.895033
682.649083	70.963847
683.071605	71.037836
683.494104	71.094459
683.916578	71.139502
684.339027	71.184100
684.761451	71.201245
685.183851	71.217899
685.606227	71.224671
686.028577	71.229352
686.450903	71.226333
686.873204	71.211478
687.295481	71.200048
687.717733	71.186346
688.139959	71.160008
688.562162	71.127853
688.984339	71.089617
689.406492	71.060952
689.828619	71.037292
690.250722	71.003864
690.672800	70.999369
691.094853	70.989354
691.516881	70.969186
691.938884	70.959700
692.360863	70.958691
692.782816	70.955372
693.204744	70.950895
693.626647	70.944498
694.048526	70.949199
694.470379	70.940327
694.892207	70.930006
695.314010	70.925641
695.735788	70.924769
696.157540	70.912767
696.579268	70.904625
697.000970	70.906088
697.422648	70.903343
697.844300	70.910719
698.265926	70.919226
698.687528	70.926198
699.109104	70.945227
699.530655	70.951605
699.952181	70.971357
700.373681	70.992977
700.795156	71.030389
701.216606	71.071657
701.638030	71.106986
702.059429	71.160047
702.480803	71.211192
702.902151	71.261512
703.323473	71.334920
703.744770	71.395145
704.166042	71.464958
704.587288	71.558414
705.008509	71.658696
705.429704	71.768091
705.850873	71.894918
706.272017	72.045908
706.693135	72.215020
707.114228	72.398629
707.535295	72.611458
707.956336	72.846318
708.377352	73.088225
708.798342	73.347006
709.219306	73.628523
709.640245	73.934032
710.061157	74.257078
710.482044	74.592977
710.902905	74.945993
711.323741	75.318597
711.744550	75.712068
712.165334	76.113682
712.586092	76.536248
713.006823	76.969809
713.427529	77.414763
713.848209	77.871464
714.268863	78.326756
714.689492	78.805343
715.110094	79.294512
715.530670	79.800535
715.951220	80.305200
716.371744	80.806735
716.792242	81.324458
717.212714	81.849808
717.633159	82.372132
718.053579	82.915237
718.473973	83.452839
718.894340	84.004375
719.314681	84.555115
719.734996	85.103166
720.155285	85.641291
720.575547	86.170799
720.995784	86.699264
721.415994	87.225262
721.836177	87.751166
722.256335	88.264685
722.676466	88.751692
723.096570	89.222707
723.516649	89.681754
723.936701	90.126121
724.356726	90.529339
724.776725	90.922768
725.196698	91.304877
725.616644	91.670341
726.036564	92.022664
726.456457	92.357614
726.876324	92.664802
727.296164	92.967376
727.715977	93.266902
728.135764	93.539490
728.555525	93.810017
728.975258	94.066935
729.394966	94.332784
729.814646	94.580894
730.234300	94.815257
730.653927	95.054477
731.073527	95.279450
731.493101	95.503622
731.912648	95.710497
732.332168	95.917671
732.751661	96.112138
733.171128	96.315441
733.590568	96.508576
734.009980	96.713093
734.429366	96.904537
734.848726	97.075683
735.268058	97.245583
735.687363	97.416569
736.106641	97.582846
736.525893	97.735904
736.945117	97.881733
737.364314	98.039863
737.783485	98.191563
738.202628	98.334574
738.621744	98.480584
739.040834	98.612549
739.459896	98.741238
739.878931	98.855062
740.297939	98.989899
740.716919	99.110457
741.135873	99.228333
741.554799	99.324862
741.973698	99.436671
742.392570	99.525285
742.811415	99.635847
743.230232	99.739649
743.649022	99.841417
744.067785	99.924129
744.486521	99.999668
744.905229	100.085921
745.323909	100.151611
745.742563	100.235586
746.161189	100.307277
746.579787	100.386772
746.998358	100.443135
747.416902	100.503484
747.835418	100.569168
748.253907	100.636776
748.672368	100.714293
749.090802	100.780593
749.509208	100.855960
749.927586	100.929908
750.345937	100.994295
750.764261	101.064135
751.182556	101.122450
751.600824	101.186762
752.019065	101.238387
752.437277	101.299690
752.855462	101.380832
753.273620	101.428057
753.691749	101.464861
754.109851	101.513141
754.527925	101.570961
754.945971	101.612817
755.363989	101.646347
755.781980	101.671610
756.199943	101.689750
756.617877	101.695605
757.035784	101.723707
757.453663	101.749273
757.871514	101.743356
758.289337	101.739033
758.707132	101.702420
759.124899	101.684984
759.542639	101.648661
759.960350	101.622035
760.378033	101.580908
760.795688	101.516986
761.213314	101.451572
761.630913	101.382248
762.048484	101.333191
762.466026	101.255909
762.883541	101.180069
763.301027	101.102668
763.718485	101.016953
764.135914	100.942406
764.553316	100.850500
764.970689	100.794408
765.388034	100.722326
765.805351	100.643653
766.222639	100.588097
766.639899	100.535702
767.057131	100.485281
767.474334	100.411787
767.891509	100.352351
768.308655	100.329645
768.725773	100.273438
769.142863	100.240972
769.559924	100.213534
769.976957	100.178053
770.393961	100.149975
770.810936	100.126196
771.227883	100.122059
771.644802	100.129833
772.061692	100.129172
772.478553	100.149983
772.895386	100.145156
773.312190	100.151965
773.728965	100.189466
774.145712	100.215237
774.562430	100.241370
774.979119	100.264425
775.395780	100.297781
775.812411	100.336362
776.229014	100.387540
776.645589	100.438681
777.062134	100.483745
777.478651	100.544863
777.895138	100.581194
778.311597	100.616852
778.728027	100.671650
779.144428	100.713549
779.560800	100.760156
779.977143	100.792732
780.393458	100.853065
780.809743	100.903504
781.225999	100.942026
781.642226	101.008621
782.058425	101.043844
782.474594	101.072406
782.890734	101.086500
783.306845	101.105038
783.722926	101.121830
784.138979	101.127481
784.555003	101.135605
784.970997	101.118417
785.386962	101.087036
785.802898	101.064201
786.218805	101.030068
786.634682	100.973453
787.050531	100.926593
787.466349	100.868300
787.882139	100.782623
788.297899	100.714137
788.713630	100.632853
789.129332	100.546250
789.545004	100.451325
789.960647	100.349365
790.376260	100.231002
790.791844	100.105585
791.207399	99.963505
791.622924	99.792560
792.038419	99.628429
792.453885	99.463275
792.869321	99.291030
793.284728	99.091170
793.700106	98.899950
794.115453	98.682464
794.530771	98.453974
794.946060	98.247459
795.361319	98.026927
795.776548	97.821218
796.191747	97.579501
796.606917	97.332014
797.022057	97.084302
797.437167	96.831360
797.852248	96.578498
798.267298	96.325143
798.682319	96.058874
799.097310	95.800374
799.512271	95.537987
799.927203	95.258514
800.342104	94.988700
800.756976	94.733279
801.171818	94.481942
801.586629	94.230079
802.001411	93.983819
802.416163	93.744995
802.830885	93.512460
803.245577	93.275254
803.660238	93.039868
804.074870	92.858094
804.489472	92.681517
804.904043	92.507197
805.318585	92.325239
805.733096	92.164021
806.147577	92.015831
806.562028	91.865382
806.976449	91.729505
807.390840	91.576423
807.805200	91.414719
808.219530	91.284171
808.633830	91.155740
809.048100	91.041827
809.462339	90.941300
809.876548	90.835354
810.290727	90.708276
810.704875	90.609309
811.118993	90.480529
811.533080	90.368749
811.947137	90.237706
812.361164	90.132884
812.775160	90.034063
813.189126	89.909946
813.603061	89.779583
814.016966	89.612297
814.430840	89.444771
814.844684	89.276860
815.258497	89.100680
815.672280	88.898381
816.086032	88.698815
816.499753	88.512939
816.913444	88.286461
817.327104	88.041506
817.740733	87.784655
818.154331	87.507901
818.567899	87.205476
818.981436	86.888349
819.394943	86.539540
819.808418	86.190327
820.221863	85.823744
820.635277	85.438844
821.048660	85.015655
821.462013	84.554275
821.875334	84.076143
822.288625	83.564986
822.701884	83.021765
823.115113	82.466302
823.528311	81.864122
823.941478	81.266340
824.354614	80.633838
824.767718	79.970781
825.180792	79.261538
825.593835	78.524321
826.006847	77.782288
826.419827	77.013765
826.832777	76.228388
827.245695	75.435420
827.658582	74.594517
828.071438	73.737102
828.484263	72.878543
828.897057	72.013320
829.309819	71.111665
829.722551	70.209887
830.135251	69.296633
830.547919	68.390571
830.960557	67.489509
831.373163	66.582602
831.785738	65.691117
832.198281	64.815195
832.610793	63.923010
833.023274	63.055965
833.435723	62.209177
833.848141	61.382209
834.260528	60.560868
834.672883	59.769911
835.085206	59.003843
835.497498	58.260200
835.909758	57.538711
836.321987	56.834238
836.734185	56.148865
837.146350	55.498614
837.558485	54.887193
837.970587	54.281045
838.382658	53.674980
838.794697	53.087148
839.206705	52.531831
839.618681	52.017524
840.030625	51.503340
840.442538	51.044858
840.854418	50.598342
841.266267	50.181558
841.678084	49.788073
842.089870	49.427265
842.501623	49.086431
842.913345	48.783620
843.325035	48.492125
843.736693	48.243727
844.148319	48.026899
844.559913	47.830064
844.971475	47.668552
845.383005	47.545658
845.794504	47.450407
846.205970	47.375561
846.617404	47.316326
847.028806	47.311503
847.440176	47.323647
847.851514	47.362989
848.262820	47.414491
848.674094	47.477918
849.085336	47.555025
849.496546	47.656993
849.907723	47.759999
850.318868	47.886862
850.729981	48.042182
851.141062	48.222538
851.552110	48.382401
851.963127	48.554684
852.374111	48.728200
852.785062	48.893700
853.195982	49.023059
853.606869	49.151653
854.017723	49.298974
854.428546	49.412986
854.839336	49.516386
855.250093	49.610953
855.660818	49.695988
856.071511	49.766836
856.482171	49.777906
856.892799	49.775096
857.303394	49.774199
857.713956	49.748855
858.124486	49.701698
858.534984	49.636581
858.945449	49.554891
859.355881	49.458833
859.766280	49.315780
860.176647	49.164905
860.586982	49.000853
860.997283	48.838195
861.407552	48.666079
861.817789	48.459236
862.227992	48.235988
862.638163	48.020440
863.048301	47.766885
863.458406	47.478778
863.868478	47.179971
864.278518	46.909392
864.688524	46.619680
865.098498	46.307815
865.508439	46.013303
865.918347	45.725264
866.328222	45.418120
866.738064	45.101686
867.147873	44.778799
867.557649	44.469663
867.967392	44.144241
868.377102	43.827224
868.786779	43.489716
869.196423	43.184623
869.606034	42.890519
870.015612	42.575625
870.425156	42.277732
870.834668	41.963692
871.244146	41.655474
871.653591	41.351481
872.063003	41.042055
872.472382	40.748658
872.881728	40.455154
873.291040	40.156402
873.700319	39.851377
874.109564	39.558937
874.518777	39.285702
874.927956	39.024606
875.337102	38.739457
875.746214	38.475703
876.155293	38.229798
876.564338	37.985475
876.973350	37.738507
877.382329	37.492781
877.791274	37.264191
878.200186	37.030206
878.609064	36.808542
879.017909	36.600404
879.426720	36.404604
879.835497	36.220267
880.244241	36.027590
880.652952	35.868324
881.061629	35.722147
881.470272	35.594553
881.878881	35.476099
882.287457	35.364144
882.695999	35.274512
883.104507	35.178405
883.512982	35.101663
883.921423	35.041696
884.329830	34.997033
884.738203	34.949513
885.146543	34.931981
885.554849	34.904120
885.963120	34.883559
886.371358	34.890390
886.779563	34.884788
887.187733	34.892624
887.595869	34.875125
888.003971	34.893798
888.412040	34.912593
888.820074	34.932162
889.228074	34.958095
889.636041	34.974040
890.043973	34.993695
890.451871	35.011718
890.859736	35.028395
891.267566	35.033512
891.675362	35.057345
892.083124	35.059464
892.490851	35.088587
892.898545	35.098974
893.306204	35.084301
893.713829	35.052770
894.121420	35.029226
894.528977	34.986196
894.936499	34.954041
895.343987	34.891940
895.751441	34.816403
896.158860	34.735635
896.566246	34.648266
896.973596	34.546658
897.380913	34.439345
897.788195	34.318027
898.195442	34.179794
898.602655	34.035480
899.009834	33.875463
899.416978	33.703545
899.824088	33.525000
900.231163	33.351208
900.638204	33.170126
901.045210	32.987206
901.452181	32.793698
901.859118	32.600374
902.266021	32.419278
902.672888	32.222069
903.079721	32.015977
903.486520	31.804944
903.893283	31.609099
904.300012	31.406944
904.706707	31.224420
905.113366	31.003529
905.519991	30.813317
905.926581	30.627012
906.333136	30.448015
906.739656	30.273745
907.146142	30.090750
907.552592	29.898103
907.959008	29.722115
908.365389	29.552268
908.771735	29.383300
909.178046	29.203859
909.584322	29.028432
909.990563	28.853897
910.396769	28.685834
910.802940	28.512671
911.209076	28.339724
911.615177	28.164100
912.021243	27.995703
912.427274	27.831706
912.833270	27.678990
913.239231	27.515784
913.645156	27.341628
914.051046	27.162538
914.456902	27.002560
914.862721	26.826877
915.268506	26.648732
915.674256	26.478159
916.079970	26.333668
916.485649	26.172796
916.891292	26.008838
917.296901	25.842326
917.702474	25.684595
918.108011	25.539973
918.513514	25.400969
918.918980	25.258497
919.324412	25.123075
919.729808	25.008205
920.135169	24.895669
920.540494	24.819388
920.945783	24.723336
921.351037	24.635936
921.756256	24.571046
922.161439	24.512982
922.566586	24.466713
922.971698	24.410688
923.376775	24.386844
923.781815	24.363264
924.186820	24.352927
924.591790	24.370481
924.996723	24.373927
925.401621	24.382563
925.806484	24.391537
926.211310	24.420921
926.616101	24.477040
927.020856	24.509350
927.425575	24.552477
927.830259	24.599045
928.234906	24.662466
928.639518	24.713818
929.044094	24.799982
929.448634	24.871996
929.853138	24.934293
930.257606	25.004769
930.662038	25.052575
931.066434	25.115077
931.470795	25.167780
931.875119	25.220090
932.279407	25.275698
932.683659	25.304277
933.087875	25.291014
933.492055	25.315974
933.896199	25.330795
934.300307	25.324131
934.704379	25.314234
935.108414	25.288421
935.512414	25.259474
935.916377	25.214364
936.320304	25.154156
936.724195	25.082973
937.128049	24.981737
937.531867	24.899388
937.935649	24.809812
938.339395	24.713227
938.743104	24.586437
939.146777	24.437116
939.550414	24.320611
939.954014	24.173508
940.357578	24.024980
940.761105	23.871956
941.164596	23.721776
941.568050	23.550976
941.971468	23.401887
942.374850	23.242903
942.778195	23.094166
943.181503	22.935443
943.584775	22.771641
943.988010	22.652896
944.391209	22.493752
944.794371	22.356854
945.197496	22.230999
945.600585	22.099697
946.003637	21.962317
946.406653	21.834124
946.809632	21.718877
947.212574	21.580940
947.615479	21.486108
948.018347	21.358116
948.421179	21.257626
948.823974	21.170047
949.226732	21.060736
949.629453	20.974866
950.032138	20.887941
950.434785	20.798710
950.837396	20.706010
951.239969	20.623288
951.642506	20.557603
952.045006	20.455066
952.447469	20.397665
952.849895	20.341152
953.252283	20.276004
953.654635	20.207689
954.056950	20.114127
954.459227	20.033476
954.861468	19.962471
955.263671	19.902185
955.665838	19.827016
956.067967	19.768752
956.470059	19.679360
956.872114	19.618539
957.274131	19.536237
957.676112	19.493107
958.078055	19.487878
958.479961	19.429869
958.881829	19.366166
959.283661	19.284234
959.685455	19.249509
960.087211	19.204009
960.488931	19.182615
960.890613	19.154953
961.292257	19.142910
961.693864	19.111518
962.095434	19.100793
962.496966	19.058428
962.898461	19.018644
963.299918	19.014849
963.701338	19.035947
964.102720	19.029274
964.504065	19.090851
964.905372	19.088478
965.306641	19.128761
965.707873	19.159131
966.109068	19.221594
966.510224	19.340967
966.911343	19.369607
967.312425	19.416201
967.713468	19.469465
968.114474	19.517459
968.515442	19.564681
968.916373	19.624503
969.317265	19.734661
969.718120	19.805752
970.118937	19.864240
970.519716	19.868818
970.920458	19.993443
971.321161	20.121279
971.721827	20.249576
972.122454	20.327807
972.523044	20.387124
972.923596	20.497167
973.324110	20.599245
973.724585	20.683021
974.125023	20.789005
974.525423	20.889674
974.925785	21.019453
975.326108	21.177708
975.726394	21.322117
976.126642	21.434283
976.526851	21.501559
976.927022	21.524514
977.327155	21.634951
977.727250	21.688838
978.127307	21.765304
978.527325	21.798380
978.927306	21.779298
979.327248	21.892372
979.727151	21.933529
980.127017	21.971224
980.526844	22.016147
980.926633	22.092116
981.326383	22.135513
981.726095	22.109418
982.125769	22.189884
982.525404	22.218713
982.925001	22.334699
983.324560	22.294759
983.724079	22.310059
984.123561	22.265809
984.523004	22.296181
984.922408	22.431195
985.321774	22.434980
985.721102	22.454660
986.120390	22.441333
986.519641	22.428114
986.918852	22.371546
987.318025	22.404635
987.717159	22.341413
988.116255	22.268588
988.515312	22.244357
988.914330	22.331202
989.313310	22.331792
989.712250	22.365558
990.111152	22.427888
990.510015	22.345582
990.908840	22.434503
991.307625	22.397314
991.706372	22.321569
992.105080	22.504518
992.503749	22.482607
992.902379	22.555406
993.300970	22.550782
993.699522	22.504402
994.098035	22.589686
994.496510	22.579390
994.894945	22.596558
995.293341	22.613044
995.691698	22.703594
996.090016	22.715822
996.488296	22.932019
996.886535	23.054571
997.284736	22.931740
997.682898	23.078447
998.081021	23.060312
998.479104	23.033518
998.877148	23.182460
999.275153	23.304068
999.673119	23.375171
1000.071046	23.483853
1000.468933	23.640039
1000.866781	23.653529
1001.264590	23.674847
1001.662359	23.918838
1002.060089	24.069016
1002.457780	24.208591
1002.855431	24.643181
1003.253043	24.600639
1003.650615	24.918309
1004.048148	25.197248
1004.445642	25.219638
1004.843096	25.694235
1005.240511	26.110853
1005.637886	26.304296
1006.035221	26.720450
1006.432517	27.051239
1006.829774	27.439339
1007.226991	27.835097
1007.624168	27.907188
1008.021306	28.192302
1008.418404	28.583000
1008.815462	28.658835
1009.212481	28.912574
1009.609460	29.458845
1010.006399	29.866057
1010.403298	30.326390
1010.800158	31.331563
1011.196978	31.847023
1011.593758	32.647784
1011.990498	33.277592
1012.387199	33.910875
1012.783860	34.420386
1013.180480	35.184426
1013.577061	36.183238
1013.973602	36.626173
1014.370103	37.476601
1014.766564	37.976285
1015.162985	38.365882
1015.559366	39.139272
1015.955708	39.745509
1016.352009	40.372056
1016.748270	40.954879
1017.144491	41.206704
1017.540671	41.415698
1017.936812	42.244975
1018.332913	42.853297
1018.728973	43.485788
1019.124994	43.811576
1019.520974	44.274809
1019.916914	45.373188
1020.312814	46.414577
