Time1=100ms:Average1=5:Objective=10X:Aperture=1: (11/21/2018 10:17:44 AM)
11/21/2018 10:17:44 AM
Reflectance
10X
Ap#: 1
Avg1: 5.000000
Avg2: 0.000000
Int.Time1:100.000000

350.166136	97.232763
350.601937	97.945336
351.037728	98.393066
351.473509	98.933881
351.909281	99.033054
352.345042	98.988597
352.780794	98.820965
353.216536	99.087935
353.652267	99.403519
354.087989	99.791024
354.523701	99.761051
354.959403	99.473736
355.395095	99.512729
355.830777	99.721032
356.266449	99.570043
356.702110	99.569397
357.137762	98.952096
357.573404	99.130174
358.009035	98.912501
358.444656	98.917727
358.880268	98.715375
359.315869	98.602172
359.751459	99.033427
360.187040	99.194279
360.622610	99.272801
361.058170	99.562786
361.493720	99.380333
361.929260	99.300274
362.364789	100.122050
362.800308	100.202860
363.235816	100.060582
363.671314	100.283028
364.106802	100.382371
364.542279	100.748231
364.977746	100.373285
365.413203	100.150921
365.848649	100.362319
366.284084	100.282400
366.719509	99.899163
367.154924	100.302939
367.590328	100.100867
368.025721	100.424414
368.461104	100.667341
368.896477	101.068872
369.331838	100.949207
369.767189	101.028226
370.202530	100.804424
370.637859	101.133628
371.073178	100.348675
371.508486	100.357498
371.943784	99.950656
372.379071	100.257247
372.814347	100.335968
373.249612	99.783635
373.684866	99.245764
374.120110	99.402429
374.555343	99.414520
374.990565	99.590364
375.425776	99.872686
375.860976	99.609642
376.296165	99.493523
376.731343	99.192450
377.166511	98.875533
377.601667	98.715953
378.036812	98.895777
378.471946	98.954299
378.907070	99.189502
379.342182	98.739658
379.777283	98.801074
380.212373	98.877805
380.647452	98.227559
381.082520	97.951442
381.517576	98.187340
381.952622	97.972909
382.387656	97.682119
382.822679	98.013245
383.257691	97.592523
383.692692	97.727701
384.127681	97.738196
384.562659	97.833901
384.997626	97.527135
385.432581	97.948379
385.867525	97.548326
386.302458	97.537039
386.737379	97.496235
387.172289	97.928098
387.607188	97.995651
388.042075	97.611630
388.476951	97.924298
388.911815	98.025269
389.346668	97.463869
389.781509	97.457548
390.216338	97.515298
390.651157	97.390021
391.085963	97.310243
391.520758	97.084253
391.955541	96.665445
392.390313	96.547303
392.825073	96.770357
393.259821	96.908160
393.694558	96.074493
394.129283	95.926569
394.563996	96.265636
394.998698	95.598060
395.433388	95.278539
395.868066	95.043812
396.302732	94.755564
396.737386	95.155426
397.172029	94.661340
397.606659	94.154904
398.041278	93.948127
398.475885	93.546067
398.910480	92.579868
399.345063	91.576493
399.779634	90.767689
400.214194	89.922447
400.648741	88.785323
401.083276	87.033067
401.517799	85.358118
401.952310	82.891557
402.386809	80.616624
402.821296	78.173711
403.255771	75.497035
403.690234	72.366407
404.124684	69.333965
404.559123	65.941555
404.993549	62.370731
405.427963	59.084005
405.862365	55.648709
406.296754	52.634345
406.731131	49.714954
407.165496	47.131829
407.599849	44.666618
408.034190	42.401299
408.468518	40.339950
408.902833	38.263300
409.337137	36.284484
409.771428	34.534416
410.205706	32.766063
410.639973	31.291727
411.074226	29.987817
411.508467	28.839505
411.942696	27.916433
412.376912	27.029605
412.811116	26.255744
413.245307	25.582770
413.679486	24.909685
414.113652	24.227413
414.547805	23.680146
414.981946	23.117216
415.416074	22.615842
415.850190	22.198028
416.284293	21.812679
416.718383	21.547045
417.152460	21.329145
417.586525	21.098607
418.020577	20.959235
418.454616	20.828166
418.888643	20.712845
419.322656	20.655696
419.756657	20.516294
420.190645	20.394491
420.624620	20.335842
421.058582	20.254522
421.492531	20.179497
421.926468	20.140117
422.360391	20.158943
422.794301	20.227781
423.228199	20.349474
423.662083	20.491024
424.095955	20.665016
424.529813	20.825521
424.963658	20.983439
425.397491	21.115075
425.831310	21.211958
426.265116	21.280770
426.698909	21.396181
427.132689	21.532460
427.566455	21.679340
428.000209	21.860735
428.433949	22.089898
428.867676	22.309406
429.301389	22.517421
429.735090	22.720561
430.168777	22.886153
430.602451	23.006153
431.036111	23.121691
431.469759	23.239354
431.903392	23.306711
432.337013	23.412095
432.770620	23.477100
433.204213	23.629682
433.637794	23.795957
434.071360	23.994731
434.504914	24.211810
434.938453	24.465767
435.371979	24.746975
435.805492	25.002937
436.238991	25.196830
436.672477	25.397637
437.105949	25.564968
437.539407	25.702494
437.972852	25.809222
438.406283	25.933176
438.839700	26.065088
439.273104	26.278225
439.706494	26.482582
440.139871	26.660515
440.573233	26.853769
441.006582	27.065905
441.439917	27.251640
441.873238	27.379330
442.306546	27.485113
442.739839	27.575780
443.173119	27.615501
443.606385	27.661208
444.039636	27.730085
444.472874	27.805456
444.906099	27.883823
445.339309	27.995943
445.772505	28.145784
446.205687	28.302304
446.638855	28.470838
447.072009	28.648040
447.505149	28.818097
447.938275	28.980169
448.371387	29.115911
448.804485	29.218667
449.237569	29.324314
449.670638	29.409648
450.103694	29.426941
450.536735	29.460416
450.969762	29.509921
451.402774	29.578963
451.835773	29.631636
452.268757	29.700644
452.701727	29.747580
453.134683	29.826500
453.567624	29.910695
454.000551	29.970774
454.433464	30.000321
454.866362	30.008560
455.299246	30.013269
455.732116	29.988746
456.164971	29.937596
456.597811	29.918988
457.030638	29.892914
457.463449	29.845274
457.896246	29.796928
458.329029	29.758328
458.761797	29.753775
459.194551	29.717614
459.627290	29.693440
460.060014	29.661571
460.492724	29.653181
460.925419	29.641161
461.358099	29.622595
461.790765	29.596772
462.223416	29.546078
462.656052	29.474451
463.088674	29.412048
463.521281	29.381275
463.953873	29.340412
464.386450	29.277676
464.819012	29.234214
465.251560	29.212144
465.684093	29.211676
466.116611	29.225338
466.549114	29.245877
466.981602	29.292061
467.414075	29.327202
467.846533	29.384967
468.278977	29.426652
468.711405	29.475790
469.143818	29.566446
469.576216	29.637207
470.008600	29.700332
470.440968	29.776428
470.873321	29.846046
471.305659	29.928600
471.737982	30.016997
472.170289	30.084967
472.602582	30.176576
473.034859	30.284274
473.467122	30.424473
473.899369	30.575166
474.331600	30.756906
474.763817	30.989035
475.196018	31.250271
475.628204	31.549399
476.060375	31.884158
476.492530	32.233057
476.924670	32.587729
477.356795	32.938189
477.788904	33.300242
478.220998	33.643636
478.653076	33.985127
479.085139	34.308374
479.517186	34.651349
479.949219	35.006117
480.381235	35.375177
480.813236	35.805045
481.245221	36.263802
481.677191	36.766357
482.109146	37.299927
482.541084	37.829509
482.973008	38.381655
483.404915	38.913665
483.836807	39.408153
484.268683	39.878429
484.700544	40.330580
485.132388	40.744284
485.564217	41.137131
485.996031	41.505780
486.427828	41.857746
486.859610	42.176428
487.291376	42.471148
487.723126	42.775829
488.154860	43.073767
488.586579	43.400169
489.018281	43.739041
489.449968	44.106936
489.881639	44.526310
490.313293	44.951383
490.744932	45.415269
491.176555	45.876928
491.608162	46.321747
492.039753	46.736551
492.471328	47.083093
492.902886	47.387304
493.334429	47.611112
493.765956	47.766685
494.197466	47.888740
494.628960	47.974431
495.060439	48.068856
495.491901	48.171553
495.923347	48.294731
496.354776	48.463777
496.786190	48.693007
497.217587	48.956874
497.648968	49.242967
498.080332	49.535475
498.511681	49.813268
498.943013	50.078072
499.374328	50.286583
499.805628	50.444621
500.236911	50.548644
500.668177	50.611201
501.099427	50.610408
501.530661	50.579242
501.961878	50.488686
502.393079	50.375227
502.824264	50.226731
503.255431	50.054298
503.686583	49.895209
504.117717	49.757458
504.548835	49.646840
504.979937	49.606506
505.411022	49.622530
505.842090	49.730636
506.273142	49.876826
506.704177	50.097355
507.135195	50.339455
507.566197	50.594118
507.997182	50.822674
508.428150	51.010651
508.859102	51.143803
509.290036	51.236119
509.720954	51.265449
510.151855	51.272087
510.582739	51.243912
511.013607	51.246528
511.444457	51.265413
511.875291	51.357159
512.306107	51.517634
512.736907	51.745570
513.167690	52.062821
513.598456	52.469813
514.029205	52.923654
514.459936	53.425532
514.890651	53.922862
515.321349	54.444026
515.752030	54.956543
516.182693	55.431981
516.613340	55.861403
517.043969	56.238194
517.474582	56.560349
517.905177	56.842407
518.335755	57.062350
518.766315	57.259059
519.196859	57.402225
519.627385	57.526967
520.057894	57.641544
520.488386	57.785065
520.918860	57.958756
521.349318	58.193983
521.779757	58.507961
522.210180	58.909828
522.640585	59.384465
523.070973	59.957433
523.501343	60.585393
523.931696	61.290921
524.362031	62.013564
524.792349	62.760163
525.222650	63.469280
525.652933	64.122843
526.083198	64.741273
526.513446	65.287407
526.943677	65.745453
527.373890	66.151666
527.804085	66.502190
528.234262	66.872496
528.664422	67.210256
529.094565	67.582399
529.524689	68.006443
529.954796	68.518259
530.384885	69.121546
530.814957	69.790455
531.245011	70.537000
531.675047	71.352561
532.105065	72.187336
532.535065	73.066979
532.965048	73.941753
533.395013	74.780219
533.824959	75.576077
534.254888	76.284070
534.684799	76.907676
535.114693	77.444196
535.544568	77.898999
535.974425	78.249473
536.404264	78.506407
536.834086	78.680043
537.263889	78.802096
537.693674	78.858159
538.123441	78.885609
538.553190	78.930894
538.982921	78.999181
539.412634	79.108368
539.842329	79.281918
540.272006	79.525024
540.701664	79.846164
541.131304	80.241677
541.560926	80.677714
541.990530	81.202981
542.420116	81.765061
542.849683	82.350298
543.279232	82.917428
543.708763	83.440377
544.138275	83.936620
544.567769	84.377033
544.997245	84.735254
545.426702	85.025368
545.856141	85.241899
546.285562	85.404547
546.714964	85.536542
547.144347	85.627952
547.573713	85.751743
548.003059	85.904543
548.432387	86.086291
548.861697	86.318558
549.290988	86.632446
549.720260	87.024405
550.149514	87.503891
550.578750	88.042554
551.007966	88.650747
551.437164	89.322774
551.866344	89.991441
552.295504	90.664439
552.724646	91.309613
553.153769	91.908313
553.582874	92.435970
554.011960	92.852412
554.441027	93.168228
554.870075	93.369254
555.299104	93.441703
555.728115	93.384735
556.157106	93.224973
556.586079	92.985026
557.015033	92.701910
557.443968	92.370052
557.872884	92.013113
558.301781	91.689385
558.730659	91.416350
559.159518	91.180172
559.588358	91.020729
560.017180	90.912846
560.445982	90.896378
560.874765	90.931299
561.303528	91.051574
561.732273	91.212135
562.160999	91.403772
562.589705	91.631947
563.018393	91.842001
563.447061	92.079962
563.875710	92.292582
564.304340	92.510145
564.732950	92.656691
565.161542	92.783458
565.590114	92.888897
566.018666	92.964678
566.447200	93.005388
566.875714	93.019407
567.304208	93.035023
567.732684	93.056809
568.161140	93.087918
568.589576	93.138754
569.017993	93.218776
569.446391	93.349216
569.874769	93.529238
570.303128	93.769498
570.731467	94.061571
571.159787	94.416266
571.588087	94.812642
572.016368	95.269351
572.444629	95.768005
572.872870	96.280191
573.301092	96.812009
573.729294	97.297150
574.157476	97.738315
574.585639	98.087968
575.013782	98.358201
575.441906	98.522109
575.870009	98.577389
576.298093	98.533917
576.726157	98.365795
577.154202	98.107240
577.582226	97.779466
578.010231	97.408183
578.438216	96.991092
578.866181	96.570258
579.294126	96.143882
579.722051	95.753120
580.149957	95.410027
580.577842	95.114286
581.005707	94.869117
581.433553	94.656873
581.861378	94.505273
582.289184	94.392289
582.716969	94.312208
583.144734	94.256339
583.572479	94.214856
584.000205	94.195930
584.427910	94.181537
584.855594	94.182871
585.283259	94.160666
585.710904	94.160743
586.138528	94.140930
586.566132	94.129886
586.993716	94.134368
587.421280	94.122975
587.848823	94.121792
588.276346	94.131354
588.703849	94.135315
589.131332	94.147517
589.558794	94.162109
589.986236	94.158864
590.413657	94.154585
590.841058	94.139273
591.268438	94.125024
591.695799	94.139048
592.123138	94.160644
592.550458	94.223700
592.977756	94.310834
593.405034	94.423233
593.832292	94.568962
594.259529	94.733501
594.686746	94.951838
595.113942	95.175898
595.541117	95.426433
595.968272	95.668301
596.395406	95.895953
596.822519	96.093231
597.249612	96.243212
597.676684	96.337290
598.103735	96.344690
598.530766	96.286866
598.957775	96.121565
599.384764	95.883002
599.811733	95.551033
600.238680	95.168142
600.665606	94.740780
601.092512	94.275446
601.519397	93.791337
601.946261	93.324039
602.373104	92.841011
602.799926	92.401577
603.226727	91.977533
603.653507	91.588636
604.080266	91.218780
604.507004	90.880929
604.933721	90.563444
605.360417	90.258093
605.787092	89.939411
606.213746	89.610207
606.640379	89.289803
607.066991	88.948791
607.493581	88.610645
607.920150	88.283089
608.346699	87.944004
608.773226	87.612922
609.199731	87.290002
609.626216	86.984620
610.052679	86.702884
610.479121	86.439118
610.905542	86.193947
611.331941	85.983341
611.758319	85.788005
612.184676	85.612800
612.611011	85.472586
613.037325	85.354465
613.463617	85.219465
613.889888	85.095101
614.316138	84.963019
614.742366	84.808233
615.168573	84.647029
615.594758	84.478780
616.020921	84.288207
616.447063	84.099236
616.873184	83.909727
617.299283	83.723350
617.725360	83.561038
618.151416	83.417415
618.577450	83.292479
619.003462	83.193944
619.429453	83.133243
619.855422	83.089181
620.281369	83.060033
620.707295	83.038349
621.133199	83.014208
621.559081	82.986157
621.984941	82.931789
622.410779	82.866347
622.836596	82.751034
623.262391	82.595097
623.688163	82.405629
624.113914	82.191618
624.539644	81.938137
624.965351	81.660789
625.391036	81.362285
625.816699	81.051495
626.242340	80.739029
626.667960	80.444975
627.093557	80.170628
627.519132	79.917993
627.944685	79.684834
628.370216	79.468760
628.795725	79.271361
629.221212	79.081564
629.646677	78.913346
630.072119	78.735142
630.497540	78.570477
630.922938	78.383921
631.348314	78.194833
631.773668	77.975366
632.198999	77.737872
632.624308	77.477554
633.049595	77.194863
633.474860	76.909139
633.900102	76.617916
634.325322	76.316933
634.750520	76.037418
635.175695	75.781661
635.600848	75.545509
636.025978	75.369803
636.451086	75.223743
636.876171	75.126539
637.301234	75.077714
637.726275	75.072847
638.151293	75.113358
638.576288	75.200007
639.001261	75.318835
639.426211	75.451535
639.851139	75.600366
640.276044	75.747832
640.700927	75.897651
641.125787	76.045497
641.550624	76.171846
641.975438	76.289149
642.400230	76.397106
642.824999	76.489405
643.249745	76.580019
643.674469	76.660212
644.099169	76.742996
644.523847	76.813828
644.948502	76.900753
645.373135	76.994165
645.797744	77.095392
646.222330	77.210646
646.646894	77.340694
647.071435	77.489505
647.495953	77.643643
647.920447	77.800184
648.344919	77.957727
648.769368	78.101788
649.193794	78.227491
649.618197	78.349037
650.042576	78.435404
650.466933	78.487865
650.891267	78.512416
651.315577	78.526942
651.739864	78.512571
652.164129	78.478446
652.588370	78.409565
653.012587	78.334610
653.436782	78.240153
653.860953	78.124070
654.285102	78.006404
654.709226	77.892301
655.133328	77.779622
655.557406	77.658347
655.981461	77.548659
656.405493	77.441320
656.829501	77.310308
657.253486	77.179184
657.677448	77.015122
658.101386	76.849100
658.525301	76.661377
658.949192	76.441549
659.373060	76.200135
659.796904	75.935564
660.220725	75.627245
660.644522	75.297858
661.068296	74.947345
661.492046	74.593618
661.915772	74.242351
662.339475	73.903836
662.763154	73.565479
663.186810	73.264006
663.610442	72.997819
664.034050	72.770984
664.457635	72.583239
664.881196	72.452665
665.304733	72.371591
665.728247	72.351637
666.151736	72.383506
666.575202	72.489591
666.998644	72.643883
667.422062	72.854177
667.845457	73.105010
668.268827	73.390763
668.692174	73.718297
669.115496	74.044504
669.538795	74.369952
669.962070	74.708409
670.385321	75.018278
670.808547	75.323234
671.231750	75.581719
671.654929	75.811445
672.078084	76.014564
672.501214	76.185607
672.924321	76.304067
673.347404	76.394428
673.770462	76.446466
674.193496	76.471551
674.616506	76.464515
675.039492	76.420069
675.462454	76.357962
675.885391	76.287997
676.308305	76.201415
676.731194	76.115370
677.154058	76.021482
677.576899	75.920286
677.999715	75.831222
678.422507	75.740463
678.845274	75.662329
679.268017	75.600854
679.690736	75.526171
680.113430	75.484787
680.536100	75.431012
680.958746	75.379629
681.381367	75.342197
681.803963	75.294049
682.226535	75.261615
682.649083	75.245350
683.071605	75.234740
683.494104	75.242900
683.916578	75.262838
684.339027	75.290875
684.761451	75.332284
685.183851	75.377204
685.606227	75.416074
686.028577	75.451487
686.450903	75.495319
686.873204	75.525138
687.295481	75.550253
687.717733	75.549565
688.139959	75.543935
688.562162	75.494839
688.984339	75.420158
689.406492	75.305031
689.828619	75.135240
690.250722	74.932267
690.672800	74.687799
691.094853	74.394685
691.516881	74.068800
691.938884	73.710436
692.360863	73.300856
692.782816	72.887030
693.204744	72.442217
693.626647	72.005132
694.048526	71.566289
694.470379	71.140653
694.892207	70.735470
695.314010	70.356173
695.735788	70.016624
696.157540	69.722158
696.579268	69.466235
697.000970	69.259437
697.422648	69.115404
697.844300	69.025708
698.265926	69.002702
698.687528	69.041139
699.109104	69.151907
699.530655	69.303771
699.952181	69.519853
700.373681	69.776811
700.795156	70.081458
701.216606	70.418192
701.638030	70.788114
702.059429	71.184627
702.480803	71.590317
702.902151	72.011602
703.323473	72.435849
703.744770	72.841772
704.166042	73.229807
704.587288	73.596964
705.008509	73.928408
705.429704	74.253664
705.850873	74.537547
706.272017	74.786327
706.693135	74.999032
707.114228	75.187381
707.535295	75.336311
707.956336	75.460348
708.377352	75.558231
708.798342	75.620258
709.219306	75.668340
709.640245	75.704414
710.061157	75.734802
710.482044	75.756054
710.902905	75.764520
711.323741	75.780722
711.744550	75.783096
712.165334	75.799633
712.586092	75.822641
713.006823	75.845355
713.427529	75.868436
713.848209	75.909231
714.268863	75.960712
714.689492	76.029808
715.110094	76.103090
715.530670	76.192806
715.951220	76.300709
716.371744	76.399925
716.792242	76.518895
717.212714	76.647265
717.633159	76.783059
718.053579	76.921559
718.473973	77.034486
718.894340	77.141670
719.314681	77.245365
719.734996	77.321957
720.155285	77.383969
720.575547	77.412220
720.995784	77.406376
721.415994	77.359238
721.836177	77.276527
722.256335	77.134072
722.676466	76.947503
723.096570	76.692823
723.516649	76.380273
723.936701	76.024058
724.356726	75.588032
724.776725	75.105199
725.196698	74.550586
725.616644	73.946371
726.036564	73.297266
726.456457	72.627126
726.876324	71.914441
727.296164	71.176865
727.715977	70.423836
728.135764	69.672088
728.555525	68.924504
728.975258	68.192263
729.394966	67.497797
729.814646	66.824216
730.234300	66.193751
730.653927	65.604784
731.073527	65.076067
731.493101	64.613199
731.912648	64.214092
732.332168	63.876786
732.751661	63.617859
733.171128	63.422779
733.590568	63.298511
734.009980	63.262021
734.429366	63.293182
734.848726	63.379856
735.268058	63.534883
735.687363	63.741456
736.106641	64.008552
736.525893	64.329172
736.945117	64.676402
737.364314	65.063403
737.783485	65.494700
738.202628	65.952129
738.621744	66.434744
739.040834	66.936821
739.459896	67.428760
739.878931	67.927528
740.297939	68.428908
740.716919	68.910048
741.135873	69.387586
741.554799	69.843978
741.973698	70.261420
742.392570	70.650571
742.811415	71.026101
743.230232	71.343906
743.649022	71.624951
744.067785	71.874255
744.486521	72.092700
744.905229	72.259596
745.323909	72.402435
745.742563	72.505028
746.161189	72.578630
746.579787	72.630317
746.998358	72.651635
747.416902	72.650822
747.835418	72.641630
748.253907	72.619034
748.672368	72.588037
749.090802	72.561887
749.509208	72.526546
749.927586	72.513487
750.345937	72.510272
750.764261	72.507418
751.182556	72.542311
751.600824	72.585830
752.019065	72.646890
752.437277	72.742284
752.855462	72.850662
753.273620	72.977499
753.691749	73.121904
754.109851	73.262197
754.527925	73.425252
754.945971	73.589008
755.363989	73.768584
755.781980	73.919113
756.199943	74.091675
756.617877	74.259156
757.035784	74.401114
757.453663	74.512204
757.871514	74.612069
758.289337	74.662319
758.707132	74.682630
759.124899	74.649957
759.542639	74.564533
759.960350	74.421898
760.378033	74.225737
760.795688	73.971511
761.213314	73.650782
761.630913	73.277121
762.048484	72.825150
762.466026	72.331564
762.883541	71.768354
763.301027	71.150539
763.718485	70.495568
764.135914	69.783968
764.553316	69.039748
764.970689	68.267544
765.388034	67.480133
765.805351	66.690370
766.222639	65.893700
766.639899	65.091581
767.057131	64.286416
767.474334	63.497702
767.891509	62.743338
768.308655	62.013699
768.725773	61.345934
769.142863	60.707810
769.559924	60.109196
769.976957	59.568663
770.393961	59.089438
770.810936	58.659245
771.227883	58.285665
771.644802	57.963092
772.061692	57.716423
772.478553	57.518738
772.895386	57.392641
773.312190	57.326470
773.728965	57.324286
774.145712	57.398842
774.562430	57.539836
774.979119	57.740975
775.395780	57.993762
775.812411	58.317766
776.229014	58.707869
776.645589	59.136760
777.062134	59.627463
777.478651	60.162520
777.895138	60.745256
778.311597	61.350862
778.728027	61.973901
779.144428	62.624459
779.560800	63.292268
779.977143	63.976144
780.393458	64.665377
780.809743	65.342833
781.225999	66.001328
781.642226	66.637782
782.058425	67.250090
782.474594	67.812362
782.890734	68.347686
783.306845	68.831794
783.722926	69.264971
784.138979	69.649835
784.555003	69.987711
784.970997	70.263765
785.386962	70.489938
785.802898	70.629178
786.218805	70.715912
786.634682	70.763538
787.050531	70.758774
787.466349	70.695272
787.882139	70.606023
788.297899	70.486876
788.713630	70.343512
789.129332	70.156927
789.545004	69.974119
789.960647	69.757937
790.376260	69.557919
790.791844	69.350628
791.207399	69.145985
791.622924	68.963337
792.038419	68.794336
792.453885	68.662855
792.869321	68.565913
793.284728	68.503068
793.700106	68.483365
794.115453	68.497414
794.530771	68.533669
794.946060	68.612118
795.361319	68.746640
795.776548	68.879681
796.191747	69.049528
796.606917	69.247994
797.022057	69.478580
797.437167	69.706432
797.852248	69.936530
798.267298	70.162042
798.682319	70.396745
799.097310	70.625337
799.512271	70.826027
799.927203	70.981471
800.342104	71.132458
800.756976	71.228628
801.171818	71.267566
801.586629	71.263365
802.001411	71.219086
802.416163	71.112572
802.830885	70.961059
803.245577	70.751563
803.660238	70.481181
804.074870	70.176969
804.489472	69.822711
804.904043	69.424610
805.318585	68.977363
805.733096	68.493759
806.147577	67.961025
806.562028	67.417631
806.976449	66.829118
807.390840	66.229788
807.805200	65.605877
808.219530	64.962957
808.633830	64.324708
809.048100	63.678119
809.462339	63.030389
809.876548	62.376216
810.290727	61.746564
810.704875	61.121456
811.118993	60.541087
811.533080	59.976859
811.947137	59.441613
812.361164	58.927570
812.775160	58.463203
813.189126	58.028297
813.603061	57.648881
814.016966	57.344557
814.430840	57.075562
814.844684	56.869063
815.258497	56.723095
815.672280	56.648445
816.086032	56.628998
816.499753	56.683096
816.913444	56.797319
817.327104	56.955903
817.740733	57.176727
818.154331	57.473703
818.567899	57.819959
818.981436	58.232595
819.394943	58.674653
819.808418	59.172466
820.221863	59.722332
820.635277	60.317942
821.048660	60.962822
821.462013	61.660957
821.875334	62.378205
822.288625	63.140401
822.701884	63.929337
823.115113	64.738049
823.528311	65.566385
823.941478	66.385033
824.354614	67.216071
824.767718	68.028951
825.180792	68.821332
825.593835	69.585617
826.006847	70.305429
826.419827	71.005496
826.832777	71.615601
827.245695	72.175319
827.658582	72.663249
828.071438	73.078758
828.484263	73.373254
828.897057	73.586399
829.309819	73.726129
829.722551	73.759938
830.135251	73.731030
830.547919	73.592636
830.960557	73.354642
831.373163	73.063542
831.785738	72.703126
832.198281	72.283081
832.610793	71.853158
833.023274	71.352356
833.435723	70.822567
833.848141	70.265307
834.260528	69.689003
834.672883	69.116382
835.085206	68.544234
835.497498	67.981546
835.909758	67.435837
836.321987	66.924628
836.734185	66.444597
837.146350	65.996264
837.558485	65.601425
837.970587	65.255251
838.382658	64.951143
838.794697	64.704775
839.206705	64.493493
839.618681	64.350035
840.030625	64.250446
840.442538	64.211984
840.854418	64.218074
841.266267	64.290143
841.678084	64.402728
842.089870	64.552186
842.501623	64.768821
842.913345	65.002673
843.325035	65.286483
843.736693	65.586458
844.148319	65.903556
844.559913	66.228658
844.971475	66.550895
845.383005	66.874661
845.794504	67.210555
846.205970	67.543493
846.617404	67.872413
847.028806	68.140300
847.440176	68.390365
847.851514	68.601526
848.262820	68.789641
848.674094	68.926508
849.085336	69.001493
849.496546	69.048958
849.907723	69.039063
850.318868	68.944441
850.729981	68.819297
851.141062	68.645216
851.552110	68.406766
851.963127	68.132731
852.374111	67.812103
852.785062	67.457002
853.195982	67.048539
853.606869	66.594873
854.017723	66.113621
854.428546	65.612579
854.839336	65.058020
855.250093	64.475464
855.660818	63.879272
856.071511	63.262511
856.482171	62.648441
856.892799	62.021213
857.303394	61.385488
857.713956	60.752247
858.124486	60.118818
858.534984	59.463296
858.945449	58.793242
859.355881	58.128510
859.766280	57.505733
860.176647	56.884016
860.586982	56.261557
860.997283	55.650620
861.407552	55.071224
861.817789	54.531483
862.227992	53.987481
862.638163	53.466107
863.048301	52.976875
863.458406	52.532011
863.868478	52.089139
864.278518	51.704271
864.688524	51.338494
865.098498	50.986989
865.508439	50.696878
865.918347	50.437757
866.328222	50.223933
866.738064	50.056225
867.147873	49.931981
867.557649	49.865965
867.967392	49.821693
868.377102	49.826703
868.786779	49.855566
869.196423	49.935844
869.606034	50.042102
870.015612	50.196175
870.425156	50.415022
870.834668	50.646330
871.244146	50.936040
871.653591	51.252355
872.063003	51.595324
872.472382	51.950568
872.881728	52.323907
873.291040	52.727441
873.700319	53.122165
874.109564	53.549147
874.518777	53.954494
874.927956	54.358778
875.337102	54.760096
875.746214	55.173131
876.155293	55.509093
876.564338	55.849117
876.973350	56.149185
877.382329	56.397884
877.791274	56.628779
878.200186	56.809915
878.609064	56.945767
879.017909	57.041978
879.426720	57.088782
879.835497	57.056328
880.244241	56.971433
880.652952	56.857836
881.061629	56.709624
881.470272	56.510590
881.878881	56.267133
882.287457	55.975846
882.695999	55.637747
883.104507	55.259480
883.512982	54.862089
883.921423	54.417502
884.329830	53.962648
884.738203	53.491623
885.146543	53.007922
885.554849	52.511254
885.963120	52.028477
886.371358	51.574538
886.779563	51.073396
887.187733	50.573613
887.595869	50.109358
888.003971	49.660416
888.412040	49.211572
888.820074	48.830031
889.228074	48.465622
889.636041	48.139648
890.043973	47.826847
890.451871	47.561746
890.859736	47.312979
891.267566	47.101901
891.675362	46.940915
892.083124	46.786702
892.490851	46.694146
892.898545	46.622957
893.306204	46.560435
893.713829	46.513940
894.121420	46.485640
894.528977	46.471833
894.936499	46.489203
895.343987	46.532418
895.751441	46.571865
896.158860	46.613775
896.566246	46.667319
896.973596	46.728404
897.380913	46.774331
897.788195	46.833426
898.195442	46.898022
898.602655	46.924525
899.009834	46.929846
899.416978	46.952154
899.824088	46.972670
900.231163	46.954348
900.638204	46.944507
901.045210	46.927801
901.452181	46.873802
901.859118	46.815160
902.266021	46.713012
902.672888	46.621668
903.079721	46.485695
903.486520	46.353027
903.893283	46.183870
904.300012	45.956768
904.706707	45.739064
905.113366	45.494908
905.519991	45.253546
905.926581	45.002923
906.333136	44.727799
906.739656	44.483165
907.146142	44.221234
907.552592	43.961712
907.959008	43.677336
908.365389	43.400107
908.771735	43.123172
909.178046	42.835759
909.584322	42.580449
909.990563	42.310947
910.396769	42.030330
910.802940	41.773476
911.209076	41.519624
911.615177	41.289847
912.021243	41.055386
912.427274	40.837117
912.833270	40.640636
913.239231	40.415929
913.645156	40.208173
914.051046	40.002263
914.456902	39.806623
914.862721	39.604209
915.268506	39.434040
915.674256	39.292844
916.079970	39.129104
916.485649	38.969628
916.891292	38.835385
917.296901	38.714137
917.702474	38.606593
918.108011	38.489848
918.513514	38.354933
918.918980	38.250413
919.324412	38.138196
919.729808	38.031508
920.135169	37.908127
920.540494	37.811364
920.945783	37.722822
921.351037	37.626128
921.756256	37.568641
922.161439	37.480189
922.566586	37.405453
922.971698	37.345050
923.376775	37.281864
923.781815	37.232248
924.186820	37.170866
924.591790	37.111987
924.996723	37.065943
925.401621	37.034064
925.806484	36.999323
926.211310	36.982558
926.616101	36.981929
927.020856	36.991445
927.425575	37.021186
927.830259	37.050481
928.234906	37.047892
928.639518	37.074598
929.044094	37.122331
929.448634	37.178919
929.853138	37.217001
930.257606	37.260144
930.662038	37.304552
931.066434	37.394373
931.470795	37.477134
931.875119	37.576435
932.279407	37.675088
932.683659	37.802434
933.087875	37.914994
933.492055	38.027094
933.896199	38.141367
934.300307	38.249562
934.704379	38.354865
935.108414	38.473247
935.512414	38.613961
935.916377	38.723908
936.320304	38.807800
936.724195	38.910898
937.128049	38.989409
937.531867	39.050532
937.935649	39.088421
938.339395	39.141436
938.743104	39.153751
939.146777	39.164858
939.550414	39.135943
939.954014	39.095050
940.357578	39.047856
940.761105	38.996034
941.164596	38.890269
941.568050	38.778205
941.971468	38.632663
942.374850	38.501280
942.778195	38.327076
943.181503	38.169422
943.584775	37.952822
943.988010	37.747418
944.391209	37.488321
944.794371	37.237303
945.197496	36.962367
945.600585	36.696131
946.003637	36.428745
946.406653	36.178670
946.809632	35.903614
947.212574	35.615286
947.615479	35.354492
948.018347	35.065492
948.421179	34.787848
948.823974	34.521375
949.226732	34.241435
949.629453	34.017789
950.032138	33.793035
950.434785	33.561199
950.837396	33.361618
951.239969	33.179243
951.642506	32.966642
952.045006	32.814866
952.447469	32.670427
952.849895	32.492615
953.252283	32.372541
953.654635	32.279089
954.056950	32.196585
954.459227	32.132392
954.861468	32.057531
955.263671	32.014732
955.665838	31.976037
956.067967	31.990740
956.470059	31.993080
956.872114	32.059863
957.274131	32.112116
957.676112	32.157834
958.078055	32.222587
958.479961	32.292108
958.881829	32.341339
959.283661	32.404616
959.685455	32.497932
960.087211	32.584060
960.488931	32.664615
960.890613	32.796156
961.292257	32.923103
961.693864	33.057106
962.095434	33.168208
962.496966	33.298423
962.898461	33.393378
963.299918	33.493959
963.701338	33.588852
964.102720	33.727463
964.504065	33.843607
964.905372	33.948557
965.306641	34.106504
965.707873	34.190705
966.109068	34.288342
966.510224	34.415659
966.911343	34.483244
967.312425	34.592982
967.713468	34.676561
968.114474	34.763981
968.515442	34.816296
968.916373	34.914652
969.317265	34.912085
969.718120	34.955702
970.118937	35.018402
970.519716	35.083986
970.920458	35.082400
971.321161	35.081347
971.721827	35.097668
972.122454	35.117272
972.523044	35.148676
972.923596	35.167566
973.324110	35.137183
973.724585	35.131513
974.125023	35.083569
974.525423	35.057462
974.925785	35.006509
975.326108	35.005326
975.726394	34.925869
976.126642	34.915947
976.526851	34.898176
976.927022	34.829332
977.327155	34.790712
977.727250	34.697300
978.127307	34.613519
978.527325	34.584573
978.927306	34.477265
979.327248	34.444629
979.727151	34.391485
980.127017	34.382261
980.526844	34.220606
980.926633	34.180161
981.326383	34.001108
981.726095	33.944851
982.125769	33.855276
982.525404	33.770251
982.925001	33.611998
983.324560	33.531877
983.724079	33.442693
984.123561	33.426905
984.523004	33.311152
984.922408	33.166738
985.321774	33.086665
985.721102	32.989283
986.120390	32.911201
986.519641	32.915574
986.918852	32.814938
987.318025	32.827817
987.717159	32.790825
988.116255	32.842830
988.515312	32.777580
988.914330	32.735224
989.313310	32.616248
989.712250	32.653587
990.111152	32.671690
990.510015	32.730781
990.908840	32.784158
991.307625	32.858769
991.706372	32.926747
992.105080	32.989673
992.503749	32.993233
992.902379	33.204835
993.300970	33.359073
993.699522	33.612087
994.098035	33.783369
994.496510	33.926360
994.894945	34.100503
995.293341	34.268970
995.691698	34.489796
996.090016	34.804904
996.488296	34.899388
996.886535	35.215108
997.284736	35.425409
997.682898	35.650863
998.081021	36.024605
998.479104	36.266423
998.877148	36.487375
999.275153	36.886054
999.673119	37.045599
1000.071046	37.424514
1000.468933	37.682815
1000.866781	38.012146
1001.264590	38.145626
1001.662359	38.645347
1002.060089	38.768938
1002.457780	39.123055
1002.855431	39.494771
1003.253043	39.778878
1003.650615	40.046688
1004.048148	40.302337
1004.445642	40.668939
1004.843096	40.903465
1005.240511	41.320001
1005.637886	41.625436
1006.035221	41.861566
1006.432517	42.311277
1006.829774	42.753653
1007.226991	43.147230
1007.624168	43.521522
1008.021306	43.976202
1008.418404	44.356737
1008.815462	44.941366
1009.212481	45.417783
1009.609460	46.083342
1010.006399	46.865455
1010.403298	47.483857
1010.800158	48.235682
1011.196978	48.950102
1011.593758	49.656977
1011.990498	50.357164
1012.387199	50.854253
1012.783860	51.712679
1013.180480	52.659434
1013.577061	53.765491
1013.973602	54.742889
1014.370103	55.700043
1014.766564	56.304117
1015.162985	56.942215
1015.559366	57.535408
1015.955708	58.264611
1016.352009	59.156798
1016.748270	59.714831
1017.144491	60.714667
1017.540671	61.506086
1017.936812	62.486342
1018.332913	63.489604
1018.728973	63.995594
1019.124994	64.946331
1019.520974	65.897233
1019.916914	67.144809
1020.312814	68.138976
