Time1=100ms:Average1=5:Objective=10X:Aperture=1: (11/21/2018 11:31:09 AM)
11/21/2018 11:31:09 AM
Reflectance
10X
Ap#: 1
Avg1: 5.000000
Avg2: 0.000000
Int.Time1:100.000000

350.166136	90.923107
350.601937	91.130798
351.037728	91.184545
351.473509	91.296877
351.909281	91.410295
352.345042	91.282156
352.780794	91.112702
353.216536	91.066871
353.652267	91.017903
354.087989	90.466946
354.523701	90.651153
354.959403	90.878550
355.395095	91.432656
355.830777	91.407604
356.266449	91.475242
356.702110	90.939495
357.137762	91.760872
357.573404	91.565030
358.009035	91.522474
358.444656	92.111750
358.880268	92.520576
359.315869	92.230809
359.751459	92.441204
360.187040	92.832132
360.622610	92.685443
361.058170	92.454386
361.493720	92.369644
361.929260	92.767101
362.364789	92.679416
362.800308	92.327445
363.235816	92.543001
363.671314	92.950954
364.106802	92.793348
364.542279	92.815415
364.977746	93.091359
365.413203	93.074220
365.848649	93.316806
366.284084	93.289622
366.719509	93.160377
367.154924	93.325803
367.590328	93.417955
368.025721	93.427518
368.461104	93.448170
368.896477	93.282818
369.331838	93.151106
369.767189	92.585455
370.202530	93.025631
370.637859	91.922766
371.073178	92.656741
371.508486	92.902048
371.943784	92.812912
372.379071	92.700730
372.814347	93.277738
373.249612	93.507022
373.684866	93.192607
374.120110	93.756956
374.555343	93.950430
374.990565	93.818585
375.425776	93.763203
375.860976	93.641677
376.296165	93.836237
376.731343	93.897184
377.166511	93.718593
377.601667	93.844460
378.036812	94.023265
378.471946	94.095314
378.907070	94.107677
379.342182	93.640525
379.777283	93.710817
380.212373	93.466389
380.647452	93.255538
381.082520	92.977084
381.517576	93.036102
381.952622	93.643226
382.387656	94.123516
382.822679	94.179209
383.257691	95.005505
383.692692	95.077720
384.127681	95.876289
384.562659	94.835121
384.997626	94.962317
385.432581	94.380915
385.867525	94.450458
386.302458	94.701792
386.737379	94.318182
387.172289	94.079076
387.607188	93.288656
388.042075	93.521401
388.476951	93.751825
388.911815	93.736627
389.346668	94.295727
389.781509	94.391793
390.216338	94.492810
390.651157	94.767669
391.085963	95.007846
391.520758	94.959875
391.955541	95.185803
392.390313	94.503356
392.825073	94.756809
393.259821	94.979939
393.694558	95.918568
394.129283	95.512758
394.563996	96.259572
394.998698	96.289352
395.433388	96.004902
395.868066	95.923834
396.302732	95.615062
396.737386	94.828257
397.172029	94.598661
397.606659	94.228909
398.041278	94.193890
398.475885	93.620178
398.910480	93.698460
399.345063	92.962071
399.779634	92.034446
400.214194	90.537120
400.648741	89.219112
401.083276	87.411718
401.517799	85.269146
401.952310	82.826551
402.386809	80.083189
402.821296	76.912055
403.255771	74.083799
403.690234	70.797175
404.124684	67.120474
404.559123	63.727349
404.993549	60.467898
405.427963	56.772805
405.862365	53.702340
406.296754	50.540739
406.731131	47.552002
407.165496	44.450101
407.599849	41.843006
408.034190	39.530151
408.468518	37.431654
408.902833	35.320818
409.337137	33.428512
409.771428	31.810014
410.205706	30.216086
410.639973	28.755417
411.074226	27.486272
411.508467	26.343851
411.942696	25.327328
412.376912	24.404181
412.811116	23.617508
413.245307	22.875867
413.679486	22.315140
414.113652	21.716713
414.547805	21.225937
414.981946	20.664198
415.416074	20.207895
415.850190	19.847127
416.284293	19.503018
416.718383	19.176134
417.152460	18.875259
417.586525	18.645926
418.020577	18.422521
418.454616	18.260373
418.888643	18.155949
419.322656	18.022287
419.756657	17.953451
420.190645	17.890125
420.624620	17.859034
421.058582	17.824047
421.492531	17.777643
421.926468	17.734251
422.360391	17.767976
422.794301	17.770410
423.228199	17.831442
423.662083	17.894445
424.095955	17.989143
424.529813	18.033520
424.963658	18.112919
425.397491	18.154773
425.831310	18.253410
426.265116	18.339315
426.698909	18.422064
427.132689	18.490293
427.566455	18.607545
428.000209	18.703610
428.433949	18.853208
428.867676	18.983032
429.301389	19.095678
429.735090	19.229203
430.168777	19.348867
430.602451	19.470392
431.036111	19.568100
431.469759	19.675416
431.903392	19.772676
432.337013	19.856187
432.770620	19.937667
433.204213	20.012233
433.637794	20.088249
434.071360	20.173965
434.504914	20.265570
434.938453	20.358205
435.371979	20.451821
435.805492	20.519344
436.238991	20.592730
436.672477	20.679959
437.105949	20.766375
437.539407	20.821967
437.972852	20.895475
438.406283	20.960077
438.839700	21.038278
439.273104	21.072386
439.706494	21.115512
440.139871	21.144426
440.573233	21.203252
441.006582	21.234235
441.439917	21.251890
441.873238	21.274587
442.306546	21.291110
442.739839	21.289260
443.173119	21.280538
443.606385	21.274136
444.039636	21.277202
444.472874	21.285237
444.906099	21.282470
445.339309	21.290833
445.772505	21.286607
446.205687	21.292852
446.638855	21.307187
447.072009	21.293677
447.505149	21.275848
447.938275	21.261040
448.371387	21.226613
448.804485	21.179523
449.237569	21.138833
449.670638	21.089360
450.103694	21.021299
450.536735	20.960446
450.969762	20.892168
451.402774	20.820337
451.835773	20.751326
452.268757	20.673917
452.701727	20.612934
453.134683	20.529629
453.567624	20.456580
454.000551	20.375881
454.433464	20.308228
454.866362	20.232891
455.299246	20.158705
455.732116	20.067595
456.164971	19.977968
456.597811	19.884344
457.030638	19.794829
457.463449	19.686961
457.896246	19.589937
458.329029	19.470154
458.761797	19.352568
459.194551	19.247237
459.627290	19.141374
460.060014	19.024915
460.492724	18.936446
460.925419	18.836102
461.358099	18.732984
461.790765	18.627603
462.223416	18.527144
462.656052	18.411570
463.088674	18.307532
463.521281	18.209801
463.953873	18.097895
464.386450	17.997377
464.819012	17.916291
465.251560	17.828441
465.684093	17.735947
466.116611	17.644969
466.549114	17.584411
466.981602	17.512311
467.414075	17.426366
467.846533	17.336901
468.278977	17.277384
468.711405	17.192056
469.143818	17.142120
469.576216	17.102705
470.008600	17.063637
470.440968	17.021020
470.873321	16.983335
471.305659	16.948453
471.737982	16.935696
472.170289	16.911030
472.602582	16.901601
473.034859	16.888844
473.467122	16.895984
473.899369	16.886575
474.331600	16.895145
474.763817	16.911498
475.196018	16.936347
475.628204	16.977288
476.060375	17.024181
476.492530	17.079498
476.924670	17.122233
477.356795	17.189400
477.788904	17.257178
478.220998	17.328497
478.653076	17.391820
479.085139	17.470630
479.517186	17.556627
479.949219	17.623084
480.381235	17.710001
480.813236	17.789374
481.245221	17.873079
481.677191	17.949581
482.109146	18.024605
482.541084	18.080593
482.973008	18.142455
483.404915	18.195308
483.836807	18.248208
484.268683	18.299718
484.700544	18.338924
485.132388	18.392423
485.564217	18.444005
485.996031	18.481942
486.427828	18.517559
486.859610	18.538939
487.291376	18.562438
487.723126	18.591976
488.154860	18.605156
488.586579	18.613317
489.018281	18.605477
489.449968	18.607591
489.881639	18.600916
490.313293	18.597434
490.744932	18.584567
491.176555	18.564636
491.608162	18.534941
492.039753	18.496530
492.471328	18.457288
492.902886	18.397931
493.334429	18.340393
493.765956	18.269343
494.197466	18.204138
494.628960	18.126485
495.060439	18.036906
495.491901	17.940778
495.923347	17.843622
496.354776	17.730952
496.786190	17.619560
497.217587	17.491173
497.648968	17.363024
498.080332	17.222962
498.511681	17.071833
498.943013	16.900453
499.374328	16.734667
499.805628	16.559788
500.236911	16.380542
500.668177	16.189512
501.099427	15.988378
501.530661	15.793807
501.961878	15.587547
502.393079	15.390544
502.824264	15.189285
503.255431	14.996160
503.686583	14.805771
504.117717	14.630908
504.548835	14.470714
504.979937	14.318899
505.411022	14.182168
505.842090	14.053871
506.273142	13.952592
506.704177	13.861938
507.135195	13.789041
507.566197	13.745646
507.997182	13.727464
508.428150	13.729770
508.859102	13.778774
509.290036	13.864919
509.720954	13.986800
510.151855	14.145481
510.582739	14.362757
511.013607	14.606166
511.444457	14.909925
511.875291	15.245413
512.306107	15.645329
512.736907	16.082154
513.167690	16.565634
513.598456	17.089908
514.029205	17.678719
514.459936	18.322857
514.890651	19.025150
515.321349	19.799157
515.752030	20.625239
516.182693	21.511603
516.613340	22.453321
517.043969	23.458120
517.474582	24.504841
517.905177	25.585400
518.335755	26.724732
518.766315	27.896821
519.196859	29.096790
519.627385	30.325693
520.057894	31.571372
520.488386	32.835929
520.918860	34.121246
521.349318	35.435274
521.779757	36.788861
522.210180	38.155304
522.640585	39.526741
523.070973	40.905970
523.501343	42.296573
523.931696	43.685526
524.362031	45.094736
524.792349	46.494073
525.222650	47.906742
525.652933	49.286548
526.083198	50.654509
526.513446	52.004447
526.943677	53.340321
527.373890	54.660947
527.804085	55.960380
528.234262	57.223735
528.664422	58.489084
529.094565	59.723199
529.524689	60.925431
529.954796	62.104314
530.384885	63.240614
530.814957	64.346568
531.245011	65.452377
531.675047	66.517592
532.105065	67.557815
532.535065	68.591293
532.965048	69.593126
533.395013	70.567179
533.824959	71.515489
534.254888	72.442967
534.684799	73.363189
535.114693	74.259231
535.544568	75.124482
535.974425	75.982582
536.404264	76.798501
536.834086	77.601521
537.263889	78.370725
537.693674	79.116077
538.123441	79.835898
538.553190	80.508659
538.982921	81.183860
539.412634	81.841906
539.842329	82.504504
540.272006	83.130810
540.701664	83.733807
541.131304	84.326922
541.560926	84.905364
541.990530	85.446780
542.420116	85.982752
542.849683	86.504595
543.279232	87.010425
543.708763	87.496522
544.138275	87.971495
544.567769	88.406574
544.997245	88.833908
545.426702	89.259927
545.856141	89.665573
546.285562	90.063601
546.714964	90.454030
547.144347	90.838297
547.573713	91.206961
548.003059	91.553473
548.432387	91.893269
548.861697	92.241841
549.290988	92.580004
549.720260	92.932750
550.149514	93.272673
550.578750	93.598827
551.007966	93.905258
551.437164	94.226857
551.866344	94.543766
552.295504	94.831357
552.724646	95.133254
553.153769	95.411104
553.582874	95.705026
554.011960	95.980714
554.441027	96.252624
554.870075	96.507133
555.299104	96.741878
555.728115	96.932541
556.157106	97.149769
556.586079	97.332117
557.015033	97.495767
557.443968	97.653543
557.872884	97.811701
558.301781	97.952963
558.730659	98.093925
559.159518	98.204572
559.588358	98.334616
560.017180	98.444667
560.445982	98.541461
560.874765	98.637526
561.303528	98.733220
561.732273	98.840430
562.160999	98.923346
562.589705	99.012348
563.018393	99.092444
563.447061	99.190454
563.875710	99.285549
564.304340	99.401123
564.732950	99.496409
565.161542	99.618224
565.590114	99.737398
566.018666	99.859815
566.447200	99.992186
566.875714	100.118142
567.304208	100.248255
567.732684	100.388375
568.161140	100.526512
568.589576	100.685696
569.017993	100.859109
569.446391	101.008392
569.874769	101.180388
570.303128	101.356252
570.731467	101.518242
571.159787	101.678745
571.588087	101.823257
572.016368	101.970659
572.444629	102.120395
572.872870	102.247536
573.301092	102.366774
573.729294	102.479484
574.157476	102.588587
574.585639	102.677237
575.013782	102.753180
575.441906	102.835091
575.870009	102.887128
576.298093	102.933935
576.726157	102.961745
577.154202	103.001446
577.582226	103.033429
578.010231	103.043748
578.438216	103.042831
578.866181	103.038297
579.294126	103.030406
579.722051	103.017491
580.149957	103.008131
580.577842	102.997016
581.005707	102.978284
581.433553	102.985591
581.861378	102.972072
582.289184	102.979217
582.716969	102.977563
583.144734	102.960877
583.572479	102.965280
584.000205	102.980207
584.427910	102.980256
584.855594	102.987257
585.283259	102.971157
585.710904	102.976207
586.138528	102.957514
586.566132	102.955134
586.993716	102.948241
587.421280	102.943574
587.848823	102.952779
588.276346	102.952051
588.703849	102.919220
589.131332	102.904613
589.558794	102.882408
589.986236	102.821046
590.413657	102.775314
590.841058	102.695421
591.268438	102.630297
591.695799	102.540466
592.123138	102.438492
592.550458	102.328503
592.977756	102.209588
593.405034	102.096358
593.832292	101.964858
594.259529	101.820864
594.686746	101.661020
595.113942	101.507654
595.541117	101.332083
595.968272	101.160292
596.395406	100.991437
596.822519	100.812016
597.249612	100.632586
597.676684	100.457833
598.103735	100.276723
598.530766	100.113000
598.957775	99.932728
599.384764	99.764440
599.811733	99.592294
600.238680	99.425567
600.665606	99.248507
601.092512	99.073671
601.519397	98.895839
601.946261	98.740124
602.373104	98.571045
602.799926	98.397290
603.226727	98.242796
603.653507	98.062476
604.080266	97.896290
604.507004	97.730148
604.933721	97.554375
605.360417	97.387913
605.787092	97.207994
606.213746	97.006109
606.640379	96.786836
607.066991	96.560056
607.493581	96.299230
607.920150	96.035791
608.346699	95.759195
608.773226	95.460724
609.199731	95.141583
609.626216	94.806291
610.052679	94.444879
610.479121	94.049652
610.905542	93.629512
611.331941	93.197991
611.758319	92.715896
612.184676	92.225745
612.611011	91.698442
613.037325	91.127329
613.463617	90.516067
613.889888	89.895196
614.316138	89.229817
614.742366	88.524079
615.168573	87.777955
615.594758	86.987877
616.020921	86.172739
616.447063	85.332299
616.873184	84.447658
617.299283	83.531586
617.725360	82.584358
618.151416	81.615014
618.577450	80.608869
619.003462	79.571167
619.429453	78.524048
619.855422	77.442942
620.281369	76.349213
620.707295	75.246580
621.133199	74.109668
621.559081	72.943323
621.984941	71.768099
622.410779	70.570681
622.836596	69.343466
623.262391	68.100776
623.688163	66.840965
624.113914	65.568703
624.539644	64.274777
624.965351	62.968533
625.391036	61.623325
625.816699	60.272375
626.242340	58.909727
626.667960	57.525539
627.093557	56.109880
627.519132	54.697112
627.944685	53.277594
628.370216	51.864469
628.795725	50.457709
629.221212	49.050153
629.646677	47.651210
630.072119	46.277536
630.497540	44.926230
630.922938	43.604077
631.348314	42.322184
631.773668	41.080423
632.198999	39.884966
632.624308	38.745862
633.049595	37.665220
633.474860	36.641211
633.900102	35.678030
634.325322	34.773590
634.750520	33.945867
635.175695	33.179504
635.600848	32.479823
636.025978	31.852353
636.451086	31.294151
636.876171	30.802525
637.301234	30.372348
637.726275	30.019850
638.151293	29.730405
638.576288	29.513183
639.001261	29.363756
639.426211	29.292397
639.851139	29.288976
640.276044	29.353192
640.700927	29.491132
641.125787	29.698130
641.550624	29.985858
641.975438	30.341787
642.400230	30.773862
642.824999	31.267604
643.249745	31.839492
643.674469	32.470190
644.099169	33.160888
644.523847	33.913337
644.948502	34.716263
645.373135	35.566110
645.797744	36.456818
646.222330	37.383861
646.646894	38.353956
647.071435	39.362548
647.495953	40.400282
647.920447	41.446704
648.344919	42.514920
648.769368	43.602672
649.193794	44.696061
649.618197	45.797819
650.042576	46.907492
650.466933	48.036136
650.891267	49.152521
651.315577	50.273591
651.739864	51.391079
652.164129	52.486229
652.588370	53.571797
653.012587	54.651783
653.436782	55.723511
653.860953	56.768136
654.285102	57.804166
654.709226	58.798193
655.133328	59.788934
655.557406	60.737586
655.981461	61.665703
656.405493	62.558273
656.829501	63.418584
657.253486	64.239565
657.677448	65.016897
658.101386	65.762268
658.525301	66.464599
658.949192	67.130198
659.373060	67.754098
659.796904	68.337741
660.220725	68.879778
660.644522	69.382719
661.068296	69.859909
661.492046	70.310170
661.915772	70.732539
662.339475	71.126325
662.763154	71.497806
663.186810	71.833970
663.610442	72.132568
664.034050	72.411728
664.457635	72.665778
664.881196	72.904579
665.304733	73.132070
665.728247	73.334131
666.151736	73.523150
666.575202	73.693854
666.998644	73.859649
667.422062	74.016068
667.845457	74.159751
668.268827	74.274805
668.692174	74.393651
669.115496	74.499214
669.538795	74.598105
669.962070	74.676857
670.385321	74.747786
670.808547	74.811607
671.231750	74.876489
671.654929	74.932871
672.078084	74.983445
672.501214	75.029793
672.924321	75.057728
673.347404	75.087207
673.770462	75.102336
674.193496	75.109391
674.616506	75.102953
675.039492	75.081891
675.462454	75.057330
675.885391	75.019507
676.308305	74.980752
676.731194	74.933612
677.154058	74.871260
677.576899	74.798007
677.999715	74.719855
678.422507	74.642715
678.845274	74.554504
679.268017	74.459381
679.690736	74.368444
680.113430	74.257010
680.536100	74.149471
680.958746	74.039955
681.381367	73.933619
681.803963	73.821238
682.226535	73.725152
682.649083	73.625537
683.071605	73.539188
683.494104	73.455378
683.916578	73.366713
684.339027	73.273311
684.761451	73.179742
685.183851	73.084097
685.606227	73.000932
686.028577	72.921291
686.450903	72.837713
686.873204	72.762162
687.295481	72.691254
687.717733	72.620016
688.139959	72.541122
688.562162	72.458211
688.984339	72.372161
689.406492	72.290628
689.828619	72.215029
690.250722	72.142588
690.672800	72.081088
691.094853	72.020699
691.516881	71.945059
691.938884	71.880051
692.360863	71.819418
692.782816	71.760747
693.204744	71.714346
693.626647	71.660101
694.048526	71.611081
694.470379	71.573248
694.892207	71.536618
695.314010	71.503979
695.735788	71.475740
696.157540	71.445392
696.579268	71.430756
697.000970	71.427304
697.422648	71.428551
697.844300	71.437576
698.265926	71.451957
698.687528	71.461080
699.109104	71.481980
699.530655	71.503786
699.952181	71.532592
700.373681	71.568728
700.795156	71.617277
701.216606	71.697045
701.638030	71.788381
702.059429	71.896364
702.480803	72.027566
702.902151	72.173441
703.323473	72.333221
703.744770	72.512600
704.166042	72.724900
704.587288	72.977661
705.008509	73.251523
705.429704	73.549146
705.850873	73.870742
706.272017	74.206093
706.693135	74.564356
707.114228	74.948683
707.535295	75.348090
707.956336	75.755331
708.377352	76.166671
708.798342	76.585553
709.219306	77.011777
709.640245	77.439037
710.061157	77.861352
710.482044	78.278129
710.902905	78.698562
711.323741	79.123003
711.744550	79.554342
712.165334	79.984598
712.586092	80.415904
713.006823	80.846572
713.427529	81.281673
713.848209	81.724245
714.268863	82.153400
714.689492	82.587862
715.110094	83.033053
715.530670	83.476176
715.951220	83.921503
716.371744	84.373170
716.792242	84.832015
717.212714	85.274655
717.633159	85.717743
718.053579	86.170659
718.473973	86.625478
718.894340	87.082247
719.314681	87.543817
719.734996	88.010651
720.155285	88.459897
720.575547	88.895833
720.995784	89.338979
721.415994	89.771311
721.836177	90.208488
722.256335	90.635472
722.676466	91.059071
723.096570	91.481866
723.516649	91.899622
723.936701	92.304321
724.356726	92.688586
724.776725	93.069451
725.196698	93.445433
725.616644	93.808759
726.036564	94.170821
726.456457	94.518306
726.876324	94.841375
727.296164	95.161458
727.715977	95.468726
728.135764	95.761492
728.555525	96.036526
728.975258	96.302857
729.394966	96.556023
729.814646	96.786925
730.234300	97.008977
730.653927	97.208390
731.073527	97.391943
731.493101	97.573408
731.912648	97.728440
732.332168	97.870690
732.751661	97.993952
733.171128	98.111210
733.590568	98.222673
734.009980	98.324436
734.429366	98.418370
734.848726	98.497113
735.268058	98.581324
735.687363	98.637486
736.106641	98.699111
736.525893	98.745274
736.945117	98.793110
737.364314	98.841713
737.783485	98.880068
738.202628	98.924267
738.621744	98.971867
739.040834	99.008260
739.459896	99.063404
739.878931	99.099005
740.297939	99.143495
740.716919	99.204425
741.135873	99.251838
741.554799	99.301832
741.973698	99.354885
742.392570	99.412805
742.811415	99.486415
743.230232	99.554683
743.649022	99.649800
744.067785	99.721768
744.486521	99.790056
744.905229	99.859324
745.323909	99.931333
745.742563	100.008293
746.161189	100.084248
746.579787	100.169543
746.998358	100.259949
747.416902	100.343414
747.835418	100.421301
748.253907	100.507132
748.672368	100.605647
749.090802	100.692833
749.509208	100.779705
749.927586	100.868874
750.345937	100.957304
750.764261	101.056232
751.182556	101.128909
751.600824	101.204714
752.019065	101.277939
752.437277	101.326192
752.855462	101.389868
753.273620	101.436815
753.691749	101.459124
754.109851	101.485050
754.527925	101.494728
754.945971	101.494746
755.363989	101.474847
755.781980	101.437652
756.199943	101.394500
756.617877	101.317889
757.035784	101.240529
757.453663	101.150685
757.871514	101.037143
758.289337	100.913331
758.707132	100.764031
759.124899	100.607611
759.542639	100.434512
759.960350	100.240192
760.378033	100.043260
760.795688	99.814162
761.213314	99.582406
761.630913	99.342970
762.048484	99.086030
762.466026	98.842104
762.883541	98.590761
763.301027	98.324509
763.718485	98.052971
764.135914	97.785887
764.553316	97.518035
764.970689	97.264822
765.388034	97.003478
765.805351	96.754827
766.222639	96.504608
766.639899	96.258058
767.057131	95.989450
767.474334	95.726580
767.891509	95.461903
768.308655	95.224114
768.725773	94.966183
769.142863	94.714964
769.559924	94.464442
769.976957	94.226313
770.393961	93.989393
770.810936	93.771085
771.227883	93.571783
771.644802	93.382869
772.061692	93.215275
772.478553	93.067611
772.895386	92.929057
773.312190	92.807715
773.728965	92.732893
774.145712	92.644955
774.562430	92.583023
774.979119	92.544014
775.395780	92.506610
775.812411	92.492051
776.229014	92.497537
776.645589	92.507226
777.062134	92.524258
777.478651	92.558367
777.895138	92.586535
778.311597	92.624858
778.728027	92.660840
779.144428	92.713481
779.560800	92.771138
779.977143	92.853621
780.393458	92.932410
780.809743	93.029112
781.225999	93.115443
781.642226	93.222177
782.058425	93.316258
782.474594	93.429010
782.890734	93.541253
783.306845	93.643119
783.722926	93.745193
784.138979	93.828537
784.555003	93.920612
784.970997	93.989326
785.386962	94.041748
785.802898	94.090950
786.218805	94.127225
786.634682	94.144068
787.050531	94.167247
787.466349	94.162568
787.882139	94.146830
788.297899	94.130643
788.713630	94.092014
789.129332	94.038856
789.545004	93.973428
789.960647	93.895511
790.376260	93.790743
790.791844	93.682257
791.207399	93.555858
791.622924	93.412711
792.038419	93.261097
792.453885	93.099743
792.869321	92.931394
793.284728	92.758842
793.700106	92.576285
794.115453	92.385156
794.530771	92.199045
794.946060	92.022313
795.361319	91.835923
795.776548	91.647662
796.191747	91.471125
796.606917	91.272917
797.022057	91.105506
797.437167	90.917702
797.852248	90.749579
798.267298	90.586578
798.682319	90.402040
799.097310	90.239146
799.512271	90.083035
799.927203	89.901384
800.342104	89.723557
800.756976	89.557545
801.171818	89.389259
801.586629	89.229186
802.001411	89.073592
802.416163	88.908742
802.830885	88.756052
803.245577	88.591963
803.660238	88.421059
804.074870	88.295140
804.489472	88.180812
804.904043	88.056301
805.318585	87.927794
805.733096	87.815401
806.147577	87.700664
806.562028	87.597446
806.976449	87.494123
807.390840	87.392789
807.805200	87.292362
808.219530	87.192209
808.633830	87.110250
809.048100	87.030593
809.462339	86.983936
809.876548	86.913283
810.290727	86.863733
810.704875	86.810769
811.118993	86.732071
811.533080	86.675926
811.947137	86.611897
812.361164	86.554229
812.775160	86.515442
813.189126	86.472482
813.603061	86.417845
814.016966	86.354042
814.430840	86.285287
814.844684	86.226955
815.258497	86.174228
815.672280	86.112477
816.086032	86.061068
816.499753	86.018519
816.913444	85.962979
817.327104	85.885321
817.740733	85.799148
818.154331	85.707668
818.567899	85.592487
818.981436	85.491816
819.394943	85.338441
819.808418	85.194425
820.221863	85.034147
820.635277	84.854889
821.048660	84.663061
821.462013	84.432735
821.875334	84.189909
822.288625	83.912411
822.701884	83.604581
823.115113	83.271037
823.528311	82.907431
823.941478	82.552026
824.354614	82.182511
824.767718	81.761289
825.180792	81.319934
825.593835	80.839575
826.006847	80.361926
826.419827	79.863522
826.832777	79.356696
827.245695	78.831605
827.658582	78.280166
828.071438	77.710797
828.484263	77.140831
828.897057	76.568767
829.309819	75.970005
829.722551	75.361896
830.135251	74.777729
830.547919	74.190225
830.960557	73.607885
831.373163	73.020150
831.785738	72.443970
832.198281	71.919055
832.610793	71.385891
833.023274	70.853720
833.435723	70.363348
833.848141	69.903992
834.260528	69.474083
834.672883	69.066761
835.085206	68.688105
835.497498	68.348548
835.909758	68.027472
836.321987	67.741502
836.734185	67.470180
837.146350	67.222188
837.558485	67.030455
837.970587	66.836420
838.382658	66.675205
838.794697	66.525236
839.206705	66.395476
839.618681	66.304612
840.030625	66.223151
840.442538	66.175699
840.854418	66.144631
841.266267	66.114392
841.678084	66.106443
842.089870	66.136870
842.501623	66.178036
842.913345	66.226022
843.325035	66.307533
843.736693	66.426106
844.148319	66.579193
844.559913	66.739459
844.971475	66.928406
845.383005	67.161046
845.794504	67.410754
846.205970	67.688255
846.617404	67.954954
847.028806	68.253711
847.440176	68.569056
847.851514	68.905638
848.262820	69.237837
848.674094	69.608277
849.085336	69.983948
849.496546	70.350423
849.907723	70.723879
850.318868	71.090016
850.729981	71.466237
851.141062	71.872621
851.552110	72.231989
851.963127	72.599608
852.374111	72.960167
852.785062	73.314810
853.195982	73.627021
853.606869	73.940208
854.017723	74.267499
854.428546	74.577244
854.839336	74.858079
855.250093	75.119341
855.660818	75.390676
856.071511	75.632299
856.482171	75.824461
856.892799	75.996398
857.303394	76.153681
857.713956	76.250289
858.124486	76.343682
858.534984	76.392908
858.945449	76.405022
859.355881	76.382427
859.766280	76.332062
860.176647	76.219480
860.586982	76.092964
860.997283	75.954678
861.407552	75.753015
861.817789	75.524838
862.227992	75.270016
862.638163	75.016207
863.048301	74.700248
863.458406	74.350237
863.868478	73.968573
864.278518	73.594125
864.688524	73.192445
865.098498	72.737229
865.508439	72.293203
865.918347	71.842084
866.328222	71.384848
866.738064	70.916124
867.147873	70.424349
867.557649	69.932418
867.967392	69.433193
868.377102	68.925768
868.786779	68.439073
869.196423	67.965382
869.606034	67.507549
870.015612	67.029245
870.425156	66.577167
870.834668	66.088490
871.244146	65.648537
871.653591	65.215785
872.063003	64.794363
872.472382	64.384348
872.881728	64.026511
873.291040	63.656808
873.700319	63.298855
874.109564	62.961570
874.518777	62.645451
874.927956	62.342180
875.337102	62.022584
875.746214	61.734170
876.155293	61.474830
876.564338	61.202436
876.973350	60.951861
877.382329	60.710507
877.791274	60.504396
878.200186	60.303791
878.609064	60.110882
879.017909	59.911447
879.426720	59.734796
879.835497	59.568221
880.244241	59.402071
880.652952	59.250618
881.061629	59.121053
881.470272	58.954827
881.878881	58.801997
882.287457	58.657381
882.695999	58.545966
883.104507	58.432907
883.512982	58.333385
883.921423	58.236883
884.329830	58.129846
884.738203	58.052772
885.146543	57.965114
885.554849	57.887854
885.963120	57.799146
886.371358	57.731438
886.779563	57.666957
887.187733	57.593980
887.595869	57.522022
888.003971	57.460567
888.412040	57.407349
888.820074	57.356357
889.228074	57.325742
889.636041	57.291365
890.043973	57.251543
890.451871	57.224945
890.859736	57.197474
891.267566	57.159789
891.675362	57.153874
892.083124	57.103352
892.490851	57.080383
892.898545	57.068423
893.306204	57.039676
893.713829	56.994435
894.121420	56.969806
894.528977	56.931924
894.936499	56.906592
895.343987	56.857609
895.751441	56.809166
896.158860	56.750869
896.566246	56.671827
896.973596	56.575297
897.380913	56.460321
897.788195	56.361398
898.195442	56.197266
898.602655	56.035891
899.009834	55.850343
899.416978	55.649456
899.824088	55.432350
900.231163	55.213289
900.638204	54.963861
901.045210	54.691040
901.452181	54.404966
901.859118	54.089862
902.266021	53.765957
902.672888	53.463439
903.079721	53.084131
903.486520	52.694271
903.893283	52.323346
904.300012	51.937449
904.706707	51.596289
905.113366	51.221713
905.519991	50.858949
905.926581	50.537343
906.333136	50.225013
906.739656	49.895660
907.146142	49.601621
907.552592	49.314820
907.959008	49.032623
908.365389	48.762110
908.771735	48.533684
909.178046	48.338083
909.584322	48.179017
909.990563	48.003629
910.396769	47.873397
910.802940	47.753227
911.209076	47.647602
911.615177	47.517617
912.021243	47.446020
912.427274	47.380505
912.833270	47.332725
913.239231	47.303112
913.645156	47.278603
914.051046	47.249214
914.456902	47.243341
914.862721	47.235221
915.268506	47.207870
915.674256	47.227681
916.079970	47.248514
916.485649	47.255680
916.891292	47.236185
917.296901	47.214284
917.702474	47.210536
918.108011	47.209003
918.513514	47.139030
918.918980	47.104190
919.324412	47.065222
919.729808	47.032907
920.135169	46.943163
920.540494	46.906323
920.945783	46.847347
921.351037	46.744273
921.756256	46.670263
922.161439	46.572218
922.566586	46.493788
922.971698	46.363704
923.376775	46.273251
923.781815	46.174064
924.186820	46.097802
924.591790	45.979151
924.996723	45.871334
925.401621	45.758295
925.806484	45.648798
926.211310	45.552557
926.616101	45.463460
927.020856	45.366457
927.425575	45.268383
927.830259	45.206350
928.234906	45.109273
928.639518	45.028210
929.044094	44.978705
929.448634	44.946471
929.853138	44.864267
930.257606	44.793145
930.662038	44.743118
931.066434	44.724266
931.470795	44.649509
931.875119	44.619077
932.279407	44.551279
932.683659	44.525497
933.087875	44.456063
933.492055	44.402996
933.896199	44.366929
934.300307	44.317684
934.704379	44.274783
935.108414	44.190577
935.512414	44.132417
935.916377	44.061513
936.320304	43.970402
936.724195	43.859167
937.128049	43.756954
937.531867	43.629067
937.935649	43.488474
938.339395	43.349626
938.743104	43.184044
939.146777	42.979566
939.550414	42.788158
939.954014	42.588335
940.357578	42.345825
940.761105	42.125757
941.164596	41.879010
941.568050	41.609296
941.971468	41.355417
942.374850	41.123232
942.778195	40.900958
943.181503	40.607762
943.584775	40.331481
943.988010	40.084706
944.391209	39.835692
944.794371	39.617723
945.197496	39.363491
945.600585	39.127287
946.003637	38.889484
946.406653	38.683463
946.809632	38.461482
947.212574	38.222409
947.615479	38.062613
948.018347	37.846629
948.421179	37.670418
948.823974	37.530634
949.226732	37.407005
949.629453	37.288043
950.032138	37.209385
950.434785	37.142891
950.837396	37.068121
951.239969	36.985620
951.642506	36.976012
952.045006	36.927681
952.447469	36.894817
952.849895	36.877506
953.252283	36.877539
953.654635	36.874065
954.056950	36.888346
954.459227	36.889355
954.861468	36.879554
955.263671	36.884911
955.665838	36.883447
956.067967	36.903155
956.470059	36.894642
956.872114	36.849158
957.274131	36.804858
957.676112	36.804146
958.078055	36.783462
958.479961	36.786040
958.881829	36.729777
959.283661	36.622751
959.685455	36.620494
960.087211	36.556626
960.488931	36.492686
960.890613	36.414145
961.292257	36.317235
961.693864	36.259536
962.095434	36.136134
962.496966	35.997355
962.898461	35.841651
963.299918	35.669231
963.701338	35.551436
964.102720	35.379591
964.504065	35.241295
964.905372	35.079192
965.306641	34.944033
965.707873	34.821246
966.109068	34.659205
966.510224	34.542707
966.911343	34.354792
967.312425	34.231598
967.713468	34.075372
968.114474	33.977620
968.515442	33.829226
968.916373	33.739519
969.317265	33.659959
969.718120	33.594260
970.118937	33.492650
970.519716	33.393504
970.920458	33.365654
971.321161	33.299409
971.721827	33.334765
972.122454	33.290824
972.523044	33.249686
972.923596	33.269880
973.324110	33.261277
973.724585	33.226444
974.125023	33.225707
974.525423	33.242246
974.925785	33.271703
975.326108	33.381056
975.726394	33.472302
976.126642	33.521573
976.526851	33.578438
976.927022	33.620098
977.327155	33.691447
977.727250	33.750199
978.127307	33.768255
978.527325	33.820528
978.927306	33.817256
979.327248	33.903112
979.727151	33.978164
980.127017	34.067730
980.526844	34.116816
980.926633	34.234618
981.326383	34.259259
981.726095	34.348917
982.125769	34.395497
982.525404	34.458120
982.925001	34.578713
983.324560	34.570737
983.724079	34.687763
984.123561	34.695340
984.523004	34.624686
984.922408	34.689693
985.321774	34.736868
985.721102	34.771170
986.120390	34.847660
986.519641	34.769727
986.918852	34.755505
987.318025	34.836517
987.717159	34.780958
988.116255	34.755861
988.515312	34.765413
988.914330	34.804810
989.313310	34.831409
989.712250	34.949511
990.111152	35.061673
990.510015	35.046178
990.908840	35.204269
991.307625	35.230037
991.706372	35.276723
992.105080	35.449357
992.503749	35.446723
992.902379	35.521488
993.300970	35.591599
993.699522	35.668167
994.098035	35.676249
994.496510	35.765033
994.894945	35.843829
995.293341	35.916475
995.691698	36.036927
996.090016	36.078996
996.488296	36.178150
996.886535	36.498937
997.284736	36.547536
997.682898	36.756583
998.081021	36.956964
998.479104	37.062173
998.877148	37.392439
999.275153	37.673138
999.673119	37.799458
1000.071046	38.082309
1000.468933	38.345490
1000.866781	38.459464
1001.264590	38.677914
1001.662359	38.686612
1002.060089	38.771969
1002.457780	38.765927
1002.855431	39.177889
1003.253043	39.118486
1003.650615	39.471558
1004.048148	39.687286
1004.445642	39.712071
1004.843096	40.126019
1005.240511	40.555814
1005.637886	40.625744
1006.035221	40.903720
1006.432517	41.280141
1006.829774	41.563414
1007.226991	42.059083
1007.624168	42.391009
1008.021306	42.675189
1008.418404	42.876882
1008.815462	43.377386
1009.212481	43.487004
1009.609460	43.870701
1010.006399	44.179866
1010.403298	44.371549
1010.800158	45.161290
1011.196978	45.677863
1011.593758	46.286608
1011.990498	46.853710
1012.387199	47.362701
1012.783860	47.715870
1013.180480	48.340164
1013.577061	49.152065
1013.973602	50.316433
1014.370103	51.209285
1014.766564	51.897233
1015.162985	52.094809
1015.559366	53.128314
1015.955708	53.546033
1016.352009	54.086681
1016.748270	54.637985
1017.144491	54.972067
1017.540671	54.967987
1017.936812	55.884212
1018.332913	56.689098
1018.728973	57.509739
1019.124994	58.051108
1019.520974	58.313973
1019.916914	58.850904
1020.312814	59.717868
