Time1=100ms:Average1=5:Objective=10X:Aperture=1: (11/28/2018 11:15:58 AM)
11/28/2018 11:15:58 AM
Reflectance
10X
Ap#: 1
Avg1: 5.000000
Avg2: 0.000000
Int.Time1:100.000000

350.166136	35.135135
350.601937	35.575712
351.037728	35.934945
351.473509	35.581455
351.909281	35.970664
352.345042	36.346187
352.780794	36.215320
353.216536	36.209918
353.652267	36.167979
354.087989	35.897211
354.523701	35.930774
354.959403	35.949434
355.395095	35.878670
355.830777	36.200053
356.266449	36.284906
356.702110	36.441426
357.137762	36.671680
357.573404	36.484083
358.009035	36.447017
358.444656	36.552709
358.880268	36.420470
359.315869	36.504405
359.751459	36.881078
360.187040	36.701178
360.622610	36.318986
361.058170	36.319699
361.493720	36.435696
361.929260	36.608020
362.364789	36.867965
362.800308	37.142857
363.235816	37.289189
363.671314	37.322317
364.106802	37.404512
364.542279	37.630971
364.977746	37.949401
365.413203	37.765769
365.848649	37.646121
366.284084	37.670384
366.719509	37.713628
367.154924	37.726465
367.590328	37.845279
368.025721	37.982985
368.461104	38.110027
368.896477	38.060360
369.331838	37.778365
369.767189	37.857268
370.202530	37.676334
370.637859	37.269373
371.073178	37.059442
371.508486	37.158565
371.943784	37.133918
372.379071	36.898349
372.814347	36.964845
373.249612	36.631249
373.684866	36.774699
374.120110	37.035748
374.555343	37.060564
374.990565	37.047719
375.425776	36.803006
375.860976	36.766373
376.296165	36.498075
376.731343	36.404239
377.166511	36.253063
377.601667	36.151757
378.036812	35.916659
378.471946	35.517842
378.907070	35.502442
379.342182	35.254237
379.777283	35.565217
380.212373	35.564600
380.647452	35.408392
381.082520	35.647989
381.517576	35.561290
381.952622	35.538899
382.387656	35.450696
382.822679	35.555556
383.257691	35.310416
383.692692	35.206382
384.127681	35.422249
384.562659	35.684038
384.997626	35.422061
385.432581	35.377970
385.867525	35.254588
386.302458	35.141428
386.737379	34.980662
387.172289	35.086517
387.607188	34.790435
388.042075	34.844460
388.476951	35.272510
388.911815	35.366474
389.346668	35.394781
389.781509	35.580904
390.216338	35.547667
390.651157	35.389419
391.085963	35.609182
391.520758	35.658915
391.955541	35.648226
392.390313	35.479268
392.825073	35.692075
393.259821	35.598760
393.694558	35.647877
394.129283	35.816284
394.563996	35.627395
394.998698	35.660972
395.433388	35.774136
395.868066	35.979904
396.302732	36.140178
396.737386	36.140982
397.172029	35.950161
397.606659	35.913300
398.041278	35.735159
398.475885	35.990463
398.910480	35.964912
399.345063	36.085567
399.779634	35.867394
400.214194	35.787529
400.648741	34.950488
401.083276	34.587633
401.517799	33.872998
401.952310	32.610754
402.386809	31.587353
402.821296	30.576214
403.255771	29.482203
403.690234	28.565346
404.124684	27.707006
404.559123	26.758826
404.993549	25.728750
405.427963	24.934968
405.862365	24.265884
406.296754	23.563306
406.731131	22.635965
407.165496	21.934384
407.599849	21.270081
408.034190	20.689902
408.468518	20.168724
408.902833	19.671244
409.337137	19.093803
409.771428	18.606426
410.205706	18.123922
410.639973	17.884281
411.074226	17.556735
411.508467	17.278382
411.942696	16.994311
412.376912	16.811775
412.811116	16.752557
413.245307	16.741437
413.679486	16.738489
414.113652	16.764896
414.547805	16.753106
414.981946	16.812035
415.416074	16.876562
415.850190	16.938588
416.284293	16.957358
416.718383	17.038985
417.152460	17.152325
417.586525	17.251556
418.020577	17.341803
418.454616	17.486871
418.888643	17.613071
419.322656	17.679569
419.756657	17.741397
420.190645	17.818304
420.624620	17.866593
421.058582	17.928542
421.492531	17.945808
421.926468	18.009436
422.360391	18.090650
422.794301	18.206525
423.228199	18.348095
423.662083	18.540652
424.095955	18.705229
424.529813	18.890734
424.963658	19.114329
425.397491	19.291825
425.831310	19.454835
426.265116	19.584305
426.698909	19.716977
427.132689	19.835814
427.566455	19.987740
428.000209	20.147227
428.433949	20.326445
428.867676	20.529132
429.301389	20.712397
429.735090	20.913208
430.168777	21.078735
430.602451	21.192423
431.036111	21.265870
431.469759	21.318207
431.903392	21.376645
432.337013	21.403362
432.770620	21.478095
433.204213	21.555464
433.637794	21.667929
434.071360	21.790181
434.504914	21.937177
434.938453	22.157243
435.371979	22.357640
435.805492	22.554666
436.238991	22.750361
436.672477	22.932102
437.105949	23.090649
437.539407	23.215484
437.972852	23.312490
438.406283	23.397202
438.839700	23.506433
439.273104	23.616473
439.706494	23.734332
440.139871	23.849672
440.573233	23.975744
441.006582	24.108797
441.439917	24.226953
441.873238	24.293025
442.306546	24.341573
442.739839	24.355761
443.173119	24.351575
443.606385	24.322918
444.039636	24.307214
444.472874	24.315941
444.906099	24.359209
445.339309	24.403316
445.772505	24.487862
446.205687	24.582842
446.638855	24.675979
447.072009	24.783387
447.505149	24.918233
447.938275	25.039094
448.371387	25.106491
448.804485	25.180405
449.237569	25.238656
449.670638	25.278531
450.103694	25.279088
450.536735	25.255136
450.969762	25.254145
451.402774	25.268787
451.835773	25.275664
452.268757	25.305244
452.701727	25.332724
453.134683	25.360122
453.567624	25.386158
454.000551	25.405377
454.433464	25.399609
454.866362	25.358980
455.299246	25.309952
455.732116	25.238269
456.164971	25.185761
456.597811	25.113780
457.030638	25.065621
457.463449	25.005006
457.896246	24.948460
458.329029	24.890472
458.761797	24.820066
459.194551	24.743795
459.627290	24.667300
460.060014	24.590307
460.492724	24.508373
460.925419	24.411475
461.358099	24.307680
461.790765	24.221215
462.223416	24.100668
462.656052	23.966573
463.088674	23.821831
463.521281	23.686928
463.953873	23.547255
464.386450	23.391941
464.819012	23.241952
465.251560	23.101364
465.684093	22.954891
466.116611	22.810917
466.549114	22.681788
466.981602	22.540526
467.414075	22.390975
467.846533	22.236577
468.278977	22.091047
468.711405	21.943066
469.143818	21.785113
469.576216	21.617877
470.008600	21.456504
470.440968	21.285553
470.873321	21.107118
471.305659	20.926231
471.737982	20.742683
472.170289	20.570433
472.602582	20.388031
473.034859	20.211272
473.467122	20.056195
473.899369	19.908230
474.331600	19.775262
474.763817	19.663207
475.196018	19.561110
475.628204	19.489612
476.060375	19.436456
476.492530	19.412179
476.924670	19.381015
477.356795	19.358302
477.788904	19.337238
478.220998	19.327969
478.653076	19.317142
479.085139	19.310373
479.517186	19.321833
479.949219	19.350544
480.381235	19.413769
480.813236	19.502058
481.245221	19.628367
481.677191	19.782428
482.109146	19.938184
482.541084	20.120547
482.973008	20.320816
483.404915	20.515105
483.836807	20.697759
484.268683	20.885446
484.700544	21.071613
485.132388	21.246862
485.564217	21.401168
485.996031	21.580454
486.427828	21.736813
486.859610	21.894304
487.291376	22.054201
487.723126	22.228266
488.154860	22.401667
488.586579	22.589450
489.018281	22.795975
489.449968	23.028310
489.881639	23.280140
490.313293	23.578648
490.744932	23.904119
491.176555	24.240991
491.608162	24.576641
492.039753	24.900332
492.471328	25.205129
492.902886	25.475313
493.334429	25.718201
493.765956	25.927557
494.197466	26.114158
494.628960	26.285971
495.060439	26.456109
495.491901	26.653683
495.923347	26.872643
496.354776	27.093158
496.786190	27.340848
497.217587	27.622915
497.648968	27.910146
498.080332	28.194648
498.511681	28.478964
498.943013	28.755061
499.374328	28.995469
499.805628	29.214374
500.236911	29.398511
500.668177	29.562632
501.099427	29.673745
501.530661	29.766750
501.961878	29.824915
502.393079	29.851394
502.824264	29.865374
503.255431	29.853281
503.686583	29.842405
504.117717	29.829977
504.548835	29.823744
504.979937	29.843670
505.411022	29.892827
505.842090	29.974021
506.273142	30.095437
506.704177	30.225660
507.135195	30.369412
507.566197	30.514578
507.997182	30.638532
508.428150	30.725766
508.859102	30.773588
509.290036	30.768848
509.720954	30.739575
510.151855	30.671447
510.582739	30.572378
511.013607	30.467425
511.444457	30.359421
511.875291	30.271202
512.306107	30.204715
512.736907	30.171348
513.167690	30.188247
513.598456	30.224210
514.029205	30.271203
514.459936	30.341052
514.890651	30.410243
515.321349	30.467633
515.752030	30.513521
516.182693	30.516498
516.613340	30.491444
517.043969	30.412638
517.474582	30.297137
517.905177	30.138260
518.335755	29.933397
518.766315	29.693469
519.196859	29.411489
519.627385	29.090386
520.057894	28.751396
520.488386	28.408885
520.918860	28.067310
521.349318	27.735408
521.779757	27.429529
522.210180	27.163626
522.640585	26.925164
523.070973	26.728351
523.501343	26.574486
523.931696	26.453359
524.362031	26.354836
524.792349	26.279630
525.222650	26.211318
525.652933	26.140565
526.083198	26.065427
526.513446	25.961787
526.943677	25.856283
527.373890	25.736038
527.804085	25.602568
528.234262	25.475885
528.664422	25.368048
529.094565	25.279592
529.524689	25.214488
529.954796	25.182601
530.384885	25.183809
530.814957	25.219215
531.245011	25.284500
531.675047	25.373448
532.105065	25.479188
532.535065	25.596319
532.965048	25.716093
533.395013	25.833253
533.824959	25.924814
534.254888	25.991052
534.684799	26.017272
535.114693	26.021280
535.544568	25.989264
535.974425	25.925518
536.404264	25.817521
536.834086	25.678448
537.263889	25.503634
537.693674	25.302934
538.123441	25.086947
538.553190	24.846934
538.982921	24.607368
539.412634	24.363879
539.842329	24.131353
540.272006	23.916324
540.701664	23.720344
541.131304	23.556982
541.560926	23.409087
541.990530	23.282614
542.420116	23.175515
542.849683	23.085844
543.279232	23.003235
543.708763	22.927597
544.138275	22.847661
544.567769	22.775707
544.997245	22.697007
545.426702	22.608540
545.856141	22.523373
546.285562	22.440292
546.714964	22.359594
547.144347	22.288864
547.573713	22.238187
548.003059	22.205671
548.432387	22.190532
548.861697	22.198196
549.290988	22.227180
549.720260	22.288311
550.149514	22.361731
550.578750	22.466169
551.007966	22.588480
551.437164	22.713828
551.866344	22.849775
552.295504	22.985224
552.724646	23.108537
553.153769	23.212015
553.582874	23.284273
554.011960	23.330330
554.441027	23.324281
554.870075	23.281956
555.299104	23.196763
555.728115	23.063284
556.157106	22.896045
556.586079	22.693427
557.015033	22.461132
557.443968	22.207552
557.872884	21.941148
558.301781	21.668027
558.730659	21.392632
559.159518	21.120234
559.588358	20.857122
560.017180	20.611332
560.445982	20.381648
560.874765	20.171046
561.303528	19.983748
561.732273	19.812663
562.160999	19.650421
562.589705	19.510524
563.018393	19.378718
563.447061	19.271844
563.875710	19.171215
564.304340	19.082454
564.732950	19.021116
565.161542	18.962128
565.590114	18.917154
566.018666	18.891689
566.447200	18.877461
566.875714	18.885922
567.304208	18.905858
567.732684	18.948222
568.161140	19.015662
568.589576	19.096972
569.017993	19.201589
569.446391	19.324303
569.874769	19.465729
570.303128	19.629271
570.731467	19.816030
571.159787	20.011735
571.588087	20.225514
572.016368	20.455315
572.444629	20.696128
572.872870	20.938719
573.301092	21.174897
573.729294	21.410126
574.157476	21.626661
574.585639	21.821578
575.013782	21.985166
575.441906	22.118994
575.870009	22.208783
576.298093	22.262218
576.726157	22.274110
577.154202	22.248445
577.582226	22.186692
578.010231	22.081031
578.438216	21.953259
578.866181	21.798157
579.294126	21.616455
579.722051	21.427403
580.149957	21.220451
580.577842	21.003458
581.005707	20.774009
581.433553	20.531344
581.861378	20.287604
582.289184	20.037009
582.716969	19.778838
583.144734	19.514087
583.572479	19.246164
584.000205	18.970068
584.427910	18.691206
584.855594	18.402117
585.283259	18.117597
585.710904	17.827095
586.138528	17.548090
586.566132	17.272138
586.993716	16.998730
587.421280	16.735602
587.848823	16.483734
588.276346	16.249675
588.703849	16.018433
589.131332	15.810652
589.558794	15.615274
589.986236	15.434466
590.413657	15.265691
590.841058	15.114858
591.268438	14.983894
591.695799	14.878653
592.123138	14.788142
592.550458	14.722379
592.977756	14.676926
593.405034	14.657962
593.832292	14.671075
594.259529	14.715949
594.686746	14.783913
595.113942	14.873314
595.541117	14.986420
595.968272	15.122573
596.395406	15.277089
596.822519	15.437001
597.249612	15.604788
597.676684	15.780043
598.103735	15.957259
598.530766	16.124166
598.957775	16.291525
599.384764	16.436106
599.811733	16.578696
600.238680	16.714373
600.665606	16.830300
601.092512	16.940104
601.519397	17.034844
601.946261	17.128853
602.373104	17.218374
602.799926	17.302080
603.226727	17.378532
603.653507	17.455463
604.080266	17.528965
604.507004	17.594765
604.933721	17.646338
605.360417	17.693633
605.787092	17.729467
606.213746	17.758546
606.640379	17.771999
607.066991	17.765521
607.493581	17.747623
607.920150	17.717711
608.346699	17.672041
608.773226	17.619329
609.199731	17.560404
609.626216	17.495636
610.052679	17.427678
610.479121	17.360930
610.905542	17.296048
611.331941	17.232263
611.758319	17.171629
612.184676	17.118740
612.611011	17.073549
613.037325	17.028310
613.463617	16.987124
613.889888	16.953947
614.316138	16.918975
614.742366	16.893638
615.168573	16.869386
615.594758	16.846498
616.020921	16.828697
616.447063	16.820911
616.873184	16.817986
617.299283	16.826535
617.725360	16.844785
618.151416	16.878820
618.577450	16.924798
619.003462	16.983981
619.429453	17.058830
619.855422	17.143205
620.281369	17.243421
620.707295	17.351812
621.133199	17.466549
621.559081	17.591678
621.984941	17.710679
622.410779	17.825920
622.836596	17.929927
623.262391	18.024868
623.688163	18.108211
624.113914	18.176275
624.539644	18.234701
624.965351	18.281048
625.391036	18.302781
625.816699	18.318133
626.242340	18.316381
626.667960	18.300822
627.093557	18.277914
627.519132	18.250635
627.944685	18.211884
628.370216	18.172646
628.795725	18.122986
629.221212	18.068555
629.646677	18.003356
630.072119	17.932649
630.497540	17.846513
630.922938	17.750210
631.348314	17.641825
631.773668	17.518531
632.198999	17.384975
632.624308	17.240962
633.049595	17.091009
633.474860	16.934305
633.900102	16.770312
634.325322	16.607141
634.750520	16.442922
635.175695	16.289463
635.600848	16.138123
636.025978	16.011088
636.451086	15.899697
636.876171	15.802971
637.301234	15.728738
637.726275	15.674953
638.151293	15.645166
638.576288	15.637826
639.001261	15.645571
639.426211	15.684790
639.851139	15.741578
640.276044	15.821098
640.700927	15.913441
641.125787	16.024515
641.550624	16.142747
641.975438	16.278652
642.400230	16.424133
642.824999	16.577697
643.249745	16.740865
643.674469	16.915858
644.099169	17.102410
644.523847	17.293388
644.948502	17.499073
645.373135	17.715150
645.797744	17.934239
646.222330	18.160759
646.646894	18.394748
647.071435	18.636027
647.495953	18.875162
647.920447	19.112418
648.344919	19.347750
648.769368	19.576506
649.193794	19.787077
649.618197	19.979610
650.042576	20.153715
650.466933	20.301083
650.891267	20.427653
651.315577	20.528793
651.739864	20.601699
652.164129	20.649403
652.588370	20.662242
653.012587	20.643755
653.436782	20.594184
653.860953	20.529514
654.285102	20.434631
654.709226	20.323262
655.133328	20.185951
655.557406	20.034779
655.981461	19.869661
656.405493	19.693472
656.829501	19.499559
657.253486	19.286752
657.677448	19.066027
658.101386	18.836112
658.525301	18.597988
658.949192	18.343995
659.373060	18.085052
659.796904	17.811396
660.220725	17.531071
660.644522	17.247879
661.068296	16.960919
661.492046	16.667063
661.915772	16.381043
662.339475	16.099283
662.763154	15.830866
663.186810	15.579060
663.610442	15.342259
664.034050	15.124730
664.457635	14.924796
664.881196	14.758220
665.304733	14.613472
665.728247	14.495002
666.151736	14.409724
666.575202	14.356345
666.998644	14.323544
667.422062	14.318697
667.845457	14.340187
668.268827	14.378878
668.692174	14.433305
669.115496	14.509117
669.538795	14.591458
669.962070	14.689625
670.385321	14.797186
670.808547	14.910506
671.231750	15.021091
671.654929	15.127451
672.078084	15.236217
672.501214	15.337194
672.924321	15.435323
673.347404	15.526713
673.770462	15.613389
674.193496	15.697728
674.616506	15.775185
675.039492	15.841192
675.462454	15.903613
675.885391	15.961070
676.308305	16.005012
676.731194	16.050133
677.154058	16.085250
677.576899	16.117882
677.999715	16.135181
678.422507	16.151529
678.845274	16.160112
679.268017	16.163603
679.690736	16.147119
680.113430	16.126571
680.536100	16.094606
680.958746	16.056024
681.381367	16.011901
681.803963	15.964659
682.226535	15.906747
682.649083	15.846766
683.071605	15.780476
683.494104	15.711048
683.916578	15.646146
684.339027	15.581415
684.761451	15.517503
685.183851	15.460870
685.606227	15.407703
686.028577	15.358171
686.450903	15.312839
686.873204	15.266346
687.295481	15.219705
687.717733	15.179805
688.139959	15.141334
688.562162	15.105545
688.984339	15.066252
689.406492	15.031963
689.828619	14.992813
690.250722	14.953482
690.672800	14.909868
691.094853	14.868856
691.516881	14.824985
691.938884	14.782163
692.360863	14.739566
692.782816	14.706130
693.204744	14.671942
693.626647	14.648591
694.048526	14.628266
694.470379	14.622659
694.892207	14.621547
695.314010	14.635296
695.735788	14.665192
696.157540	14.706433
696.579268	14.764744
697.000970	14.833216
697.422648	14.918640
697.844300	15.018561
698.265926	15.130990
698.687528	15.255025
699.109104	15.395370
699.530655	15.542419
699.952181	15.702784
700.373681	15.866108
700.795156	16.037016
701.216606	16.208415
701.638030	16.375320
702.059429	16.541283
702.480803	16.704470
702.902151	16.854291
703.323473	16.991032
703.744770	17.116349
704.166042	17.223414
704.587288	17.313759
705.008509	17.388686
705.429704	17.442806
705.850873	17.478216
706.272017	17.494166
706.693135	17.486295
707.114228	17.461487
707.535295	17.417960
707.956336	17.357983
708.377352	17.276107
708.798342	17.174859
709.219306	17.063791
709.640245	16.942285
710.061157	16.805453
710.482044	16.659676
710.902905	16.507885
711.323741	16.347005
711.744550	16.181286
712.165334	16.006245
712.586092	15.835187
713.006823	15.658095
713.427529	15.489012
713.848209	15.315096
714.268863	15.153612
714.689492	14.994957
715.110094	14.845735
715.530670	14.700498
715.951220	14.570741
716.371744	14.456431
716.792242	14.347152
717.212714	14.256283
717.633159	14.172106
718.053579	14.099241
718.473973	14.036930
718.894340	13.984270
719.314681	13.941113
719.734996	13.908243
720.155285	13.879916
720.575547	13.858606
720.995784	13.841551
721.415994	13.832830
721.836177	13.821322
722.256335	13.808455
722.676466	13.790259
723.096570	13.772591
723.516649	13.747233
723.936701	13.718661
724.356726	13.678710
724.776725	13.634126
725.196698	13.584789
725.616644	13.524906
726.036564	13.453845
726.456457	13.377303
726.876324	13.294877
727.296164	13.205239
727.715977	13.114827
728.135764	13.016451
728.555525	12.919027
728.975258	12.819386
729.394966	12.717061
729.814646	12.622591
730.234300	12.523860
730.653927	12.438244
731.073527	12.354963
731.493101	12.280614
731.912648	12.210633
732.332168	12.147907
732.751661	12.094956
733.171128	12.048124
733.590568	12.007296
734.009980	11.980992
734.429366	11.952782
734.848726	11.938350
735.268058	11.928842
735.687363	11.928415
736.106641	11.930580
736.525893	11.944756
736.945117	11.958267
737.364314	11.979427
737.783485	12.005462
738.202628	12.032090
738.621744	12.061076
739.040834	12.100141
739.459896	12.134859
739.878931	12.171420
740.297939	12.206232
740.716919	12.243384
741.135873	12.278284
741.554799	12.311664
741.973698	12.343942
742.392570	12.373646
742.811415	12.400152
743.230232	12.427473
743.649022	12.448021
744.067785	12.469191
744.486521	12.482024
744.905229	12.493999
745.323909	12.504692
745.742563	12.513191
746.161189	12.526839
746.579787	12.534790
746.998358	12.540941
747.416902	12.553866
747.835418	12.568216
748.253907	12.584701
748.672368	12.604923
749.090802	12.630332
749.509208	12.654209
749.927586	12.688394
750.345937	12.728298
750.764261	12.765565
751.182556	12.809741
751.600824	12.861348
752.019065	12.916915
752.437277	12.980708
752.855462	13.052173
753.273620	13.125934
753.691749	13.202682
754.109851	13.286377
754.527925	13.368162
754.945971	13.455160
755.363989	13.540746
755.781980	13.627942
756.199943	13.719924
756.617877	13.806770
757.035784	13.887396
757.453663	13.964233
757.871514	14.037903
758.289337	14.104221
758.707132	14.159889
759.124899	14.204926
759.542639	14.240475
759.960350	14.263932
760.378033	14.277108
760.795688	14.272262
761.213314	14.258769
761.630913	14.224078
762.048484	14.183216
762.466026	14.126980
762.883541	14.055865
763.301027	13.976288
763.718485	13.888632
764.135914	13.796289
764.553316	13.690735
764.970689	13.580297
765.388034	13.460990
765.805351	13.336474
766.222639	13.209594
766.639899	13.080129
767.057131	12.955198
767.474334	12.832316
767.891509	12.707343
768.308655	12.589727
768.725773	12.475228
769.142863	12.364908
769.559924	12.261822
769.976957	12.165792
770.393961	12.079028
770.810936	11.998389
771.227883	11.926501
771.644802	11.861821
772.061692	11.804660
772.478553	11.759233
772.895386	11.716177
773.312190	11.679611
773.728965	11.652355
774.145712	11.631780
774.562430	11.621282
774.979119	11.611752
775.395780	11.611799
775.812411	11.614579
776.229014	11.619807
776.645589	11.629566
777.062134	11.637601
777.478651	11.650276
777.895138	11.667532
778.311597	11.687717
778.728027	11.704321
779.144428	11.722736
779.560800	11.739257
779.977143	11.750704
780.393458	11.760358
780.809743	11.770122
781.225999	11.774254
781.642226	11.776146
782.058425	11.767258
782.474594	11.758253
782.890734	11.743010
783.306845	11.724404
783.722926	11.701549
784.138979	11.672655
784.555003	11.641225
784.970997	11.603863
785.386962	11.563696
785.802898	11.519191
786.218805	11.472808
786.634682	11.425562
787.050531	11.374894
787.466349	11.327619
787.882139	11.278368
788.297899	11.234879
788.713630	11.193098
789.129332	11.153758
789.545004	11.123638
789.960647	11.097775
790.376260	11.080357
790.791844	11.063747
791.207399	11.057790
791.622924	11.063138
792.038419	11.074223
792.453885	11.093104
792.869321	11.117632
793.284728	11.152767
793.700106	11.193530
794.115453	11.242156
794.530771	11.294115
794.946060	11.358193
795.361319	11.424967
795.776548	11.501549
796.191747	11.578070
796.606917	11.655241
797.022057	11.737524
797.437167	11.820750
797.852248	11.901681
798.267298	11.980975
798.682319	12.067868
799.097310	12.148504
799.512271	12.223960
799.927203	12.299814
800.342104	12.367278
800.756976	12.433164
801.171818	12.490513
801.586629	12.544584
802.001411	12.592206
802.416163	12.628138
802.830885	12.656937
803.245577	12.678255
803.660238	12.698149
804.074870	12.702564
804.489472	12.706279
804.904043	12.706857
805.318585	12.700194
805.733096	12.686999
806.147577	12.664227
806.562028	12.637936
806.976449	12.607643
807.390840	12.573175
807.805200	12.530226
808.219530	12.483432
808.633830	12.424256
809.048100	12.366508
809.462339	12.307543
809.876548	12.244395
810.290727	12.180525
810.704875	12.115909
811.118993	12.046339
811.533080	11.968843
811.947137	11.894029
812.361164	11.819529
812.775160	11.739125
813.189126	11.660451
813.603061	11.583233
814.016966	11.506411
814.430840	11.429120
814.844684	11.352455
815.258497	11.285121
815.672280	11.226261
816.086032	11.168480
816.499753	11.107451
816.913444	11.063731
817.327104	11.020508
817.740733	10.982310
818.154331	10.945357
818.567899	10.919936
818.981436	10.901990
819.394943	10.890737
819.808418	10.889591
820.221863	10.895353
820.635277	10.909854
821.048660	10.926076
821.462013	10.951764
821.875334	10.980021
822.288625	11.016755
822.701884	11.055492
823.115113	11.095318
823.528311	11.136518
823.941478	11.181574
824.354614	11.230756
824.767718	11.279875
825.180792	11.326551
825.593835	11.376137
826.006847	11.423967
826.419827	11.465532
826.832777	11.501320
827.245695	11.532526
827.658582	11.555867
828.071438	11.568686
828.484263	11.566354
828.897057	11.555970
829.309819	11.536193
829.722551	11.501631
830.135251	11.453173
830.547919	11.390795
830.960557	11.325062
831.373163	11.244564
831.785738	11.156069
832.198281	11.066379
832.610793	10.962820
833.023274	10.856622
833.435723	10.744628
833.848141	10.637451
834.260528	10.534944
834.672883	10.430728
835.085206	10.329741
835.497498	10.229441
835.909758	10.140592
836.321987	10.058841
836.734185	9.981742
837.146350	9.920284
837.558485	9.866332
837.970587	9.818400
838.382658	9.786214
838.794697	9.759388
839.206705	9.740599
839.618681	9.735042
840.030625	9.744148
840.442538	9.769337
840.854418	9.799427
841.266267	9.842092
841.678084	9.906185
842.089870	9.984049
842.501623	10.066969
842.913345	10.159736
843.325035	10.258666
843.736693	10.371277
844.148319	10.489334
844.559913	10.615688
844.971475	10.738933
845.383005	10.866318
845.794504	10.997508
846.205970	11.130970
846.617404	11.264819
847.028806	11.394556
847.440176	11.522441
847.851514	11.646087
848.262820	11.769415
848.674094	11.888956
849.085336	11.999573
849.496546	12.103098
849.907723	12.195005
850.318868	12.285854
850.729981	12.367179
851.141062	12.437190
851.552110	12.503160
851.963127	12.562255
852.374111	12.611893
852.785062	12.653774
853.195982	12.690486
853.606869	12.720325
854.017723	12.744907
854.428546	12.750142
854.839336	12.753812
855.250093	12.755357
855.660818	12.763192
856.071511	12.764767
856.482171	12.758440
856.892799	12.745794
857.303394	12.736247
857.713956	12.720963
858.124486	12.713691
858.534984	12.711111
858.945449	12.707052
859.355881	12.696368
859.766280	12.689153
860.176647	12.683529
860.586982	12.680932
860.997283	12.681166
861.407552	12.673226
861.817789	12.683611
862.227992	12.704508
862.638163	12.727245
863.048301	12.740736
863.458406	12.770403
863.868478	12.797322
864.278518	12.836172
864.688524	12.881358
865.098498	12.924854
865.508439	12.960216
865.918347	12.996759
866.328222	13.052140
866.738064	13.110502
867.147873	13.181981
867.557649	13.246369
867.967392	13.315293
868.377102	13.381523
868.786779	13.460344
869.196423	13.547235
869.606034	13.654925
870.015612	13.758312
870.425156	13.871569
870.834668	13.998810
871.244146	14.120553
871.653591	14.244341
872.063003	14.381699
872.472382	14.520824
872.881728	14.682652
873.291040	14.831317
873.700319	14.988224
874.109564	15.148005
874.518777	15.299872
874.927956	15.438284
875.337102	15.573845
875.746214	15.718846
876.155293	15.859358
876.564338	15.996930
876.973350	16.127756
877.382329	16.248830
877.791274	16.373101
878.200186	16.500714
878.609064	16.612717
879.017909	16.715442
879.426720	16.807965
879.835497	16.882208
880.244241	16.958674
880.652952	17.027919
881.061629	17.086986
881.470272	17.148615
881.878881	17.197158
882.287457	17.231745
882.695999	17.264657
883.104507	17.290640
883.512982	17.303871
883.921423	17.320995
884.329830	17.342828
884.738203	17.369537
885.146543	17.392983
885.554849	17.397912
885.963120	17.415626
886.371358	17.444413
886.779563	17.470080
887.187733	17.504115
887.595869	17.543081
888.003971	17.595483
888.412040	17.655586
888.820074	17.707335
889.228074	17.765789
889.636041	17.831430
890.043973	17.915321
890.451871	17.987730
890.859736	18.073821
891.267566	18.169272
891.675362	18.259858
892.083124	18.355445
892.490851	18.458951
892.898545	18.558435
893.306204	18.663222
893.713829	18.773521
894.121420	18.878167
894.528977	18.970881
894.936499	19.068037
895.343987	19.162456
895.751441	19.273310
896.158860	19.370382
896.566246	19.459169
896.973596	19.535004
897.380913	19.594952
897.788195	19.639335
898.195442	19.694855
898.602655	19.747994
899.009834	19.777273
899.416978	19.817105
899.824088	19.834546
900.231163	19.872614
900.638204	19.882715
901.045210	19.885810
901.452181	19.888724
901.859118	19.888482
902.266021	19.887971
902.672888	19.876840
903.079721	19.882158
903.486520	19.871723
903.893283	19.860437
904.300012	19.856204
904.706707	19.846033
905.113366	19.841297
905.519991	19.851896
905.926581	19.865964
906.333136	19.854851
906.739656	19.862243
907.146142	19.872722
907.552592	19.885026
907.959008	19.913968
908.365389	19.918774
908.771735	19.925331
909.178046	19.931455
909.584322	19.956865
909.990563	19.960043
910.396769	19.989626
910.802940	20.005967
911.209076	20.015562
911.615177	20.022566
912.021243	20.028860
912.427274	20.032183
912.833270	20.020359
913.239231	20.016758
913.645156	20.001201
914.051046	19.980787
914.456902	19.964486
914.862721	19.928661
915.268506	19.878258
915.674256	19.815193
916.079970	19.757730
916.485649	19.705286
916.891292	19.652597
917.296901	19.582303
917.702474	19.507564
918.108011	19.420515
918.513514	19.327855
918.918980	19.252050
919.324412	19.167236
919.729808	19.089235
920.135169	19.021732
920.540494	18.919146
920.945783	18.822040
921.351037	18.729859
921.756256	18.657803
922.161439	18.558092
922.566586	18.502701
922.971698	18.421556
923.376775	18.343067
923.781815	18.267593
924.186820	18.189213
924.591790	18.133135
924.996723	18.073593
925.401621	18.032609
925.806484	17.984128
926.211310	17.939249
926.616101	17.911752
927.020856	17.876087
927.425575	17.832104
927.830259	17.815299
928.234906	17.793290
928.639518	17.771403
929.044094	17.730578
929.448634	17.696593
929.853138	17.676130
930.257606	17.658303
930.662038	17.632964
931.066434	17.611226
931.470795	17.578858
931.875119	17.540029
932.279407	17.511013
932.683659	17.457349
933.087875	17.414712
933.492055	17.374679
933.896199	17.341334
934.300307	17.286540
934.704379	17.255888
935.108414	17.183271
935.512414	17.139980
935.916377	17.072704
936.320304	17.011968
936.724195	16.959671
937.128049	16.861645
937.531867	16.787677
937.935649	16.674840
938.339395	16.570131
938.743104	16.473039
939.146777	16.363115
939.550414	16.263491
939.954014	16.178840
940.357578	16.076623
940.761105	15.966118
941.164596	15.863381
941.568050	15.783271
941.971468	15.685965
942.374850	15.609047
942.778195	15.519212
943.181503	15.443624
943.584775	15.370387
943.988010	15.301707
944.391209	15.239640
944.794371	15.161450
945.197496	15.098643
945.600585	15.042588
946.003637	14.991930
946.406653	14.923557
946.809632	14.869064
947.212574	14.813681
947.615479	14.792625
948.018347	14.733824
948.421179	14.714037
948.823974	14.678821
949.226732	14.644334
949.629453	14.613128
950.032138	14.579740
950.434785	14.566002
950.837396	14.575855
951.239969	14.565124
951.642506	14.570768
952.045006	14.557052
952.447469	14.543817
952.849895	14.522812
953.252283	14.535869
953.654635	14.541956
954.056950	14.542427
954.459227	14.553341
954.861468	14.548112
955.263671	14.546695
955.665838	14.567064
956.067967	14.560549
956.470059	14.555602
956.872114	14.549411
957.274131	14.562203
957.676112	14.557267
958.078055	14.568745
958.479961	14.567789
958.881829	14.567412
959.283661	14.560034
959.685455	14.550065
960.087211	14.515568
960.488931	14.514760
960.890613	14.498841
961.292257	14.478792
961.693864	14.480764
962.095434	14.491504
962.496966	14.479200
962.898461	14.481404
963.299918	14.465589
963.701338	14.476520
964.102720	14.433561
964.504065	14.422476
964.905372	14.391262
965.306641	14.396883
965.707873	14.382994
966.109068	14.359572
966.510224	14.369775
966.911343	14.373356
967.312425	14.374047
967.713468	14.355223
968.114474	14.322578
968.515442	14.309756
968.916373	14.303767
969.317265	14.302833
969.718120	14.300007
970.118937	14.327871
970.519716	14.326365
970.920458	14.341510
971.321161	14.368643
971.721827	14.372583
972.122454	14.390411
972.523044	14.418126
972.923596	14.444798
973.324110	14.475028
973.724585	14.522457
974.125023	14.522950
974.525423	14.529977
974.925785	14.567724
975.326108	14.576047
975.726394	14.570978
976.126642	14.534861
976.526851	14.571792
976.927022	14.602175
977.327155	14.635785
977.727250	14.638138
978.127307	14.650453
978.527325	14.740589
978.927306	14.755500
979.327248	14.748397
979.727151	14.707248
980.127017	14.769622
980.526844	14.781074
980.926633	14.787646
981.326383	14.832005
981.726095	14.846528
982.125769	14.868912
982.525404	14.878177
982.925001	14.888830
983.324560	14.883477
983.724079	14.863061
984.123561	14.902909
984.523004	14.910089
984.922408	14.954255
985.321774	15.017909
985.721102	14.990394
986.120390	14.966698
986.519641	15.011281
986.918852	15.017765
987.318025	15.044960
987.717159	15.050877
988.116255	15.154819
988.515312	15.264151
988.914330	15.300774
989.313310	15.332965
989.712250	15.407886
990.111152	15.507270
990.510015	15.569360
990.908840	15.555281
991.307625	15.603519
991.706372	15.605670
992.105080	15.735330
992.503749	15.751983
992.902379	15.847361
993.300970	15.979037
993.699522	16.009706
994.098035	16.063386
994.496510	16.102078
994.894945	16.091932
995.293341	16.251427
995.691698	16.308944
996.090016	16.456479
996.488296	16.535981
996.886535	16.661278
997.284736	16.726631
997.682898	16.698241
998.081021	16.856998
998.479104	17.029071
998.877148	17.183384
999.275153	17.306314
999.673119	17.362815
1000.071046	17.585601
1000.468933	17.624795
1000.866781	17.674520
1001.264590	17.846837
1001.662359	17.965399
1002.060089	18.145126
1002.457780	18.249800
1002.855431	18.529412
1003.253043	18.746504
1003.650615	18.875911
1004.048148	19.174551
1004.445642	19.409367
1004.843096	19.615950
1005.240511	19.771265
1005.637886	19.804787
1006.035221	20.113169
1006.432517	20.299363
1006.829774	20.622267
1007.226991	20.999443
1007.624168	21.127740
1008.021306	21.585386
1008.418404	21.802863
1008.815462	22.123309
1009.212481	22.329437
1009.609460	22.602103
1010.006399	23.068449
1010.403298	23.450347
1010.800158	23.799171
1011.196978	23.989991
1011.593758	24.403581
1011.990498	24.975196
1012.387199	25.231258
1012.783860	25.566456
1013.180480	26.001920
1013.577061	26.203738
1013.973602	26.837203
1014.370103	27.238683
1014.766564	27.517337
1015.162985	27.700183
1015.559366	27.794050
1015.955708	28.138986
1016.352009	28.339629
1016.748270	28.602580
1017.144491	28.978805
1017.540671	29.352827
1017.936812	29.965308
1018.332913	30.183210
1018.728973	30.719763
1019.124994	30.801688
1019.520974	30.938209
1019.916914	31.346242
1020.312814	31.228359
