Time1=100ms:Average1=5:Objective=10X:Aperture=1: (11/21/2018 12:10:59 PM)
11/21/2018 12:10:59 PM
Reflectance
10X
Ap#: 1
Avg1: 5.000000
Avg2: 0.000000
Int.Time1:100.000000

350.166136	93.534400
350.601937	94.435596
351.037728	94.956787
351.473509	95.168301
351.909281	95.116255
352.345042	94.834626
352.780794	95.183064
353.216536	95.211843
353.652267	95.232737
354.087989	94.513130
354.523701	94.202899
354.959403	94.187112
355.395095	94.445012
355.830777	94.944450
356.266449	95.222052
356.702110	95.013682
357.137762	95.040228
357.573404	95.152198
358.009035	94.522371
358.444656	94.484388
358.880268	94.629630
359.315869	94.703761
359.751459	94.320633
360.187040	94.325438
360.622610	94.418653
361.058170	94.361406
361.493720	94.754775
361.929260	94.823311
362.364789	94.190829
362.800308	94.330320
363.235816	94.788341
363.671314	94.654217
364.106802	94.825993
364.542279	94.936968
364.977746	95.071149
365.413203	95.265661
365.848649	95.227766
366.284084	94.898064
366.719509	94.421657
367.154924	94.773591
367.590328	94.625857
368.025721	94.789107
368.461104	95.180970
368.896477	94.880197
369.331838	95.116708
369.767189	94.695202
370.202530	94.873890
370.637859	94.763445
371.073178	95.097741
371.508486	95.295072
371.943784	95.513146
372.379071	95.539335
372.814347	95.657480
373.249612	95.644209
373.684866	95.131805
374.120110	95.355661
374.555343	95.103692
374.990565	94.976341
375.425776	94.869731
375.860976	95.233777
376.296165	94.581529
376.731343	94.418278
377.166511	94.050251
377.601667	93.504154
378.036812	93.000401
378.471946	92.826456
378.907070	93.080758
379.342182	93.282245
379.777283	93.352572
380.212373	93.059279
380.647452	92.968750
381.082520	93.095614
381.517576	92.898008
381.952622	93.275725
382.387656	93.604709
382.822679	93.750623
383.257691	93.954559
383.692692	93.692706
384.127681	93.414073
384.562659	92.550656
384.997626	92.909560
385.432581	92.438880
385.867525	92.423497
386.302458	92.488493
386.737379	92.594044
387.172289	92.777452
387.607188	92.327117
388.042075	92.889105
388.476951	92.700730
388.911815	93.036374
389.346668	92.884260
389.781509	93.434294
390.216338	93.182040
390.651157	93.459586
391.085963	93.762260
391.520758	93.726757
391.955541	93.979802
392.390313	93.452670
392.825073	93.210117
393.259821	93.688228
393.694558	94.325334
394.129283	93.723727
394.563996	93.883762
394.998698	94.305734
395.433388	93.848039
395.868066	93.586247
396.302732	93.381134
396.737386	93.504914
397.172029	93.657187
397.606659	93.648413
398.041278	93.567505
398.475885	92.653393
398.910480	92.306592
399.345063	91.639507
399.779634	90.948659
400.214194	89.460119
400.648741	88.257180
401.083276	86.541110
401.517799	84.665776
401.952310	82.082061
402.386809	79.493599
402.821296	76.958525
403.255771	73.987648
403.690234	71.373362
404.124684	68.061214
404.559123	64.523047
404.993549	61.208833
405.427963	57.649879
405.862365	54.271344
406.296754	51.321675
406.731131	48.254882
407.165496	45.443809
407.599849	43.038142
408.034190	40.726705
408.468518	38.457046
408.902833	36.490163
409.337137	34.609652
409.771428	32.914043
410.205706	31.263558
410.639973	29.804918
411.074226	28.688278
411.508467	27.643271
411.942696	26.606615
412.376912	25.810536
412.811116	25.044285
413.245307	24.306367
413.679486	23.719429
414.113652	23.125144
414.547805	22.625759
414.981946	22.117587
415.416074	21.737622
415.850190	21.354963
416.284293	20.987046
416.718383	20.639739
417.152460	20.297742
417.586525	20.045707
418.020577	19.852244
418.454616	19.688310
418.888643	19.544210
419.322656	19.393781
419.756657	19.241639
420.190645	19.137018
420.624620	19.001789
421.058582	18.859555
421.492531	18.783773
421.926468	18.703496
422.360391	18.594276
422.794301	18.557237
423.228199	18.523907
423.662083	18.490178
424.095955	18.483445
424.529813	18.421515
424.963658	18.383120
425.397491	18.361986
425.831310	18.323743
426.265116	18.276098
426.698909	18.255998
427.132689	18.216824
427.566455	18.196228
428.000209	18.157133
428.433949	18.127257
428.867676	18.115543
429.301389	18.090154
429.735090	18.054939
430.168777	18.054799
430.602451	18.055709
431.036111	18.012701
431.469759	17.987702
431.903392	17.957210
432.337013	17.917248
432.770620	17.865064
433.204213	17.819503
433.637794	17.785590
434.071360	17.767752
434.504914	17.753412
434.938453	17.717550
435.371979	17.684096
435.805492	17.659999
436.238991	17.586895
436.672477	17.546333
437.105949	17.500951
437.539407	17.435292
437.972852	17.387845
438.406283	17.335433
438.839700	17.298768
439.273104	17.228472
439.706494	17.162454
440.139871	17.090183
440.573233	17.044254
441.006582	16.961532
441.439917	16.890383
441.873238	16.813023
442.306546	16.741191
442.739839	16.667028
443.173119	16.598032
443.606385	16.516977
444.039636	16.436533
444.472874	16.368387
444.906099	16.278733
445.339309	16.200144
445.772505	16.113479
446.205687	16.053507
446.638855	15.974905
447.072009	15.883241
447.505149	15.791824
447.938275	15.710696
448.371387	15.632347
448.804485	15.550112
449.237569	15.480426
449.670638	15.398343
450.103694	15.302176
450.536735	15.224908
450.969762	15.149042
451.402774	15.061807
451.835773	14.968618
452.268757	14.890951
452.701727	14.816843
453.134683	14.747850
453.567624	14.665126
454.000551	14.589897
454.433464	14.535310
454.866362	14.469409
455.299246	14.423224
455.732116	14.352044
456.164971	14.274252
456.597811	14.210518
457.030638	14.152319
457.463449	14.072880
457.896246	14.013047
458.329029	13.944418
458.761797	13.904421
459.194551	13.852930
459.627290	13.783033
460.060014	13.740545
460.492724	13.690714
460.925419	13.648817
461.358099	13.603009
461.790765	13.546298
462.223416	13.506420
462.656052	13.467030
463.088674	13.448510
463.521281	13.415441
463.953873	13.381605
464.386450	13.354659
464.819012	13.334783
465.251560	13.333125
465.684093	13.313719
466.116611	13.293804
466.549114	13.286512
466.981602	13.291233
467.414075	13.290871
467.846533	13.286523
468.278977	13.290932
468.711405	13.279364
469.143818	13.282212
469.576216	13.300508
470.008600	13.308671
470.440968	13.310564
470.873321	13.323823
471.305659	13.332069
471.737982	13.368176
472.170289	13.380527
472.602582	13.406314
473.034859	13.446203
473.467122	13.474861
473.899369	13.514414
474.331600	13.545208
474.763817	13.592877
475.196018	13.642811
475.628204	13.692404
476.060375	13.737609
476.492530	13.790721
476.924670	13.843306
477.356795	13.898049
477.788904	13.950874
478.220998	14.004118
478.653076	14.045463
479.085139	14.095673
479.517186	14.150959
479.949219	14.190806
480.381235	14.220175
480.813236	14.254825
481.245221	14.286344
481.677191	14.322398
482.109146	14.337225
482.541084	14.360616
482.973008	14.371476
483.404915	14.385294
483.836807	14.397375
484.268683	14.395217
484.700544	14.391147
485.132388	14.370291
485.564217	14.344886
485.996031	14.323508
486.427828	14.291187
486.859610	14.255132
487.291376	14.201246
487.723126	14.155656
488.154860	14.096024
488.586579	14.036334
489.018281	13.964453
489.449968	13.901706
489.881639	13.829713
490.313293	13.762099
490.744932	13.686601
491.176555	13.600662
491.608162	13.516138
492.039753	13.438262
492.471328	13.345239
492.902886	13.242361
493.334429	13.144606
493.765956	13.048896
494.197466	12.943523
494.628960	12.848914
495.060439	12.752254
495.491901	12.662111
495.923347	12.570015
496.354776	12.481770
496.786190	12.396190
497.217587	12.308697
497.648968	12.241306
498.080332	12.169323
498.511681	12.104609
498.943013	12.046139
499.374328	11.988459
499.805628	11.949396
500.236911	11.928908
500.668177	11.919155
501.099427	11.915913
501.530661	11.927478
501.961878	11.954714
502.393079	12.001946
502.824264	12.062065
503.255431	12.126495
503.686583	12.215587
504.117717	12.317043
504.548835	12.445972
504.979937	12.584601
505.411022	12.724599
505.842090	12.894254
506.273142	13.093284
506.704177	13.308778
507.135195	13.550490
507.566197	13.809721
507.997182	14.097475
508.428150	14.413112
508.859102	14.763599
509.290036	15.130084
509.720954	15.531668
510.151855	15.948311
510.582739	16.409810
511.013607	16.883246
511.444457	17.394662
511.875291	17.926741
512.306107	18.483796
512.736907	19.065431
513.167690	19.664139
513.598456	20.285367
514.029205	20.943469
514.459936	21.634203
514.890651	22.359689
515.321349	23.090888
515.752030	23.857490
516.182693	24.640103
516.613340	25.467633
517.043969	26.310499
517.474582	27.183308
517.905177	28.074485
518.335755	28.988021
518.766315	29.921613
519.196859	30.860984
519.627385	31.791629
520.057894	32.716408
520.488386	33.649674
520.918860	34.599004
521.349318	35.553790
521.779757	36.513323
522.210180	37.486827
522.640585	38.471388
523.070973	39.451374
523.501343	40.430114
523.931696	41.387668
524.362031	42.355703
524.792349	43.315636
525.222650	44.287307
525.652933	45.240201
526.083198	46.187808
526.513446	47.118899
526.943677	48.053432
527.373890	48.976978
527.804085	49.885421
528.234262	50.769204
528.664422	51.665682
529.094565	52.526428
529.524689	53.379887
529.954796	54.194104
530.384885	54.997281
530.814957	55.771948
531.245011	56.530515
531.675047	57.276914
532.105065	58.003002
532.535065	58.713428
532.965048	59.429395
533.395013	60.118156
533.824959	60.783205
534.254888	61.431659
534.684799	62.077313
535.114693	62.714300
535.544568	63.325668
535.974425	63.925103
536.404264	64.504267
536.834086	65.075951
537.263889	65.660851
537.693674	66.216923
538.123441	66.766555
538.553190	67.279377
538.982921	67.800265
539.412634	68.297141
539.842329	68.823678
540.272006	69.307200
540.701664	69.780113
541.131304	70.263962
541.560926	70.729656
541.990530	71.182315
542.420116	71.652582
542.849683	72.096033
543.279232	72.546671
543.708763	72.980374
544.138275	73.423906
544.567769	73.845821
544.997245	74.262782
545.426702	74.671574
545.856141	75.076210
546.285562	75.474199
546.714964	75.880344
547.144347	76.296287
547.573713	76.702744
548.003059	77.091293
548.432387	77.474221
548.861697	77.852785
549.290988	78.225423
549.720260	78.608351
550.149514	78.981847
550.578750	79.331176
551.007966	79.671102
551.437164	80.002352
551.866344	80.332962
552.295504	80.640096
552.724646	80.958863
553.153769	81.245275
553.582874	81.554796
554.011960	81.850032
554.441027	82.105976
554.870075	82.359692
555.299104	82.605579
555.728115	82.810459
556.157106	83.033335
556.586079	83.243789
557.015033	83.440778
557.443968	83.621514
557.872884	83.785540
558.301781	83.939496
558.730659	84.106668
559.159518	84.248582
559.588358	84.402001
560.017180	84.535199
560.445982	84.661971
560.874765	84.782195
561.303528	84.895745
561.732273	85.030477
562.160999	85.155041
562.589705	85.284217
563.018393	85.386111
563.447061	85.494926
563.875710	85.616429
564.304340	85.745954
564.732950	85.870969
565.161542	85.995903
565.590114	86.120343
566.018666	86.254868
566.447200	86.379360
566.875714	86.501320
567.304208	86.628394
567.732684	86.762195
568.161140	86.896059
568.589576	87.033737
569.017993	87.177477
569.446391	87.314988
569.874769	87.447346
570.303128	87.577699
570.731467	87.704886
571.159787	87.832785
571.588087	87.962167
572.016368	88.057568
572.444629	88.174150
572.872870	88.263638
573.301092	88.364149
573.729294	88.441974
574.157476	88.533180
574.585639	88.619301
575.013782	88.684991
575.441906	88.749432
575.870009	88.796931
576.298093	88.859177
576.726157	88.919387
577.154202	88.963491
577.582226	89.013272
578.010231	89.041779
578.438216	89.082699
578.866181	89.106480
579.294126	89.131282
579.722051	89.163871
580.149957	89.193043
580.577842	89.218666
581.005707	89.246278
581.433553	89.261309
581.861378	89.291540
582.289184	89.307369
582.716969	89.317349
583.144734	89.329328
583.572479	89.342068
584.000205	89.344617
584.427910	89.360425
584.855594	89.349382
585.283259	89.342861
585.710904	89.333902
586.138528	89.317511
586.566132	89.298445
586.993716	89.283633
587.421280	89.250062
587.848823	89.219620
588.276346	89.184567
588.703849	89.139357
589.131332	89.101580
589.558794	89.052170
589.986236	88.980031
590.413657	88.917581
590.841058	88.849105
591.268438	88.781718
591.695799	88.697129
592.123138	88.632541
592.550458	88.546815
592.977756	88.457646
593.405034	88.355847
593.832292	88.255616
594.259529	88.146369
594.686746	88.054166
595.113942	87.937692
595.541117	87.824532
595.968272	87.708240
596.395406	87.592703
596.822519	87.490060
597.249612	87.393459
597.676684	87.284617
598.103735	87.180001
598.530766	87.087059
598.957775	86.987744
599.384764	86.895512
599.811733	86.780747
600.238680	86.675184
600.665606	86.570340
601.092512	86.461875
601.519397	86.341444
601.946261	86.231490
602.373104	86.101239
602.799926	85.958558
603.226727	85.827412
603.653507	85.677264
604.080266	85.513957
604.507004	85.361839
604.933721	85.188645
605.360417	85.005975
605.787092	84.823586
606.213746	84.625385
606.640379	84.418989
607.066991	84.200536
607.493581	83.975436
607.920150	83.734072
608.346699	83.489748
608.773226	83.251685
609.199731	82.995405
609.626216	82.735817
610.052679	82.463519
610.479121	82.178508
610.905542	81.891095
611.331941	81.606270
611.758319	81.308301
612.184676	81.008158
612.611011	80.699148
613.037325	80.396399
613.463617	80.071037
613.889888	79.745755
614.316138	79.418463
614.742366	79.083396
615.168573	78.737644
615.594758	78.391357
616.020921	78.051393
616.447063	77.700946
616.873184	77.346366
617.299283	76.985355
617.725360	76.623780
618.151416	76.265020
618.577450	75.893363
619.003462	75.508823
619.429453	75.127779
619.855422	74.735361
620.281369	74.344516
620.707295	73.942729
621.133199	73.537405
621.559081	73.112374
621.984941	72.673779
622.410779	72.234547
622.836596	71.772812
623.262391	71.294681
623.688163	70.805867
624.113914	70.306062
624.539644	69.782789
624.965351	69.237388
625.391036	68.659192
625.816699	68.047991
626.242340	67.409896
626.667960	66.742659
627.093557	66.040176
627.519132	65.307501
627.944685	64.544917
628.370216	63.754428
628.795725	62.935535
629.221212	62.083632
629.646677	61.214457
630.072119	60.317797
630.497540	59.404498
630.922938	58.459160
631.348314	57.502872
631.773668	56.525891
632.198999	55.539959
632.624308	54.548069
633.049595	53.566309
633.474860	52.571797
633.900102	51.579975
634.325322	50.588837
634.750520	49.615531
635.175695	48.648495
635.600848	47.685751
636.025978	46.737128
636.451086	45.800264
636.876171	44.872173
637.301234	43.944606
637.726275	43.037036
638.151293	42.137926
638.576288	41.256057
639.001261	40.394321
639.426211	39.560185
639.851139	38.732632
640.276044	37.924167
640.700927	37.144626
641.125787	36.387974
641.550624	35.656654
641.975438	34.954874
642.400230	34.285502
642.824999	33.630838
643.249745	33.016155
643.674469	32.436387
644.099169	31.900112
644.523847	31.397857
644.948502	30.939177
645.373135	30.519359
645.797744	30.134977
646.222330	29.778776
646.646894	29.465158
647.071435	29.190083
647.495953	28.946695
647.920447	28.729716
648.344919	28.546079
648.769368	28.391588
649.193794	28.267585
649.618197	28.171806
650.042576	28.104613
650.466933	28.062848
650.891267	28.042154
651.315577	28.051633
651.739864	28.079433
652.164129	28.129474
652.588370	28.191969
653.012587	28.285124
653.436782	28.404680
653.860953	28.534867
654.285102	28.689620
654.709226	28.858119
655.133328	29.053024
655.557406	29.269870
655.981461	29.516067
656.405493	29.780321
656.829501	30.064644
657.253486	30.362354
657.677448	30.683979
658.101386	31.028195
658.525301	31.395269
658.949192	31.783553
659.373060	32.196224
659.796904	32.629081
660.220725	33.095027
660.644522	33.581239
661.068296	34.097002
661.492046	34.637653
661.915772	35.205910
662.339475	35.795476
662.763154	36.408019
663.186810	37.040545
663.610442	37.697188
664.034050	38.380560
664.457635	39.078522
664.881196	39.797856
665.304733	40.540105
665.728247	41.298346
666.151736	42.071757
666.575202	42.848434
666.998644	43.646119
667.422062	44.454444
667.845457	45.270103
668.268827	46.083470
668.692174	46.910084
669.115496	47.736412
669.538795	48.565953
669.962070	49.401807
670.385321	50.245936
670.808547	51.078419
671.231750	51.913650
671.654929	52.740507
672.078084	53.558023
672.501214	54.366532
672.924321	55.158080
673.347404	55.926601
673.770462	56.674552
674.193496	57.399262
674.616506	58.090938
675.039492	58.763268
675.462454	59.391373
675.885391	59.985437
676.308305	60.553740
676.731194	61.087731
677.154058	61.585292
677.576899	62.041169
677.999715	62.470405
678.422507	62.861985
678.845274	63.214781
679.268017	63.529306
679.690736	63.812844
680.113430	64.049973
680.536100	64.268644
680.958746	64.462559
681.381367	64.630698
681.803963	64.756218
682.226535	64.863967
682.649083	64.960217
683.071605	65.032847
683.494104	65.071776
683.916578	65.101679
684.339027	65.095461
684.761451	65.055200
685.183851	64.992198
685.606227	64.917262
686.028577	64.825829
686.450903	64.710867
686.873204	64.584342
687.295481	64.441587
687.717733	64.289547
688.139959	64.104421
688.562162	63.913244
688.984339	63.709537
689.406492	63.488149
689.828619	63.257873
690.250722	63.016978
690.672800	62.787892
691.094853	62.550431
691.516881	62.303688
691.938884	62.059662
692.360863	61.827160
692.782816	61.601965
693.204744	61.377679
693.626647	61.151843
694.048526	60.935732
694.470379	60.730651
694.892207	60.539965
695.314010	60.360863
695.735788	60.192551
696.157540	60.036843
696.579268	59.903770
697.000970	59.779732
697.422648	59.679114
697.844300	59.602996
698.265926	59.552241
698.687528	59.503613
699.109104	59.480882
699.530655	59.482521
699.952181	59.503112
700.373681	59.537896
700.795156	59.600561
701.216606	59.697902
701.638030	59.825031
702.059429	59.974259
702.480803	60.146548
702.902151	60.347865
703.323473	60.575372
703.744770	60.821142
704.166042	61.091733
704.587288	61.399300
705.008509	61.734143
705.429704	62.079808
705.850873	62.440554
706.272017	62.833601
706.693135	63.248219
707.114228	63.687692
707.535295	64.142233
707.956336	64.615078
708.377352	65.096216
708.798342	65.586434
709.219306	66.079634
709.640245	66.596066
710.061157	67.107257
710.482044	67.622833
710.902905	68.147609
711.323741	68.669402
711.744550	69.208811
712.165334	69.748912
712.586092	70.282566
713.006823	70.814586
713.427529	71.352763
713.848209	71.888966
714.268863	72.416903
714.689492	72.939719
715.110094	73.463404
715.530670	73.988592
715.951220	74.515441
716.371744	75.028533
716.792242	75.535508
717.212714	76.039410
717.633159	76.529224
718.053579	77.028487
718.473973	77.537029
718.894340	78.054133
719.314681	78.564972
719.734996	79.061460
720.155285	79.539957
720.575547	80.016154
720.995784	80.481598
721.415994	80.951287
721.836177	81.411549
722.256335	81.870891
722.676466	82.291955
723.096570	82.725052
723.516649	83.138127
723.936701	83.517393
724.356726	83.876617
724.776725	84.216123
725.196698	84.532653
725.616644	84.846742
726.036564	85.134135
726.456457	85.407328
726.876324	85.661136
727.296164	85.905028
727.715977	86.137512
728.135764	86.351992
728.555525	86.563445
728.975258	86.755058
729.394966	86.946892
729.814646	87.138657
730.234300	87.320905
730.653927	87.507545
731.073527	87.681103
731.493101	87.843057
731.912648	88.002186
732.332168	88.167446
732.751661	88.340734
733.171128	88.526947
733.590568	88.708983
734.009980	88.906282
734.429366	89.102557
734.848726	89.300673
735.268058	89.488788
735.687363	89.698937
736.106641	89.903685
736.525893	90.113973
736.945117	90.346446
737.364314	90.575716
737.783485	90.816545
738.202628	91.067069
738.621744	91.320428
739.040834	91.580480
739.459896	91.858702
739.878931	92.131715
740.297939	92.415148
740.716919	92.725720
741.135873	93.037538
741.554799	93.343854
741.973698	93.650640
742.392570	93.978150
742.811415	94.338631
743.230232	94.688244
743.649022	95.054086
744.067785	95.408712
744.486521	95.767716
744.905229	96.141895
745.323909	96.493922
745.742563	96.840795
746.161189	97.186533
746.579787	97.538056
746.998358	97.870114
747.416902	98.188848
747.835418	98.497252
748.253907	98.802354
748.672368	99.089277
749.090802	99.363445
749.509208	99.631577
749.927586	99.871699
750.345937	100.113379
750.764261	100.351110
751.182556	100.553738
751.600824	100.756875
752.019065	100.959842
752.437277	101.119229
752.855462	101.298612
753.273620	101.453454
753.691749	101.582863
754.109851	101.714283
754.527925	101.838848
754.945971	101.969438
755.363989	102.080203
755.781980	102.160554
756.199943	102.248522
756.617877	102.309758
757.035784	102.380210
757.453663	102.448496
757.871514	102.476873
758.289337	102.506208
758.707132	102.528186
759.124899	102.538276
759.542639	102.530604
759.960350	102.531836
760.378033	102.533871
760.795688	102.505179
761.213314	102.499220
761.630913	102.493205
762.048484	102.484711
762.466026	102.456108
762.883541	102.451563
763.301027	102.432065
763.718485	102.416107
764.135914	102.426365
764.553316	102.414662
764.970689	102.422133
765.388034	102.451895
765.805351	102.470450
766.222639	102.515419
766.639899	102.557136
767.057131	102.604853
767.474334	102.652417
767.891509	102.701365
768.308655	102.773543
768.725773	102.819351
769.142863	102.888205
769.559924	102.957975
769.976957	103.037460
770.393961	103.124757
770.810936	103.214830
771.227883	103.326632
771.644802	103.426925
772.061692	103.540730
772.478553	103.658673
772.895386	103.749304
773.312190	103.850287
773.728965	103.980892
774.145712	104.095032
774.562430	104.207632
774.979119	104.324505
775.395780	104.448067
775.812411	104.557715
776.229014	104.685403
776.645589	104.796821
777.062134	104.914853
777.478651	105.039568
777.895138	105.145925
778.311597	105.245534
778.728027	105.332092
779.144428	105.408114
779.560800	105.491944
779.977143	105.573793
780.393458	105.642539
780.809743	105.716658
781.225999	105.773609
781.642226	105.847055
782.058425	105.881874
782.474594	105.923421
782.890734	105.927322
783.306845	105.914972
783.722926	105.914864
784.138979	105.877235
784.555003	105.852106
784.970997	105.780750
785.386962	105.711074
785.802898	105.639479
786.218805	105.529946
786.634682	105.402580
787.050531	105.265310
787.466349	105.105734
787.882139	104.927864
788.297899	104.751355
788.713630	104.575822
789.129332	104.377371
789.545004	104.178084
789.960647	103.947971
790.376260	103.710062
790.791844	103.469997
791.207399	103.204341
791.622924	102.930246
792.038419	102.640191
792.453885	102.336203
792.869321	102.017699
793.284728	101.697387
793.700106	101.363943
794.115453	101.011495
794.530771	100.652294
794.946060	100.296002
795.361319	99.929143
795.776548	99.557334
796.191747	99.190481
796.606917	98.765152
797.022057	98.381980
797.437167	97.987376
797.852248	97.605107
798.267298	97.209607
798.682319	96.812621
799.097310	96.427030
799.512271	96.050312
799.927203	95.664120
800.342104	95.302049
800.756976	94.945684
801.171818	94.594440
801.586629	94.225981
802.001411	93.891994
802.416163	93.530144
802.830885	93.189621
803.245577	92.856529
803.660238	92.520624
804.074870	92.219239
804.489472	91.934961
804.904043	91.654082
805.318585	91.373867
805.733096	91.096760
806.147577	90.853311
806.562028	90.608765
806.976449	90.361949
807.390840	90.116290
807.805200	89.875205
808.219530	89.642976
808.633830	89.444512
809.048100	89.226887
809.462339	89.048105
809.876548	88.840655
810.290727	88.626830
810.704875	88.434974
811.118993	88.242313
811.533080	88.062945
811.947137	87.871196
812.361164	87.695354
812.775160	87.511780
813.189126	87.327044
813.603061	87.133385
814.016966	86.939331
814.430840	86.758018
814.844684	86.567007
815.258497	86.398788
815.672280	86.213634
816.086032	86.034947
816.499753	85.869565
816.913444	85.691418
817.327104	85.494084
817.740733	85.327763
818.154331	85.137342
818.567899	84.941285
818.981436	84.733611
819.394943	84.522835
819.808418	84.331984
820.221863	84.123408
820.635277	83.923608
821.048660	83.716324
821.462013	83.473855
821.875334	83.232366
822.288625	82.983491
822.701884	82.751826
823.115113	82.518778
823.528311	82.241268
823.941478	81.975032
824.354614	81.687575
824.767718	81.392834
825.180792	81.069321
825.593835	80.734669
826.006847	80.386658
826.419827	80.050220
826.832777	79.685435
827.245695	79.331821
827.658582	78.938241
828.071438	78.530533
828.484263	78.129136
828.897057	77.708824
829.309819	77.262817
829.722551	76.822696
830.135251	76.386202
830.547919	75.905919
830.960557	75.445683
831.373163	74.977310
831.785738	74.503483
832.198281	74.040493
832.610793	73.556504
833.023274	73.085488
833.435723	72.620725
833.848141	72.153167
834.260528	71.691591
834.672883	71.242348
835.085206	70.805035
835.497498	70.356778
835.909758	69.928104
836.321987	69.531336
836.734185	69.119039
837.146350	68.690319
837.558485	68.317590
837.970587	67.924640
838.382658	67.534614
838.794697	67.143295
839.206705	66.745142
839.618681	66.365055
840.030625	65.987414
840.442538	65.614117
840.854418	65.248479
841.266267	64.868912
841.678084	64.494195
842.089870	64.131305
842.501623	63.766169
842.913345	63.380549
843.325035	63.008337
843.736693	62.631827
844.148319	62.277374
844.559913	61.921139
844.971475	61.561625
845.383005	61.194112
845.794504	60.830971
846.205970	60.447056
846.617404	60.068410
847.028806	59.708613
847.440176	59.350767
847.851514	58.988177
848.262820	58.617663
848.674094	58.239880
849.085336	57.851854
849.496546	57.468736
849.907723	57.119725
850.318868	56.753544
850.729981	56.407816
851.141062	56.084846
851.552110	55.753388
851.963127	55.444870
852.374111	55.146978
852.785062	54.836821
853.195982	54.533287
853.606869	54.231186
854.017723	53.987661
854.428546	53.735394
854.839336	53.496456
855.250093	53.280255
855.660818	53.098400
856.071511	52.918344
856.482171	52.748844
856.892799	52.577111
857.303394	52.427097
857.713956	52.273850
858.124486	52.159260
858.534984	52.052574
858.945449	51.960331
859.355881	51.854200
859.766280	51.767732
860.176647	51.673105
860.586982	51.583299
860.997283	51.511284
861.407552	51.442750
861.817789	51.368096
862.227992	51.304416
862.638163	51.244142
863.048301	51.164184
863.458406	51.085280
863.868478	51.000723
864.278518	50.922119
864.688524	50.841397
865.098498	50.748765
865.508439	50.648364
865.918347	50.547091
866.328222	50.450232
866.738064	50.326912
867.147873	50.217209
867.557649	50.085463
867.967392	49.944951
868.377102	49.804652
868.786779	49.665361
869.196423	49.539380
869.606034	49.407938
870.015612	49.258032
870.425156	49.121223
870.834668	48.971435
871.244146	48.813660
871.653591	48.667286
872.063003	48.538301
872.472382	48.405515
872.881728	48.290613
873.291040	48.188460
873.700319	48.060905
874.109564	47.943399
874.518777	47.842884
874.927956	47.742830
875.337102	47.658478
875.746214	47.562894
876.155293	47.504035
876.564338	47.432259
876.973350	47.379904
877.382329	47.325019
877.791274	47.277105
878.200186	47.253640
878.609064	47.243355
879.017909	47.225294
879.426720	47.197359
879.835497	47.170002
880.244241	47.173785
880.652952	47.175036
881.061629	47.192649
881.470272	47.194386
881.878881	47.187896
882.287457	47.189397
882.695999	47.191474
883.104507	47.176395
883.512982	47.152077
883.921423	47.117385
884.329830	47.093285
884.738203	47.048108
885.146543	46.988258
885.554849	46.908670
885.963120	46.826504
886.371358	46.757486
886.779563	46.666975
887.187733	46.566076
887.595869	46.454311
888.003971	46.334815
888.412040	46.226459
888.820074	46.092622
889.228074	45.974768
889.636041	45.834574
890.043973	45.689188
890.451871	45.556309
890.859736	45.397063
891.267566	45.249218
891.675362	45.130054
892.083124	44.994147
892.490851	44.856765
892.898545	44.715004
893.306204	44.574176
893.713829	44.420900
894.121420	44.290803
894.528977	44.155538
894.936499	44.047720
895.343987	43.937466
895.751441	43.820223
896.158860	43.742469
896.566246	43.668372
896.973596	43.592963
897.380913	43.534563
897.788195	43.484910
898.195442	43.422796
898.602655	43.371892
899.009834	43.317511
899.416978	43.276479
899.824088	43.246454
900.231163	43.225632
900.638204	43.192424
901.045210	43.150269
901.452181	43.104783
901.859118	43.060304
902.266021	43.019319
902.672888	42.978771
903.079721	42.920230
903.486520	42.846498
903.893283	42.775327
904.300012	42.674635
904.706707	42.597188
905.113366	42.522747
905.519991	42.413915
905.926581	42.328020
906.333136	42.210097
906.739656	42.102150
907.146142	41.976225
907.552592	41.814347
907.959008	41.666713
908.365389	41.525850
908.771735	41.331604
909.178046	41.179434
909.584322	41.009922
909.990563	40.827962
910.396769	40.667733
910.802940	40.500777
911.209076	40.345966
911.615177	40.186517
912.021243	40.021447
912.427274	39.868127
912.833270	39.718306
913.239231	39.591508
913.645156	39.478128
914.051046	39.362802
914.456902	39.256147
914.862721	39.168509
915.268506	39.080201
915.674256	38.985673
916.079970	38.939628
916.485649	38.880664
916.891292	38.823479
917.296901	38.767367
917.702474	38.702679
918.108011	38.662705
918.513514	38.593483
918.918980	38.541001
919.324412	38.488222
919.729808	38.444381
920.135169	38.405928
920.540494	38.367209
920.945783	38.327141
921.351037	38.276018
921.756256	38.235036
922.161439	38.165939
922.566586	38.091774
922.971698	37.986690
923.376775	37.904955
923.781815	37.784005
924.186820	37.675764
924.591790	37.569889
924.996723	37.442686
925.401621	37.286006
925.806484	37.136132
926.211310	36.966526
926.616101	36.796560
927.020856	36.617165
927.425575	36.417327
927.830259	36.205638
928.234906	36.020078
928.639518	35.802127
929.044094	35.589774
929.448634	35.356449
929.853138	35.127210
930.257606	34.909659
930.662038	34.692717
931.066434	34.494872
931.470795	34.280969
931.875119	34.066886
932.279407	33.866007
932.683659	33.678681
933.087875	33.488558
933.492055	33.315751
933.896199	33.161853
934.300307	32.978218
934.704379	32.829598
935.108414	32.696733
935.512414	32.587545
935.916377	32.482217
936.320304	32.380884
936.724195	32.301275
937.128049	32.225862
937.531867	32.174121
937.935649	32.136429
938.339395	32.107248
938.743104	32.094826
939.146777	32.102502
939.550414	32.121788
939.954014	32.121571
940.357578	32.140772
940.761105	32.145210
941.164596	32.171450
941.568050	32.206553
941.971468	32.242315
942.374850	32.290241
942.778195	32.332160
943.181503	32.378007
943.584775	32.412888
943.988010	32.466535
944.391209	32.506436
944.794371	32.524968
945.197496	32.532862
945.600585	32.532487
946.003637	32.536131
946.406653	32.566231
946.809632	32.556462
947.212574	32.544298
947.615479	32.527327
948.018347	32.475772
948.421179	32.445152
948.823974	32.403734
949.226732	32.366789
949.629453	32.308173
950.032138	32.247502
950.434785	32.211020
950.837396	32.116456
951.239969	32.035428
951.642506	31.912283
952.045006	31.807983
952.447469	31.714745
952.849895	31.641603
953.252283	31.543174
953.654635	31.461470
954.056950	31.347165
954.459227	31.257409
954.861468	31.138026
955.263671	31.032369
955.665838	30.896504
956.067967	30.767162
956.470059	30.653370
956.872114	30.537246
957.274131	30.425483
957.676112	30.361390
958.078055	30.311112
958.479961	30.248044
958.881829	30.128582
959.283661	30.014672
959.685455	29.921686
960.087211	29.847326
960.488931	29.762383
960.890613	29.648917
961.292257	29.585322
961.693864	29.461682
962.095434	29.379002
962.496966	29.259800
962.898461	29.127257
963.299918	29.007028
963.701338	28.892010
964.102720	28.777938
964.504065	28.678125
964.905372	28.561606
965.306641	28.426969
965.707873	28.295565
966.109068	28.166826
966.510224	28.054354
966.911343	27.914200
967.312425	27.788210
967.713468	27.673782
968.114474	27.559804
968.515442	27.404721
968.916373	27.264657
969.317265	27.130333
969.718120	26.975965
970.118937	26.810188
970.519716	26.604980
970.920458	26.412383
971.321161	26.310321
971.721827	26.243404
972.122454	26.118776
972.523044	25.947449
972.923596	25.836171
973.324110	25.739830
973.724585	25.635035
974.125023	25.579559
974.525423	25.465253
974.925785	25.426565
975.326108	25.323142
975.726394	25.304883
976.126642	25.280693
976.526851	25.271094
976.927022	25.249597
977.327155	25.263140
977.727250	25.259065
978.127307	25.290873
978.527325	25.299959
978.927306	25.267443
979.327248	25.329955
979.727151	25.383098
980.127017	25.383185
980.526844	25.432807
980.926633	25.523891
981.326383	25.622445
981.726095	25.728354
982.125769	25.898542
982.525404	26.009149
982.925001	26.107467
983.324560	26.240043
983.724079	26.335319
984.123561	26.389411
984.523004	26.553334
984.922408	26.800513
985.321774	26.989206
985.721102	27.178679
986.120390	27.361597
986.519641	27.463429
986.918852	27.596071
987.318025	27.742610
987.717159	27.955236
988.116255	28.059081
988.515312	28.208997
988.914330	28.350878
989.313310	28.427710
989.712250	28.593346
990.111152	28.887965
990.510015	29.013559
990.908840	29.146452
991.307625	29.308691
991.706372	29.492047
992.105080	29.657727
992.503749	29.833394
992.902379	30.014600
993.300970	30.243679
993.699522	30.352182
994.098035	30.569347
994.496510	30.670953
994.894945	30.766163
995.293341	31.012726
995.691698	31.183647
996.090016	31.251968
996.488296	31.521739
996.886535	31.771793
997.284736	31.826651
997.682898	32.030418
998.081021	32.175702
998.479104	32.415425
998.877148	32.775661
999.275153	33.051587
999.673119	33.256926
1000.071046	33.352386
1000.468933	33.550107
1000.866781	33.738948
1001.264590	34.015337
1001.662359	34.383918
1002.060089	34.627125
1002.457780	34.615132
1002.855431	34.922927
1003.253043	35.178124
1003.650615	35.719054
1004.048148	36.008935
1004.445642	36.456257
1004.843096	36.881225
1005.240511	37.393559
1005.637886	37.715397
1006.035221	38.234935
1006.432517	38.517247
1006.829774	39.154190
1007.226991	39.761905
1007.624168	40.147739
1008.021306	40.470566
1008.418404	41.071088
1008.815462	41.527166
1009.212481	41.832990
1009.609460	42.543633
1010.006399	43.084937
1010.403298	43.556941
1010.800158	44.183944
1011.196978	44.944409
1011.593758	45.895724
1011.990498	46.859903
1012.387199	47.797455
1012.783860	48.811724
1013.180480	49.678962
1013.577061	50.812751
1013.973602	51.523969
1014.370103	52.422314
1014.766564	53.122530
1015.162985	53.914205
1015.559366	54.754330
1015.955708	55.099177
1016.352009	55.640214
1016.748270	55.928646
1017.144491	56.502793
1017.540671	56.639791
1017.936812	57.299962
1018.332913	57.819650
1018.728973	58.649546
1019.124994	58.851601
1019.520974	59.392632
1019.916914	60.372293
1020.312814	61.931818
