Time1=100ms:Average1=5:Objective=10X:Aperture=1: (11/21/2018 11:39:52 AM)
11/21/2018 11:39:52 AM
Reflectance
10X
Ap#: 1
Avg1: 5.000000
Avg2: 0.000000
Int.Time1:100.000000

350.166136	93.226055
350.601937	94.057336
351.037728	94.407727
351.473509	94.450622
351.909281	93.968931
352.345042	94.497754
352.780794	94.426263
353.216536	94.201123
353.652267	93.994885
354.087989	93.777460
354.523701	93.723209
354.959403	93.749364
355.395095	94.169305
355.830777	94.088268
356.266449	94.282797
356.702110	93.888720
357.137762	94.337509
357.573404	94.352772
358.009035	94.409747
358.444656	95.110929
358.880268	94.907407
359.315869	94.899536
359.751459	94.690356
360.187040	94.778579
360.622610	94.944806
361.058170	94.845892
361.493720	95.178110
361.929260	95.246952
362.364789	94.920831
362.800308	94.936319
363.235816	95.148831
363.671314	95.239072
364.106802	95.175033
364.542279	95.510915
364.977746	95.555785
365.413203	96.330370
365.848649	96.167751
366.284084	96.158181
366.719509	96.052092
367.154924	96.252182
367.590328	95.977070
368.025721	96.079034
368.461104	96.575413
368.896477	96.528773
369.331838	96.601147
369.767189	95.831220
370.202530	96.211580
370.637859	95.279013
371.073178	96.080219
371.508486	95.558710
371.943784	95.289818
372.379071	95.326440
372.814347	95.749008
373.249612	96.112355
373.684866	95.606504
374.120110	96.144895
374.555343	96.044512
374.990565	96.254908
375.425776	95.895785
375.860976	96.029827
376.296165	95.326820
376.731343	95.330193
377.166511	95.236181
377.601667	94.875388
378.036812	94.494585
378.471946	94.444999
378.907070	94.406780
379.342182	94.347134
379.777283	94.098915
380.212373	93.952934
380.647452	93.967563
381.082520	93.826551
381.517576	93.420793
381.952622	93.345252
382.387656	94.143470
382.822679	94.229044
383.257691	94.655190
383.692692	94.509765
384.127681	94.995496
384.562659	94.199444
384.997626	94.506148
385.432581	94.203470
385.867525	94.165109
386.302458	94.172951
386.737379	94.083072
387.172289	94.265023
387.607188	93.550894
388.042075	93.842412
388.476951	93.946472
388.911815	94.456331
389.346668	94.393069
389.781509	94.645823
390.216338	94.825394
390.651157	94.699336
391.085963	95.498235
391.520758	95.458994
391.955541	96.058437
392.390313	95.447028
392.825073	95.573930
393.259821	95.899795
393.694558	96.449646
394.129283	96.216639
394.563996	96.976242
394.998698	97.453864
395.433388	97.254902
395.868066	96.552060
396.302732	96.254024
396.737386	96.555415
397.172029	96.748520
397.606659	96.652477
398.041278	96.058591
398.475885	95.759548
398.910480	95.400162
399.345063	94.837277
399.779634	93.780128
400.214194	92.345929
400.648741	91.029539
401.083276	89.157376
401.517799	87.083567
401.952310	84.311347
402.386809	81.686387
402.821296	78.867676
403.255771	76.291557
403.690234	73.189755
404.124684	69.787009
404.559123	65.993224
404.993549	62.798635
405.427963	59.472122
405.862365	56.397490
406.296754	53.510661
406.731131	50.967558
407.165496	48.239630
407.599849	45.853898
408.034190	43.763707
408.468518	41.703578
408.902833	39.760720
409.337137	38.105718
409.771428	36.595866
410.205706	35.021992
410.639973	33.608521
411.074226	32.570402
411.508467	31.605629
411.942696	30.777490
412.376912	30.034731
412.811116	29.482431
413.245307	28.919464
413.679486	28.488847
414.113652	28.039729
414.547805	27.618889
414.981946	27.195312
415.416074	26.924589
415.850190	26.657135
416.284293	26.488220
416.718383	26.287792
417.152460	26.120134
417.586525	26.083471
418.020577	26.016707
418.454616	25.940869
418.888643	25.885962
419.322656	25.855993
419.756657	25.782142
420.190645	25.682276
420.624620	25.595707
421.058582	25.521739
421.492531	25.498696
421.926468	25.491476
422.360391	25.545472
422.794301	25.626925
423.228199	25.779401
423.662083	25.943639
424.095955	26.142533
424.529813	26.304879
424.963658	26.470295
425.397491	26.633092
425.831310	26.743926
426.265116	26.830823
426.698909	26.924240
427.132689	27.032665
427.566455	27.187438
428.000209	27.370497
428.433949	27.608618
428.867676	27.839708
429.301389	28.083654
429.735090	28.284806
430.168777	28.475360
430.602451	28.590682
431.036111	28.647510
431.469759	28.719045
431.903392	28.764783
432.337013	28.794480
432.770620	28.819140
433.204213	28.899048
433.637794	29.017551
434.071360	29.194130
434.504914	29.394923
434.938453	29.595910
435.371979	29.828204
435.805492	30.046128
436.238991	30.235975
436.672477	30.412911
437.105949	30.550334
437.539407	30.643683
437.972852	30.707857
438.406283	30.792009
438.839700	30.841131
439.273104	30.960093
439.706494	31.080949
440.139871	31.242263
440.573233	31.389702
441.006582	31.481753
441.439917	31.580065
441.873238	31.605661
442.306546	31.571103
442.739839	31.472843
443.173119	31.372393
443.606385	31.273504
444.039636	31.183674
444.472874	31.111020
444.906099	31.081347
445.339309	31.062021
445.772505	31.085248
446.205687	31.135664
446.638855	31.181073
447.072009	31.213313
447.505149	31.257743
447.938275	31.295494
448.371387	31.306325
448.804485	31.261516
449.237569	31.185319
449.670638	31.093254
450.103694	30.961335
450.536735	30.840328
450.969762	30.701698
451.402774	30.590138
451.835773	30.485421
452.268757	30.418730
452.701727	30.334317
453.134683	30.272484
453.567624	30.183616
454.000551	30.103550
454.433464	30.025209
454.866362	29.892104
455.299246	29.783505
455.732116	29.654194
456.164971	29.568155
456.597811	29.470776
457.030638	29.353405
457.463449	29.281926
457.896246	29.210758
458.329029	29.149337
458.761797	29.130961
459.194551	29.110900
459.627290	29.113384
460.060014	29.152174
460.492724	29.212193
460.925419	29.252213
461.358099	29.309554
461.790765	29.366743
462.223416	29.454494
462.656052	29.556691
463.088674	29.650257
463.521281	29.744130
463.953873	29.838717
464.386450	29.977138
464.819012	30.131777
465.251560	30.320787
465.684093	30.548084
466.116611	30.807913
466.549114	31.083487
466.981602	31.396859
467.414075	31.710971
467.846533	32.050640
468.278977	32.399171
468.711405	32.743804
469.143818	33.108204
469.576216	33.455796
470.008600	33.808448
470.440968	34.172030
470.873321	34.519818
471.305659	34.870963
471.737982	35.246991
472.170289	35.594366
472.602582	35.963823
473.034859	36.351054
473.467122	36.760163
473.899369	37.166810
474.331600	37.626079
474.763817	38.076554
475.196018	38.562695
475.628204	39.086881
476.060375	39.617902
476.492530	40.164244
476.924670	40.706144
477.356795	41.222801
477.788904	41.717235
478.220998	42.171532
478.653076	42.592237
479.085139	42.992952
479.517186	43.383873
479.949219	43.779084
480.381235	44.167528
480.813236	44.569576
481.245221	45.001034
481.677191	45.454634
482.109146	45.908343
482.541084	46.346311
482.973008	46.774722
483.404915	47.153421
483.836807	47.498392
484.268683	47.784646
484.700544	48.012719
485.132388	48.177071
485.564217	48.317453
485.996031	48.398740
486.427828	48.434099
486.859610	48.429786
487.291376	48.430704
487.723126	48.398142
488.154860	48.391580
488.586579	48.391273
489.018281	48.407991
489.449968	48.469142
489.881639	48.562500
490.313293	48.714529
490.744932	48.905784
491.176555	49.081091
491.608162	49.260936
492.039753	49.402482
492.471328	49.482892
492.902886	49.501126
493.334429	49.456024
493.765956	49.371263
494.197466	49.249994
494.628960	49.097047
495.060439	48.965707
495.491901	48.855009
495.923347	48.821720
496.354776	48.813020
496.786190	48.877707
497.217587	48.968952
497.648968	49.124330
498.080332	49.292848
498.511681	49.462148
498.943013	49.604321
499.374328	49.733498
499.805628	49.835300
500.236911	49.891431
500.668177	49.891197
501.099427	49.876985
501.530661	49.810580
501.961878	49.721726
502.393079	49.595736
502.824264	49.461859
503.255431	49.317937
503.686583	49.179005
504.117717	49.067198
504.548835	49.050325
504.979937	49.089790
505.411022	49.211775
505.842090	49.409900
506.273142	49.695203
506.704177	50.049986
507.135195	50.427825
507.566197	50.841638
507.997182	51.254427
508.428150	51.627630
508.859102	51.968788
509.290036	52.249642
509.720954	52.517814
510.151855	52.746631
510.582739	52.982714
511.013607	53.221349
511.444457	53.529223
511.875291	53.898544
512.306107	54.372067
512.736907	54.918075
513.167690	55.566360
513.598456	56.294103
514.029205	57.105378
514.459936	57.958872
514.890651	58.827838
515.321349	59.699099
515.752030	60.543110
516.182693	61.350259
516.613340	62.101285
517.043969	62.798837
517.474582	63.420296
517.905177	63.942713
518.335755	64.395100
518.766315	64.799548
519.196859	65.147051
519.627385	65.442970
520.057894	65.716549
520.488386	65.996801
520.918860	66.297513
521.349318	66.636323
521.779757	67.040512
522.210180	67.525888
522.640585	68.080897
523.070973	68.705535
523.501343	69.389433
523.931696	70.115531
524.362031	70.866029
524.792349	71.606188
525.222650	72.306457
525.652933	72.950335
526.083198	73.507127
526.513446	73.951640
526.943677	74.313244
527.373890	74.615277
527.804085	74.851998
528.234262	75.087255
528.664422	75.329971
529.094565	75.604837
529.524689	75.924330
529.954796	76.322588
530.384885	76.803906
530.814957	77.381300
531.245011	78.068693
531.675047	78.823382
532.105065	79.600557
532.535065	80.424258
532.965048	81.247630
533.395013	82.015363
533.824959	82.744798
534.254888	83.395129
534.684799	83.923358
535.114693	84.366598
535.544568	84.703965
535.974425	84.936532
536.404264	85.049215
536.834086	85.079150
537.263889	85.050676
537.693674	84.951863
538.123441	84.826695
538.553190	84.680812
538.982921	84.563295
539.412634	84.503393
539.842329	84.521633
540.272006	84.612118
540.701664	84.735749
541.131304	84.955473
541.560926	85.234528
541.990530	85.563186
542.420116	85.945836
542.849683	86.325789
543.279232	86.741756
543.708763	87.096200
544.138275	87.407860
544.567769	87.626631
544.997245	87.806902
545.426702	87.922254
545.856141	87.963965
546.285562	87.964697
546.714964	87.946471
547.144347	87.914296
547.573713	87.907334
548.003059	87.960935
548.432387	88.086876
548.861697	88.287627
549.290988	88.574261
549.720260	88.972340
550.149514	89.458104
550.578750	90.022071
551.007966	90.664464
551.437164	91.361566
551.866344	92.096380
552.295504	92.809709
552.724646	93.521981
553.153769	94.175243
553.582874	94.762830
554.011960	95.258602
554.441027	95.640644
554.870075	95.885549
555.299104	95.996295
555.728115	95.973992
556.157106	95.877617
556.586079	95.654352
557.015033	95.385272
557.443968	95.068768
557.872884	94.755843
558.301781	94.427162
558.730659	94.156628
559.159518	93.921891
559.588358	93.759644
560.017180	93.675831
560.445982	93.645020
560.874765	93.685141
561.303528	93.784312
561.732273	93.913277
562.160999	94.067107
562.589705	94.254619
563.018393	94.445042
563.447061	94.649294
563.875710	94.833242
564.304340	95.008102
564.732950	95.139469
565.161542	95.256692
565.590114	95.335471
566.018666	95.380794
566.447200	95.395459
566.875714	95.375182
567.304208	95.363694
567.732684	95.337155
568.161140	95.326705
568.589576	95.350249
569.017993	95.407826
569.446391	95.492730
569.874769	95.645213
570.303128	95.861931
570.731467	96.135956
571.159787	96.467530
571.588087	96.861598
572.016368	97.283867
572.444629	97.754285
572.872870	98.233033
573.301092	98.689102
573.729294	99.139731
574.157476	99.538569
574.585639	99.852041
575.013782	100.073892
575.441906	100.207275
575.870009	100.217089
576.298093	100.118393
576.726157	99.913229
577.154202	99.615567
577.582226	99.249879
578.010231	98.819028
578.438216	98.356574
578.866181	97.881742
579.294126	97.427758
579.722051	97.015294
580.149957	96.674479
580.577842	96.374870
581.005707	96.132067
581.433553	95.957985
581.861378	95.849231
582.289184	95.785164
582.716969	95.741180
583.144734	95.729061
583.572479	95.749743
584.000205	95.777131
584.427910	95.817894
584.855594	95.869466
585.283259	95.914491
585.710904	95.960342
586.138528	95.996883
586.566132	96.046898
586.993716	96.098868
587.421280	96.144705
587.848823	96.205110
588.276346	96.249109
588.703849	96.277529
589.131332	96.312862
589.558794	96.321576
589.986236	96.301959
590.413657	96.274268
590.841058	96.233076
591.268438	96.187570
591.695799	96.138623
592.123138	96.105012
592.550458	96.076578
592.977756	96.068485
593.405034	96.067515
593.832292	96.106409
594.259529	96.187635
594.686746	96.288036
595.113942	96.400837
595.541117	96.508899
595.968272	96.648891
596.395406	96.769423
596.822519	96.835068
597.249612	96.890581
597.676684	96.867639
598.103735	96.764350
598.530766	96.602079
598.957775	96.362036
599.384764	96.044631
599.811733	95.670186
600.238680	95.232258
600.665606	94.754428
601.092512	94.255297
601.519397	93.775885
601.946261	93.303036
602.373104	92.841441
602.799926	92.432354
603.226727	92.076795
603.653507	91.765461
604.080266	91.485190
604.507004	91.271060
604.933721	91.080371
605.360417	90.915728
605.787092	90.757011
606.213746	90.599823
606.640379	90.448068
607.066991	90.277075
607.493581	90.082473
607.920150	89.884329
608.346699	89.687583
608.773226	89.511383
609.199731	89.321107
609.626216	89.140672
610.052679	88.995847
610.479121	88.847166
610.905542	88.740282
611.331941	88.664283
611.758319	88.587819
612.184676	88.543535
612.611011	88.509062
613.037325	88.457244
613.463617	88.401071
613.889888	88.330218
614.316138	88.241544
614.742366	88.113148
615.168573	87.954404
615.594758	87.768160
616.020921	87.553013
616.447063	87.322915
616.873184	87.081768
617.299283	86.833772
617.725360	86.584711
618.151416	86.367126
618.577450	86.169604
619.003462	85.997322
619.429453	85.870387
619.855422	85.769178
620.281369	85.707375
620.707295	85.680495
621.133199	85.670845
621.559081	85.659688
621.984941	85.645554
622.410779	85.627396
622.836596	85.582060
623.262391	85.513551
623.688163	85.414436
624.113914	85.281524
624.539644	85.106538
624.965351	84.912717
625.391036	84.684271
625.816699	84.428324
626.242340	84.179557
626.667960	83.923796
627.093557	83.666804
627.519132	83.424388
627.944685	83.203954
628.370216	82.999573
628.795725	82.820166
629.221212	82.644859
629.646677	82.463783
630.072119	82.290961
630.497540	82.117041
630.922938	81.919835
631.348314	81.674791
631.773668	81.397023
632.198999	81.075389
632.624308	80.692970
633.049595	80.270925
633.474860	79.806814
633.900102	79.293097
634.325322	78.743764
634.750520	78.193685
635.175695	77.629385
635.600848	77.068286
636.025978	76.535677
636.451086	76.017192
636.876171	75.553811
637.301234	75.119366
637.726275	74.749514
638.151293	74.441166
638.576288	74.172876
639.001261	73.992156
639.426211	73.852848
639.851139	73.747672
640.276044	73.697086
640.700927	73.682431
641.125787	73.692916
641.550624	73.743212
641.975438	73.800975
642.400230	73.883624
642.824999	73.965029
643.249745	74.049880
643.674469	74.144673
644.099169	74.245679
644.523847	74.370099
644.948502	74.514911
645.373135	74.681892
645.797744	74.882688
646.222330	75.086750
646.646894	75.326435
647.071435	75.605013
647.495953	75.912991
647.920447	76.222653
648.344919	76.554538
648.769368	76.879981
649.193794	77.204746
649.618197	77.517285
650.042576	77.799654
650.466933	78.066997
650.891267	78.278064
651.315577	78.439285
651.739864	78.556983
652.164129	78.603063
652.588370	78.599528
653.012587	78.552004
653.436782	78.452923
653.860953	78.297457
654.285102	78.087015
654.709226	77.835564
655.133328	77.552020
655.557406	77.224674
655.981461	76.888929
656.405493	76.521387
656.829501	76.131574
657.253486	75.724771
657.677448	75.313975
658.101386	74.881012
658.525301	74.447574
658.949192	73.997188
659.373060	73.554280
659.796904	73.098562
660.220725	72.642302
660.644522	72.176113
661.068296	71.719166
661.492046	71.280649
661.915772	70.873654
662.339475	70.489603
662.763154	70.162784
663.186810	69.877614
663.610442	69.637128
664.034050	69.476100
664.457635	69.394773
664.881196	69.400215
665.304733	69.488966
665.728247	69.662850
666.151736	69.924664
666.575202	70.269186
666.998644	70.701857
667.422062	71.217900
667.845457	71.784110
668.268827	72.391060
668.692174	73.068424
669.115496	73.763878
669.538795	74.476636
669.962070	75.190810
670.385321	75.900755
670.808547	76.558800
671.231750	77.197291
671.654929	77.769182
672.078084	78.290392
672.501214	78.746190
672.924321	79.134852
673.347404	79.455419
673.770462	79.717176
674.193496	79.904814
674.616506	80.017933
675.039492	80.080765
675.462454	80.082148
675.885391	80.011349
676.308305	79.893996
676.731194	79.747619
677.154058	79.556378
677.576899	79.334418
677.999715	79.086797
678.422507	78.825229
678.845274	78.546076
679.268017	78.261363
679.690736	77.966349
680.113430	77.668420
680.536100	77.368222
680.958746	77.087286
681.381367	76.842741
681.803963	76.581050
682.226535	76.352615
682.649083	76.149490
683.071605	75.973057
683.494104	75.819612
683.916578	75.711972
684.339027	75.632177
684.761451	75.588884
685.183851	75.572668
685.606227	75.587573
686.028577	75.620493
686.450903	75.673525
686.873204	75.747392
687.295481	75.848184
687.717733	75.971878
688.139959	76.077268
688.562162	76.180191
688.984339	76.293881
689.406492	76.387404
689.828619	76.467847
690.250722	76.522260
690.672800	76.558452
691.094853	76.564779
691.516881	76.535658
691.938884	76.469691
692.360863	76.372298
692.782816	76.246965
693.204744	76.097064
693.626647	75.935647
694.048526	75.745991
694.470379	75.542993
694.892207	75.337913
695.314010	75.155912
695.735788	74.982082
696.157540	74.837595
696.579268	74.727780
697.000970	74.653134
697.422648	74.617522
697.844300	74.622360
698.265926	74.675056
698.687528	74.758359
699.109104	74.900601
699.530655	75.074174
699.952181	75.285215
700.373681	75.526444
700.795156	75.793941
701.216606	76.103465
701.638030	76.435591
702.059429	76.775867
702.480803	77.124038
702.902151	77.449290
703.323473	77.773779
703.744770	78.062761
704.166042	78.313040
704.587288	78.534106
705.008509	78.725427
705.429704	78.876836
705.850873	78.984300
706.272017	79.046538
706.693135	79.069120
707.114228	79.067020
707.535295	79.025251
707.956336	78.952845
708.377352	78.834496
708.798342	78.702499
709.219306	78.550882
709.640245	78.383913
710.061157	78.201251
710.482044	78.005124
710.902905	77.815354
711.323741	77.624719
711.744550	77.451241
712.165334	77.271133
712.586092	77.097778
713.006823	76.931068
713.427529	76.774033
713.848209	76.617450
714.268863	76.461140
714.689492	76.307295
715.110094	76.155930
715.530670	76.029036
715.951220	75.925283
716.371744	75.825075
716.792242	75.747068
717.212714	75.699857
717.633159	75.666131
718.053579	75.656135
718.473973	75.673344
718.894340	75.716474
719.314681	75.774760
719.734996	75.840586
720.155285	75.905734
720.575547	75.973076
720.995784	76.052996
721.415994	76.125251
721.836177	76.176296
722.256335	76.218487
722.676466	76.232901
723.096570	76.222213
723.516649	76.188990
723.936701	76.114675
724.356726	76.006340
724.776725	75.865614
725.196698	75.692802
725.616644	75.493266
726.036564	75.270519
726.456457	75.017723
726.876324	74.750141
727.296164	74.481196
727.715977	74.212255
728.135764	73.949227
728.555525	73.704141
728.975258	73.467022
729.394966	73.261001
729.814646	73.083933
730.234300	72.933111
730.653927	72.822560
731.073527	72.756122
731.493101	72.719004
731.912648	72.725399
732.332168	72.773469
732.751661	72.872819
733.171128	73.015840
733.590568	73.198263
734.009980	73.429325
734.429366	73.694792
734.848726	73.997434
735.268058	74.317582
735.687363	74.661603
736.106641	75.016568
736.525893	75.367556
736.945117	75.728285
737.364314	76.073762
737.783485	76.419483
738.202628	76.745325
738.621744	77.053457
739.040834	77.333119
739.459896	77.581986
739.878931	77.786341
740.297939	77.945616
740.716919	78.078782
741.135873	78.144326
741.554799	78.146605
741.973698	78.110207
742.392570	78.020829
742.811415	77.892156
743.230232	77.718799
743.649022	77.508630
744.067785	77.231203
744.486521	76.927794
744.905229	76.591658
745.323909	76.222646
745.742563	75.825791
746.161189	75.415594
746.579787	74.997257
746.998358	74.557194
747.416902	74.113660
747.835418	73.677201
748.253907	73.246376
748.672368	72.838330
749.090802	72.456416
749.509208	72.102283
749.927586	71.766943
750.345937	71.465941
750.764261	71.198703
751.182556	70.966935
751.600824	70.775748
752.019065	70.614696
752.437277	70.499284
752.855462	70.414974
753.273620	70.370758
753.691749	70.336271
754.109851	70.338526
754.527925	70.352910
754.945971	70.379992
755.363989	70.416892
755.781980	70.454974
756.199943	70.491084
756.617877	70.518237
757.035784	70.547441
757.453663	70.562084
757.871514	70.541467
758.289337	70.500858
758.707132	70.421201
759.124899	70.302584
759.542639	70.148489
759.960350	69.949235
760.378033	69.711617
760.795688	69.419946
761.213314	69.096260
761.630913	68.716478
762.048484	68.298068
762.466026	67.835284
762.883541	67.353341
763.301027	66.835760
763.718485	66.276178
764.135914	65.709952
764.553316	65.119100
764.970689	64.538054
765.388034	63.942599
765.805351	63.368042
766.222639	62.809063
766.639899	62.269903
767.057131	61.754393
767.474334	61.282531
767.891509	60.852979
768.308655	60.475122
768.725773	60.132173
769.142863	59.847958
769.559924	59.610132
769.976957	59.429375
770.393961	59.306487
770.810936	59.242054
771.227883	59.229478
771.644802	59.272502
772.061692	59.377878
772.478553	59.535995
772.895386	59.737657
773.312190	59.994132
773.728965	60.307942
774.145712	60.652277
774.562430	61.038803
774.979119	61.458394
775.395780	61.911652
775.812411	62.389009
776.229014	62.908089
776.645589	63.442135
777.062134	63.983040
777.478651	64.537856
777.895138	65.075776
778.311597	65.616151
778.728027	66.139573
779.144428	66.652860
779.560800	67.142024
779.977143	67.615994
780.393458	68.053895
780.809743	68.455792
781.225999	68.805865
781.642226	69.118414
782.058425	69.354892
782.474594	69.555036
782.890734	69.688547
783.306845	69.760262
783.722926	69.761580
784.138979	69.711049
784.555003	69.598418
784.970997	69.413798
785.386962	69.166747
785.802898	68.877741
786.218805	68.520034
786.634682	68.121158
787.050531	67.682840
787.466349	67.203763
787.882139	66.688966
788.297899	66.165318
788.713630	65.636706
789.129332	65.086497
789.545004	64.557533
789.960647	64.015050
790.376260	63.487118
790.791844	62.991473
791.207399	62.512452
791.622924	62.058232
792.038419	61.618367
792.453885	61.237030
792.869321	60.895605
793.284728	60.581916
793.700106	60.326025
794.115453	60.106228
794.530771	59.927997
794.946060	59.815395
795.361319	59.727556
795.776548	59.696108
796.191747	59.671147
796.606917	59.680140
797.022057	59.725064
797.437167	59.795861
797.852248	59.881557
798.267298	59.980826
798.682319	60.074327
799.097310	60.183682
799.512271	60.278056
799.927203	60.362831
800.342104	60.447021
800.756976	60.515420
801.171818	60.560471
801.586629	60.578512
802.001411	60.589858
802.416163	60.560983
802.830885	60.543056
803.245577	60.495715
803.660238	60.422032
804.074870	60.347326
804.489472	60.274146
804.904043	60.176355
805.318585	60.043329
805.733096	59.905601
806.147577	59.771367
806.562028	59.601426
806.976449	59.427978
807.390840	59.250917
807.805200	59.037777
808.219530	58.816134
808.633830	58.591802
809.048100	58.364014
809.462339	58.138326
809.876548	57.897526
810.290727	57.640071
810.704875	57.391719
811.118993	57.133859
811.533080	56.898220
811.947137	56.660358
812.361164	56.452061
812.775160	56.248361
813.189126	56.062101
813.603061	55.905046
814.016966	55.757123
814.430840	55.643587
814.844684	55.542976
815.258497	55.481448
815.672280	55.429185
816.086032	55.421138
816.499753	55.455471
816.913444	55.510112
817.327104	55.577481
817.740733	55.695692
818.154331	55.844828
818.567899	56.025686
818.981436	56.239210
819.394943	56.484157
819.808418	56.766923
820.221863	57.071111
820.635277	57.428652
821.048660	57.814579
821.462013	58.216273
821.875334	58.664412
822.288625	59.121973
822.701884	59.614271
823.115113	60.137795
823.528311	60.664256
823.941478	61.220424
824.354614	61.765643
824.767718	62.315743
825.180792	62.838123
825.593835	63.339377
826.006847	63.835970
826.419827	64.280610
826.832777	64.696363
827.245695	65.042591
827.658582	65.333122
828.071438	65.566487
828.484263	65.746580
828.897057	65.840077
829.309819	65.846913
829.722551	65.791829
830.135251	65.675983
830.547919	65.471482
830.960557	65.205388
831.373163	64.853154
831.785738	64.444016
832.198281	63.991090
832.610793	63.492155
833.023274	62.952940
833.435723	62.395710
833.848141	61.814981
834.260528	61.214600
834.672883	60.600855
835.085206	60.017959
835.497498	59.424901
835.909758	58.841936
836.321987	58.286924
836.734185	57.754476
837.146350	57.271734
837.558485	56.847418
837.970587	56.448325
838.382658	56.118222
838.794697	55.804173
839.206705	55.568334
839.618681	55.399618
840.030625	55.320993
840.442538	55.287608
840.854418	55.300628
841.266267	55.364067
841.678084	55.505733
842.089870	55.717013
842.501623	55.964635
842.913345	56.253816
843.325035	56.582105
843.736693	56.945760
844.148319	57.355867
844.559913	57.808575
844.971475	58.265646
845.383005	58.737610
845.794504	59.209944
846.205970	59.662295
846.617404	60.111425
847.028806	60.559949
847.440176	60.976277
847.851514	61.370038
848.262820	61.717915
848.674094	62.056519
849.085336	62.355304
849.496546	62.592939
849.907723	62.786405
850.318868	62.924967
850.729981	63.015007
851.141062	63.055046
851.552110	63.044432
851.963127	62.978786
852.374111	62.876674
852.785062	62.665832
853.195982	62.425528
853.606869	62.153524
854.017723	61.848910
854.428546	61.480954
854.839336	61.066317
855.250093	60.606243
855.660818	60.146206
856.071511	59.649839
856.482171	59.129250
856.892799	58.577722
857.303394	58.008916
857.713956	57.437204
858.124486	56.853207
858.534984	56.287484
858.945449	55.725410
859.355881	55.149173
859.766280	54.591523
860.176647	54.056694
860.586982	53.516272
860.997283	53.017750
861.407552	52.526660
861.817789	52.041678
862.227992	51.589774
862.638163	51.179725
863.048301	50.757777
863.458406	50.397589
863.868478	50.056083
864.278518	49.746092
864.688524	49.477587
865.098498	49.224304
865.508439	49.018365
865.918347	48.850114
866.328222	48.700884
866.738064	48.585706
867.147873	48.512562
867.557649	48.470799
867.967392	48.466978
868.377102	48.467829
868.786779	48.507114
869.196423	48.591400
869.606034	48.733008
870.015612	48.872547
870.425156	49.073292
870.834668	49.283786
871.244146	49.512481
871.653591	49.784648
872.063003	50.085896
872.472382	50.394415
872.881728	50.723994
873.291040	51.086810
873.700319	51.435071
874.109564	51.791479
874.518777	52.189107
874.927956	52.596742
875.337102	52.985156
875.746214	53.352158
876.155293	53.724322
876.564338	54.084865
876.973350	54.425141
877.382329	54.728162
877.791274	54.999436
878.200186	55.274299
878.609064	55.512625
879.017909	55.715190
879.426720	55.884531
879.835497	56.008497
880.244241	56.064674
880.652952	56.116012
881.061629	56.141007
881.470272	56.135388
881.878881	56.052953
882.287457	55.931784
882.695999	55.776665
883.104507	55.582940
883.512982	55.370442
883.921423	55.122057
884.329830	54.845847
884.738203	54.538105
885.146543	54.221280
885.554849	53.897028
885.963120	53.574915
886.371358	53.263844
886.779563	52.935736
887.187733	52.599033
887.595869	52.231290
888.003971	51.917827
888.412040	51.651473
888.820074	51.379503
889.228074	51.124942
889.636041	50.886143
890.043973	50.683628
890.451871	50.523543
890.859736	50.352124
891.267566	50.217510
891.675362	50.134167
892.083124	50.072846
892.490851	50.040886
892.898545	50.057871
893.306204	50.078206
893.713829	50.138710
894.121420	50.198872
894.528977	50.309955
894.936499	50.434483
895.343987	50.618431
895.751441	50.779213
896.158860	50.980418
896.566246	51.219239
896.973596	51.452226
897.380913	51.717626
897.788195	51.983310
898.195442	52.241388
898.602655	52.461896
899.009834	52.699009
899.416978	52.942907
899.824088	53.184919
900.231163	53.440644
900.638204	53.658040
901.045210	53.855990
901.452181	54.008657
901.859118	54.162059
902.266021	54.299440
902.672888	54.416246
903.079721	54.481338
903.486520	54.505495
903.893283	54.514264
904.300012	54.483690
904.706707	54.428182
905.113366	54.344719
905.519991	54.202177
905.926581	54.081026
906.333136	53.896505
906.739656	53.709017
907.146142	53.505494
907.552592	53.267256
907.959008	52.984196
908.365389	52.729334
908.771735	52.419684
909.178046	52.099768
909.584322	51.780064
909.990563	51.430975
910.396769	51.102718
910.802940	50.745886
911.209076	50.422372
911.615177	50.054118
912.021243	49.684974
912.427274	49.307975
912.833270	48.952159
913.239231	48.596454
913.645156	48.231835
914.051046	47.881539
914.456902	47.540045
914.862721	47.204845
915.268506	46.869955
915.674256	46.540237
916.079970	46.253378
916.485649	45.964600
916.891292	45.677129
917.296901	45.409424
917.702474	45.157625
918.108011	44.966351
918.513514	44.731754
918.918980	44.540434
919.324412	44.371105
919.729808	44.222534
920.135169	44.077648
920.540494	43.980558
920.945783	43.901486
921.351037	43.821412
921.756256	43.797051
922.161439	43.760430
922.566586	43.770629
922.971698	43.774434
923.376775	43.816357
923.781815	43.868276
924.186820	43.969087
924.591790	44.072784
924.996723	44.194650
925.401621	44.311945
925.806484	44.465362
926.211310	44.631097
926.616101	44.839277
927.020856	45.037699
927.425575	45.241568
927.830259	45.469841
928.234906	45.697283
928.639518	45.958987
929.044094	46.219144
929.448634	46.493926
929.853138	46.750130
930.257606	47.015016
930.662038	47.251430
931.066434	47.520082
931.470795	47.749246
931.875119	47.990070
932.279407	48.202810
932.683659	48.445441
933.087875	48.634077
933.492055	48.794683
933.896199	48.975094
934.300307	49.091758
934.704379	49.237442
935.108414	49.354685
935.512414	49.456628
935.916377	49.524014
936.320304	49.546390
936.724195	49.548544
937.128049	49.570123
937.531867	49.539290
937.935649	49.541709
938.339395	49.465708
938.743104	49.391971
939.146777	49.254246
939.550414	49.133737
939.954014	48.991972
940.357578	48.790330
940.761105	48.620865
941.164596	48.402750
941.568050	48.198580
941.971468	47.984936
942.374850	47.787780
942.778195	47.558514
943.181503	47.326389
943.584775	47.066835
943.988010	46.847694
944.391209	46.629561
944.794371	46.408336
945.197496	46.171052
945.600585	45.949554
946.003637	45.722085
946.406653	45.535830
946.809632	45.325117
947.212574	45.103752
947.615479	44.903510
948.018347	44.695739
948.421179	44.529574
948.823974	44.402494
949.226732	44.260120
949.629453	44.117187
950.032138	43.978749
950.434785	43.846037
950.837396	43.729760
951.239969	43.639950
951.642506	43.558530
952.045006	43.478098
952.447469	43.428059
952.849895	43.400807
953.252283	43.388577
953.654635	43.359008
954.056950	43.287018
954.459227	43.258759
954.861468	43.189848
955.263671	43.169764
955.665838	43.179815
956.067967	43.189882
956.470059	43.176216
956.872114	43.144023
957.274131	43.106715
957.676112	43.096081
958.078055	43.124899
958.479961	43.117210
958.881829	43.100542
959.283661	43.072509
959.685455	43.114206
960.087211	43.138955
960.488931	43.134789
960.890613	43.113946
961.292257	43.101949
961.693864	43.082729
962.095434	43.042045
962.496966	43.023057
962.898461	42.961326
963.299918	42.930131
963.701338	42.865998
964.102720	42.830528
964.504065	42.783245
964.905372	42.726338
965.306641	42.668972
965.707873	42.546625
966.109068	42.471183
966.510224	42.478376
966.911343	42.341548
967.312425	42.286461
967.713468	42.213674
968.114474	42.109895
968.515442	42.034524
968.916373	41.968237
969.317265	41.880404
969.718120	41.827250
970.118937	41.745815
970.519716	41.604773
970.920458	41.587784
971.321161	41.546519
971.721827	41.549432
972.122454	41.454843
972.523044	41.298877
972.923596	41.204771
973.324110	41.160831
973.724585	41.078968
974.125023	41.039876
974.525423	40.986258
974.925785	40.980562
975.326108	41.002184
975.726394	40.948707
976.126642	40.942862
976.526851	40.921423
976.927022	40.874704
977.327155	40.842395
977.727250	40.875596
978.127307	40.891380
978.527325	40.944493
978.927306	40.851171
979.327248	40.916311
979.727151	40.885960
980.127017	40.907311
980.526844	40.902348
980.926633	40.917708
981.326383	40.880094
981.726095	40.910666
982.125769	40.960014
982.525404	40.955234
982.925001	40.985426
983.324560	40.930485
983.724079	40.904848
984.123561	40.813211
984.523004	40.800910
984.922408	40.872643
985.321774	40.909600
985.721102	40.898288
986.120390	40.929599
986.519641	40.927969
986.918852	40.928595
987.318025	40.928607
987.717159	40.860139
988.116255	40.890514
988.515312	40.823800
988.914330	40.833471
989.313310	40.818608
989.712250	40.947162
990.111152	40.965012
990.510015	40.926508
990.908840	41.014488
991.307625	41.067452
991.706372	40.980910
992.105080	41.087116
992.503749	41.060051
992.902379	41.127583
993.300970	41.111664
993.699522	41.252201
994.098035	41.311659
994.496510	41.377122
994.894945	41.442065
995.293341	41.466189
995.691698	41.578195
996.090016	41.589815
996.488296	41.868552
996.886535	42.038743
997.284736	42.095966
997.682898	42.315028
998.081021	42.421625
998.479104	42.444808
998.877148	42.579322
999.275153	42.662777
999.673119	42.859140
1000.071046	43.169477
1000.468933	43.331283
1000.866781	43.467706
1001.264590	43.699387
1001.662359	43.886223
1002.060089	44.044597
1002.457780	44.036516
1002.855431	44.547805
1003.253043	44.388334
1003.650615	44.713819
1004.048148	44.943618
1004.445642	45.094131
1004.843096	45.581799
1005.240511	45.862363
1005.637886	46.104979
1006.035221	46.290185
1006.432517	46.517080
1006.829774	46.695922
1007.226991	47.235450
1007.624168	47.657029
1008.021306	47.848641
1008.418404	48.065561
1008.815462	48.291728
1009.212481	48.484239
1009.609460	48.894971
1010.006399	49.112363
1010.403298	49.680171
1010.800158	50.432179
1011.196978	51.114733
1011.593758	52.011546
1011.990498	52.508361
1012.387199	52.745988
1012.783860	53.069712
1013.180480	53.790984
1013.577061	54.401520
1013.973602	54.993817
1014.370103	55.394983
1014.766564	56.031621
1015.162985	56.184276
1015.559366	56.998940
1015.955708	57.260479
1016.352009	58.034831
1016.748270	58.625393
1017.144491	58.681564
1017.540671	58.963718
1017.936812	59.524712
1018.332913	60.121131
1018.728973	61.131150
1019.124994	61.699507
1019.520974	61.782277
1019.916914	62.323250
1020.312814	63.107367
