PE UV       SUBTECH     SPECTRUM    ASCII       PEDS        4.00        
   -1
2-STRIGIDIA BELTI INBIO0004211063.ASC
23/11/17
10:41:59.00
23/11/17
10:41:59.00
Vinicio Soto Monge

250,000000
1
Lambda 1050
1050L1511233
PerkinElmer UV WinLab 6.3.2.0749 / 2.02.05 Lambda 900 UV/VIS/NIR, Aug  7 2015 09:38:08

0
0
3350/servo 860,8/2
0
0
UV/VIS
1
1
1
DoubleDePol,CommonBeamDepol,RBeamAtt,SBeamAtt,60mm sphere, WB InGaAs Detector
0
0
0
0
Program
Program
3350/servo 860,8/2
3350/0,4 860,8/0,4
3350/0,4 860,8/0,4
0
20.00
 
 
 
0
 
860,8
319,2
860,8
Front
100
on
S:100 R:100
0
0
0
0
 
0
 
 
 
0
 
 
0
0
0
0
0
 
 
 
 
0
0


0
0
#HDR
-1
-1
#GR
nm
%R
1.0
0.0
2200,000000
-1,000000
1951
8
108,797053
5,244670
#DATA
250.000000	2.143933
251.000000	2.140313
252.000000	2.104339
253.000000	2.092190
254.000000	2.092524
255.000000	2.061711
256.000000	2.071496
257.000000	2.041102
258.000000	2.048415
259.000000	2.045598
260.000000	2.042749
261.000000	2.023981
262.000000	2.005286
263.000000	2.026945
264.000000	1.996547
265.000000	1.997157
266.000000	2.011499
267.000000	1.975348
268.000000	1.988027
269.000000	1.970656
270.000000	1.971256
271.000000	1.972610
272.000000	1.982893
273.000000	1.978219
274.000000	1.927853
275.000000	1.942363
276.000000	1.936299
277.000000	1.956039
278.000000	1.945314
279.000000	1.952294
280.000000	1.952712
281.000000	1.942110
282.000000	1.945667
283.000000	1.927464
284.000000	1.923239
285.000000	1.924248
286.000000	1.920355
287.000000	1.934052
288.000000	1.908472
289.000000	1.926132
290.000000	1.905618
291.000000	1.921188
292.000000	1.920433
293.000000	1.904615
294.000000	1.901378
295.000000	1.898770
296.000000	1.883977
297.000000	1.894402
298.000000	1.900716
299.000000	1.900020
300.000000	1.921886
301.000000	1.906715
302.000000	1.892484
303.000000	1.891815
304.000000	1.901175
305.000000	1.918383
306.000000	1.883202
307.000000	1.868182
308.000000	1.891139
309.000000	1.897053
310.000000	1.854179
311.000000	1.856197
312.000000	1.843789
313.000000	1.858637
314.000000	1.852664
315.000000	1.828880
316.000000	1.853022
317.000000	1.942912
318.000000	1.971004
319.000000	1.930754
320.000000	1.939309
321.000000	1.890906
322.000000	1.974871
323.000000	1.861398
324.000000	1.934620
325.000000	1.944172
326.000000	1.965871
327.000000	1.907124
328.000000	1.874406
329.000000	1.857481
330.000000	1.898580
331.000000	1.870808
332.000000	1.877862
333.000000	1.849167
334.000000	1.880834
335.000000	1.874437
336.000000	1.887400
337.000000	1.912017
338.000000	1.905668
339.000000	1.874804
340.000000	1.889515
341.000000	1.895764
342.000000	1.881516
343.000000	1.875891
344.000000	1.888268
345.000000	1.882105
346.000000	1.883582
347.000000	1.879143
348.000000	1.886144
349.000000	1.873453
350.000000	1.865388
350.166136	22.863499
350.166136	17.035372
350.601937	22.903479
350.601937	17.232373
351.000000	1.894159
351.037728	22.937985
351.037728	17.294407
351.473509	22.914854
351.473509	17.407747
351.909281	17.394130
351.909281	22.937193
352.000000	1.895032
352.345042	22.965980
352.345042	17.386502
352.780794	17.345494
352.780794	22.971757
353.000000	1.866052
353.216536	17.371619
353.216536	22.980117
353.652267	22.990133
353.652267	17.407174
354.000000	1.870484
354.087989	22.985382
354.087989	17.319401
354.523701	23.008947
354.523701	17.257086
354.959403	22.966383
354.959403	17.267093
355.000000	1.898432
355.395095	17.339102
355.395095	22.995634
355.830777	17.281050
355.830777	23.002061
356.000000	1.879693
356.266449	17.219462
356.266449	23.016265
356.702110	23.029289
356.702110	17.104254
357.000000	1.882062
357.137762	23.087917
357.137762	17.025266
357.573404	17.046976
357.573404	23.063186
358.000000	1.892336
358.009035	22.996305
358.009035	16.997340
358.444656	22.992061
358.444656	17.092583
358.880268	17.145013
358.880268	23.001661
359.000000	1.882512
359.315869	17.153320
359.315869	23.025864
359.751459	23.017594
359.751459	17.103736
360.000000	1.866188
360.187040	17.153610
360.187040	23.037958
360.622610	23.060830
360.622610	17.211045
361.000000	1.872051
361.058170	23.072366
361.058170	17.257821
361.493720	23.073251
361.493720	17.201173
361.929260	17.202584
361.929260	23.083782
362.000000	1.861687
362.364789	17.135494
362.364789	23.149896
362.800308	17.050423
362.800308	23.119012
363.000000	1.876441
363.235816	23.127034
363.235816	16.977114
363.671314	23.147676
363.671314	17.042524
364.000000	1.877473
364.106802	23.169631
364.106802	17.052300
364.542279	23.187261
364.542279	17.091681
364.977746	23.229963
364.977746	17.056012
365.000000	1.861411
365.413203	17.158513
365.413203	23.240998
365.848649	17.082933
365.848649	23.227064
366.000000	1.864203
366.284084	23.189067
366.284084	17.070391
366.719509	23.186257
366.719509	17.013786
367.000000	1.884102
367.154924	23.186092
367.154924	17.120692
367.590328	17.600635
368.000000	1.857893
368.025721	23.176063
368.025721	17.139968
368.461104	23.218415
368.461104	17.143790
368.896477	17.197357
368.896477	23.198502
369.000000	1.861508
369.331838	23.122362
369.331838	17.210235
369.767189	23.151279
369.767189	17.171895
370.000000	1.874376
370.202530	17.274189
370.202530	23.125047
370.637859	23.104413
370.637859	17.273707
371.000000	1.862573
371.073178	23.134482
371.073178	17.264891
371.508486	23.152996
371.508486	17.274715
371.943784	17.200487
371.943784	23.133390
372.000000	1.863612
372.379071	17.202033
372.379071	23.088265
372.814347	17.242439
372.814347	23.070181
373.000000	1.856689
373.249612	17.244253
373.249612	23.124774
373.684866	23.126088
373.684866	17.112588
374.000000	1.860037
374.120110	23.146565
374.120110	17.182288
374.555343	17.178857
374.555343	23.172210
374.990565	17.211657
374.990565	23.182595
375.000000	1.855645
375.425776	17.219309
375.425776	23.187068
375.860976	17.254111
375.860976	23.174038
376.000000	1.815608
376.296165	17.255083
376.296165	23.185217
376.731343	23.199242
376.731343	17.268970
377.000000	1.769227
377.166511	17.271638
377.166511	23.161016
377.601667	17.200621
377.601667	23.169315
378.000000	1.767352
378.036812	23.164342
378.036812	17.211023
378.471946	23.148764
378.471946	17.293743
378.907070	17.202443
378.907070	23.141187
379.000000	1.769018
379.342182	17.189469
379.342182	23.114576
379.777283	17.611320
380.000000	1.766803
380.212373	23.160399
380.212373	17.154801
380.647452	17.076436
380.647452	23.142304
381.000000	1.761513
381.082520	16.946051
381.082520	23.164533
381.517576	23.109053
381.517576	17.015136
381.952622	16.981826
381.952622	23.090006
382.000000	1.759798
382.387656	23.088911
382.387656	16.964289
382.822679	23.130765
382.822679	17.033739
383.000000	1.756855
383.257691	23.090693
383.257691	17.064824
383.692692	17.022391
383.692692	23.105038
384.000000	1.757506
384.127681	23.107535
384.127681	17.092181
384.562659	23.090169
384.562659	16.999738
384.997626	16.977498
384.997626	23.058872
385.000000	1.755320
385.432581	23.053972
385.432581	16.960254
385.867525	23.096288
385.867525	17.025410
386.000000	1.751650
386.302458	23.099006
386.302458	16.961484
386.737379	23.093196
386.737379	17.009398
387.000000	1.751643
387.172289	23.074209
387.172289	17.018035
387.607188	16.918029
387.607188	23.031413
388.000000	1.754565
388.042075	23.006246
388.042075	16.874024
388.476951	16.807991
388.476951	23.031604
388.911815	16.821017
388.911815	22.984318
389.000000	1.756520
389.346668	16.737123
389.346668	22.953494
389.781509	16.747714
389.781509	22.977561
390.000000	1.755262
390.216338	22.962733
390.216338	16.792459
390.651157	16.825641
390.651157	22.946635
391.000000	1.754616
391.085963	22.927682
391.085963	16.888791
391.520758	16.834713
391.520758	22.946973
391.955541	22.928288
391.955541	16.789378
392.000000	1.756304
392.390313	16.741942
392.390313	22.890400
392.825073	22.876643
392.825073	16.772018
393.000000	1.754805
393.259821	22.860622
393.259821	16.844967
393.694558	22.842334
393.694558	16.886312
394.000000	1.750583
394.129283	22.822828
394.129283	16.850734
394.563996	22.797300
394.563996	17.024375
394.998698	17.011560
394.998698	22.834657
395.000000	1.751968
395.433388	16.989717
395.433388	22.828975
395.868066	16.921839
395.868066	22.797929
396.000000	1.755767
396.302732	16.846731
396.302732	22.782027
396.737386	22.737949
396.737386	16.832248
397.000000	1.754272
397.172029	16.836819
397.172029	22.669084
397.606659	22.570162
397.606659	16.765612
398.000000	1.750265
398.041278	22.429266
398.041278	16.739130
398.475885	22.361346
398.475885	16.690743
398.910480	22.227927
398.910480	16.624450
399.000000	1.748319
399.345063	22.016590
399.345063	16.412150
399.779634	21.809338
399.779634	16.268669
400.000000	1.748557
400.214194	16.014479
400.214194	21.457386
400.648741	15.807078
400.648741	21.097187
401.000000	1.750438
401.083276	15.505243
401.083276	20.709483
401.517799	15.582370
401.952310	19.660323
401.952310	14.794085
402.000000	1.749637
402.386809	19.063693
402.386809	14.402460
402.821296	18.422263
402.821296	13.956726
403.000000	1.751551
403.255771	13.497156
403.255771	17.738386
403.690234	12.929017
403.690234	17.026192
404.000000	1.754376
404.124684	16.289620
404.124684	12.321808
404.559123	11.653311
404.559123	15.515777
404.993549	11.086349
404.993549	14.739844
405.000000	1.750295
405.427963	10.463949
405.427963	13.967406
405.862365	9.861677
405.862365	13.261823
406.000000	1.748224
406.296754	12.575901
406.296754	9.325368
406.731131	11.905803
406.731131	8.834955
407.000000	1.754812
407.165496	11.291752
407.165496	8.366926
407.599849	10.715361
407.599849	7.968957
408.000000	1.755602
408.034190	7.621060
408.034190	10.164261
408.468518	7.313327
408.468518	9.654599
408.902833	9.180259
408.902833	7.011395
409.000000	1.756155
409.337137	6.759741
409.337137	8.740582
409.771428	6.564551
409.771428	8.319944
410.000000	1.755293
410.205706	7.929343
410.205706	6.354590
410.639973	6.196612
410.639973	7.583563
411.000000	1.752176
411.074226	7.276079
411.074226	6.076729
411.508467	7.000187
411.508467	5.985094
411.942696	6.747341
411.942696	5.907169
412.000000	1.754744
412.376912	6.527090
412.376912	5.839614
412.811116	6.333304
412.811116	5.804644
413.000000	1.755974
413.245307	6.154025
413.245307	5.784615
413.679486	5.842100
414.000000	1.758726
414.113652	5.850414
414.113652	5.756628
414.547805	5.711924
414.547805	5.754119
414.981946	5.591559
414.981946	5.747083
415.000000	1.757904
415.416074	5.484214
415.416074	5.762304
415.850190	5.784491
415.850190	5.391591
416.000000	1.755910
416.284293	5.814670
416.284293	5.302443
416.718383	5.850350
416.718383	5.226740
417.000000	1.755340
417.152460	5.158766
417.152460	5.878255
417.586525	5.104204
417.586525	5.922518
418.000000	1.755566
418.020577	5.056597
418.020577	5.978599
418.454616	5.010181
418.454616	6.026130
418.888643	6.081539
418.888643	4.973037
419.000000	1.752972
419.322656	4.937792
419.322656	6.141007
419.756657	6.227274
420.000000	1.756032
420.190645	6.258592
420.190645	4.872578
420.624620	6.321811
420.624620	4.842499
421.000000	1.759836
421.058582	4.815859
421.058582	6.378719
421.492531	4.793127
421.492531	6.444525
421.926468	6.505006
421.926468	4.774978
422.000000	1.758003
422.360391	4.763493
422.360391	6.572351
422.794301	4.760001
422.794301	6.637595
423.000000	1.759480
423.228199	6.708761
423.228199	4.763090
423.662083	4.771754
423.662083	6.781281
424.000000	1.760022
424.095955	6.857904
424.095955	4.785629
424.529813	4.798330
424.529813	6.934847
424.963658	4.814811
424.963658	7.005863
425.000000	1.760741
425.397491	7.078830
425.397491	4.827524
425.831310	7.150132
425.831310	4.838563
426.000000	1.763786
426.265116	7.217704
426.265116	4.848392
426.698909	7.284734
426.698909	4.858437
427.000000	1.766154
427.132689	7.353940
427.132689	4.871338
427.566455	4.888284
427.566455	7.425251
428.000000	1.763572
428.000209	7.502195
428.000209	4.909891
428.433949	7.581387
428.433949	4.931609
428.867676	7.656985
428.867676	4.956047
429.000000	1.765420
429.301389	4.979301
429.301389	7.734787
429.735090	7.808496
429.735090	5.003690
430.000000	1.769158
430.168777	7.877996
430.168777	5.023521
430.602451	7.945700
430.602451	5.040268
431.000000	1.769648
431.036111	5.050065
431.036111	8.010958
431.469759	8.070709
431.469759	5.062066
431.903392	5.072952
431.903392	8.129912
432.000000	1.768932
432.337013	8.189374
432.337013	5.083042
432.770620	8.248571
432.770620	5.094082
433.000000	1.768973
433.204213	5.109826
433.204213	8.309948
433.637794	8.373164
433.637794	5.131381
434.000000	1.768261
434.071360	5.155294
434.071360	8.435974
434.504914	8.505912
434.504914	5.182586
434.938453	5.213742
434.938453	8.572681
435.000000	1.769956
435.371979	5.245275
435.371979	8.646195
435.805492	5.278146
435.805492	8.716865
436.000000	1.770559
436.238991	5.308091
436.238991	8.787135
436.672477	8.849816
436.672477	5.336849
437.000000	1.764829
437.105949	8.910872
437.105949	5.364273
437.539407	5.385046
437.539407	8.966419
437.972852	9.015667
437.972852	5.404080
438.000000	1.765929
438.406283	5.422860
438.406283	9.070765
438.839700	5.443140
438.839700	9.121419
439.000000	1.768738
439.273104	5.466034
439.273104	9.175635
439.706494	5.490063
439.706494	9.229834
440.000000	1.768023
440.139871	9.287313
440.139871	5.517435
440.573233	5.543969
440.573233	9.343169
441.000000	1.769593
441.006582	9.399279
441.006582	5.569562
441.439917	9.447159
441.439917	5.592147
441.873238	5.610901
441.873238	9.491370
442.000000	1.769813
442.306546	9.531296
442.306546	5.626317
442.739839	5.638289
442.739839	9.562427
443.000000	1.771917
443.173119	9.591114
443.173119	5.646379
443.606385	9.619348
443.606385	5.655361
444.000000	1.778921
444.039636	5.664178
444.039636	9.647614
444.472874	5.676679
444.472874	9.676667
444.906099	9.707789
444.906099	5.690003
445.000000	1.779630
445.339309	9.743329
445.339309	5.707865
445.772505	9.781939
445.772505	5.728248
446.000000	1.777473
446.205687	9.825334
446.205687	5.752061
446.638855	5.775427
446.638855	9.870066
447.000000	1.783110
447.072009	5.798990
447.072009	9.914492
447.505149	5.824216
447.505149	9.960035
447.938275	5.848701
447.938275	10.004426
448.000000	1.782788
448.371387	5.871313
448.371387	10.046358
448.804485	10.081161
448.804485	5.890354
449.000000	1.780476
449.237569	10.111532
449.237569	5.905397
449.670638	5.918886
449.670638	10.137972
450.000000	1.779850
450.103694	10.159180
450.103694	5.927837
450.536735	10.180224
450.536735	5.934801
450.969762	10.198644
450.969762	5.943272
451.000000	1.782872
451.402774	5.953062
451.402774	10.219465
451.835773	10.239754
451.835773	5.963369
452.000000	1.786318
452.268757	5.977102
452.268757	10.266955
452.701727	5.990843
452.701727	10.293433
453.000000	1.784715
453.134683	10.323176
453.134683	6.006341
453.567624	6.020136
453.567624	10.349078
454.000000	1.782970
454.000551	6.033618
454.000551	10.373637
454.433464	10.390150
454.866362	6.052660
454.866362	10.411896
455.000000	1.782292
455.299246	6.060881
455.299246	10.426368
455.732116	10.437124
455.732116	6.066548
456.000000	1.781860
456.164971	10.445976
456.164971	6.072077
456.597811	6.078204
456.597811	10.454989
457.000000	1.785144
457.030638	10.463721
457.030638	6.084203
457.463449	6.091554
457.463449	10.473131
457.896246	6.098381
457.896246	10.478958
458.000000	1.786433
458.329029	6.105301
458.329029	10.486333
458.761797	6.112447
458.761797	10.494048
459.000000	1.786997
459.194551	10.502037
459.194551	6.119553
459.627290	10.507856
459.627290	6.125944
460.000000	1.788434
460.060014	10.514453
460.060014	6.133430
460.492724	10.522186
460.492724	6.141873
460.925419	10.527665
460.925419	6.149794
461.000000	1.786459
461.358099	6.158897
461.358099	10.533209
461.790765	10.534450
461.790765	6.165695
462.000000	1.787593
462.223416	10.532005
462.223416	6.171719
462.656052	6.176722
462.656052	10.526980
463.000000	1.791881
463.088674	10.518285
463.088674	6.180838
463.521281	10.509237
463.521281	6.185288
463.953873	10.498958
463.953873	6.190207
464.000000	1.793135
464.386450	10.484399
464.386450	6.194265
464.819012	6.200400
464.819012	10.472726
465.000000	1.794606
465.251560	6.207593
465.251560	10.462378
465.684093	10.452539
465.684093	6.215225
466.000000	1.799359
466.116611	10.445790
466.116611	6.225278
466.549114	10.441932
466.549114	6.236771
466.981602	10.440226
466.981602	6.249052
467.000000	1.798748
467.414075	6.260825
467.414075	10.437422
467.846533	6.272744
467.846533	10.433886
468.000000	1.800016
468.278977	10.430291
468.278977	6.284587
468.711405	10.425129
468.711405	6.295382
469.000000	1.802375
469.143818	6.306727
469.143818	10.420709
469.576216	6.316465
469.576216	10.414399
470.000000	1.800262
470.008600	10.404205
470.008600	6.324961
470.440968	10.391017
470.440968	6.331464
470.873321	10.376725
470.873321	6.337167
471.000000	1.801845
471.305659	10.361055
471.305659	6.341710
471.737982	10.346567
471.737982	6.347331
472.000000	1.806527
472.170289	6.351683
472.170289	10.329197
472.602582	10.314359
473.000000	1.808070
473.034859	6.360784
473.034859	10.295123
473.467122	10.281139
473.467122	6.367432
473.899369	10.271719
473.899369	6.374989
474.000000	1.812133
474.331600	6.384450
474.331600	10.268549
474.763817	10.270267
474.763817	6.395648
475.000000	1.815005
475.196018	6.410555
475.196018	10.280498
475.628204	6.429214
475.628204	10.298995
476.000000	1.819535
476.060375	10.325126
476.060375	6.450200
476.492530	6.472437
476.492530	10.354814
476.924670	10.393088
477.000000	1.825428
477.356795	10.418003
477.356795	6.516142
477.788904	10.449237
477.788904	6.537349
478.000000	1.832320
478.220998	10.474835
478.220998	6.555868
478.653076	6.573135
478.653076	10.496918
479.000000	1.838313
479.085139	10.523753
479.517186	6.605466
479.517186	10.538599
479.949219	10.560233
479.949219	6.621462
480.000000	1.843352
480.381235	6.640471
480.381235	10.590234
480.813236	6.662224
480.813236	10.630327
481.000000	1.851116
481.245221	6.688447
481.245221	10.679555
481.677191	6.717806
481.677191	10.737671
482.000000	1.862225
482.109146	10.801361
482.109146	6.747825
482.541084	6.778803
482.541084	10.867691
482.973008	10.934096
482.973008	6.809759
483.000000	1.874778
483.404915	6.840470
483.404915	10.998968
483.836807	11.058316
483.836807	6.869360
484.000000	1.888986
484.268683	6.896903
484.268683	11.109571
484.700544	11.153377
484.700544	6.922125
485.000000	1.903181
485.132388	6.944745
485.132388	11.188204
485.564217	6.965246
485.564217	11.216684
485.996031	11.238966
485.996031	6.985020
486.000000	1.917804
486.427828	7.003201
486.427828	11.254353
486.859610	11.266333
486.859610	7.020209
487.000000	1.933168
487.291376	11.274905
487.291376	7.036997
487.723126	7.055289
487.723126	11.284416
488.000000	1.951760
488.154860	7.074227
488.154860	11.296680
488.586579	11.313855
488.586579	7.095550
489.000000	1.977536
489.018281	7.119801
489.018281	11.340786
489.449968	11.378638
489.449968	7.148397
489.881639	11.431246
489.881639	7.182518
490.000000	2.000033
490.313293	7.221093
490.313293	11.496584
490.744932	7.263889
490.744932	11.574266
491.000000	2.023516
491.176555	7.308570
491.176555	11.657048
491.608162	11.742684
491.608162	7.354720
492.000000	2.052347
492.039753	11.824266
492.039753	7.400074
492.471328	11.893548
492.471328	7.441836
492.902886	7.479185
492.902886	11.948781
493.000000	2.085562
493.334429	11.988306
493.334429	7.512843
493.765956	12.011638
493.765956	7.541282
494.000000	2.117630
494.197466	7.568422
494.197466	12.025786
494.628960	7.593641
494.628960	12.034643
495.000000	2.155259
495.060439	12.047309
495.060439	7.620588
495.491901	12.068558
495.491901	7.651117
495.923347	12.104943
495.923347	7.686408
496.000000	2.193682
496.354776	7.726498
496.354776	12.155931
496.786190	12.224329
496.786190	7.772872
497.000000	2.235785
497.217587	12.306203
497.217587	7.824189
497.648968	12.397780
497.648968	7.878337
498.000000	2.281592
498.080332	7.935612
498.080332	12.495016
498.511681	12.591934
498.511681	7.992547
498.943013	12.683671
498.943013	8.049741
499.000000	2.332669
499.374328	8.104880
499.374328	12.766819
499.805628	12.838558
499.805628	8.157803
500.000000	2.385238
500.236911	12.896017
500.236911	8.207892
500.668177	8.254420
500.668177	12.940557
501.000000	2.442240
501.099427	8.296822
501.099427	12.970945
501.530661	8.336959
501.530661	12.989643
501.961878	8.373910
501.961878	12.996443
502.000000	2.503714
502.393079	8.408372
502.393079	12.992462
502.824264	12.981871
502.824264	8.441972
503.000000	2.568613
503.255431	8.473755
503.255431	12.966201
503.686583	12.950162
503.686583	8.505637
504.000000	2.637565
504.117717	8.540626
504.117717	12.939932
504.548835	8.579525
504.548835	12.941142
504.979937	12.957630
504.979937	8.623689
505.000000	2.713473
505.411022	12.989938
505.411022	8.673257
505.842090	8.730944
505.842090	13.043454
506.000000	2.787535
506.273142	13.115035
506.273142	8.794958
506.704177	13.203521
506.704177	8.865032
507.000000	2.865416
507.135195	8.939083
507.135195	13.299332
507.566197	13.395925
507.566197	9.014646
507.997182	13.487359
507.997182	9.089622
508.000000	2.946677
508.428150	9.161604
508.428150	13.564467
508.859102	13.623869
508.859102	9.230613
509.000000	3.038187
509.290036	9.294135
509.290036	13.662519
509.720954	9.354406
509.720954	13.683865
510.000000	3.128069
510.151855	9.411587
510.151855	13.689468
510.582739	9.467282
510.582739	13.685499
511.000000	3.220443
511.013607	13.681592
511.013607	9.525107
511.444457	9.585072
511.444457	13.682505
511.875291	13.696189
511.875291	9.651776
512.000000	3.313878
512.306107	9.725784
512.306107	13.728232
512.736907	9.807967
512.736907	13.777588
513.000000	3.417272
513.167690	13.846051
513.167690	9.898570
513.598456	13.930749
513.598456	9.996665
514.000000	3.520053
514.029205	14.026591
514.029205	10.102095
514.459936	10.212109
514.459936	14.128100
514.890651	10.324821
514.890651	14.227100
515.000000	3.621588
515.321349	10.437614
515.321349	14.318973
515.752030	14.400586
515.752030	10.551443
516.000000	3.727317
516.182693	10.661908
516.182693	14.464589
516.613340	14.508994
516.613340	10.769392
517.000000	3.828759
517.043969	10.874887
517.043969	14.535029
517.474582	14.539642
517.474582	10.976529
517.905177	14.524475
517.905177	11.074057
518.000000	3.936297
518.335755	14.490142
518.335755	11.167739
518.766315	11.259409
518.766315	14.443363
519.000000	4.042628
519.196859	14.383255
519.196859	11.347847
519.627385	11.434472
519.627385	14.315870
520.000000	4.149598
520.057894	11.519763
520.057894	14.244856
520.488386	14.255345
520.918860	11.697062
520.918860	14.118485
521.000000	4.255072
521.349318	14.071257
521.349318	11.793640
521.779757	11.896959
521.779757	14.037748
522.000000	4.358813
522.210180	14.022015
522.210180	12.008768
522.640585	12.129134
522.640585	14.023390
523.000000	4.454378
523.070973	14.040267
523.070973	12.258496
523.501343	12.394384
523.501343	14.069265
523.931696	12.537450
523.931696	14.109636
524.000000	4.553487
524.362031	12.683157
524.362031	14.154394
524.792349	12.832466
524.792349	14.199954
525.000000	4.640683
525.222650	14.241543
525.222650	12.980156
525.652933	14.274027
525.652933	13.123857
526.000000	4.724066
526.083198	13.262905
526.083198	14.297582
526.513446	13.394803
526.513446	14.309291
526.943677	14.311170
526.943677	13.520675
527.000000	4.805498
527.373890	14.309748
527.373890	13.640467
527.804085	14.308184
527.804085	13.758035
528.000000	4.877852
528.234262	13.872796
528.234262	14.309692
528.664422	13.989971
528.664422	14.318397
529.000000	4.941131
529.094565	14.335450
529.094565	14.108854
529.524689	14.234002
529.524689	14.363675
529.954796	14.367319
529.954796	14.402031
530.000000	5.002522
530.384885	14.506787
530.384885	14.449076
530.814957	14.503614
530.814957	14.654497
531.000000	5.057361
531.245011	14.566348
531.245011	14.810557
531.675047	14.633874
531.675047	14.972856
532.000000	5.096147
532.105065	14.703852
532.105065	15.140090
532.535065	15.310719
532.535065	14.776406
532.965048	14.847709
532.965048	15.481871
533.000000	5.130121
533.395013	14.916314
533.395013	15.650877
533.824959	15.813940
533.824959	14.982153
534.000000	5.152526
534.254888	15.971634
534.254888	15.043401
534.684799	16.122262
534.684799	15.097790
535.000000	5.171709
535.114693	15.151602
535.114693	16.265428
535.544568	15.204285
535.544568	16.397964
535.974425	16.519183
535.974425	15.257384
536.000000	5.178919
536.404264	16.629585
536.404264	15.309670
536.834086	15.366990
536.834086	16.729771
537.000000	5.184748
537.263889	15.432005
537.263889	16.819856
537.693674	16.902632
537.693674	15.503274
538.000000	5.171709
538.123441	16.980725
538.123441	15.581023
538.553190	17.055504
538.553190	15.665449
538.982921	17.130700
538.982921	15.758024
539.000000	5.160639
539.412634	17.207594
539.412634	15.853999
539.842329	15.955742
539.842329	17.290418
540.000000	5.135281
540.272006	16.056749
540.272006	17.379345
540.701664	17.474493
540.701664	16.153521
541.000000	5.096515
541.131304	17.576616
541.131304	16.246943
541.560926	17.686613
541.560926	16.333353
541.990530	17.801951
541.990530	16.416898
542.000000	5.054610
542.420116	16.497453
542.420116	17.922207
542.849683	18.042030
542.849683	16.574041
543.000000	5.005850
543.279232	18.160350
543.279232	16.649456
543.708763	16.723008
543.708763	18.275466
544.000000	4.950767
544.138275	18.384522
544.138275	16.798258
544.567769	18.485454
544.567769	16.874786
544.997245	16.955238
544.997245	18.576547
545.000000	4.895626
545.426702	18.658696
545.426702	17.038962
545.856141	18.732334
545.856141	17.126332
546.000000	4.837005
546.285562	17.218876
546.285562	18.800664
546.714964	17.312929
546.714964	18.862610
547.000000	4.771144
547.144347	18.924621
547.144347	17.408697
547.573713	17.505388
547.573713	18.986770
548.000000	4.701987
548.003059	19.053736
548.003059	17.593389
548.432387	19.125594
548.432387	17.680433
548.861697	17.762760
548.861697	19.202878
549.000000	4.634343
549.290988	17.836342
549.290988	19.289247
549.720260	19.385674
549.720260	17.902125
550.000000	4.565747
550.149514	19.490937
550.149514	17.957857
550.578750	18.002914
550.578750	19.604945
551.000000	4.495412
551.007966	19.726494
551.007966	18.040178
551.437164	19.852179
551.437164	18.074262
551.866344	18.103737
551.866344	19.981834
552.000000	4.419430
552.295504	20.109972
552.295504	18.130058
552.724646	20.234512
552.724646	18.160280
553.000000	4.362339
553.153769	20.352562
553.153769	18.194195
553.582874	18.234956
553.582874	20.460997
554.000000	4.316781
554.011960	18.284149
554.011960	20.556488
554.441027	18.342183
554.441027	20.636342
554.870075	18.411257
554.870075	20.700353
555.000000	4.269905
555.299104	20.747825
555.299104	18.490033
555.728115	18.578049
555.728115	20.777790
556.000000	4.234591
556.157106	20.795996
556.157106	18.678965
556.586079	20.800001
556.586079	18.786411
557.000000	4.197893
557.015033	19.185087
557.443968	19.023150
557.443968	20.782565
557.872884	20.767763
557.872884	19.145272
558.000000	4.184666
558.301781	20.754612
558.301781	19.267570
558.730659	20.741642
558.730659	19.387416
559.000000	4.186771
559.159518	20.734567
559.159518	19.499446
559.588358	20.734242
559.588358	19.604252
560.000000	4.192939
560.017180	19.700019
560.017180	20.741847
560.445982	19.785464
560.445982	20.756913
560.874765	19.860427
560.874765	20.780153
561.000000	4.223655
561.303528	20.810175
561.303528	19.927480
561.732273	20.844401
561.732273	19.985806
562.000000	4.269143
562.160999	20.036751
562.160999	20.883376
562.589705	20.925844
562.589705	20.083863
563.000000	4.326706
563.018393	20.126542
563.018393	20.968947
563.447061	21.013184
563.447061	20.169109
563.875710	20.468356
564.000000	4.395835
564.304340	20.252780
564.304340	21.097855
564.732950	21.136525
564.732950	20.293537
565.000000	4.469217
565.161542	20.336315
565.161542	21.171052
565.590114	20.382042
565.590114	21.203959
566.000000	4.567008
566.018666	21.233726
566.018666	20.429795
566.447200	20.478360
566.447200	21.259780
566.875714	20.527351
566.875714	21.284728
567.000000	4.665125
567.304208	21.309179
567.304208	20.577218
567.732684	20.625443
567.732684	21.332952
568.000000	4.771178
568.161140	20.671650
568.161140	21.358170
568.589576	21.385576
568.589576	20.714744
569.000000	4.880055
569.017993	21.416973
569.017993	20.752639
569.446391	21.450931
569.446391	20.781848
569.874769	21.492343
569.874769	20.805475
570.000000	4.991278
570.303128	20.819688
570.303128	21.539305
570.731467	21.593428
570.731467	20.824058
571.000000	5.109083
571.159787	20.819304
571.159787	21.651798
571.588087	21.072868
572.000000	5.225572
572.016368	20.785079
572.016368	21.787129
572.444629	20.758816
572.444629	21.860541
572.872870	20.727501
572.872870	21.935082
573.000000	5.338101
573.301092	20.695646
573.301092	22.009676
573.729294	20.664711
573.729294	22.078328
574.000000	5.450259
574.157476	22.140446
574.157476	20.638844
574.585639	22.191077
574.585639	20.617410
575.000000	5.547771
575.013782	22.230461
575.013782	20.603428
575.441906	20.599750
575.441906	22.256952
575.870009	22.267633
575.870009	20.606151
576.000000	5.651855
576.298093	22.264751
576.298093	20.622959
576.726157	22.247186
576.726157	20.649328
577.000000	5.747964
577.154202	20.684514
577.154202	22.216851
577.582226	22.177230
577.582226	20.729943
578.000000	5.833508
578.010231	22.129924
578.010231	20.780795
578.438216	20.836720
578.438216	22.078250
578.866181	20.895101
578.866181	22.023360
579.000000	5.912152
579.294126	21.969136
579.294126	20.953298
579.722051	21.918763
579.722051	21.011075
580.000000	6.000724
580.149957	21.067178
580.149957	21.872542
580.577842	21.117823
580.577842	21.831631
581.000000	6.073279
581.005707	21.796895
581.005707	21.164475
581.433553	21.207234
581.433553	21.767951
581.861378	21.744593
581.861378	21.246605
582.000000	6.138407
582.289184	21.282638
582.289184	21.725784
582.716969	21.315016
582.716969	21.710398
583.000000	6.211228
583.144734	21.698014
583.144734	21.344858
583.572479	21.690220
583.572479	21.376089
584.000000	6.281877
584.000205	21.405090
584.000205	21.681626
584.427910	21.434602
584.427910	21.675767
584.855594	21.669959
584.855594	21.462286
585.000000	6.345797
585.283259	21.663296
585.283259	21.486589
585.710904	21.511623
585.710904	21.658476
586.000000	6.414963
586.138528	21.653320
586.138528	21.532353
586.566132	21.647364
586.566132	21.550511
586.993716	21.643647
586.993716	21.566408
587.000000	6.474958
587.421280	21.577391
587.421280	21.639054
587.848823	21.636980
587.848823	21.586357
588.000000	6.556795
588.276346	21.634432
588.276346	21.591174
588.703849	21.630095
588.703849	21.590082
589.000000	6.633046
589.131332	21.583992
589.131332	21.625404
589.558794	21.573850
589.558794	21.619085
589.986236	21.556709
589.986236	21.610751
590.000000	6.723058
590.413657	21.537885
590.413657	21.602521
590.841058	21.512380
590.841058	21.590791
591.000000	6.808287
591.268438	21.578727
591.268438	21.482781
591.695799	21.447112
591.695799	21.566197
592.000000	6.893536
592.123138	21.556039
592.123138	21.406269
592.550458	21.360240
592.550458	21.547579
592.977756	21.541735
592.977756	21.307470
593.000000	6.995788
593.405034	21.539090
593.405034	21.248062
593.832292	21.541163
593.832292	21.183091
594.000000	7.103510
594.259529	21.547365
594.259529	21.111846
594.686746	21.036039
594.686746	21.557539
595.000000	7.221469
595.113942	20.956629
595.113942	21.571649
595.541117	21.135005
595.968272	20.793052
595.968272	21.604888
596.000000	7.335679
596.395406	20.714737
596.395406	21.620111
596.822519	21.630329
596.822519	20.638671
597.000000	7.456248
597.249612	20.570374
597.249612	21.636742
597.676684	20.506416
597.676684	21.636001
598.000000	7.570741
598.103735	21.625741
598.103735	20.448792
598.530766	20.401126
598.530766	21.606062
598.957775	21.575390
598.957775	20.357697
599.000000	7.691592
599.384764	21.534102
599.384764	20.321682
599.811733	20.290661
599.811733	21.485399
600.000000	7.820170
600.238680	20.265138
600.238680	21.427802
600.665606	21.363638
600.665606	20.243591
601.000000	7.955236
601.092512	21.294189
601.092512	20.224176
601.519397	20.207847
601.519397	21.221584
601.946261	20.194330
601.946261	21.149907
602.000000	8.086551
602.373104	20.179223
602.373104	21.078391
602.799926	20.164238
602.799926	21.008928
603.000000	8.214666
603.226727	20.150441
603.226727	20.941545
603.653507	20.132755
603.653507	20.876398
604.000000	8.340404
604.080266	20.814621
604.080266	20.113531
604.507004	20.754741
604.507004	20.093693
604.933721	20.696107
604.933721	20.072419
605.000000	8.457932
605.360417	20.637204
605.360417	20.050889
605.787092	20.576222
605.787092	20.026348
606.000000	8.576743
606.213746	20.513539
606.213746	20.000097
606.640379	19.972248
606.640379	20.447059
607.000000	8.696146
607.066991	19.942988
607.066991	20.377486
607.493581	20.306307
607.493581	19.912300
607.920150	20.232347
607.920150	19.881165
608.000000	8.808172
608.346699	19.847607
608.346699	20.154988
608.773226	19.812688
608.773226	20.077758
609.000000	8.920904
609.199731	19.998594
609.199731	19.773712
609.626216	19.730124
609.626216	19.920587
610.000000	9.031525
610.052679	19.682796
610.052679	19.843126
610.479121	19.628790
610.479121	19.768438
610.905542	19.572058
610.905542	19.694414
611.000000	9.142143
611.331941	19.512664
611.331941	19.624519
611.758319	19.447976
611.758319	19.556113
612.000000	9.231527
612.184676	19.381568
612.184676	19.490819
612.611011	19.314496
612.611011	19.426968
613.000000	9.335012
613.037325	19.246002
613.037325	19.362633
613.463617	19.298762
613.463617	19.176075
613.889888	19.232222
613.889888	19.107320
614.000000	9.425156
614.316138	19.039689
614.316138	19.163931
614.742366	18.971661
614.742366	19.093917
615.000000	9.535090
615.168573	18.905103
615.168573	19.020791
615.594758	18.840671
615.594758	18.944596
616.000000	9.616244
616.020921	18.867442
616.020921	18.777710
616.447063	18.789759
616.447063	18.715161
616.873184	18.654232
616.873184	18.712143
617.000000	9.711091
617.299283	18.595767
617.299283	18.634252
617.725360	18.558591
617.725360	18.540664
618.000000	9.808006
618.151416	18.490377
618.151416	18.485940
618.577450	18.441060
618.577450	18.414821
619.000000	9.909013
619.003462	18.348808
619.003462	18.397124
619.429453	18.360845
619.429453	18.285813
619.855422	18.331190
619.855422	18.227845
620.000000	10.003890
620.281369	18.173560
620.281369	18.309649
620.707295	18.294095
620.707295	18.120381
621.000000	10.105135
621.133199	18.280013
621.133199	18.068756
621.559081	18.269454
621.559081	18.018186
621.984941	18.261949
621.984941	17.965962
622.000000	10.205920
622.410779	17.913067
622.410779	18.255310
622.836596	18.247676
622.836596	17.855755
623.000000	10.322890
623.262391	18.235293
623.262391	17.795757
623.688163	17.730625
623.688163	18.218959
624.000000	10.433714
624.113914	17.662746
624.113914	18.197767
624.539644	18.167333
624.539644	17.590413
624.965351	18.130968
624.965351	17.514459
625.000000	10.541657
625.391036	18.088985
625.391036	17.434072
625.816699	17.351074
625.816699	18.041468
626.000000	10.660093
626.242340	17.265808
626.242340	17.990647
626.667960	17.936659
626.667960	17.178088
627.000000	10.776910
627.093557	17.882124
627.093557	17.091431
627.519132	17.004789
627.519132	17.830237
627.944685	16.918350
627.944685	17.778283
628.000000	10.893390
628.370216	16.833016
628.370216	17.727707
628.795725	16.750763
628.795725	17.683312
629.000000	11.006168
629.221212	16.666433
629.221212	17.637883
629.646677	17.595921
629.646677	16.583836
630.000000	11.128464
630.072119	16.501283
630.072119	17.556832
630.497540	17.516635
630.497540	16.418890
630.922938	17.474391
630.922938	16.336234
631.000000	11.249810
631.348314	17.427983
631.348314	16.252417
631.773668	17.380691
631.773668	16.168097
632.000000	11.367632
632.198999	16.082678
632.198999	17.329263
632.624308	15.997191
632.624308	17.271659
633.000000	11.488788
633.049595	15.911537
633.049595	17.209161
633.474860	17.141940
633.474860	15.825937
633.900102	15.742290
633.900102	17.073296
634.000000	11.613477
634.325322	15.660779
634.325322	17.005183
634.750520	16.939026
634.750520	15.582553
635.000000	11.728231
635.175695	16.876975
635.175695	15.509014
635.600848	16.822953
635.600848	15.440882
636.000000	11.836228
636.025978	16.778782
636.025978	15.379827
636.451086	16.745526
636.451086	15.326025
636.876171	15.279365
636.876171	16.725163
637.000000	11.954463
637.301234	15.239430
637.301234	16.714213
637.726275	16.718397
637.726275	15.206780
638.000000	12.072867
638.151293	16.735101
638.151293	15.182191
638.576288	15.163926
638.576288	16.760111
639.000000	12.189368
639.001261	15.152846
639.001261	16.795829
639.426211	15.147958
639.426211	16.839340
639.851139	15.147876
639.851139	16.887778
640.000000	12.311502
640.276044	15.152495
640.276044	16.938793
640.700927	16.988905
640.700927	15.161049
641.000000	12.420419
641.125787	17.036620
641.125787	15.172574
641.550624	17.080811
641.550624	15.186246
641.975438	15.201657
641.975438	17.117336
642.000000	12.546340
642.400230	17.148056
642.400230	15.219719
642.824999	17.169711
642.824999	15.238083
643.000000	12.668634
643.249745	15.257439
643.249745	17.180297
643.674469	17.186467
643.674469	15.279305
644.000000	12.790744
644.099169	15.302022
644.099169	17.184670
644.523847	15.327412
644.523847	17.178968
644.948502	15.355486
644.948502	17.169142
645.000000	12.907604
645.373135	17.154010
645.373135	15.386313
645.797744	17.139594
645.797744	15.419146
646.000000	13.018847
646.222330	15.454572
646.222330	17.124645
646.646894	15.492460
646.646894	17.109151
647.000000	13.137652
647.071435	17.094724
647.071435	15.532577
647.495953	17.081400
647.495953	15.573985
647.920447	15.616787
647.920447	17.068929
648.000000	13.269344
648.344919	15.659540
648.344919	17.054853
648.769368	17.183642
649.000000	13.393827
649.193794	17.016954
649.193794	15.743977
649.618197	16.988849
649.618197	15.783511
650.000000	13.511586
650.042576	15.821433
650.042576	16.955684
650.466933	16.919347
650.466933	15.858883
650.891267	16.875845
650.891267	15.893007
651.000000	13.643399
651.315577	15.924193
651.315577	16.825624
651.739864	15.953726
651.739864	16.771076
652.000000	13.767155
652.164129	16.710496
652.164129	15.979805
652.588370	16.644337
652.588370	16.002308
653.000000	13.896368
653.012587	16.022705
653.012587	16.576606
653.436782	16.677270
653.860953	16.055623
653.860953	16.437654
654.000000	14.017481
654.285102	16.368141
654.285102	16.069650
654.709226	16.081982
654.709226	16.301208
655.000000	14.145179
655.133328	16.092463
655.133328	16.235935
655.557406	16.102776
655.557406	16.173487
655.981461	16.113022
655.981461	16.115248
656.000000	14.279407
656.405493	16.123495
656.405493	16.060385
656.829501	16.131665
656.829501	16.005740
657.000000	14.402499
657.253486	16.138912
657.253486	15.954926
657.677448	15.901716
657.677448	16.143427
658.000000	14.530214
658.101386	15.849429
658.101386	16.147395
658.525301	15.797808
658.525301	16.148776
658.949192	15.743810
658.949192	16.147911
659.000000	14.659765
659.373060	15.685277
659.373060	16.144547
659.796904	15.624168
659.796904	16.138751
660.000000	14.789540
660.220725	15.559575
660.220725	16.130391
660.644522	15.489750
660.644522	16.119971
661.000000	14.931435
661.068296	15.418113
661.068296	16.107450
661.492046	15.344616
661.492046	16.093929
661.915772	16.080387
661.915772	15.272668
662.000000	15.068125
662.339475	16.066926
662.339475	15.202114
662.763154	16.055094
662.763154	15.138072
663.000000	15.187810
663.186810	16.045590
663.186810	15.080385
663.610442	16.037938
663.610442	15.027760
664.000000	15.314042
664.034050	16.035282
664.034050	14.983307
664.457635	16.037689
664.457635	14.948455
664.881196	14.925666
664.881196	16.046180
665.000000	15.429085
665.304733	16.060831
665.304733	14.914598
665.728247	14.915460
665.728247	16.083483
666.000000	15.538517
666.151736	16.113494
666.151736	14.927465
666.575202	15.161460
666.998644	16.195860
666.998644	14.983243
667.000000	15.657077
667.422062	16.247476
667.422062	15.028549
667.845457	15.080505
667.845457	16.304399
668.000000	15.776535
668.268827	15.141150
668.268827	16.366883
668.692174	15.209716
668.692174	16.433042
669.000000	15.903230
669.115496	16.502277
669.115496	15.283072
669.538795	15.360052
669.538795	16.572555
669.962070	15.439271
669.962070	16.645200
670.000000	16.027637
670.385321	15.516499
670.385321	16.717680
670.808547	16.789509
670.808547	15.593237
671.000000	16.156931
671.231750	16.858093
671.231750	15.665443
671.654929	15.731719
671.654929	16.924012
672.000000	16.291555
672.078084	15.793538
672.078084	16.987629
672.501214	17.046556
672.501214	15.848198
672.924321	17.102522
672.924321	15.898744
673.000000	16.384518
673.347404	15.943682
673.347404	17.155212
673.770462	15.986309
673.770462	17.204199
674.000000	16.489460
674.193496	17.249927
674.193496	16.022241
674.616506	17.292802
674.616506	16.056127
675.000000	16.602354
675.039492	17.331821
675.039492	16.086971
675.462454	16.116542
675.462454	17.368389
675.885391	17.401665
675.885391	16.144201
676.000000	16.707416
676.308305	16.168120
676.308305	17.433263
676.731194	16.194199
676.731194	17.464003
677.000000	16.836369
677.154058	17.492445
677.154058	16.220836
677.576899	16.249345
677.576899	17.519318
677.999715	16.278702
677.999715	17.544729
678.000000	16.942861
678.422507	16.307795
678.422507	17.568247
678.845274	17.590260
678.845274	16.337828
679.000000	17.045635
679.268017	17.612259
679.268017	16.368994
679.690736	17.631277
679.690736	16.402561
680.000000	17.158412
680.113430	17.648569
680.113430	16.434127
680.536100	17.663882
680.536100	16.468500
680.958746	16.504318
680.958746	17.678978
681.000000	17.277135
681.381367	16.541363
681.381367	17.691887
681.803963	17.703386
681.803963	16.575529
682.000000	17.386884
682.226535	17.713996
682.226535	16.609896
682.649083	16.645066
682.649083	17.724740
683.000000	17.508610
683.071605	17.735291
683.071605	16.681064
683.494104	16.717520
683.494104	17.745373
683.916578	16.753867
683.916578	17.756612
684.000000	17.616654
684.339027	16.792886
684.339027	17.769150
684.761451	17.782978
684.761451	16.831609
685.000000	17.729398
685.183851	17.797420
685.183851	16.868146
685.606227	16.908300
685.606227	17.813681
686.000000	17.855647
686.028577	17.829934
686.028577	16.944055
686.450903	17.847715
686.450903	16.978001
686.873204	17.865389
686.873204	17.008785
687.000000	17.950361
687.295481	17.038734
687.295481	17.883097
687.717733	17.062845
687.717733	17.900034
688.000000	18.034989
688.139959	17.916094
688.139959	17.080767
688.562162	17.094006
688.562162	17.930518
688.984339	17.102415
688.984339	17.943732
689.000000	18.149449
689.406492	17.106155
689.406492	17.954098
689.828619	17.960745
689.828619	17.102378
690.000000	18.265619
690.250722	17.964200
690.250722	17.094321
690.672800	17.963831
690.672800	17.080004
691.000000	18.373771
691.094853	17.959589
691.094853	17.062093
691.516881	17.953190
691.516881	17.041201
691.938884	17.942598
691.938884	17.020553
692.000000	18.478631
692.360863	16.998635
692.360863	17.926943
692.782816	16.978364
692.782816	17.910910
693.000000	18.585320
693.204744	17.892895
693.204744	16.963319
693.626647	17.874228
693.626647	16.949950
694.000000	18.685917
694.048526	16.945038
694.048526	17.855333
694.470379	16.944802
694.470379	17.838680
694.892207	16.952735
694.892207	17.824554
695.000000	18.787928
695.314010	16.968602
695.314010	17.814417
695.735788	16.993313
695.735788	17.809270
696.000000	18.885780
696.157540	17.809128
696.157540	17.022639
696.579268	17.059818
696.579268	17.816327
697.000000	18.979370
697.000970	17.830364
697.000970	17.103892
697.422648	17.153007
697.422648	17.851847
697.844300	17.205534
697.844300	17.879902
698.000000	19.083621
698.265926	17.916749
698.265926	17.263833
698.687528	17.324414
698.687528	17.961520
699.000000	19.187197
699.109104	18.013701
699.109104	17.386638
699.530655	18.070515
699.530655	17.451503
699.952181	17.519201
699.952181	18.135283
700.000000	19.293360
700.373681	18.204662
700.373681	17.587794
700.795156	18.278211
700.795156	17.659667
701.000000	19.400037
701.216606	17.736136
701.216606	18.355027
701.638030	18.434339
701.638030	17.810585
702.000000	19.487450
702.059429	18.514276
702.059429	17.884630
702.480803	17.960851
702.480803	18.594181
702.902151	18.035838
702.902151	18.672379
703.000000	19.580022
703.323473	18.748703
703.323473	18.107124
703.744770	18.820649
703.744770	18.173970
704.000000	19.672822
704.166042	18.888847
704.166042	18.234924
704.587288	18.952113
704.587288	18.293506
705.000000	19.769631
705.008509	18.346179
705.008509	19.010967
705.429704	18.395821
705.429704	19.065967
705.850873	19.114981
705.850873	18.438454
706.000000	19.882378
706.272017	19.158165
706.272017	18.472890
706.693135	19.196840
706.693135	18.506099
707.000000	19.977207
707.114228	18.764291
707.535295	18.551166
707.535295	19.259042
707.956336	19.283620
707.956336	18.568617
708.000000	20.064626
708.377352	18.581559
708.377352	19.303058
708.798342	18.594133
708.798342	19.317651
709.000000	20.156828
709.219306	19.329075
709.219306	18.602468
709.640245	18.610791
709.640245	19.338709
710.000000	20.239142
710.061157	19.345080
710.061157	18.618751
710.482044	19.348696
710.482044	18.623449
710.902905	19.351956
710.902905	18.631050
711.000000	20.334174
711.323741	18.640516
711.323741	19.353510
711.744550	19.354632
711.744550	18.650909
712.000000	20.439877
712.165334	18.670442
712.165334	19.356005
712.586092	18.689319
712.586092	19.359041
713.000000	20.549967
713.006823	19.361696
713.006823	18.713674
713.427529	19.366503
713.427529	18.742886
713.848209	19.372876
713.848209	18.775519
714.000000	20.648765
714.268863	19.381512
714.268863	18.810390
714.689492	18.851325
714.689492	19.392280
715.000000	20.731582
715.110094	18.896994
715.110094	19.406372
715.530670	18.945500
715.530670	19.423535
715.951220	19.000029
715.951220	19.445035
716.000000	20.833447
716.371744	19.058132
716.371744	19.469512
716.792242	19.122062
716.792242	19.499647
717.000000	20.918005
717.212714	19.192212
717.212714	19.532121
717.633159	19.568657
717.633159	19.265252
718.000000	20.978123
718.053579	19.609497
718.053579	19.342793
718.473973	19.421197
718.473973	19.651998
718.894340	19.505383
718.894340	19.697283
719.000000	21.055339
719.314681	19.744324
719.314681	19.594667
719.734996	19.790795
719.734996	19.683627
720.000000	21.149627
720.155285	19.774009
720.155285	19.837563
720.575547	19.882722
720.575547	19.864971
720.995784	19.957108
720.995784	19.925897
721.000000	21.238658
721.415994	20.050192
721.415994	19.966543
721.836177	20.003772
721.836177	20.138773
722.000000	21.345860
722.256335	20.231828
722.256335	20.035925
722.676466	20.321403
722.676466	20.060101
723.000000	21.447725
723.096570	20.079027
723.096570	20.410130
723.516649	20.501369
723.516649	20.091271
723.936701	20.593469
723.936701	20.096716
724.000000	21.534069
724.356726	20.092474
724.356726	20.681336
724.776725	20.080269
724.776725	20.769690
725.000000	21.613887
725.196698	20.854706
725.196698	20.059929
725.616644	20.031463
725.616644	20.945723
726.000000	21.699164
726.036564	21.034729
726.036564	19.995045
726.456457	21.125182
726.456457	19.951991
726.876324	21.216501
726.876324	19.904028
727.000000	21.773175
727.296164	21.310840
727.296164	19.850816
727.715977	19.794557
727.715977	21.409848
728.000000	21.855809
728.135764	19.735700
728.135764	21.509228
728.555525	21.610804
728.555525	19.675767
728.975258	19.614883
728.975258	21.711601
729.000000	21.939504
729.394966	21.812593
729.394966	19.556134
729.814646	19.499173
729.814646	21.912135
730.000000	22.019755
730.234300	22.008206
730.234300	19.446277
730.653927	22.102612
730.653927	19.397316
731.000000	22.104111
731.073527	19.352049
731.073527	22.190454
731.493101	22.272534
731.493101	19.314061
731.912648	22.348409
731.912648	19.281479
732.000000	22.198700
732.332168	22.416833
732.332168	19.257390
732.751661	19.241844
732.751661	22.475954
733.000000	22.282976
733.171128	22.529086
733.171128	19.234127
733.590568	22.573182
733.590568	19.234727
734.000000	22.348992
734.009980	19.243657
734.009980	22.608176
734.429366	19.260666
734.429366	22.637315
734.848726	22.657709
734.848726	19.285211
735.000000	22.428479
735.268058	22.674006
735.268058	19.316664
735.687363	22.684319
735.687363	19.355954
736.000000	22.528376
736.106641	19.400817
736.106641	22.689331
736.525893	22.687865
736.525893	19.450398
736.945117	19.503020
736.945117	22.682523
737.000000	22.614375
737.364314	19.560552
737.364314	22.680011
737.783485	22.676047
737.783485	19.620970
738.000000	22.687531
738.202628	19.683008
738.202628	22.672434
738.621744	19.746740
738.621744	22.668489
739.000000	22.774464
739.040834	22.664807
739.040834	19.810873
739.459896	22.665729
739.459896	19.874401
739.878931	22.669637
739.878931	19.935393
740.000000	22.848962
740.297939	22.673476
740.297939	19.993935
740.716919	20.049662
740.716919	22.676650
741.000000	22.911094
741.135873	22.686828
741.135873	20.101416
741.554799	20.148642
741.554799	22.696606
741.973698	20.191806
741.973698	22.711362
742.000000	23.007248
742.392570	20.229167
742.392570	22.727059
742.811415	22.748267
742.811415	20.261974
743.000000	23.100537
743.230232	20.287959
743.230232	22.768559
743.649022	20.310393
743.649022	22.790204
744.000000	23.166635
744.067785	20.327519
744.067785	22.813706
744.486521	22.843175
744.486521	20.338430
744.905229	22.875415
744.905229	20.345083
745.000000	23.259878
745.323909	20.346401
745.323909	22.906506
745.742563	22.940909
745.742563	20.343888
746.000000	23.351333
746.161189	22.977546
746.161189	20.338487
746.579787	20.331300
746.579787	23.019289
746.998358	20.321098
746.998358	23.064541
747.000000	23.420413
747.416902	20.308588
747.416902	23.111361
747.835418	20.295404
747.835418	23.162573
748.000000	23.506954
748.253907	20.282861
748.253907	23.215870
748.672368	20.269877
748.672368	23.270753
749.000000	23.583944
749.090802	23.328481
749.090802	20.258093
749.509208	23.388873
749.509208	20.247757
749.927586	20.240899
749.927586	23.450473
750.000000	23.649617
750.345937	20.236796
750.345937	23.512289
750.764261	23.575151
750.764261	20.235844
751.000000	23.708264
751.182556	20.239327
751.182556	23.636345
751.600824	20.246556
751.600824	23.695320
752.000000	23.783416
752.019065	23.756369
752.019065	20.258703
752.437277	20.275202
752.437277	23.814652
752.855462	20.297816
752.855462	23.872374
753.000000	23.839290
753.273620	23.928065
753.273620	20.324449
753.691749	20.354749
753.691749	23.984577
754.000000	23.927323
754.109851	24.033895
754.109851	20.389124
754.527925	24.082586
754.527925	20.426923
754.945971	20.467216
754.945971	24.127163
755.000000	24.036325
755.363989	20.510457
755.363989	24.170013
755.781980	24.211496
755.781980	20.554424
756.000000	24.086755
756.199943	24.250413
756.199943	20.600917
756.617877	20.645004
756.617877	24.288016
757.000000	24.125599
757.035784	20.688332
757.035784	24.328895
757.453663	20.730551
757.453663	24.365976
757.871514	20.768905
757.871514	24.398597
758.000000	24.196772
758.289337	20.803484
758.289337	24.436910
758.707132	20.831402
758.707132	24.472944
759.000000	24.323865
759.124899	20.851779
759.124899	24.508892
759.542639	24.546452
759.542639	20.864661
759.960350	24.581663
759.960350	20.869881
760.000000	24.390008
760.378033	24.615981
760.378033	20.867289
760.795688	24.647699
760.795688	20.853603
761.000000	24.445639
761.213314	20.831371
761.213314	24.679061
761.630913	20.800523
761.630913	24.712049
762.000000	24.531090
762.048484	24.746859
762.048484	20.760230
762.466026	20.711787
762.466026	24.784152
762.883541	24.821350
762.883541	20.653641
763.000000	24.593055
763.301027	24.854792
763.301027	20.586992
763.718485	24.892277
763.718485	20.514656
764.000000	24.685160
764.135914	20.435513
764.135914	24.932190
764.553316	24.976719
764.553316	20.350531
764.970689	20.262534
764.970689	25.024955
765.000000	24.753599
765.388034	20.170443
765.388034	25.070941
765.805351	25.119371
765.805351	20.075212
766.000000	24.789490
766.222639	25.170668
766.222639	19.980308
766.639899	25.220034
766.639899	19.883761
767.000000	24.866857
767.057131	25.273099
767.057131	19.788327
767.474334	25.326836
767.474334	19.695313
767.891509	25.380606
767.891509	19.606130
768.000000	24.955736
768.308655	19.521758
768.308655	25.435307
768.725773	19.442449
768.725773	25.482755
769.000000	25.082584
769.142863	25.533375
769.142863	19.370494
769.559924	25.578437
769.559924	19.305039
769.976957	25.618270
769.976957	19.247507
770.000000	25.126126
770.393961	25.654257
770.393961	19.196754
770.810936	19.155317
770.810936	25.687297
771.000000	25.197748
771.227883	19.120953
771.227883	25.709593
771.644802	25.730803
771.644802	19.096308
772.000000	25.280571
772.061692	25.742582
772.061692	19.081436
772.478553	25.746963
772.478553	19.073756
772.895386	25.748292
772.895386	19.075316
773.000000	25.343581
773.312190	25.742000
773.312190	19.086208
773.728965	25.734355
773.728965	19.109219
774.000000	25.415089
774.145712	25.719779
774.145712	19.140158
774.562430	25.701614
774.562430	19.179169
774.979119	25.677603
774.979119	19.227089
775.000000	25.469991
775.395780	25.650216
775.395780	19.281924
775.812411	19.345039
775.812411	25.623226
776.000000	25.521976
776.229014	19.415535
776.229014	25.596224
776.645589	25.567593
776.645589	19.490909
777.000000	25.616876
777.062134	25.544248
777.062134	19.572708
777.478651	25.520437
777.478651	19.657968
777.895138	19.745376
777.895138	25.494483
778.000000	25.659465
778.311597	19.836158
778.311597	25.476356
778.728027	19.927862
778.728027	25.459239
779.000000	25.712915
779.144428	20.021490
779.144428	25.450802
779.560800	20.114862
779.560800	25.445140
779.977143	20.207177
779.977143	25.442614
780.000000	25.798121
780.393458	25.442839
780.393458	20.296602
780.809743	25.447306
780.809743	20.383740
781.000000	25.837295
781.225999	20.465318
781.225999	25.457043
781.642226	20.542991
781.642226	25.473793
782.000000	25.908042
782.058425	25.490241
782.058425	20.612503
782.474594	25.508251
782.474594	20.675309
782.890734	25.526286
782.890734	20.730353
783.000000	25.944194
783.306845	25.546384
783.306845	20.778678
783.722926	20.817731
783.722926	25.567623
784.000000	26.011491
784.138979	20.848241
784.138979	25.593009
784.555003	25.617649
784.555003	20.869115
784.970997	20.880689
784.970997	25.645598
785.000000	26.128944
785.386962	20.884654
785.386962	25.672794
785.802898	20.878445
785.802898	25.697962
786.000000	26.148696
786.218805	25.725178
786.218805	20.863280
786.634682	20.839003
786.634682	25.751047
787.000000	26.246516
787.050531	25.780503
787.050531	20.807202
787.466349	20.768777
787.466349	25.806978
787.882139	20.723006
787.882139	25.834810
788.000000	26.337025
788.297899	20.673651
788.297899	25.863834
788.713630	20.621371
788.713630	25.891585
789.000000	26.353922
789.129332	25.920647
789.129332	20.565555
789.545004	20.508625
789.545004	25.951368
789.960647	25.975241
789.960647	20.449866
790.000000	26.404414
790.376260	20.393988
790.376260	25.999044
790.791844	20.339562
790.791844	26.021148
791.000000	26.495915
791.207399	26.035936
791.207399	20.286745
791.622924	26.049283
791.622924	20.238339
792.000000	26.561501
792.038419	26.054686
792.038419	20.192351
792.453885	26.054336
792.453885	20.153050
792.869321	20.118988
792.869321	26.049125
793.000000	26.595861
793.284728	20.092605
793.284728	26.037282
793.700106	26.017256
793.700106	20.071472
794.000000	26.664151
794.115453	20.058264
794.115453	25.992028
794.530771	20.049392
794.530771	25.956774
794.946060	25.917663
794.946060	20.048967
795.000000	26.696067
795.361319	25.870830
795.361319	20.053519
795.776548	25.819693
795.776548	20.063139
796.000000	26.733302
796.191747	20.076603
796.191747	25.764792
796.606917	25.702017
796.606917	20.093000
797.000000	26.821996
797.022057	25.642748
797.022057	20.113499
797.437167	20.135187
797.437167	25.576982
797.852248	25.514433
797.852248	20.158711
798.000000	26.896265
798.267298	20.181837
798.267298	25.450245
798.682319	20.206120
798.682319	25.388578
799.000000	27.010216
799.097310	20.228895
799.097310	25.329219
799.512271	20.247812
799.512271	25.270772
799.927203	25.209347
799.927203	20.264078
800.000000	27.029832
800.342104	20.277493
800.342104	25.153328
800.756976	25.099008
800.756976	20.286184
801.000000	27.091849
801.171818	25.044887
801.171818	20.289206
801.586629	20.286149
801.586629	24.995512
802.000000	27.177920
802.001411	20.277669
802.001411	24.947633
802.416163	24.898004
802.416163	20.262225
802.830885	24.853346
802.830885	20.243654
803.000000	27.280914
803.245577	24.804976
803.245577	20.217432
803.660238	20.185251
803.660238	24.760321
804.000000	27.308187
804.074870	20.148264
804.074870	24.718226
804.489472	24.673803
804.489472	20.105963
804.904043	20.058379
804.904043	24.633682
805.000000	27.332543
805.318585	24.596168
805.318585	20.004604
805.733096	19.946872
805.733096	24.562484
806.000000	27.389034
806.147577	19.883610
806.147577	24.532726
806.562028	19.816289
806.562028	24.504363
806.976449	19.744133
806.976449	24.477861
807.000000	27.458972
807.390840	24.457695
807.390840	19.669205
807.805200	19.589975
807.805200	24.440603
808.000000	27.442652
808.219530	19.509458
808.219530	24.431279
808.633830	19.427381
808.633830	24.432843
809.000000	27.568074
809.048100	24.434182
809.048100	19.343781
809.462339	19.260394
809.462339	24.442816
809.876548	24.456965
809.876548	19.177028
810.000000	27.647969
810.290727	24.479182
810.290727	19.095995
810.704875	24.503782
810.704875	19.014440
811.000000	27.693389
811.118993	24.530401
811.118993	18.934238
811.533080	18.856777
811.533080	24.563382
811.947137	18.781703
811.947137	24.596287
812.000000	27.769045
812.361164	18.711219
812.361164	24.632169
812.775160	18.643098
812.775160	24.670397
813.000000	27.858399
813.189126	18.579284
813.189126	24.707883
813.603061	18.520643
813.603061	24.746772
814.000000	27.871379
814.016966	18.467565
814.016966	24.783386
814.430840	18.418980
814.430840	24.813453
814.844684	18.377046
814.844684	24.843752
815.000000	27.910481
815.258497	18.341843
815.258497	24.868572
815.672280	24.886758
815.672280	18.310381
816.000000	27.986420
816.086032	24.901678
816.086032	18.286232
816.499753	24.911643
816.499753	18.269320
816.913444	24.911527
816.913444	18.258378
817.000000	27.990823
817.327104	24.910002
817.327104	18.253595
817.740733	24.897587
817.740733	18.254784
818.000000	28.069522
818.154331	18.262719
818.154331	24.880795
818.567899	18.276295
818.567899	24.855079
818.981436	18.295900
818.981436	24.823105
819.000000	28.083714
819.394943	24.789978
819.394943	18.321455
819.808418	18.353442
819.808418	24.749550
820.000000	28.202812
820.221863	18.388857
820.221863	24.702142
820.635277	18.430373
820.635277	24.653226
821.000000	28.256325
821.048660	18.474924
821.048660	24.601334
821.462013	24.539996
821.462013	18.523203
821.875334	18.575091
821.875334	24.483354
822.000000	28.222352
822.288625	24.422436
822.288625	18.628745
822.701884	18.684661
822.701884	24.361907
823.000000	28.321406
823.115113	18.740535
823.115113	24.302251
823.528311	24.239830
823.528311	18.797755
823.941478	24.186451
823.941478	18.854208
824.000000	28.343714
824.354614	24.128547
824.354614	18.908382
824.767718	18.960807
824.767718	24.078087
825.000000	28.445902
825.180792	19.007432
825.180792	24.025588
825.593835	23.977397
825.593835	19.051361
826.000000	28.561667
826.006847	23.934273
826.006847	19.088818
826.419827	19.120009
826.419827	23.886475
826.832777	23.843440
826.832777	19.144107
827.000000	28.569721
827.245695	19.160780
827.245695	23.801843
827.658582	19.167182
827.658582	23.753375
828.000000	28.545562
828.071438	19.164245
828.071438	23.706198
828.484263	19.150696
828.484263	23.653231
828.897057	23.598826
828.897057	19.127541
829.000000	28.639627
829.309819	19.094754
829.309819	23.535916
829.722551	23.472905
829.722551	19.052677
830.000000	28.701761
830.135251	23.400063
830.135251	19.000022
830.547919	18.937714
830.547919	23.322778
830.960557	23.238355
830.960557	18.866728
831.000000	28.724870
831.373163	23.157218
831.373163	18.787837
831.785738	23.067216
831.785738	18.700557
832.000000	28.709535
832.198281	18.608012
832.198281	22.970327
832.610793	18.509337
832.610793	22.874364
833.000000	28.856792
833.023274	22.898206
833.435723	18.302847
833.435723	22.683539
833.848141	18.198644
833.848141	22.591576
834.000000	28.810737
834.260528	22.500977
834.260528	18.092285
834.672883	22.412986
834.672883	17.986383
835.000000	28.927335
835.085206	22.330093
835.085206	17.883237
835.497498	22.242903
835.497498	17.780551
835.909758	17.682887
835.909758	22.160671
836.000000	28.925613
836.321987	17.587846
836.321987	22.083733
836.734185	22.008260
836.734185	17.499470
837.000000	29.019807
837.146350	17.416200
837.146350	21.935766
837.558485	21.863075
837.558485	17.340364
837.970587	17.271361
837.970587	21.795174
838.000000	29.041995
838.382658	17.208635
838.382658	21.727202
838.794697	17.153227
838.794697	21.657276
839.000000	29.116214
839.206705	21.692910
839.618681	21.526137
839.618681	17.064657
840.000000	29.101031
840.030625	17.032872
840.030625	21.466085
840.442538	21.403603
840.442538	17.008643
840.854418	16.991357
840.854418	21.344100
841.000000	29.272142
841.266267	16.982793
841.266267	21.290028
841.678084	16.982071
841.678084	21.237195
842.000000	29.306124
842.089870	21.186328
842.089870	16.986476
842.501623	16.995598
842.501623	21.143840
842.913345	21.102722
842.913345	17.010227
843.000000	29.235071
843.325035	21.068263
843.325035	17.029841
843.736693	21.041634
843.736693	17.054100
844.000000	29.312395
844.148319	21.013786
844.148319	17.081308
844.559913	20.994746
844.559913	17.112279
844.971475	17.143361
844.971475	20.983720
845.000000	29.401569
845.383005	17.176530
845.383005	20.979136
845.794504	20.972563
845.794504	17.207903
846.000000	29.416094
846.205970	20.975071
846.205970	17.241698
846.617404	20.974586
846.617404	17.271378
847.000000	29.546160
847.028806	17.299542
847.028806	20.978993
847.440176	17.326203
847.440176	20.984942
847.851514	17.349217
847.851514	20.992421
848.000000	29.502115
848.262820	17.369928
848.262820	21.000548
848.674094	17.385214
848.674094	21.002607
849.000000	29.629204
849.085336	21.001800
849.085336	17.396726
849.496546	20.995586
849.496546	17.402607
849.907723	20.988816
849.907723	17.402976
850.000000	29.816491
850.318868	17.396043
850.318868	20.969313
850.729981	17.383388
850.729981	20.943935
851.000000	29.660661
851.141062	20.915089
851.141062	17.367498
851.552110	17.344476
851.552110	20.878735
851.963127	20.838360
851.963127	17.315475
852.000000	29.559964
852.374111	20.787632
852.374111	17.283164
852.785062	17.241414
852.785062	20.722486
853.000000	29.695139
853.195982	20.660440
853.195982	17.194904
853.606869	20.588659
853.606869	17.143087
854.000000	29.661310
854.017723	17.087651
854.017723	20.510038
854.428546	20.426938
854.428546	17.025040
854.839336	20.345047
854.839336	16.958398
855.000000	29.798534
855.250093	16.888378
855.250093	20.254336
855.660818	16.815844
855.660818	20.164947
856.000000	29.874037
856.071511	20.075764
856.071511	16.739744
856.482171	19.979568
856.482171	16.658422
856.892799	19.886462
856.892799	16.574343
857.000000	29.937243
857.303394	19.799487
857.303394	16.488036
857.713956	16.399136
857.713956	19.709229
858.000000	29.869938
858.124486	16.340233
858.124486	19.661376
858.534984	19.572667
858.534984	16.249218
858.945449	19.485971
858.945449	16.155544
859.000000	30.020638
859.355881	19.402012
859.355881	16.060425
859.766280	15.966610
859.766280	19.320400
860.000000	29.649242
860.176647	15.870452
860.176647	19.235456
860.586982	19.155293
860.586982	15.775536
860.997283	15.680665
860.997283	19.076308
861.000000	30.264127
861.407552	15.586608
861.407552	19.001120
861.817789	18.924323
861.817789	15.493987
862.000000	30.021189
862.227992	18.848339
862.227992	15.402513
862.638163	18.767896
862.638163	15.314608
863.000000	29.810185
863.048301	18.695478
863.048301	15.229597
863.458406	18.619042
863.458406	15.146751
863.868478	15.066024
863.868478	18.541586
864.000000	29.807588
864.278518	18.466160
864.278518	14.990342
864.688524	14.918332
864.688524	18.387731
865.000000	29.531418
865.098498	18.306193
865.098498	14.848282
865.508439	18.225999
865.508439	14.784545
865.918347	18.140691
865.918347	14.725300
866.000000	29.630998
866.328222	18.057779
866.328222	14.671204
866.738064	17.971849
866.738064	14.621469
867.000000	30.119138
867.147873	17.889361
867.147873	14.579589
867.557649	17.800851
867.557649	14.541396
867.967392	14.509980
867.967392	17.712461
868.000000	30.230624
868.377102	14.482637
868.377102	17.625217
868.786779	14.461187
868.786779	17.537223
869.000000	30.022156
869.196423	14.447993
869.196423	17.451925
869.606034	17.366949
869.606034	14.439545
870.000000	30.262083
870.015612	17.279271
870.015612	14.436295
870.425156	14.438919
870.425156	17.196090
870.834668	17.113842
870.834668	14.443979
871.000000	30.167992
871.244146	14.457330
871.244146	17.044919
871.653591	14.473099
871.653591	16.974643
872.000000	30.031043
872.063003	14.492396
872.063003	16.907525
872.472382	14.514625
872.472382	16.846552
872.881728	16.795512
872.881728	14.541892
873.000000	30.299281
873.291040	16.747231
873.291040	14.570026
873.700319	16.707016
873.700319	14.598523
874.000000	29.918674
874.109564	14.630256
874.109564	16.675199
874.518777	16.649777
874.518777	14.661522
874.927956	16.629363
874.927956	14.692350
875.000000	30.426548
875.337102	16.618085
875.337102	14.722269
875.746214	16.604649
875.746214	14.749507
876.000000	30.437273
876.155293	16.602183
876.155293	14.777640
876.564338	14.801406
876.564338	16.599638
876.973350	14.822443
876.973350	16.592760
877.000000	30.509704
877.382329	14.840817
877.382329	16.588606
877.791274	14.855500
877.791274	16.588266
878.000000	30.480516
878.200186	16.581236
878.200186	14.867057
878.609064	14.874754
878.609064	16.574394
879.000000	30.079302
879.017909	16.554183
879.017909	14.877787
879.426720	16.530346
879.426720	14.874760
879.835497	14.865783
879.835497	16.497903
880.000000	30.018327
880.244241	14.853500
880.244241	16.459579
880.652952	16.410706
880.652952	14.837128
881.000000	30.634487
881.061629	16.354185
881.061629	14.818389
881.470272	16.287283
881.470272	14.793210
881.878881	14.762479
881.878881	16.216205
882.000000	30.630872
882.287457	16.133935
882.287457	14.728924
882.695999	16.040874
882.695999	14.688108
883.000000	30.471684
883.104507	14.645552
883.104507	15.947015
883.512982	14.600465
883.512982	15.850676
883.921423	15.746781
883.921423	14.550952
884.000000	30.883140
884.329830	14.501226
884.329830	15.637248
884.738203	14.448966
884.738203	15.529627
885.000000	30.672415
885.146543	15.420076
885.146543	14.396095
885.554849	15.309023
885.554849	14.339338
885.963120	14.282126
885.963120	15.204570
886.000000	30.588988
886.371358	14.228137
886.371358	15.100524
886.779563	14.995534
886.779563	14.170838
887.000000	30.688670
887.187733	14.895814
887.187733	14.114706
887.595869	14.804224
887.595869	14.059488
888.000000	30.561539
888.003971	14.004082
888.003971	14.710992
888.412040	14.623051
888.412040	13.953329
888.820074	13.902518
888.820074	14.540191
889.000000	30.705126
889.228074	13.856912
889.228074	14.460552
889.636041	14.386020
889.636041	13.812345
890.000000	30.704692
890.043973	13.770627
890.043973	14.315762
890.451871	13.734164
890.451871	14.248608
890.859736	14.189639
890.859736	13.700055
891.000000	30.851534
891.267566	14.130340
891.267566	13.668961
891.675362	14.075211
891.675362	13.642949
892.000000	30.654026
892.083124	14.026211
892.083124	13.619158
892.490851	13.599952
892.490851	13.977133
892.898545	13.928613
892.898545	13.583257
893.000000	30.290639
893.306204	13.567334
893.306204	13.884982
893.713829	13.553429
893.713829	13.845696
894.000000	30.630933
894.121420	13.544211
894.121420	13.809544
894.528977	13.774522
894.528977	13.536471
894.936499	13.531190
894.936499	13.740983
895.000000	30.813236
895.343987	13.530543
895.343987	13.713633
895.751441	13.830893
896.000000	30.869270
896.158860	13.526658
896.158860	13.655555
896.566246	13.631265
896.566246	13.525821
896.973596	13.522793
896.973596	13.613811
897.000000	31.040123
897.380913	13.595103
897.380913	13.522718
897.788195	13.579653
897.788195	13.518108
898.000000	30.980140
898.195442	13.515174
898.195442	13.571546
898.602655	13.510968
898.602655	13.561401
899.000000	30.996184
899.009834	13.502420
899.009834	13.554352
899.416978	13.493109
899.416978	13.547732
899.824088	13.544597
899.824088	13.480927
900.000000	31.245572
900.231163	13.469261
900.231163	13.534526
900.638204	13.534761
900.638204	13.455377
901.000000	31.252256
901.045210	13.531446
901.045210	13.435175
901.452181	13.412982
901.452181	13.526750
901.859118	13.385791
901.859118	13.518805
902.000000	31.235661
902.266021	13.517685
902.266021	13.359375
902.672888	13.328610
902.672888	13.506487
903.000000	30.839652
903.079721	13.294291
903.079721	13.493583
903.486520	13.482371
903.486520	13.254950
903.893283	13.213701
903.893283	13.467171
904.000000	30.927079
904.300012	13.168593
904.300012	13.453481
904.706707	13.431777
904.706707	13.122343
905.000000	31.035029
905.113366	13.072238
905.113366	13.410318
905.519991	13.387246
905.519991	13.020946
905.926581	13.357725
905.926581	12.969017
906.000000	31.249465
906.333136	13.322472
906.333136	12.912539
906.739656	12.853688
906.739656	13.279832
907.000000	30.871493
907.146142	13.234724
907.146142	12.793848
907.552592	12.732978
907.552592	13.195162
907.959008	12.669484
907.959008	13.148247
908.000000	31.044727
908.365389	12.606892
908.365389	13.101526
908.771735	13.054030
908.771735	12.541653
909.000000	31.043331
909.178046	13.131538
909.584322	12.414656
909.584322	12.945244
909.990563	12.347300
909.990563	12.891883
910.000000	31.269356
910.396769	12.283928
910.396769	12.838100
910.802940	12.217394
910.802940	12.775768
911.000000	31.209576
911.209076	12.152416
911.209076	12.712568
911.615177	12.087234
911.615177	12.649518
912.000000	31.188636
912.021243	12.023026
912.021243	12.586140
912.427274	11.960302
912.427274	12.519964
912.833270	12.459955
912.833270	11.897057
913.000000	31.610125
913.239231	12.391975
913.239231	11.834115
913.645156	11.773289
913.645156	12.328671
914.000000	31.744909
914.051046	11.712686
914.051046	12.263120
914.456902	12.199397
914.456902	11.654932
914.862721	11.596388
914.862721	12.139797
915.000000	31.235983
915.268506	11.539688
915.268506	12.082060
915.674256	12.020175
915.674256	11.484548
916.000000	31.358250
916.079970	11.957169
916.079970	11.432317
916.485649	11.897602
916.485649	11.381085
916.891292	11.329828
916.891292	11.834901
917.000000	30.947928
917.296901	11.775821
917.296901	11.281104
917.702474	11.712864
917.702474	11.232650
918.000000	31.216801
918.108011	11.187688
918.108011	11.660200
918.513514	11.605272
918.513514	11.141314
918.918980	11.098998
918.918980	11.551784
919.000000	31.355384
919.324412	11.502794
919.324412	11.058871
919.729808	11.453616
919.729808	11.019422
920.000000	31.422956
920.135169	11.401435
920.135169	10.981702
920.540494	11.357602
920.540494	10.948282
920.945783	10.916211
920.945783	11.316401
921.000000	31.479611
921.351037	10.885770
921.351037	11.273023
921.756256	11.229709
921.756256	10.858241
922.000000	31.126570
922.161439	11.194111
922.161439	10.831180
922.566586	10.808479
922.566586	11.156380
922.971698	10.786066
922.971698	11.119774
923.000000	31.168954
923.376775	11.090936
923.376775	10.766811
923.781815	10.749589
923.781815	11.062079
924.000000	31.226932
924.186820	10.733472
924.186820	11.037401
924.591790	11.012273
924.591790	10.720062
924.996723	10.707880
924.996723	10.993348
925.000000	31.518691
925.401621	10.696110
925.401621	10.968069
925.806484	10.958422
925.806484	10.687103
926.000000	31.815110
926.211310	10.678549
926.211310	10.948684
926.616101	10.673708
926.616101	10.943645
927.000000	32.041558
927.020856	10.667829
927.020856	10.941306
927.425575	10.659817
927.425575	10.935408
927.830259	10.935061
927.830259	10.655403
928.000000	31.522250
928.234906	10.649830
928.234906	10.942641
928.639518	10.951816
928.639518	10.646018
929.000000	31.430372
929.044094	10.962863
929.044094	10.642228
929.448634	10.982066
929.448634	10.640481
929.853138	11.000477
929.853138	10.635700
930.000000	31.588483
930.257606	11.023381
930.257606	10.632703
930.662038	10.628038
930.662038	11.040250
931.000000	31.850695
931.066434	10.624012
931.066434	11.065145
931.470795	11.092659
931.470795	10.619082
931.875119	11.125556
931.875119	10.615138
932.000000	31.664220
932.279407	10.612004
932.279407	11.159337
932.683659	10.606353
932.683659	11.193457
933.000000	31.677554
933.087875	10.597088
933.087875	11.223517
933.492055	10.588994
933.492055	11.255494
933.896199	10.579805
933.896199	11.287080
934.000000	31.999240
934.300307	10.566185
934.300307	11.314910
934.704379	11.338665
934.704379	10.554254
935.000000	31.927711
935.108414	10.538567
935.108414	11.365512
935.512414	11.390534
935.512414	10.523695
935.916377	11.406224
935.916377	10.506133
936.000000	31.798381
936.320304	11.419945
936.320304	10.484917
936.724195	11.430641
936.724195	10.463731
937.000000	31.746485
937.128049	10.440286
937.128049	11.441775
937.531867	10.415223
937.531867	11.447729
937.935649	10.388488
937.935649	11.461629
938.000000	31.575429
938.339395	11.458582
938.339395	10.360166
938.743104	10.329920
938.743104	11.448962
939.000000	32.034512
939.146777	11.532131
939.550414	11.426746
939.550414	10.265260
939.954014	11.411981
939.954014	10.234243
940.000000	31.834457
940.357578	11.388244
940.357578	10.197103
940.761105	11.363577
940.761105	10.161264
941.000000	32.156251
941.164596	11.336474
941.164596	10.121549
941.568050	10.081917
941.568050	11.302083
941.971468	10.039843
941.971468	11.263793
942.000000	31.824360
942.374850	11.223581
942.374850	9.998971
942.778195	11.180501
942.778195	9.957311
943.000000	31.610149
943.181503	9.913957
943.181503	11.138681
943.584775	11.100378
943.584775	9.872872
943.988010	9.828796
943.988010	11.055833
944.000000	31.763105
944.391209	11.007733
944.391209	9.783367
944.794371	11.044887
945.000000	32.233628
945.197496	9.692480
945.197496	10.923353
945.600585	9.648575
945.600585	10.884726
946.000000	32.401587
946.003637	9.602539
946.003637	10.839169
946.406653	10.795262
946.406653	9.557438
946.809632	10.758624
946.809632	9.512706
947.000000	32.173155
947.212574	10.723914
947.212574	9.467654
947.615479	10.686753
947.615479	9.423746
948.000000	31.857965
948.018347	9.377611
948.018347	10.651400
948.421179	9.336018
948.421179	10.623306
948.823974	10.602638
948.823974	9.295202
949.000000	32.088650
949.226732	10.572557
949.226732	9.254041
949.629453	9.213288
949.629453	10.548576
950.000000	31.979519
950.032138	10.527086
950.032138	9.175682
950.434785	9.137699
950.434785	10.500590
950.837396	10.474599
950.837396	9.101140
951.000000	32.024573
951.239969	9.065910
951.239969	10.457413
951.642506	9.029326
951.642506	10.433156
952.000000	31.859709
952.045006	10.416585
952.045006	8.994717
952.447469	10.398560
952.447469	8.960585
952.849895	10.388235
952.849895	8.928205
953.000000	31.760914
953.252283	8.897881
953.252283	10.373249
953.654635	8.868505
953.654635	10.360213
954.000000	31.817367
954.056950	10.346600
954.056950	8.838411
954.459227	8.810722
954.459227	10.329041
954.861468	8.784129
954.861468	10.313725
955.000000	31.982264
955.263671	8.757207
955.263671	10.310462
955.665838	10.297212
955.665838	8.732757
956.000000	31.981518
956.067967	10.287065
956.067967	8.709514
956.470059	10.278736
956.470059	8.686500
956.872114	10.266502
956.872114	8.663096
957.000000	31.853160
957.274131	8.640338
957.274131	10.254421
957.676112	10.240730
957.676112	8.619414
958.000000	31.879055
958.078055	10.224810
958.078055	8.602385
958.479961	10.213945
958.479961	8.583266
958.881829	8.562421
958.881829	10.208122
959.000000	31.941167
959.283661	10.199665
959.283661	8.543609
959.685455	10.182919
959.685455	8.524910
960.000000	32.007433
960.087211	8.509479
960.087211	10.174573
960.488931	10.157488
960.488931	8.493324
960.890613	10.137528
960.890613	8.475115
961.000000	31.977563
961.292257	8.455737
961.292257	10.119377
961.693864	8.440545
961.693864	10.099121
962.000000	31.919244
962.095434	10.074281
962.095434	8.421991
962.496966	8.400674
962.496966	10.048889
962.898461	10.026137
962.898461	8.383505
963.000000	32.242614
963.299918	8.365776
963.299918	9.997347
963.701338	9.971627
963.701338	8.348996
964.000000	32.486436
964.102720	8.331544
964.102720	9.952208
964.504065	9.927815
964.504065	8.317227
964.905372	9.901425
964.905372	8.298946
965.000000	32.183731
965.306641	8.281394
965.306641	9.874060
965.707873	8.262499
965.707873	9.844910
966.000000	32.065538
966.109068	9.812673
966.109068	8.245186
966.510224	8.233756
966.510224	9.782829
966.911343	8.216451
966.911343	9.761632
967.000000	31.979204
967.312425	9.731594
967.312425	8.201419
967.713468	8.186944
967.713468	9.696434
968.000000	32.029834
968.114474	8.169203
968.114474	9.676421
968.515442	8.150353
968.515442	9.645618
968.916373	9.617646
968.916373	8.135668
969.000000	32.376471
969.317265	8.122578
969.317265	9.595813
969.718120	8.107652
969.718120	9.572513
970.000000	32.304469
970.118937	8.092360
970.118937	9.536455
970.519716	8.073668
970.519716	9.511274
970.920458	9.482198
970.920458	8.059407
971.000000	32.260076
971.321161	8.049537
971.321161	9.444077
971.721827	9.409253
971.721827	8.035898
972.000000	32.139606
972.122454	8.023406
972.122454	9.384147
972.523044	8.009763
972.523044	9.346445
972.923596	9.316314
972.923596	8.001195
973.000000	32.011807
973.324110	9.287217
973.324110	7.992323
973.724585	7.982850
973.724585	9.249969
974.000000	31.954795
974.125023	7.970678
974.125023	9.226178
974.525423	7.961268
974.525423	9.201114
974.925785	9.169593
974.925785	7.957082
975.000000	32.013748
975.326108	7.951554
975.326108	9.148232
975.726394	7.939711
975.726394	9.128917
976.000000	32.175542
976.126642	9.109471
976.126642	7.931112
976.526851	9.082849
976.526851	7.925055
976.927022	7.916714
976.927022	9.056205
977.000000	32.289181
977.327155	7.916686
977.327155	9.035646
977.727250	7.912632
977.727250	9.014068
978.000000	32.224553
978.127307	8.988214
978.127307	7.907560
978.527325	7.910345
978.527325	8.975306
978.927306	8.958256
978.927306	7.900852
979.000000	32.336231
979.327248	8.942300
979.327248	7.901145
979.727151	7.896624
979.727151	8.940418
980.000000	32.647654
980.127017	8.919157
980.127017	7.896277
980.526844	8.897910
980.526844	7.892004
980.926633	8.879086
980.926633	7.891291
981.000000	32.589432
981.326383	7.888146
981.326383	8.863086
981.726095	7.886875
981.726095	8.841683
982.000000	32.534720
982.125769	8.820545
982.125769	7.887602
982.525404	7.887552
982.525404	8.807817
982.925001	7.885894
982.925001	8.794182
983.000000	32.632052
983.324560	8.783614
983.324560	7.884936
983.724079	7.878561
983.724079	8.777944
984.000000	32.403695
984.123561	8.768904
984.123561	7.881568
984.523004	8.756343
984.523004	7.886531
984.922408	7.887270
984.922408	8.747456
985.000000	32.234998
985.321774	7.883830
985.321774	8.741991
985.721102	8.733817
985.721102	7.879400
986.000000	32.294905
986.120390	7.879319
986.120390	8.734500
986.519641	8.718494
986.519641	7.882263
986.918852	7.881202
986.918852	8.714506
987.000000	32.361378
987.318025	7.889715
987.318025	8.718838
987.717159	7.884665
987.717159	8.714435
988.000000	32.381296
988.116255	7.898204
988.116255	8.703063
988.515312	8.696771
988.515312	7.908688
988.914330	7.914795
988.914330	8.687318
989.000000	32.109634
989.313310	8.692456
989.313310	7.918845
989.712250	7.921252
989.712250	8.688004
990.000000	32.091115
990.111152	7.942048
990.111152	8.701993
990.510015	7.954971
990.510015	8.700647
990.908840	8.694582
990.908840	7.966562
991.000000	32.451452
991.307625	7.980782
991.307625	8.704347
991.706372	7.989920
991.706372	8.692551
992.000000	32.556814
992.105080	8.681721
992.105080	8.007933
992.503749	8.692495
992.503749	8.016235
992.902379	8.693345
992.902379	8.037603
993.000000	32.621921
993.300970	8.684363
993.300970	8.067774
993.699522	8.094223
993.699522	8.684111
994.000000	32.550864
994.098035	8.113050
994.098035	8.684097
994.496510	8.677496
994.496510	8.137064
994.894945	8.672874
994.894945	8.161378
995.000000	32.598601
995.293341	8.186802
995.293341	8.646534
995.691698	8.221332
995.691698	8.650774
996.000000	32.509575
996.090016	8.258368
996.090016	8.641575
996.488296	8.648332
996.488296	8.288774
996.886535	8.331256
996.886535	8.640314
997.000000	32.288838
997.284736	8.360395
997.284736	8.630904
997.682898	8.397988
997.682898	8.651853
998.000000	32.322685
998.081021	8.655277
998.081021	8.440386
998.479104	8.483219
998.479104	8.645636
998.877148	8.537760
998.877148	8.645852
999.000000	32.647571
999.275153	8.598956
999.275153	8.670952
999.673119	8.626259
999.673119	8.667190
1000.000000	32.447070
1000.071046	8.658388
1000.071046	8.689058
1000.468933	8.681277
1000.468933	8.739126
1000.866781	8.692039
1000.866781	8.779317
1001.000000	32.298024
1001.264590	8.688938
1001.264590	8.840983
1001.662359	8.882728
1001.662359	8.696843
1002.000000	32.425984
1002.060089	8.947594
1002.060089	8.682596
1002.457780	8.661750
1002.457780	8.977521
1002.855431	9.037600
1002.855431	8.680004
1003.000000	32.360873
1003.253043	8.659194
1003.253043	9.077916
1003.650615	9.159160
1003.650615	8.664455
1004.000000	32.427510
1004.048148	9.228093
1004.048148	8.703640
1004.445642	9.287127
1004.445642	8.705703
1004.843096	9.373017
1004.843096	8.698716
1005.000000	32.706148
1005.240511	8.747038
1005.240511	9.457621
1005.637886	8.783482
1005.637886	9.494300
1006.000000	32.790790
1006.035221	9.577729
1006.035221	8.792102
1006.432517	9.678698
1006.432517	8.797640
1006.829774	8.843497
1006.829774	9.771688
1007.000000	32.962994
1007.226991	8.884030
1007.226991	9.855301
1007.624168	9.953586
1007.624168	8.954739
1008.000000	32.815159
1008.021306	8.994611
1008.021306	10.029503
1008.418404	9.038094
1008.418404	10.121555
1008.815462	10.221220
1008.815462	9.082576
1009.000000	32.399874
1009.212481	9.142275
1009.212481	10.291721
1009.609460	9.268824
1009.609460	10.422631
1010.000000	32.580997
1010.006399	9.337228
1010.006399	10.541866
1010.403298	10.654028
1010.403298	9.430033
1010.800158	10.812561
1010.800158	9.514994
1011.000000	32.655354
1011.196978	9.634929
1011.196978	10.914393
1011.593758	11.032199
1011.593758	9.730030
1011.990498	11.206704
1011.990498	9.837967
1012.000000	32.615027
1012.387199	9.966265
1012.387199	11.342485
1012.783860	10.131064
1012.783860	11.463011
1013.000000	32.811845
1013.180480	11.622838
1013.180480	10.293243
1013.577061	11.741924
1013.577061	10.535280
1013.973602	11.947870
1013.973602	10.711909
1014.000000	32.779358
1014.370103	12.108432
1014.370103	10.922818
1014.766564	12.241309
1014.766564	11.045732
1015.000000	32.802489
1015.162985	12.361042
1015.162985	11.158265
1015.559366	12.484637
1015.559366	11.349173
1015.955708	11.493568
1015.955708	12.554670
1016.000000	32.605639
1016.352009	11.600662
1016.352009	12.658395
1016.748270	11.729092
1016.748270	12.801658
1017.000000	32.452359
1017.144491	11.921439
1017.144491	12.898260
1017.540671	12.981218
1017.540671	12.047984
1017.936812	13.151358
1017.936812	12.226040
1018.000000	32.458685
1018.332913	12.451463
1018.332913	13.247865
1018.728973	13.341915
1018.728973	12.654677
1019.000000	32.509468
1019.124994	12.803989
1019.124994	13.445356
1019.520974	12.975067
1019.520974	13.622024
1019.916914	13.176772
1019.916914	13.751978
1020.000000	32.731838
1020.312814	13.414603
1020.312814	13.899933
1021.000000	32.875806
1022.000000	32.721899
1023.000000	32.992330
1024.000000	33.002755
1025.000000	32.744390
1026.000000	32.593330
1027.000000	32.617451
1028.000000	32.383911
1029.000000	32.583996
1030.000000	32.586614
1031.000000	32.492618
1032.000000	32.895029
1033.000000	32.842928
1034.000000	32.659476
1035.000000	32.673186
1036.000000	32.743628
1037.000000	32.766060
1038.000000	32.692862
1039.000000	32.866408
1040.000000	32.802287
1041.000000	32.627834
1042.000000	33.005130
1043.000000	32.836963
1044.000000	32.748610
1045.000000	33.004177
1046.000000	33.011017
1047.000000	32.956512
1048.000000	32.731462
1049.000000	32.577275
1050.000000	32.688341
1051.000000	32.522451
1052.000000	32.550048
1053.000000	32.641187
1054.000000	32.823883
1055.000000	32.970882
1056.000000	32.550097
1057.000000	32.492726
1058.000000	32.646446
1059.000000	32.933565
1060.000000	32.935863
1061.000000	32.744352
1062.000000	32.806847
1063.000000	32.576807
1064.000000	32.688636
1065.000000	33.085262
1066.000000	33.290068
1067.000000	32.920370
1068.000000	32.934588
1069.000000	32.924159
1070.000000	33.060699
1071.000000	32.865453
1072.000000	32.714795
1073.000000	32.861838
1074.000000	33.046468
1075.000000	32.782195
1076.000000	32.981547
1077.000000	32.619704
1078.000000	32.945586
1079.000000	33.258260
1080.000000	33.026391
1081.000000	32.850949
1082.000000	32.865203
1083.000000	32.558830
1084.000000	33.104792
1085.000000	32.979652
1086.000000	33.251905
1087.000000	33.179695
1088.000000	32.862965
1089.000000	32.954646
1090.000000	32.929411
1091.000000	32.941851
1092.000000	32.727849
1093.000000	33.276045
1094.000000	32.972351
1095.000000	33.362739
1096.000000	33.124106
1097.000000	33.156139
1098.000000	33.272200
1099.000000	32.903346
1100.000000	32.889016
1101.000000	32.801535
1102.000000	32.481723
1103.000000	32.907930
1104.000000	33.219064
1105.000000	32.678278
1106.000000	32.925807
1107.000000	32.870072
1108.000000	32.743319
1109.000000	33.242846
1110.000000	33.370495
1111.000000	32.914840
1112.000000	33.074391
1113.000000	32.944255
1114.000000	33.014158
1115.000000	33.384747
1116.000000	32.917737
1117.000000	33.026455
1118.000000	33.239113
1119.000000	32.872870
1120.000000	33.582137
1121.000000	32.875348
1122.000000	33.372378
1123.000000	33.234693
1124.000000	32.903598
1125.000000	33.658266
1126.000000	33.161297
1127.000000	33.105692
1128.000000	33.284591
1129.000000	32.991379
1130.000000	33.292161
1131.000000	33.172987
1132.000000	33.210811
1133.000000	32.963946
1134.000000	33.274249
1135.000000	33.102496
1136.000000	32.689156
1137.000000	33.119157
1138.000000	33.306283
1139.000000	32.752908
1140.000000	32.832289
1141.000000	33.620097
1142.000000	33.350244
1143.000000	32.752129
1144.000000	33.287494
1145.000000	32.549038
1146.000000	33.054390
1147.000000	32.625389
1148.000000	32.988849
1149.000000	33.061514
1150.000000	32.672540
1151.000000	33.059574
1152.000000	33.192936
1153.000000	32.637791
1154.000000	33.126360
1155.000000	32.924085
1156.000000	33.052690
1157.000000	32.789588
1158.000000	32.356283
1159.000000	32.835597
1160.000000	32.713578
1161.000000	33.031932
1162.000000	32.545700
1163.000000	32.458061
1164.000000	32.570346
1165.000000	32.200335
1166.000000	32.505566
1167.000000	32.781231
1168.000000	33.021762
1169.000000	32.903190
1170.000000	32.598032
1171.000000	32.727864
1172.000000	32.806433
1173.000000	32.906358
1174.000000	32.889013
1175.000000	32.759980
1176.000000	32.878515
1177.000000	32.914790
1178.000000	32.829228
1179.000000	32.980199
1180.000000	33.178930
1181.000000	32.665417
1182.000000	32.704432
1183.000000	32.605041
1184.000000	32.702563
1185.000000	32.626194
1186.000000	32.571120
1187.000000	32.792442
1188.000000	32.589134
1189.000000	32.658605
1190.000000	32.800768
1191.000000	33.079467
1192.000000	33.012480
1193.000000	32.550621
1194.000000	32.691306
1195.000000	32.752653
1196.000000	32.882288
1197.000000	32.759297
1198.000000	32.889294
1199.000000	32.791177
1200.000000	32.895094
1201.000000	32.872001
1202.000000	32.700305
1203.000000	33.106313
1204.000000	33.105671
1205.000000	32.684430
1206.000000	32.997053
1207.000000	32.859856
1208.000000	32.456402
1209.000000	32.714154
1210.000000	32.667430
1211.000000	32.673779
1212.000000	32.623358
1213.000000	32.539640
1214.000000	32.833116
1215.000000	32.897366
1216.000000	33.320559
1217.000000	32.793069
1218.000000	32.906766
1219.000000	32.941630
1220.000000	32.992051
1221.000000	33.027565
1222.000000	32.926960
1223.000000	33.051003
1224.000000	32.669090
1225.000000	32.844392
1226.000000	33.071317
1227.000000	33.121789
1228.000000	32.984894
1229.000000	32.899914
1230.000000	32.949014
1231.000000	33.035207
1232.000000	32.858013
1233.000000	32.636243
1234.000000	32.771193
1235.000000	32.819667
1236.000000	32.825706
1237.000000	32.848120
1238.000000	32.865730
1239.000000	32.882053
1240.000000	32.828152
1241.000000	32.918292
1242.000000	33.205577
1243.000000	33.005864
1244.000000	32.914262
1245.000000	33.071187
1246.000000	32.878503
1247.000000	32.620432
1248.000000	33.057443
1249.000000	33.206452
1250.000000	33.085708
1251.000000	33.362399
1252.000000	33.267660
1253.000000	33.117995
1254.000000	33.249828
1255.000000	33.255745
1256.000000	32.954595
1257.000000	32.897837
1258.000000	32.986791
1259.000000	32.970456
1260.000000	33.031807
1261.000000	32.749434
1262.000000	32.711510
1263.000000	33.069242
1264.000000	33.153937
1265.000000	32.975884
1266.000000	32.787076
1267.000000	32.719907
1268.000000	32.776349
1269.000000	32.931410
1270.000000	33.120334
1271.000000	32.967981
1272.000000	32.765466
1273.000000	32.769107
1274.000000	32.894687
1275.000000	32.748251
1276.000000	32.781963
1277.000000	32.935720
1278.000000	32.921036
1279.000000	32.779105
1280.000000	32.715607
1281.000000	32.737634
1282.000000	32.971331
1283.000000	33.273803
1284.000000	33.367190
1285.000000	33.161988
1286.000000	32.826774
1287.000000	32.800310
1288.000000	32.765484
1289.000000	32.978284
1290.000000	33.336986
1291.000000	33.282941
1292.000000	33.111371
1293.000000	33.129727
1294.000000	32.951101
1295.000000	32.897599
1296.000000	33.014729
1297.000000	32.894883
1298.000000	33.079834
1299.000000	32.943932
1300.000000	32.671482
1301.000000	32.969314
1302.000000	33.074902
1303.000000	33.099809
1304.000000	33.237188
1305.000000	33.008721
1306.000000	33.067666
1307.000000	33.218868
1308.000000	32.810542
1309.000000	32.755859
1310.000000	32.825329
1311.000000	33.022392
1312.000000	33.131304
1313.000000	33.083688
1314.000000	33.259123
1315.000000	33.341678
1316.000000	33.015421
1317.000000	33.028245
1318.000000	33.043049
1319.000000	32.986036
1320.000000	33.180708
1321.000000	33.012103
1322.000000	32.718396
1323.000000	32.520082
1324.000000	32.757976
1325.000000	33.005594
1326.000000	32.957904
1327.000000	33.170486
1328.000000	32.795731
1329.000000	32.954274
1330.000000	33.124810
1331.000000	33.029785
1332.000000	33.056385
1333.000000	33.518695
1334.000000	33.335130
1335.000000	32.890980
1336.000000	33.082812
1337.000000	32.858325
1338.000000	33.027911
1339.000000	32.939441
1340.000000	32.844708
1341.000000	32.713004
1342.000000	33.018492
1343.000000	33.287281
1344.000000	32.971193
1345.000000	32.839286
1346.000000	32.906901
1347.000000	32.822422
1348.000000	32.711926
1349.000000	32.381617
1350.000000	32.464877
1351.000000	33.201566
1352.000000	32.061594
1353.000000	32.902723
1354.000000	33.830341
1355.000000	35.398175
1356.000000	32.533443
1357.000000	32.897584
1358.000000	32.217283
1359.000000	33.037596
1360.000000	33.574601
1361.000000	33.379645
1362.000000	31.182373
1363.000000	31.954550
1364.000000	33.840663
1365.000000	30.977380
1366.000000	32.235171
1367.000000	34.842272
1368.000000	33.861021
1369.000000	32.429217
1370.000000	32.204639
1371.000000	32.311066
1372.000000	32.418242
1373.000000	32.367614
1374.000000	32.991802
1375.000000	32.791406
1376.000000	32.665547
1377.000000	32.024591
1378.000000	33.923854
1379.000000	32.111565
1380.000000	36.401676
1381.000000	33.491035
1382.000000	35.922379
1383.000000	33.759549
1384.000000	32.276632
1385.000000	32.932708
1386.000000	32.055706
1387.000000	32.612250
1388.000000	31.396023
1389.000000	32.695596
1390.000000	32.953728
1391.000000	32.928424
1392.000000	31.296094
1393.000000	32.005779
1394.000000	32.299810
1395.000000	33.012109
1396.000000	30.632920
1397.000000	31.959623
1398.000000	32.211779
1399.000000	32.952706
1400.000000	34.586412
1401.000000	31.996780
1402.000000	31.757842
1403.000000	31.812248
1404.000000	31.185417
1405.000000	31.277751
1406.000000	32.000855
1407.000000	31.592080
1408.000000	31.586698
1409.000000	32.787006
1410.000000	31.523348
1411.000000	31.075021
1412.000000	31.372561
1413.000000	31.278919
1414.000000	31.794357
1415.000000	31.395627
1416.000000	31.330956
1417.000000	31.428855
1418.000000	31.032215
1419.000000	31.350989
1420.000000	31.341080
1421.000000	30.852440
1422.000000	31.320292
1423.000000	31.025342
1424.000000	30.914728
1425.000000	31.269398
1426.000000	30.788408
1427.000000	30.999620
1428.000000	30.803478
1429.000000	30.876199
1430.000000	30.897806
1431.000000	31.177558
1432.000000	31.368384
1433.000000	30.856924
1434.000000	30.546468
1435.000000	30.476976
1436.000000	30.444372
1437.000000	30.765482
1438.000000	31.362497
1439.000000	31.755917
1440.000000	30.959230
1441.000000	31.635097
1442.000000	30.416946
1443.000000	30.301310
1444.000000	30.534092
1445.000000	30.456165
1446.000000	30.166753
1447.000000	30.279213
1448.000000	30.580120
1449.000000	30.711350
1450.000000	30.938272
1451.000000	30.649560
1452.000000	30.511041
1453.000000	30.291061
1454.000000	30.459991
1455.000000	30.321755
1456.000000	30.816991
1457.000000	30.425617
1458.000000	30.851880
1459.000000	30.555254
1460.000000	30.355377
1461.000000	30.684033
1462.000000	30.532318
1463.000000	30.490641
1464.000000	30.390225
1465.000000	30.249876
1466.000000	30.018089
1467.000000	29.791731
1468.000000	30.312821
1469.000000	30.551829
1470.000000	30.339451
1471.000000	30.397154
1472.000000	30.269765
1473.000000	29.939937
1474.000000	30.466953
1475.000000	30.139772
1476.000000	29.597135
1477.000000	29.743584
1478.000000	29.858087
1479.000000	30.200532
1480.000000	30.378249
1481.000000	30.231027
1482.000000	29.899026
1483.000000	30.272791
1484.000000	30.022502
1485.000000	30.002275
1486.000000	30.044661
1487.000000	30.195676
1488.000000	30.208365
1489.000000	30.300737
1490.000000	30.063976
1491.000000	30.062213
1492.000000	30.178205
1493.000000	29.878249
1494.000000	29.926795
1495.000000	30.294898
1496.000000	30.415956
1497.000000	30.088351
1498.000000	29.747763
1499.000000	30.222917
1500.000000	30.117637
1501.000000	29.802865
1502.000000	30.049083
1503.000000	30.158122
1504.000000	30.145303
1505.000000	30.221240
1506.000000	30.391866
1507.000000	30.099698
1508.000000	29.891753
1509.000000	29.993591
1510.000000	30.229551
1511.000000	30.007482
1512.000000	30.181357
1513.000000	30.300640
1514.000000	30.316616
1515.000000	30.491061
1516.000000	30.466224
1517.000000	30.260411
1518.000000	30.564738
1519.000000	30.627629
1520.000000	30.702787
1521.000000	30.636142
1522.000000	30.654850
1523.000000	30.710086
1524.000000	30.708217
1525.000000	30.632426
1526.000000	30.721525
1527.000000	30.792811
1528.000000	30.596803
1529.000000	30.643351
1530.000000	30.727181
1531.000000	30.729539
1532.000000	30.450741
1533.000000	30.415934
1534.000000	30.769057
1535.000000	30.567149
1536.000000	30.367741
1537.000000	30.443904
1538.000000	30.491483
1539.000000	30.527237
1540.000000	30.462508
1541.000000	30.736546
1542.000000	30.921652
1543.000000	30.913690
1544.000000	30.974950
1545.000000	30.725511
1546.000000	30.487617
1547.000000	30.974789
1548.000000	31.040851
1549.000000	30.855956
1550.000000	30.812175
1551.000000	30.872673
1552.000000	31.135721
1553.000000	30.886255
1554.000000	30.826815
1555.000000	30.941073
1556.000000	31.025194
1557.000000	31.198661
1558.000000	31.056432
1559.000000	31.223779
1560.000000	30.809985
1561.000000	30.719803
1562.000000	30.837863
1563.000000	31.029094
1564.000000	31.038100
1565.000000	30.599253
1566.000000	31.011174
1567.000000	31.027116
1568.000000	30.841891
1569.000000	30.904357
1570.000000	30.806614
1571.000000	30.743095
1572.000000	30.894603
1573.000000	31.080386
1574.000000	30.840376
1575.000000	30.441085
1576.000000	30.410837
1577.000000	30.481763
1578.000000	30.609523
1579.000000	30.882154
1580.000000	30.745380
1581.000000	30.922980
1582.000000	31.050403
1583.000000	31.102374
1584.000000	30.691435
1585.000000	30.918911
1586.000000	31.129941
1587.000000	31.017059
1588.000000	31.117830
1589.000000	30.708056
1590.000000	31.096892
1591.000000	31.272860
1592.000000	30.972405
1593.000000	31.068214
1594.000000	31.150535
1595.000000	31.198175
1596.000000	31.036842
1597.000000	31.028834
1598.000000	31.328986
1599.000000	30.828306
1600.000000	31.142318
1601.000000	31.410226
1602.000000	31.452991
1603.000000	31.179696
1604.000000	30.725235
1605.000000	30.999625
1606.000000	31.156072
1607.000000	30.972502
1608.000000	30.899934
1609.000000	30.795167
1610.000000	31.306726
1611.000000	31.151462
1612.000000	30.986213
1613.000000	31.185626
1614.000000	31.173079
1615.000000	31.574622
1616.000000	30.827973
1617.000000	31.175280
1618.000000	30.942393
1619.000000	31.530403
1620.000000	31.265345
1621.000000	31.281595
1622.000000	31.234180
1623.000000	31.418909
1624.000000	30.945526
1625.000000	31.004966
1626.000000	30.832374
1627.000000	30.887506
1628.000000	30.923785
1629.000000	31.111717
1630.000000	30.828002
1631.000000	31.004526
1632.000000	31.160455
1633.000000	31.134409
1634.000000	31.332087
1635.000000	31.300539
1636.000000	31.429306
1637.000000	31.095512
1638.000000	31.041876
1639.000000	31.187247
1640.000000	30.883343
1641.000000	31.187765
1642.000000	31.534035
1643.000000	31.451727
1644.000000	31.480897
1645.000000	31.318114
1646.000000	31.076340
1647.000000	31.149307
1648.000000	31.486630
1649.000000	31.092823
1650.000000	31.497281
1651.000000	31.187621
1652.000000	31.702344
1653.000000	31.434301
1654.000000	31.456817
1655.000000	31.144832
1656.000000	31.331552
1657.000000	31.147086
1658.000000	31.668502
1659.000000	31.747744
1660.000000	30.872113
1661.000000	31.204857
1662.000000	30.883996
1663.000000	31.191087
1664.000000	30.989814
1665.000000	31.142084
1666.000000	31.000507
1667.000000	30.974559
1668.000000	30.729365
1669.000000	31.067981
1670.000000	31.416232
1671.000000	30.576800
1672.000000	30.829102
1673.000000	31.077620
1674.000000	30.862896
1675.000000	31.168539
1676.000000	31.136030
1677.000000	30.367686
1678.000000	31.183331
1679.000000	30.696241
1680.000000	30.454463
1681.000000	30.347244
1682.000000	30.531730
1683.000000	30.591660
1684.000000	30.768514
1685.000000	30.826407
1686.000000	30.343152
1687.000000	30.092532
1688.000000	30.494503
1689.000000	30.482554
1690.000000	30.928225
1691.000000	30.907476
1692.000000	30.945946
1693.000000	30.604093
1694.000000	30.448603
1695.000000	30.411364
1696.000000	30.678281
1697.000000	30.809779
1698.000000	31.263100
1699.000000	30.554894
1700.000000	30.497664
1701.000000	30.514023
1702.000000	30.851162
1703.000000	30.798978
1704.000000	30.693606
1705.000000	30.490778
1706.000000	30.698760
1707.000000	30.553068
1708.000000	30.297993
1709.000000	30.556040
1710.000000	30.492227
1711.000000	30.564422
1712.000000	30.483324
1713.000000	30.797330
1714.000000	30.614870
1715.000000	30.606750
1716.000000	30.251483
1717.000000	30.580552
1718.000000	30.385303
1719.000000	30.155431
1720.000000	30.117738
1721.000000	30.305525
1722.000000	29.927051
1723.000000	30.401592
1724.000000	30.216860
1725.000000	30.322326
1726.000000	29.991767
1727.000000	30.040991
1728.000000	29.930128
1729.000000	30.027663
1730.000000	30.292948
1731.000000	30.323470
1732.000000	30.120332
1733.000000	30.334679
1734.000000	30.542202
1735.000000	30.340741
1736.000000	30.212087
1737.000000	30.005055
1738.000000	30.372969
1739.000000	30.374973
1740.000000	30.209124
1741.000000	30.099132
1742.000000	30.369014
1743.000000	30.255492
1744.000000	30.154850
1745.000000	29.805277
1746.000000	30.163572
1747.000000	30.266303
1748.000000	30.460695
1749.000000	30.329691
1750.000000	30.713660
1751.000000	30.543673
1752.000000	30.544491
1753.000000	30.496268
1754.000000	30.090855
1755.000000	30.282087
1756.000000	30.369084
1757.000000	30.719130
1758.000000	30.315575
1759.000000	30.419226
1760.000000	30.794770
1761.000000	30.772749
1762.000000	30.374991
1763.000000	30.303578
1764.000000	30.485822
1765.000000	30.640404
1766.000000	30.520854
1767.000000	30.502294
1768.000000	30.319717
1769.000000	30.534663
1770.000000	30.788098
1771.000000	30.314295
1772.000000	30.396148
1773.000000	30.565971
1774.000000	30.866031
1775.000000	30.887889
1776.000000	30.762645
1777.000000	30.594675
1778.000000	30.689107
1779.000000	30.530643
1780.000000	30.410032
1781.000000	30.526282
1782.000000	30.587869
1783.000000	30.518610
1784.000000	30.754181
1785.000000	30.791640
1786.000000	30.661393
1787.000000	30.768781
1788.000000	30.787027
1789.000000	30.587591
1790.000000	30.713803
1791.000000	30.665174
1792.000000	30.334692
1793.000000	30.020122
1794.000000	30.211875
1795.000000	30.638783
1796.000000	30.812205
1797.000000	30.787937
1798.000000	30.757030
1799.000000	31.021302
1800.000000	31.219999
1801.000000	31.009709
1802.000000	30.680759
1803.000000	30.396198
1804.000000	30.537472
1805.000000	30.905134
1806.000000	30.829421
1807.000000	30.586965
1808.000000	30.576948
1809.000000	30.676797
1810.000000	31.101407
1811.000000	31.315025
1812.000000	30.940729
1813.000000	30.709973
1814.000000	30.922587
1815.000000	30.699932
1816.000000	30.925218
1817.000000	31.808598
1818.000000	30.782917
1819.000000	31.043055
1820.000000	30.752353
1821.000000	30.255403
1822.000000	30.480399
1823.000000	30.709496
1824.000000	30.528692
1825.000000	31.395477
1826.000000	31.093339
1827.000000	30.794582
1828.000000	30.503131
1829.000000	30.779499
1830.000000	32.094024
1831.000000	31.332388
1832.000000	30.348137
1833.000000	30.679827
1834.000000	31.154237
1835.000000	30.758918
1836.000000	30.252143
1837.000000	30.231714
1838.000000	30.132662
1839.000000	30.119172
1840.000000	30.403804
1841.000000	31.379673
1842.000000	30.834574
1843.000000	30.599792
1844.000000	31.097256
1845.000000	30.614665
1846.000000	30.980274
1847.000000	31.734025
1848.000000	30.955073
1849.000000	30.734399
1850.000000	30.378010
1851.000000	30.522364
1852.000000	31.091416
1853.000000	31.860933
1854.000000	31.306338
1855.000000	30.932025
1856.000000	30.044675
1857.000000	29.753257
1858.000000	30.033800
1859.000000	30.645644
1860.000000	30.399193
1861.000000	30.613322
1862.000000	31.012611
1863.000000	31.402019
1864.000000	30.927064
1865.000000	31.148533
1866.000000	30.377573
1867.000000	29.907936
1868.000000	30.251330
1869.000000	31.379457
1870.000000	33.482549
1871.000000	31.122092
1872.000000	31.467762
1873.000000	30.621761
1874.000000	30.700840
1875.000000	30.267945
1876.000000	31.246966
1877.000000	30.564484
1878.000000	30.570744
1879.000000	30.272319
1880.000000	30.524226
1881.000000	30.042995
1882.000000	30.213310
1883.000000	30.686602
1884.000000	29.593977
1885.000000	29.138437
1886.000000	30.261772
1887.000000	29.737942
1888.000000	29.590664
1889.000000	29.828027
1890.000000	29.196627
1891.000000	29.271170
1892.000000	29.128988
1893.000000	29.513793
1894.000000	29.017145
1895.000000	28.250820
1896.000000	28.455263
1897.000000	28.362820
1898.000000	28.521463
1899.000000	28.402351
1900.000000	28.061885
1901.000000	27.963040
1902.000000	29.106596
1903.000000	27.693858
1904.000000	27.476945
1905.000000	26.987859
1906.000000	27.919420
1907.000000	26.713457
1908.000000	27.187650
1909.000000	26.610697
1910.000000	26.218685
1911.000000	25.709503
1912.000000	26.029680
1913.000000	26.644124
1914.000000	26.389375
1915.000000	25.522601
1916.000000	24.716297
1917.000000	25.194961
1918.000000	25.356870
1919.000000	26.556776
1920.000000	26.022032
1921.000000	25.693280
1922.000000	25.635996
1923.000000	25.842514
1924.000000	25.686184
1925.000000	25.494908
1926.000000	25.495634
1927.000000	25.142908
1928.000000	25.659754
1929.000000	25.407484
1930.000000	25.793435
1931.000000	25.891728
1932.000000	25.447007
1933.000000	25.540146
1934.000000	25.047300
1935.000000	25.600109
1936.000000	25.529655
1937.000000	25.648175
1938.000000	24.710344
1939.000000	25.218181
1940.000000	24.869735
1941.000000	25.721538
1942.000000	25.681808
1943.000000	25.580396
1944.000000	25.427693
1945.000000	25.407217
1946.000000	25.704252
1947.000000	25.976883
1948.000000	25.469854
1949.000000	25.581977
1950.000000	25.475414
1951.000000	25.208082
1952.000000	25.513642
1953.000000	26.086318
1954.000000	25.693778
1955.000000	25.900419
1956.000000	26.107477
1957.000000	25.833784
1958.000000	26.105455
1959.000000	26.375062
1960.000000	26.435838
1961.000000	26.159625
1962.000000	26.483936
1963.000000	26.119141
1964.000000	25.987132
1965.000000	26.237882
1966.000000	26.051186
1967.000000	26.744848
1968.000000	26.094930
1969.000000	26.535982
1970.000000	26.470685
1971.000000	26.766209
1972.000000	26.769871
1973.000000	27.012960
1974.000000	26.772887
1975.000000	26.924852
1976.000000	26.474123
1977.000000	26.451719
1978.000000	26.718536
1979.000000	26.769111
1980.000000	26.577095
1981.000000	26.701188
1982.000000	26.628024
1983.000000	26.662996
1984.000000	26.987906
1985.000000	27.073877
1986.000000	26.753002
1987.000000	27.386988
1988.000000	27.090753
1989.000000	27.153236
1990.000000	27.231009
1991.000000	27.238896
1992.000000	27.002117
1993.000000	27.270570
1994.000000	27.280957
1995.000000	27.354490
1996.000000	27.194771
1997.000000	27.185157
1998.000000	27.042951
1999.000000	26.981609
