PE UV       SUBTECH     SPECTRUM    ASCII       PEDS        4.00        
   -1
3-PTENOMELA GRATIOSA 03610.ASC
23/11/20
15:42:47.00
23/11/20
15:42:47.00
Vinicio Soto Monge

250,000000
1
Lambda 1050
1050L1511233
PerkinElmer UV WinLab 6.3.2.0749 / 2.02.05 Lambda 900 UV/VIS/NIR, Aug  7 2015 09:38:08

0
0
3350/servo 860,8/2
0
0
UV/VIS
1
1
1
DoubleDePol,CommonBeamDepol,RBeamAtt,SBeamAtt,60mm sphere, WB InGaAs Detector
0
0
0
0
Program
Program
3350/servo 860,8/2
3350/0,4 860,8/0,4
3350/0,4 860,8/0,4
0
20.00
 
 
 
0
 
860,8
319,2
860,8
Front
100
on
S:100 R:100
0
0
0
0
 
0
 
 
 
0
 
 
0
0
0
0
0
 
 
 
 
0
0


0
0
#HDR
-1
-1
#GR
nm
%R
1.0
0.0
2200,000000
-1,000000
1951
8
103,552663
5,255036
#DATA
284.000000	6.654826
285.000000	6.632115
286.000000	6.608724
287.000000	6.589816
288.000000	6.573098
289.000000	6.556243
290.000000	6.540720
291.000000	6.527549
292.000000	6.514045
293.000000	6.503006
294.000000	6.492050
295.000000	6.482213
296.000000	6.472571
297.000000	6.463948
298.000000	6.457467
299.000000	6.450287
300.000000	6.444317
301.000000	6.438441
302.000000	6.434819
303.000000	6.429726
304.000000	6.427265
305.000000	6.424936
306.000000	6.421895
307.000000	6.419119
308.000000	6.417579
309.000000	6.415155
310.000000	6.413004
311.000000	6.410824
312.000000	6.405709
313.000000	6.400893
314.000000	6.397874
315.000000	6.395308
316.000000	6.392167
317.000000	6.390256
318.000000	6.387751
319.000000	6.381599
320.000000	6.380312
321.000000	6.379151
322.000000	6.376671
323.000000	6.368262
324.000000	6.363322
325.000000	6.354535
326.000000	6.344670
327.000000	6.336980
328.000000	6.327596
329.000000	6.317436
330.000000	6.307964
331.000000	6.298287
332.000000	6.286296
333.000000	6.273258
334.000000	6.261398
335.000000	6.248455
336.000000	6.235648
337.000000	6.223866
338.000000	6.213610
339.000000	6.197417
340.000000	6.181184
341.000000	6.167720
342.000000	6.153906
343.000000	6.139617
344.000000	6.126373
345.000000	6.112516
346.000000	6.098555
347.000000	6.086018
348.000000	6.074626
349.000000	6.062633
350.000000	6.051549
351.000000	6.039014
352.000000	6.023588
353.000000	6.011368
354.000000	6.002044
355.000000	5.988467
356.000000	5.975811
357.000000	5.962001
358.000000	5.954671
359.000000	5.944518
360.000000	5.936255
361.000000	5.926582
362.000000	5.915908
363.000000	5.906350
364.000000	5.895963
365.000000	5.884655
366.000000	5.874963
367.000000	5.866621
368.000000	5.857940
369.000000	5.848037
370.000000	5.838679
371.000000	5.829183
372.000000	5.820574
373.000000	5.811000
374.000000	5.804609
375.000000	5.798345
376.000000	5.788358
377.000000	5.778865
378.000000	5.768197
379.000000	5.758391
380.000000	5.748704
381.000000	5.738541
382.000000	5.728078
383.000000	5.717632
384.000000	5.706164
385.000000	5.692956
386.000000	5.681255
387.000000	5.670967
388.000000	5.659614
389.000000	5.648345
390.000000	5.636691
391.000000	5.625429
392.000000	5.613863
393.000000	5.601015
394.000000	5.589073
395.000000	5.577958
396.000000	5.567585
397.000000	5.557008
398.000000	5.545560
399.000000	5.535245
400.000000	5.525692
401.000000	5.515675
402.000000	5.505634
403.000000	5.495773
404.000000	5.486874
405.000000	5.478281
406.000000	5.469042
407.000000	5.457741
408.000000	5.447376
409.000000	5.438215
410.000000	5.429911
411.000000	5.422862
412.000000	5.416004
413.000000	5.409266
414.000000	5.402334
415.000000	5.395825
416.000000	5.390123
417.000000	5.384558
418.000000	5.378946
419.000000	5.373726
420.000000	5.368981
421.000000	5.364239
422.000000	5.359668
423.000000	5.355160
424.000000	5.350758
425.000000	5.346310
426.000000	5.341769
427.000000	5.337646
428.000000	5.333712
429.000000	5.330365
430.000000	5.326787
431.000000	5.323628
432.000000	5.320717
433.000000	5.317992
434.000000	5.315743
435.000000	5.312996
436.000000	5.310391
437.000000	5.308032
438.000000	5.305904
439.000000	5.303985
440.000000	5.301941
441.000000	5.300035
442.000000	5.298375
443.000000	5.296813
444.000000	5.295378
445.000000	5.293988
446.000000	5.292768
447.000000	5.291688
448.000000	5.290855
449.000000	5.290448
450.000000	5.289811
451.000000	5.289007
452.000000	5.288610
453.000000	5.288400
454.000000	5.288307
455.000000	5.288270
456.000000	5.288218
457.000000	5.288219
458.000000	5.288729
459.000000	5.289360
460.000000	5.290028
461.000000	5.291074
462.000000	5.292335
463.000000	5.293674
464.000000	5.295020
465.000000	5.296731
466.000000	5.298687
467.000000	5.300842
468.000000	5.302990
469.000000	5.305464
470.000000	5.308613
471.000000	5.312408
472.000000	5.316721
473.000000	5.321374
474.000000	5.326670
475.000000	5.332395
476.000000	5.338735
477.000000	5.346098
478.000000	5.354160
479.000000	5.363216
480.000000	5.373199
481.000000	5.384262
482.000000	5.396719
483.000000	5.410598
484.000000	5.426001
485.000000	5.443378
486.000000	5.462764
487.000000	5.484110
488.000000	5.507690
489.000000	5.534131
490.000000	5.563411
491.000000	5.596043
492.000000	5.632289
493.000000	5.672139
494.000000	5.716390
495.000000	5.765128
496.000000	5.818798
497.000000	5.877415
498.000000	5.941683
499.000000	6.011979
500.000000	6.088278
501.000000	6.171445
502.000000	6.261569
503.000000	6.359671
504.000000	6.465966
505.000000	6.580618
506.000000	6.704119
507.000000	6.837257
508.000000	6.980096
509.000000	7.132793
510.000000	7.295951
511.000000	7.468972
512.000000	7.650901
513.000000	7.841770
514.000000	8.040131
515.000000	8.244723
516.000000	8.454386
517.000000	8.667058
518.000000	8.882092
519.000000	9.098212
520.000000	9.314295
521.000000	9.530336
522.000000	9.745805
523.000000	9.960367
524.000000	10.173632
525.000000	10.386087
526.000000	10.597613
527.000000	10.808461
528.000000	11.018777
529.000000	11.228208
530.000000	11.437066
531.000000	11.645297
532.000000	11.852569
533.000000	12.058306
534.000000	12.262185
535.000000	12.463617
536.000000	12.662425
537.000000	12.858155
538.000000	13.049591
539.000000	13.236136
540.000000	13.417459
541.000000	13.593039
542.000000	13.761605
543.000000	13.922974
544.000000	14.075967
545.000000	14.220163
546.000000	14.355422
547.000000	14.481365
548.000000	14.597754
549.000000	14.705123
550.000000	14.803428
551.000000	14.893074
552.000000	14.975099
553.000000	15.048900
554.000000	15.115481
555.000000	15.175105
556.000000	15.227073
557.000000	15.271513
558.000000	15.307518
559.000000	15.335330
560.000000	15.353325
561.000000	15.361816
562.000000	15.360442
563.000000	15.349284
564.000000	15.328282
565.000000	15.297682
566.000000	15.257922
567.000000	15.209847
568.000000	15.153943
569.000000	15.090997
570.000000	15.022321
571.000000	14.947849
572.000000	14.868699
573.000000	14.786210
574.000000	14.700436
575.000000	14.612219
576.000000	14.521805
577.000000	14.430028
578.000000	14.337165
579.000000	14.244296
580.000000	14.151678
581.000000	14.059633
582.000000	13.969214
583.000000	13.881752
584.000000	13.797858
585.000000	13.718538
586.000000	13.644875
587.000000	13.577685
588.000000	13.518035
589.000000	13.466047
590.000000	13.422594
591.000000	13.388421
592.000000	13.363537
593.000000	13.349069
594.000000	13.344766
595.000000	13.351417
596.000000	13.368796
597.000000	13.396416
598.000000	13.433977
599.000000	13.480875
600.000000	13.536730
601.000000	13.600303
602.000000	13.671236
603.000000	13.748504
604.000000	13.831799
605.000000	13.919513
606.000000	14.011467
607.000000	14.106674
608.000000	14.203830
609.000000	14.302948
610.000000	14.402984
611.000000	14.503699
612.000000	14.605081
613.000000	14.706897
614.000000	14.808450
615.000000	14.909998
616.000000	15.010645
617.000000	15.110593
618.000000	15.209160
619.000000	15.306617
620.000000	15.403208
621.000000	15.498080
622.000000	15.591485
623.000000	15.684148
624.000000	15.775044
625.000000	15.864395
626.000000	15.953074
627.000000	16.041326
628.000000	16.128478
629.000000	16.215268
630.000000	16.302620
631.000000	16.390348
632.000000	16.478751
633.000000	16.568646
634.000000	16.660978
635.000000	16.756190
636.000000	16.855236
637.000000	16.958638
638.000000	17.067108
639.000000	17.180789
640.000000	17.301801
641.000000	17.430456
642.000000	17.567135
643.000000	17.713555
644.000000	17.870651
645.000000	18.039740
646.000000	18.220689
647.000000	18.414003
648.000000	18.621298
649.000000	18.843598
650.000000	19.080985
651.000000	19.335313
652.000000	19.606414
653.000000	19.895271
654.000000	20.202133
655.000000	20.526700
656.000000	20.869193
657.000000	21.229416
658.000000	21.607765
659.000000	22.005856
660.000000	22.422994
661.000000	22.857702
662.000000	23.310364
663.000000	23.781315
664.000000	24.268980
665.000000	24.773398
666.000000	25.292542
667.000000	25.827117
668.000000	26.376612
669.000000	26.940052
670.000000	27.516048
671.000000	28.103171
672.000000	28.701497
673.000000	29.309343
674.000000	29.925477
675.000000	30.548378
676.000000	31.177346
677.000000	31.811276
678.000000	32.448848
679.000000	33.089472
680.000000	33.731697
681.000000	34.373940
682.000000	35.016627
683.000000	35.658212
684.000000	36.297260
685.000000	36.932698
686.000000	37.563826
687.000000	38.188958
688.000000	38.808882
689.000000	39.423552
690.000000	40.030573
691.000000	40.632006
692.000000	41.226385
693.000000	41.812973
694.000000	42.391326
695.000000	42.960268
696.000000	43.521456
697.000000	44.074022
698.000000	44.616409
699.000000	45.150889
700.000000	45.676440
701.000000	46.195057
702.000000	46.705235
703.000000	47.207636
704.000000	47.702598
705.000000	48.189078
706.000000	48.669044
707.000000	49.141661
708.000000	49.608554
709.000000	50.071094
710.000000	50.527028
711.000000	50.976810
712.000000	51.421599
713.000000	51.861473
714.000000	52.296230
715.000000	52.725714
716.000000	53.152414
717.000000	53.573624
718.000000	53.989597
719.000000	54.401047
720.000000	54.809293
721.000000	55.213336
722.000000	55.614390
723.000000	56.010936
724.000000	56.402758
725.000000	56.792462
726.000000	57.178984
727.000000	57.562326
728.000000	57.942578
729.000000	58.319262
730.000000	58.693662
731.000000	59.064333
732.000000	59.432704
733.000000	59.799742
734.000000	60.163446
735.000000	60.525175
736.000000	60.885294
737.000000	61.242896
738.000000	61.597787
739.000000	61.948058
740.000000	62.296999
741.000000	62.644044
742.000000	62.987376
743.000000	63.328801
744.000000	63.665824
745.000000	64.001658
746.000000	64.335498
747.000000	64.666115
748.000000	64.995062
749.000000	65.321188
750.000000	65.644714
751.000000	65.966246
752.000000	66.286268
753.000000	66.604389
754.000000	66.919113
755.000000	67.230798
756.000000	67.542880
757.000000	67.853856
758.000000	68.162151
759.000000	68.467076
760.000000	68.768276
761.000000	69.068518
762.000000	69.369133
763.000000	69.667105
764.000000	69.963770
765.000000	70.259412
766.000000	70.550863
767.000000	70.838898
768.000000	71.125435
769.000000	71.412139
770.000000	71.696412
771.000000	71.977351
772.000000	72.257461
773.000000	72.533963
774.000000	72.808066
775.000000	73.083007
776.000000	73.355511
777.000000	73.623541
778.000000	73.889117
779.000000	74.154628
780.000000	74.419160
781.000000	74.678416
782.000000	74.937837
783.000000	75.196076
784.000000	75.452011
785.000000	75.709044
786.000000	75.962615
787.000000	76.211294
788.000000	76.457524
789.000000	76.704246
790.000000	76.951678
791.000000	77.195657
792.000000	77.434425
793.000000	77.669917
794.000000	77.905693
795.000000	78.140874
796.000000	78.372536
797.000000	78.601683
798.000000	78.830396
799.000000	79.055673
800.000000	79.277432
801.000000	79.502666
802.000000	79.728229
803.000000	79.952435
804.000000	80.171966
805.000000	80.388960
806.000000	80.605980
807.000000	80.820780
808.000000	81.033516
809.000000	81.246603
810.000000	81.454853
811.000000	81.659491
812.000000	81.868891
813.000000	82.074967
814.000000	82.278027
815.000000	82.476305
816.000000	82.674574
817.000000	82.871746
818.000000	83.068388
819.000000	83.257235
820.000000	83.445027
821.000000	83.635029
822.000000	83.825281
823.000000	84.015408
824.000000	84.198475
825.000000	84.381085
826.000000	84.561233
827.000000	84.739942
828.000000	84.916409
829.000000	85.093997
830.000000	85.269262
831.000000	85.442555
832.000000	85.612896
833.000000	85.779775
834.000000	85.947403
835.000000	86.121642
836.000000	86.282828
837.000000	86.438431
838.000000	86.595847
839.000000	86.752416
840.000000	86.904888
841.000000	87.054731
842.000000	87.206168
843.000000	87.354011
844.000000	87.508395
845.000000	87.660877
846.000000	87.803115
847.000000	87.943023
848.000000	88.082308
849.000000	88.224781
850.000000	88.363388
851.000000	88.503977
852.000000	88.634473
853.000000	88.759421
854.000000	88.884102
855.000000	89.014488
856.000000	89.141427
857.000000	89.264385
858.000000	89.328227
859.000000	89.502596
860.000000	89.660476
861.000000	89.825924
862.000000	89.966229
863.000000	90.093776
864.000000	90.235667
865.000000	90.351679
866.000000	90.482099
867.000000	90.623238
868.000000	90.762679
869.000000	90.860965
870.000000	90.981514
871.000000	91.131238
872.000000	91.260846
873.000000	91.384659
874.000000	91.512748
875.000000	91.639257
876.000000	91.783298
877.000000	91.906167
878.000000	92.065069
879.000000	92.191613
880.000000	92.304324
881.000000	92.453366
882.000000	92.565631
883.000000	92.685918
884.000000	92.815215
885.000000	92.956586
886.000000	93.055613
887.000000	93.198360
888.000000	93.305001
889.000000	93.453526
890.000000	93.569107
891.000000	93.678139
892.000000	93.782596
893.000000	93.948033
894.000000	94.011025
895.000000	94.106194
896.000000	94.175267
897.000000	94.239454
898.000000	94.349088
899.000000	94.423108
900.000000	94.536706
901.000000	94.638370
902.000000	94.721115
903.000000	94.804101
904.000000	94.917324
905.000000	94.986426
906.000000	95.048440
907.000000	95.131146
908.000000	95.232032
909.000000	95.319471
910.000000	95.386994
911.000000	95.451965
912.000000	95.528011
913.000000	95.588327
914.000000	95.634123
915.000000	95.679608
916.000000	95.715417
917.000000	95.777969
918.000000	95.827946
919.000000	95.882420
920.000000	95.920202
921.000000	96.013186
922.000000	96.055918
923.000000	96.135223
924.000000	96.156318
925.000000	96.214434
926.000000	96.278477
927.000000	96.341624
928.000000	96.393191
929.000000	96.424485
930.000000	96.477023
931.000000	96.530139
932.000000	96.592101
933.000000	96.657689
934.000000	96.726253
935.000000	96.774230
936.000000	96.808888
937.000000	96.844707
938.000000	96.875923
939.000000	96.934351
940.000000	96.992923
941.000000	97.029815
942.000000	97.069294
943.000000	97.109057
944.000000	97.129244
945.000000	97.186327
946.000000	97.222551
947.000000	97.291081
948.000000	97.309216
949.000000	97.383234
950.000000	97.449399
951.000000	97.486293
952.000000	97.502075
953.000000	97.551558
954.000000	97.587454
955.000000	97.616906
956.000000	97.640787
957.000000	97.671738
958.000000	97.697497
959.000000	97.747664
960.000000	97.781055
961.000000	97.790683
962.000000	97.831711
963.000000	97.876962
964.000000	97.936342
965.000000	97.975500
966.000000	98.012798
967.000000	98.057628
968.000000	98.063228
969.000000	98.080641
970.000000	98.106615
971.000000	98.137143
972.000000	98.195866
973.000000	98.240495
974.000000	98.261777
975.000000	98.287656
976.000000	98.338142
977.000000	98.388373
978.000000	98.412413
979.000000	98.450807
980.000000	98.494344
981.000000	98.524914
982.000000	98.523787
983.000000	98.551950
984.000000	98.577415
985.000000	98.617895
986.000000	98.665964
987.000000	98.741125
988.000000	98.767542
989.000000	98.784615
990.000000	98.811820
991.000000	98.826038
992.000000	98.863034
993.000000	98.901769
994.000000	98.918886
995.000000	98.944116
996.000000	99.018749
997.000000	99.062763
998.000000	99.096759
999.000000	99.133692
1000.000000	99.147022
1001.000000	99.161831
1002.000000	99.165374
1003.000000	99.175996
1004.000000	99.198640
1005.000000	99.218792
1006.000000	99.239102
1007.000000	99.238539
1008.000000	99.265349
1009.000000	99.293708
1010.000000	99.345850
1011.000000	99.374870
1012.000000	99.388577
1013.000000	99.387853
1014.000000	99.410596
1015.000000	99.424293
1016.000000	99.431016
1017.000000	99.437089
1018.000000	99.432916
1019.000000	99.380990
1020.000000	99.359004
1021.000000	99.365696
1022.000000	99.369003
1023.000000	99.383431
1024.000000	99.394172
1025.000000	99.390683
1026.000000	99.392901
1027.000000	99.402826
1028.000000	99.394270
1029.000000	99.405903
1030.000000	99.408931
1031.000000	99.383993
1032.000000	99.383096
1033.000000	99.366500
1034.000000	99.338486
1035.000000	99.328470
1036.000000	99.343530
1037.000000	99.378569
1038.000000	99.408124
1039.000000	99.420645
1040.000000	99.425463
1041.000000	99.435944
1042.000000	99.446245
1043.000000	99.471485
1044.000000	99.502782
1045.000000	99.515787
1046.000000	99.503536
1047.000000	99.512408
1048.000000	99.527936
1049.000000	99.506303
1050.000000	99.474082
1051.000000	99.457886
1052.000000	99.481812
1053.000000	99.509703
1054.000000	99.568427
1055.000000	99.616449
1056.000000	99.631085
1057.000000	99.636910
1058.000000	99.654961
1059.000000	99.680006
1060.000000	99.735295
1061.000000	99.741730
1062.000000	99.709856
1063.000000	99.722427
1064.000000	99.725008
1065.000000	99.755747
1066.000000	99.753149
1067.000000	99.760811
1068.000000	99.787986
1069.000000	99.802565
1070.000000	99.827140
1071.000000	99.854276
1072.000000	99.844700
1073.000000	99.843791
1074.000000	99.857992
1075.000000	99.875568
1076.000000	99.881555
1077.000000	99.886942
1078.000000	99.870984
1079.000000	99.867058
1080.000000	99.861355
1081.000000	99.871964
1082.000000	99.851421
1083.000000	99.867666
1084.000000	99.926503
1085.000000	99.968913
1086.000000	100.000000
1087.000000	100.000000
1088.000000	100.000000
1089.000000	100.000000
1090.000000	100.000000
1091.000000	99.996786
1092.000000	100.000000
1093.000000	100.000000
1094.000000	100.000000
1095.000000	99.985682
1096.000000	100.000000
1097.000000	100.000000
1098.000000	100.000000
1099.000000	100.000000
1100.000000	100.000000
1101.000000	100.000000
1102.000000	100.000000
1103.000000	100.000000
1104.000000	100.000000
1105.000000	100.000000
1106.000000	100.000000
1107.000000	100.000000
1108.000000	100.000000
1109.000000	100.000000
1110.000000	100.000000
1111.000000	100.000000
1112.000000	100.000000
1113.000000	100.000000
1114.000000	100.000000
1115.000000	100.000000
1116.000000	100.000000
1117.000000	100.000000
1118.000000	100.000000
1119.000000	100.000000
1120.000000	100.000000
1121.000000	100.000000
1122.000000	100.000000
1123.000000	100.000000
1124.000000	100.000000
1125.000000	100.000000
1126.000000	100.000000
1127.000000	100.000000
1128.000000	100.000000
1129.000000	100.000000
1130.000000	100.000000
1131.000000	100.000000
1132.000000	100.000000
1133.000000	100.000000
1134.000000	100.000000
1135.000000	100.000000
1136.000000	100.000000
1137.000000	100.000000
1138.000000	100.000000
1139.000000	100.000000
1140.000000	100.000000
1141.000000	100.000000
1142.000000	100.000000
1143.000000	100.000000
1144.000000	100.000000
1145.000000	100.000000
1146.000000	100.000000
1147.000000	100.000000
1148.000000	100.000000
1149.000000	100.000000
1150.000000	100.000000
1151.000000	100.000000
1152.000000	100.000000
1153.000000	100.000000
1154.000000	100.000000
1155.000000	100.000000
1156.000000	100.000000
1157.000000	100.000000
1158.000000	100.000000
1159.000000	100.000000
1160.000000	100.000000
1161.000000	100.000000
1162.000000	100.000000
1163.000000	100.000000
1164.000000	99.953160
1165.000000	99.935301
1166.000000	99.891473
1167.000000	99.833500
1168.000000	99.758297
1169.000000	99.608103
1170.000000	99.547140
1171.000000	99.503016
1172.000000	99.450245
1173.000000	99.380311
1174.000000	99.354140
1175.000000	99.310214
1176.000000	99.246885
1177.000000	99.196526
1178.000000	99.165339
1179.000000	99.148334
1180.000000	99.142021
1181.000000	99.077337
1182.000000	99.027432
1183.000000	98.971037
1184.000000	98.965628
1185.000000	98.950151
1186.000000	98.901588
1187.000000	98.813835
1188.000000	98.768059
1189.000000	98.701120
1190.000000	98.671567
1191.000000	98.620403
1192.000000	98.620637
1193.000000	98.588192
1194.000000	98.604216
1195.000000	98.590410
1196.000000	98.548254
1197.000000	98.517681
1198.000000	98.511773
1199.000000	98.509630
1200.000000	98.517469
1201.000000	98.533354
1202.000000	98.526539
1203.000000	98.541624
1204.000000	98.538528
1205.000000	98.522257
1206.000000	98.528098
1207.000000	98.522555
1208.000000	98.530137
1209.000000	98.495743
1210.000000	98.507711
1211.000000	98.544036
1212.000000	98.547553
1213.000000	98.566222
1214.000000	98.557870
1215.000000	98.574051
1216.000000	98.610788
1217.000000	98.643083
1218.000000	98.671213
1219.000000	98.663696
1220.000000	98.661788
1221.000000	98.712544
1222.000000	98.754046
1223.000000	98.811021
1224.000000	98.857777
1225.000000	98.865714
1226.000000	98.881736
1227.000000	98.903721
1228.000000	98.928637
1229.000000	98.926980
1230.000000	98.926151
1231.000000	98.954656
1232.000000	99.013527
1233.000000	99.058916
1234.000000	99.065340
1235.000000	99.053082
1236.000000	99.055436
1237.000000	99.087749
1238.000000	99.122516
1239.000000	99.136048
1240.000000	99.171598
1241.000000	99.178648
1242.000000	99.195366
1243.000000	99.205068
1244.000000	99.243385
1245.000000	99.278192
1246.000000	99.285311
1247.000000	99.313771
1248.000000	99.339286
1249.000000	99.348724
1250.000000	99.331805
1251.000000	99.329725
1252.000000	99.330563
1253.000000	99.307833
1254.000000	99.308444
1255.000000	99.342269
1256.000000	99.371570
1257.000000	99.356536
1258.000000	99.358306
1259.000000	99.365336
1260.000000	99.378750
1261.000000	99.394105
1262.000000	99.367042
1263.000000	99.375655
1264.000000	99.362498
1265.000000	99.366723
1266.000000	99.354628
1267.000000	99.296942
1268.000000	99.277905
1269.000000	99.282526
1270.000000	99.297876
1271.000000	99.294143
1272.000000	99.286802
1273.000000	99.284171
1274.000000	99.320826
1275.000000	99.346361
1276.000000	99.352605
1277.000000	99.380877
1278.000000	99.379583
1279.000000	99.378540
1280.000000	99.378836
1281.000000	99.384857
1282.000000	99.378056
1283.000000	99.373093
1284.000000	99.389644
1285.000000	99.414972
1286.000000	99.402034
1287.000000	99.413308
1288.000000	99.463901
1289.000000	99.473859
1290.000000	99.466521
1291.000000	99.476813
1292.000000	99.501940
1293.000000	99.496746
1294.000000	99.482407
1295.000000	99.475947
1296.000000	99.457913
1297.000000	99.460641
1298.000000	99.465117
1299.000000	99.516395
1300.000000	99.545488
1301.000000	99.558305
1302.000000	99.585241
1303.000000	99.603442
1304.000000	99.627458
1305.000000	99.630116
1306.000000	99.641961
1307.000000	99.668115
1308.000000	99.674034
1309.000000	99.683213
1310.000000	99.703774
1311.000000	99.706483
1312.000000	99.696137
1313.000000	99.726388
1314.000000	99.737083
1315.000000	99.749972
1316.000000	99.741710
1317.000000	99.757696
1318.000000	99.743212
1319.000000	99.706810
1320.000000	99.683284
1321.000000	99.688799
1322.000000	99.675731
1323.000000	99.656576
1324.000000	99.661992
1325.000000	99.665904
1326.000000	99.649751
1327.000000	99.652961
1328.000000	99.652794
1329.000000	99.668630
1330.000000	99.680397
1331.000000	99.679011
1332.000000	99.671304
1333.000000	99.683825
1334.000000	99.673299
1335.000000	99.667945
1336.000000	99.670377
1337.000000	99.667069
1338.000000	99.666103
1339.000000	99.653283
1340.000000	99.636079
1341.000000	99.623665
1342.000000	99.608641
1343.000000	99.601917
1344.000000	99.560731
1345.000000	99.522221
1346.000000	99.479030
1347.000000	99.422845
1348.000000	99.386430
1349.000000	99.342872
1350.000000	99.296469
1351.000000	99.216148
1352.000000	99.119615
1353.000000	99.069825
1354.000000	99.103587
1355.000000	99.116561
1356.000000	99.142124
1357.000000	99.146047
1358.000000	99.062813
1359.000000	99.003229
1360.000000	99.004048
1361.000000	99.085635
1362.000000	98.977685
1363.000000	98.904064
1364.000000	98.794585
1365.000000	98.615216
1366.000000	98.594507
1367.000000	98.572470
1368.000000	98.432456
1369.000000	98.423113
1370.000000	98.520898
1371.000000	98.499921
1372.000000	98.440013
1373.000000	98.312233
1374.000000	98.302980
1375.000000	98.244243
1376.000000	98.240103
1377.000000	98.110751
1378.000000	98.011027
1379.000000	97.873421
1380.000000	97.539355
1381.000000	97.335611
1382.000000	97.340477
1383.000000	97.287258
1384.000000	97.362445
1385.000000	97.378757
1386.000000	97.358393
1387.000000	97.547156
1388.000000	97.532064
1389.000000	97.501253
1390.000000	97.445442
1391.000000	97.384639
1392.000000	97.146431
1393.000000	97.105638
1394.000000	97.154863
1395.000000	97.020348
1396.000000	96.609800
1397.000000	96.544596
1398.000000	96.455162
1399.000000	96.435179
1400.000000	96.491834
1401.000000	96.328332
1402.000000	96.235743
1403.000000	96.208437
1404.000000	96.141841
1405.000000	95.877435
1406.000000	95.773169
1407.000000	95.629428
1408.000000	95.550592
1409.000000	95.351864
1410.000000	95.206963
1411.000000	95.003741
1412.000000	94.892774
1413.000000	94.794314
1414.000000	94.778194
1415.000000	94.874198
1416.000000	94.897681
1417.000000	94.751994
1418.000000	94.675232
1419.000000	94.409104
1420.000000	94.203114
1421.000000	94.049917
1422.000000	93.705699
1423.000000	93.542349
1424.000000	93.318741
1425.000000	93.122369
1426.000000	92.893775
1427.000000	92.860656
1428.000000	92.716073
1429.000000	92.428972
1430.000000	92.265073
1431.000000	92.301817
1432.000000	92.136324
1433.000000	92.002183
1434.000000	91.808875
1435.000000	91.613790
1436.000000	91.496122
1437.000000	91.362287
1438.000000	91.246285
1439.000000	91.038848
1440.000000	90.885596
1441.000000	90.711063
1442.000000	90.648167
1443.000000	90.521248
1444.000000	90.398279
1445.000000	90.363134
1446.000000	90.263872
1447.000000	90.163681
1448.000000	90.042471
1449.000000	89.927352
1450.000000	89.897564
1451.000000	89.766788
1452.000000	89.590689
1453.000000	89.388046
1454.000000	89.277464
1455.000000	89.161387
1456.000000	89.101625
1457.000000	88.993144
1458.000000	88.881095
1459.000000	88.768305
1460.000000	88.654876
1461.000000	88.575243
1462.000000	88.507637
1463.000000	88.411747
1464.000000	88.332024
1465.000000	88.246495
1466.000000	88.187140
1467.000000	88.178138
1468.000000	88.133542
1469.000000	88.152494
1470.000000	88.127817
1471.000000	88.051042
1472.000000	87.953421
1473.000000	87.840142
1474.000000	87.721478
1475.000000	87.657895
1476.000000	87.592218
1477.000000	87.494803
1478.000000	87.422878
1479.000000	87.373877
1480.000000	87.241209
1481.000000	87.187747
1482.000000	87.137604
1483.000000	87.064424
1484.000000	86.959043
1485.000000	86.859730
1486.000000	86.818068
1487.000000	86.809212
1488.000000	86.772150
1489.000000	86.734159
1490.000000	86.679042
1491.000000	86.627987
1492.000000	86.589012
1493.000000	86.540814
1494.000000	86.506974
1495.000000	86.490213
1496.000000	86.454148
1497.000000	86.414278
1498.000000	86.389099
1499.000000	86.375647
1500.000000	86.363748
1501.000000	86.312850
1502.000000	86.245683
1503.000000	86.218579
1504.000000	86.161824
1505.000000	86.111164
1506.000000	86.150364
1507.000000	86.145045
1508.000000	86.153571
1509.000000	86.177433
1510.000000	86.178339
1511.000000	86.190891
1512.000000	86.205726
1513.000000	86.243049
1514.000000	86.243227
1515.000000	86.264233
1516.000000	86.262068
1517.000000	86.279944
1518.000000	86.340987
1519.000000	86.405394
1520.000000	86.438215
1521.000000	86.488535
1522.000000	86.519896
1523.000000	86.568907
1524.000000	86.598559
1525.000000	86.640242
1526.000000	86.675775
1527.000000	86.757103
1528.000000	86.818104
1529.000000	86.888165
1530.000000	86.946633
1531.000000	87.010050
1532.000000	87.079898
1533.000000	87.152399
1534.000000	87.222946
1535.000000	87.277043
1536.000000	87.336898
1537.000000	87.407659
1538.000000	87.470692
1539.000000	87.511515
1540.000000	87.572989
1541.000000	87.609046
1542.000000	87.649605
1543.000000	87.711793
1544.000000	87.760136
1545.000000	87.824577
1546.000000	87.866808
1547.000000	87.929738
1548.000000	87.986149
1549.000000	88.050908
1550.000000	88.112854
1551.000000	88.186462
1552.000000	88.276043
1553.000000	88.307148
1554.000000	88.352016
1555.000000	88.426848
1556.000000	88.483054
1557.000000	88.524331
1558.000000	88.559133
1559.000000	88.600284
1560.000000	88.653082
1561.000000	88.672218
1562.000000	88.660035
1563.000000	88.684089
1564.000000	88.708069
1565.000000	88.735244
1566.000000	88.753468
1567.000000	88.764856
1568.000000	88.775962
1569.000000	88.791003
1570.000000	88.817299
1571.000000	88.841906
1572.000000	88.872230
1573.000000	88.895519
1574.000000	88.934848
1575.000000	88.976772
1576.000000	88.995291
1577.000000	89.029215
1578.000000	89.036684
1579.000000	89.061905
1580.000000	89.087632
1581.000000	89.124783
1582.000000	89.126296
1583.000000	89.133484
1584.000000	89.155351
1585.000000	89.162919
1586.000000	89.171796
1587.000000	89.191119
1588.000000	89.225841
1589.000000	89.238370
1590.000000	89.241806
1591.000000	89.235711
1592.000000	89.247971
1593.000000	89.279557
1594.000000	89.319640
1595.000000	89.343401
1596.000000	89.404717
1597.000000	89.460065
1598.000000	89.504638
1599.000000	89.537963
1600.000000	89.576440
1601.000000	89.626661
1602.000000	89.642919
1603.000000	89.687647
1604.000000	89.730343
1605.000000	89.765032
1606.000000	89.831189
1607.000000	89.878036
1608.000000	89.930138
1609.000000	89.962842
1610.000000	89.987736
1611.000000	90.037154
1612.000000	90.098910
1613.000000	90.148554
1614.000000	90.171585
1615.000000	90.220459
1616.000000	90.251550
1617.000000	90.305528
1618.000000	90.364496
1619.000000	90.402658
1620.000000	90.434855
1621.000000	90.453450
1622.000000	90.477169
1623.000000	90.472805
1624.000000	90.465567
1625.000000	90.472169
1626.000000	90.503128
1627.000000	90.568379
1628.000000	90.604195
1629.000000	90.622977
1630.000000	90.663863
1631.000000	90.676423
1632.000000	90.719863
1633.000000	90.752323
1634.000000	90.773999
1635.000000	90.801715
1636.000000	90.867319
1637.000000	90.961704
1638.000000	90.993830
1639.000000	91.010096
1640.000000	91.013489
1641.000000	91.018044
1642.000000	91.019347
1643.000000	91.036176
1644.000000	91.070129
1645.000000	91.081969
1646.000000	91.084870
1647.000000	91.093893
1648.000000	91.176301
1649.000000	91.228379
1650.000000	91.263597
1651.000000	91.312208
1652.000000	91.381116
1653.000000	91.454803
1654.000000	91.494296
1655.000000	91.534123
1656.000000	91.584063
1657.000000	91.607285
1658.000000	91.683159
1659.000000	91.734216
1660.000000	91.771992
1661.000000	91.816755
1662.000000	91.822262
1663.000000	91.863605
1664.000000	91.883561
1665.000000	91.882541
1666.000000	91.876159
1667.000000	91.817770
1668.000000	91.795498
1669.000000	91.804503
1670.000000	91.753563
1671.000000	91.679607
1672.000000	91.573041
1673.000000	91.507005
1674.000000	91.498683
1675.000000	91.477799
1676.000000	91.454470
1677.000000	91.410567
1678.000000	91.341457
1679.000000	91.276963
1680.000000	91.233793
1681.000000	91.197818
1682.000000	91.088558
1683.000000	90.938277
1684.000000	90.847217
1685.000000	90.732503
1686.000000	90.593119
1687.000000	90.454202
1688.000000	90.298295
1689.000000	90.173830
1690.000000	90.049817
1691.000000	89.954364
1692.000000	89.842210
1693.000000	89.727717
1694.000000	89.608729
1695.000000	89.518195
1696.000000	89.398501
1697.000000	89.276752
1698.000000	89.177623
1699.000000	89.085873
1700.000000	88.989965
1701.000000	88.919644
1702.000000	88.864274
1703.000000	88.779546
1704.000000	88.671695
1705.000000	88.622978
1706.000000	88.557020
1707.000000	88.540226
1708.000000	88.475272
1709.000000	88.360523
1710.000000	88.296512
1711.000000	88.209582
1712.000000	88.150627
1713.000000	88.105149
1714.000000	88.030193
1715.000000	87.971769
1716.000000	87.875916
1717.000000	87.840212
1718.000000	87.793542
1719.000000	87.702036
1720.000000	87.617289
1721.000000	87.583971
1722.000000	87.501392
1723.000000	87.445476
1724.000000	87.380088
1725.000000	87.362404
1726.000000	87.293783
1727.000000	87.249824
1728.000000	87.168163
1729.000000	87.139534
1730.000000	87.090197
1731.000000	87.033199
1732.000000	86.977140
1733.000000	86.905925
1734.000000	86.867124
1735.000000	86.810695
1736.000000	86.756894
1737.000000	86.704120
1738.000000	86.645634
1739.000000	86.612178
1740.000000	86.584997
1741.000000	86.542302
1742.000000	86.500331
1743.000000	86.501400
1744.000000	86.517806
1745.000000	86.516405
1746.000000	86.504279
1747.000000	86.521959
1748.000000	86.514423
1749.000000	86.510900
1750.000000	86.496307
1751.000000	86.542360
1752.000000	86.571663
1753.000000	86.585416
1754.000000	86.621219
1755.000000	86.667099
1756.000000	86.704946
1757.000000	86.753632
1758.000000	86.769878
1759.000000	86.834798
1760.000000	86.863444
1761.000000	86.901691
1762.000000	86.901852
1763.000000	86.944945
1764.000000	86.992889
1765.000000	87.043882
1766.000000	87.093669
1767.000000	87.143320
1768.000000	87.195864
1769.000000	87.207221
1770.000000	87.282698
1771.000000	87.314410
1772.000000	87.342730
1773.000000	87.358225
1774.000000	87.410663
1775.000000	87.433047
1776.000000	87.475618
1777.000000	87.531428
1778.000000	87.576814
1779.000000	87.589759
1780.000000	87.619037
1781.000000	87.665693
1782.000000	87.682790
1783.000000	87.703934
1784.000000	87.756620
1785.000000	87.804192
1786.000000	87.817448
1787.000000	87.817363
1788.000000	87.845501
1789.000000	87.889797
1790.000000	87.925231
1791.000000	87.946517
1792.000000	87.960321
1793.000000	87.994340
1794.000000	87.983549
1795.000000	88.003203
1796.000000	88.046095
1797.000000	88.096635
1798.000000	88.142998
1799.000000	88.190504
1800.000000	88.206745
1801.000000	88.233881
1802.000000	88.261464
1803.000000	88.248356
1804.000000	88.293006
1805.000000	88.319666
1806.000000	88.376470
1807.000000	88.429655
1808.000000	88.486369
1809.000000	88.501215
1810.000000	88.546380
1811.000000	88.582491
1812.000000	88.576156
1813.000000	88.540771
1814.000000	88.580966
1815.000000	88.645355
1816.000000	88.674844
1817.000000	88.783897
1818.000000	88.924861
1819.000000	89.032346
1820.000000	89.178165
1821.000000	89.196402
1822.000000	89.205834
1823.000000	89.214739
1824.000000	89.221744
1825.000000	89.294190
1826.000000	89.388852
1827.000000	89.446019
1828.000000	89.470548
1829.000000	89.516497
1830.000000	89.592794
1831.000000	89.647159
1832.000000	89.676203
1833.000000	89.634900
1834.000000	89.609302
1835.000000	89.666707
1836.000000	89.752350
1837.000000	89.791635
1838.000000	89.772281
1839.000000	89.657164
1840.000000	89.563222
1841.000000	89.568858
1842.000000	89.612226
1843.000000	89.680651
1844.000000	89.708688
1845.000000	89.678133
1846.000000	89.702482
1847.000000	89.849664
1848.000000	89.941974
1849.000000	89.928109
1850.000000	89.873655
1851.000000	89.816105
1852.000000	89.714478
1853.000000	89.626234
1854.000000	89.548131
1855.000000	89.522717
1856.000000	89.655428
1857.000000	89.710586
1858.000000	89.751334
1859.000000	89.820719
1860.000000	89.783085
1861.000000	89.702534
1862.000000	89.699360
1863.000000	89.725176
1864.000000	89.705158
1865.000000	89.586283
1866.000000	89.496298
1867.000000	89.444075
1868.000000	89.437325
1869.000000	89.462907
1870.000000	89.445559
1871.000000	89.296502
1872.000000	89.349976
1873.000000	89.387346
1874.000000	89.449838
1875.000000	89.478158
1876.000000	89.476731
1877.000000	89.413412
1878.000000	89.287625
1879.000000	89.172533
1880.000000	89.127185
1881.000000	89.010831
1882.000000	88.762235
1883.000000	88.632152
1884.000000	88.527959
1885.000000	88.371699
1886.000000	88.299360
1887.000000	88.150526
1888.000000	87.947323
1889.000000	87.818256
1890.000000	87.518170
1891.000000	87.204258
1892.000000	86.943492
1893.000000	86.662787
1894.000000	86.339723
1895.000000	86.047386
1896.000000	85.763392
1897.000000	85.442683
1898.000000	85.089345
1899.000000	84.762369
1900.000000	84.423997
1901.000000	84.057252
1902.000000	83.737449
1903.000000	83.345162
1904.000000	82.940960
1905.000000	82.463135
1906.000000	82.073687
1907.000000	81.490836
1908.000000	80.990568
1909.000000	80.502478
1910.000000	80.022900
1911.000000	79.435759
1912.000000	78.884621
1913.000000	78.421221
1914.000000	77.937713
1915.000000	77.431524
1916.000000	76.856197
1917.000000	76.320457
1918.000000	75.732195
1919.000000	75.281191
1920.000000	74.809660
1921.000000	74.271678
1922.000000	73.784520
1923.000000	73.350693
1924.000000	72.806724
1925.000000	72.304130
1926.000000	71.813767
1927.000000	71.354184
1928.000000	70.926407
1929.000000	70.529113
1930.000000	70.132059
1931.000000	69.741018
1932.000000	69.317814
1933.000000	68.975756
1934.000000	68.594991
1935.000000	68.322620
1936.000000	68.014325
1937.000000	67.668431
1938.000000	67.444161
1939.000000	67.119476
1940.000000	66.872303
1941.000000	66.645251
1942.000000	66.447405
1943.000000	66.281938
1944.000000	66.131914
1945.000000	65.990148
1946.000000	65.901723
1947.000000	65.779708
1948.000000	65.663507
1949.000000	65.576537
1950.000000	65.480893
1951.000000	65.480322
1952.000000	65.478829
1953.000000	65.462854
1954.000000	65.335551
1955.000000	65.324394
1956.000000	65.361419
1957.000000	65.360094
1958.000000	65.333838
1959.000000	65.380303
1960.000000	65.475487
1961.000000	65.526006
1962.000000	65.592421
1963.000000	65.647847
1964.000000	65.685802
1965.000000	65.760340
1966.000000	65.858613
1967.000000	66.008673
1968.000000	66.110986
1969.000000	66.246108
1970.000000	66.334434
1971.000000	66.475434
1972.000000	66.572033
1973.000000	66.677067
1974.000000	66.837695
1975.000000	66.963031
1976.000000	67.119717
1977.000000	67.272915
1978.000000	67.395544
1979.000000	67.562453
1980.000000	67.716005
1981.000000	67.834744
1982.000000	67.979583
1983.000000	68.124530
1984.000000	68.249760
1985.000000	68.417426
1986.000000	68.553014
1987.000000	68.696767
1988.000000	68.885942
1989.000000	69.098425
1990.000000	69.289789
1991.000000	69.423749
1992.000000	69.583707
1993.000000	69.729890
1994.000000	69.849157
1995.000000	69.981020
1996.000000	70.122444
1997.000000	70.257574
1998.000000	70.422948
1999.000000	70.590137
2000.000000	70.737227
