PE UV       SUBTECH     SPECTRUM    ASCII       PEDS        4.00        
   -1
C.BOUC.INB54230-TXRX3..ASC
23/11/22
11:57:01.00
23/11/22
11:57:01.00
Vinicio Soto Monge

250,000000
1
Lambda 1050
1050L1511233
PerkinElmer UV WinLab 6.3.2.0749 / 2.02.05 Lambda 900 UV/VIS/NIR, Aug  7 2015 09:38:08

0
0
3350/servo 860,8/2
0
0
UV/VIS
1
1
1
DoubleDePol,CommonBeamDepol,RBeamAtt,SBeamAtt,60mm sphere, WB InGaAs Detector
0
0
0
0
Program
Program
3350/servo 860,8/2
3350/0,4 860,8/0,4
3350/0,4 860,8/0,4
0
20.00
 
 
 
0
 
860,8
319,2
860,8
Front
100
on
S:100 R:100
0
0
0
0
 
0
 
 
 
0
 
 
0
0
0
0
0
 
 
 
 
0
0


0
0
#HDR
-1
-1
#GR
nm
%R
1.0
0.0
2200,000000
-1,000000
1951
8
143,665323
5,491982
#DATA
284.000000	6.239484
285.000000	6.223623
286.000000	6.207857
287.000000	6.194834
288.000000	6.183623
289.000000	6.170466
290.000000	6.160907
291.000000	6.153211
292.000000	6.143701
293.000000	6.133723
294.000000	6.124385
295.000000	6.119100
296.000000	6.111960
297.000000	6.107045
298.000000	6.103382
299.000000	6.098552
300.000000	6.093360
301.000000	6.088001
302.000000	6.082299
303.000000	6.075471
304.000000	6.069506
305.000000	6.063970
306.000000	6.058737
307.000000	6.052238
308.000000	6.043740
309.000000	6.036196
310.000000	6.029538
311.000000	6.021912
312.000000	6.012965
313.000000	6.005985
314.000000	6.000883
315.000000	5.993712
316.000000	5.989154
317.000000	5.982203
318.000000	5.970231
319.000000	5.964464
320.000000	5.964209
321.000000	5.958365
322.000000	5.950640
323.000000	5.947111
324.000000	5.941559
325.000000	5.936346
326.000000	5.930294
327.000000	5.924155
328.000000	5.919523
329.000000	5.912392
330.000000	5.899280
331.000000	5.892203
332.000000	5.888407
333.000000	5.878948
334.000000	5.866082
335.000000	5.854927
336.000000	5.845581
337.000000	5.841184
338.000000	5.835703
339.000000	5.828954
340.000000	5.820073
341.000000	5.812441
342.000000	5.806383
343.000000	5.801315
344.000000	5.795850
345.000000	5.791600
346.000000	5.784557
347.000000	5.778178
348.000000	5.774574
349.000000	5.770414
350.000000	5.765765
351.000000	5.759510
352.000000	5.754532
353.000000	5.751562
354.000000	5.741458
355.000000	5.728527
356.000000	5.721846
357.000000	5.715894
358.000000	5.707919
359.000000	5.701512
360.000000	5.692184
361.000000	5.686008
362.000000	5.679888
363.000000	5.670692
364.000000	5.666949
365.000000	5.665490
366.000000	5.660561
367.000000	5.651315
368.000000	5.645632
369.000000	5.645046
370.000000	5.644635
371.000000	5.642580
372.000000	5.635758
373.000000	5.633381
374.000000	5.628769
375.000000	5.624068
376.000000	5.617844
377.000000	5.611216
378.000000	5.606734
379.000000	5.602912
380.000000	5.597622
381.000000	5.595223
382.000000	5.592442
383.000000	5.588841
384.000000	5.586102
385.000000	5.583079
386.000000	5.581314
387.000000	5.580922
388.000000	5.583148
389.000000	5.585700
390.000000	5.589698
391.000000	5.592476
392.000000	5.597721
393.000000	5.600732
394.000000	5.606468
395.000000	5.614454
396.000000	5.621146
397.000000	5.628430
398.000000	5.639788
399.000000	5.650588
400.000000	5.662879
401.000000	5.676954
402.000000	5.692380
403.000000	5.709926
404.000000	5.727056
405.000000	5.743910
406.000000	5.762233
407.000000	5.783463
408.000000	5.804836
409.000000	5.828758
410.000000	5.855308
411.000000	5.884751
412.000000	5.915662
413.000000	5.948235
414.000000	5.981808
415.000000	6.017136
416.000000	6.054168
417.000000	6.092490
418.000000	6.131880
419.000000	6.172309
420.000000	6.214522
421.000000	6.258263
422.000000	6.303118
423.000000	6.349324
424.000000	6.396742
425.000000	6.445510
426.000000	6.495587
427.000000	6.546734
428.000000	6.599270
429.000000	6.653474
430.000000	6.708611
431.000000	6.764780
432.000000	6.822291
433.000000	6.880389
434.000000	6.938953
435.000000	6.998724
436.000000	7.059763
437.000000	7.121220
438.000000	7.183435
439.000000	7.246590
440.000000	7.310598
441.000000	7.375577
442.000000	7.441735
443.000000	7.508505
444.000000	7.576096
445.000000	7.644144
446.000000	7.712615
447.000000	7.781488
448.000000	7.850835
449.000000	7.920900
450.000000	7.990925
451.000000	8.060426
452.000000	8.130033
453.000000	8.199780
454.000000	8.269902
455.000000	8.339813
456.000000	8.409592
457.000000	8.479119
458.000000	8.548666
459.000000	8.618202
460.000000	8.687261
461.000000	8.755880
462.000000	8.824256
463.000000	8.892257
464.000000	8.959665
465.000000	9.026517
466.000000	9.092609
467.000000	9.157525
468.000000	9.221495
469.000000	9.284392
470.000000	9.345625
471.000000	9.405511
472.000000	9.464442
473.000000	9.522148
474.000000	9.578885
475.000000	9.634026
476.000000	9.687126
477.000000	9.738804
478.000000	9.788837
479.000000	9.837501
480.000000	9.884400
481.000000	9.929822
482.000000	9.973558
483.000000	10.015136
484.000000	10.054736
485.000000	10.092697
486.000000	10.129164
487.000000	10.164114
488.000000	10.197715
489.000000	10.229649
490.000000	10.260437
491.000000	10.289766
492.000000	10.318053
493.000000	10.344886
494.000000	10.370492
495.000000	10.395498
496.000000	10.420154
497.000000	10.443543
498.000000	10.465982
499.000000	10.487912
500.000000	10.509298
501.000000	10.530102
502.000000	10.551646
503.000000	10.573802
504.000000	10.596470
505.000000	10.620165
506.000000	10.644201
507.000000	10.668667
508.000000	10.694240
509.000000	10.720483
510.000000	10.748342
511.000000	10.778610
512.000000	10.810295
513.000000	10.843976
514.000000	10.879481
515.000000	10.917319
516.000000	10.957276
517.000000	10.999454
518.000000	11.044236
519.000000	11.091883
520.000000	11.142324
521.000000	11.195558
522.000000	11.251650
523.000000	11.310850
524.000000	11.372815
525.000000	11.437093
526.000000	11.503903
527.000000	11.573392
528.000000	11.646281
529.000000	11.721848
530.000000	11.800152
531.000000	11.880624
532.000000	11.964493
533.000000	12.051359
534.000000	12.140748
535.000000	12.232781
536.000000	12.327872
537.000000	12.425292
538.000000	12.524894
539.000000	12.626292
540.000000	12.729812
541.000000	12.835974
542.000000	12.944406
543.000000	13.054893
544.000000	13.167330
545.000000	13.281699
546.000000	13.397381
547.000000	13.514769
548.000000	13.634055
549.000000	13.754605
550.000000	13.876747
551.000000	14.000335
552.000000	14.125654
553.000000	14.252534
554.000000	14.380461
555.000000	14.510102
556.000000	14.641123
557.000000	14.773609
558.000000	14.906085
559.000000	15.039291
560.000000	15.174752
561.000000	15.311459
562.000000	15.448709
563.000000	15.586653
564.000000	15.725367
565.000000	15.864922
566.000000	16.006006
567.000000	16.147477
568.000000	16.289743
569.000000	16.432357
570.000000	16.575127
571.000000	16.718155
572.000000	16.861534
573.000000	17.005531
574.000000	17.150340
575.000000	17.295089
576.000000	17.439566
577.000000	17.583519
578.000000	17.727077
579.000000	17.870319
580.000000	18.012998
581.000000	18.155070
582.000000	18.296949
583.000000	18.437156
584.000000	18.576363
585.000000	18.714408
586.000000	18.851759
587.000000	18.988431
588.000000	19.123361
589.000000	19.256996
590.000000	19.387198
591.000000	19.515489
592.000000	19.641281
593.000000	19.765128
594.000000	19.886279
595.000000	20.004040
596.000000	20.120021
597.000000	20.232178
598.000000	20.341911
599.000000	20.448552
600.000000	20.551645
601.000000	20.650966
602.000000	20.747267
603.000000	20.840136
604.000000	20.929730
605.000000	21.016146
606.000000	21.098420
607.000000	21.177265
608.000000	21.251731
609.000000	21.322555
610.000000	21.390337
611.000000	21.453825
612.000000	21.514004
613.000000	21.570152
614.000000	21.622689
615.000000	21.671760
616.000000	21.716776
617.000000	21.756939
618.000000	21.793923
619.000000	21.828337
620.000000	21.859061
621.000000	21.886950
622.000000	21.910909
623.000000	21.932137
624.000000	21.949606
625.000000	21.965644
626.000000	21.978746
627.000000	21.988417
628.000000	21.997255
629.000000	22.004792
630.000000	22.009889
631.000000	22.012176
632.000000	22.014631
633.000000	22.014745
634.000000	22.013353
635.000000	22.011256
636.000000	22.008564
637.000000	22.005554
638.000000	22.001941
639.000000	21.998547
640.000000	21.995050
641.000000	21.992878
642.000000	21.991334
643.000000	21.991126
644.000000	21.991458
645.000000	21.991956
646.000000	21.994912
647.000000	22.000052
648.000000	22.008299
649.000000	22.019709
650.000000	22.034434
651.000000	22.052141
652.000000	22.073544
653.000000	22.099208
654.000000	22.128669
655.000000	22.162486
656.000000	22.199637
657.000000	22.242154
658.000000	22.288994
659.000000	22.340949
660.000000	22.398304
661.000000	22.462497
662.000000	22.534769
663.000000	22.612533
664.000000	22.696292
665.000000	22.788081
666.000000	22.887606
667.000000	22.994220
668.000000	23.109392
669.000000	23.234205
670.000000	23.367814
671.000000	23.510868
672.000000	23.663477
673.000000	23.827317
674.000000	24.003003
675.000000	24.191213
676.000000	24.390201
677.000000	24.600563
678.000000	24.824772
679.000000	25.063517
680.000000	25.316992
681.000000	25.584994
682.000000	25.868274
683.000000	26.167475
684.000000	26.482037
685.000000	26.812107
686.000000	27.158135
687.000000	27.520756
688.000000	27.900355
689.000000	28.296352
690.000000	28.709113
691.000000	29.138449
692.000000	29.583236
693.000000	30.045193
694.000000	30.523842
695.000000	31.018369
696.000000	31.527218
697.000000	32.047697
698.000000	32.581652
699.000000	33.128253
700.000000	33.684812
701.000000	34.252015
702.000000	34.829828
703.000000	35.414475
704.000000	36.003827
705.000000	36.597139
706.000000	37.192800
707.000000	37.790072
708.000000	38.387167
709.000000	38.983452
710.000000	39.577197
711.000000	40.167529
712.000000	40.754168
713.000000	41.333088
714.000000	41.903575
715.000000	42.464994
716.000000	43.016218
717.000000	43.555795
718.000000	44.082424
719.000000	44.595609
720.000000	45.095062
721.000000	45.579137
722.000000	46.048215
723.000000	46.502094
724.000000	46.938106
725.000000	47.355789
726.000000	47.756940
727.000000	48.141267
728.000000	48.506931
729.000000	48.853114
730.000000	49.181076
731.000000	49.492516
732.000000	49.787844
733.000000	50.066648
734.000000	50.332723
735.000000	50.584366
736.000000	50.819175
737.000000	51.037649
738.000000	51.244675
739.000000	51.440255
740.000000	51.625528
741.000000	51.801711
742.000000	51.967083
743.000000	52.122506
744.000000	52.267247
745.000000	52.405332
746.000000	52.537425
747.000000	52.661252
748.000000	52.782496
749.000000	52.898238
750.000000	53.011114
751.000000	53.118929
752.000000	53.221859
753.000000	53.320918
754.000000	53.417614
755.000000	53.512165
756.000000	53.604225
757.000000	53.694846
758.000000	53.782795
759.000000	53.871072
760.000000	53.958590
761.000000	54.042734
762.000000	54.125161
763.000000	54.207728
764.000000	54.291343
765.000000	54.372895
766.000000	54.453090
767.000000	54.533899
768.000000	54.612969
769.000000	54.687525
770.000000	54.760096
771.000000	54.832967
772.000000	54.907037
773.000000	54.980444
774.000000	55.052734
775.000000	55.124037
776.000000	55.192682
777.000000	55.262438
778.000000	55.331920
779.000000	55.399414
780.000000	55.465852
781.000000	55.529198
782.000000	55.593672
783.000000	55.656210
784.000000	55.715871
785.000000	55.772088
786.000000	55.829473
787.000000	55.888996
788.000000	55.948294
789.000000	56.010112
790.000000	56.069012
791.000000	56.127096
792.000000	56.187806
793.000000	56.249112
794.000000	56.308273
795.000000	56.370796
796.000000	56.437325
797.000000	56.502259
798.000000	56.566511
799.000000	56.632707
800.000000	56.697886
801.000000	56.762373
802.000000	56.825010
803.000000	56.894465
804.000000	56.970453
805.000000	57.046505
806.000000	57.124460
807.000000	57.199606
808.000000	57.276010
809.000000	57.352419
810.000000	57.428504
811.000000	57.509301
812.000000	57.594221
813.000000	57.680474
814.000000	57.770210
815.000000	57.861169
816.000000	57.957814
817.000000	58.053690
818.000000	58.146878
819.000000	58.247187
820.000000	58.349411
821.000000	58.455532
822.000000	58.555929
823.000000	58.661211
824.000000	58.761198
825.000000	58.859678
826.000000	58.963523
827.000000	59.067379
828.000000	59.165048
829.000000	59.267593
830.000000	59.368813
831.000000	59.466721
832.000000	59.563937
833.000000	59.663080
834.000000	59.760400
835.000000	59.856261
836.000000	59.950521
837.000000	60.046810
838.000000	60.131149
839.000000	60.219616
840.000000	60.303459
841.000000	60.393771
842.000000	60.476323
843.000000	60.558854
844.000000	60.639199
845.000000	60.722602
846.000000	60.793095
847.000000	60.865181
848.000000	60.937669
849.000000	61.002347
850.000000	61.056070
851.000000	61.116178
852.000000	61.181275
853.000000	61.254690
854.000000	61.318443
855.000000	61.379927
856.000000	61.424096
857.000000	61.470964
858.000000	61.491610
859.000000	61.573785
860.000000	61.641832
861.000000	61.726977
862.000000	61.822255
863.000000	61.940218
864.000000	62.025861
865.000000	62.114517
866.000000	62.190964
867.000000	62.297734
868.000000	62.332938
869.000000	62.445580
870.000000	62.510430
871.000000	62.573637
872.000000	62.656010
873.000000	62.688553
874.000000	62.791242
875.000000	62.880814
876.000000	62.956223
877.000000	63.050733
878.000000	63.151860
879.000000	63.235787
880.000000	63.315727
881.000000	63.359288
882.000000	63.439972
883.000000	63.519471
884.000000	63.588661
885.000000	63.680294
886.000000	63.708274
887.000000	63.761156
888.000000	63.824337
889.000000	63.898586
890.000000	63.936612
891.000000	63.989904
892.000000	64.050347
893.000000	64.132017
894.000000	64.200377
895.000000	64.272186
896.000000	64.291602
897.000000	64.350886
898.000000	64.361888
899.000000	64.376665
900.000000	64.417241
901.000000	64.421277
902.000000	64.410148
903.000000	64.498823
904.000000	64.480449
905.000000	64.502680
906.000000	64.550072
907.000000	64.591899
908.000000	64.668951
909.000000	64.668926
910.000000	64.691519
911.000000	64.721609
912.000000	64.716047
913.000000	64.704864
914.000000	64.727718
915.000000	64.754525
916.000000	64.821250
917.000000	64.872498
918.000000	64.858799
919.000000	64.900911
920.000000	64.954089
921.000000	65.057856
922.000000	65.123047
923.000000	65.170763
924.000000	65.227297
925.000000	65.293662
926.000000	65.371088
927.000000	65.424929
928.000000	65.521127
929.000000	65.544137
930.000000	65.549201
931.000000	65.642402
932.000000	65.674311
933.000000	65.717002
934.000000	65.784583
935.000000	65.837012
936.000000	65.940963
937.000000	65.997167
938.000000	66.025161
939.000000	66.110941
940.000000	66.176442
941.000000	66.215200
942.000000	66.273643
943.000000	66.329617
944.000000	66.403813
945.000000	66.495242
946.000000	66.603017
947.000000	66.683855
948.000000	66.792325
949.000000	66.877714
950.000000	66.955995
951.000000	67.034122
952.000000	67.113599
953.000000	67.281632
954.000000	67.384769
955.000000	67.439024
956.000000	67.523762
957.000000	67.596922
958.000000	67.691700
959.000000	67.814337
960.000000	67.955385
961.000000	68.018327
962.000000	68.086642
963.000000	68.133983
964.000000	68.201437
965.000000	68.333508
966.000000	68.450746
967.000000	68.571802
968.000000	68.684565
969.000000	68.813572
970.000000	68.946082
971.000000	69.079705
972.000000	69.227528
973.000000	69.346344
974.000000	69.446541
975.000000	69.575337
976.000000	69.735745
977.000000	69.864238
978.000000	70.001971
979.000000	70.137372
980.000000	70.240157
981.000000	70.321156
982.000000	70.498605
983.000000	70.631701
984.000000	70.759357
985.000000	70.893850
986.000000	71.040324
987.000000	71.175780
988.000000	71.286257
989.000000	71.432465
990.000000	71.612493
991.000000	71.737451
992.000000	71.914782
993.000000	72.057029
994.000000	72.142570
995.000000	72.247688
996.000000	72.416247
997.000000	72.623522
998.000000	72.801300
999.000000	73.005372
1000.000000	73.196839
1001.000000	73.322735
1002.000000	73.435524
1003.000000	73.581398
1004.000000	73.720978
1005.000000	73.835229
1006.000000	73.951712
1007.000000	74.105371
1008.000000	74.274193
1009.000000	74.414964
1010.000000	74.575599
1011.000000	74.723213
1012.000000	74.889406
1013.000000	75.066965
1014.000000	75.213944
1015.000000	75.379043
1016.000000	75.534735
1017.000000	75.634139
1018.000000	75.762077
1019.000000	75.927520
1020.000000	76.091096
1021.000000	76.275320
1022.000000	76.429354
1023.000000	76.571161
1024.000000	76.670133
1025.000000	76.763348
1026.000000	76.888556
1027.000000	77.003283
1028.000000	77.153343
1029.000000	77.304487
1030.000000	77.439057
1031.000000	77.582085
1032.000000	77.715086
1033.000000	77.847012
1034.000000	77.937593
1035.000000	78.016604
1036.000000	78.141353
1037.000000	78.320549
1038.000000	78.513966
1039.000000	78.635123
1040.000000	78.760895
1041.000000	78.909401
1042.000000	78.995494
1043.000000	79.106642
1044.000000	79.254121
1045.000000	79.368456
1046.000000	79.484395
1047.000000	79.588221
1048.000000	79.681864
1049.000000	79.813024
1050.000000	79.901741
1051.000000	80.008074
1052.000000	80.115827
1053.000000	80.242388
1054.000000	80.359403
1055.000000	80.438662
1056.000000	80.515478
1057.000000	80.622900
1058.000000	80.703996
1059.000000	80.812554
1060.000000	80.948713
1061.000000	81.076069
1062.000000	81.198906
1063.000000	81.313397
1064.000000	81.448870
1065.000000	81.606540
1066.000000	81.713394
1067.000000	81.839078
1068.000000	81.969746
1069.000000	82.103334
1070.000000	82.222382
1071.000000	82.330990
1072.000000	82.421118
1073.000000	82.512410
1074.000000	82.620162
1075.000000	82.740457
1076.000000	82.831934
1077.000000	82.954838
1078.000000	83.070969
1079.000000	83.185470
1080.000000	83.311145
1081.000000	83.459811
1082.000000	83.583597
1083.000000	83.719171
1084.000000	83.844469
1085.000000	83.973234
1086.000000	84.057751
1087.000000	84.176054
1088.000000	84.327226
1089.000000	84.448365
1090.000000	84.586817
1091.000000	84.687792
1092.000000	84.788739
1093.000000	84.942104
1094.000000	85.120872
1095.000000	85.255258
1096.000000	85.373004
1097.000000	85.454163
1098.000000	85.574045
1099.000000	85.684433
1100.000000	85.775212
1101.000000	85.917974
1102.000000	85.997146
1103.000000	86.114814
1104.000000	86.187107
1105.000000	86.331916
1106.000000	86.434571
1107.000000	86.535407
1108.000000	86.555657
1109.000000	86.649884
1110.000000	86.735948
1111.000000	86.860638
1112.000000	87.001746
1113.000000	87.142588
1114.000000	87.250949
1115.000000	87.324516
1116.000000	87.426757
1117.000000	87.521050
1118.000000	87.598436
1119.000000	87.663621
1120.000000	87.756277
1121.000000	87.919686
1122.000000	88.042206
1123.000000	88.067717
1124.000000	88.133517
1125.000000	88.317449
1126.000000	88.400447
1127.000000	88.467552
1128.000000	88.526645
1129.000000	88.509324
1130.000000	88.560976
1131.000000	88.649732
1132.000000	88.733253
1133.000000	88.786653
1134.000000	88.818525
1135.000000	88.895675
1136.000000	88.917780
1137.000000	89.047556
1138.000000	89.118749
1139.000000	89.231930
1140.000000	89.291884
1141.000000	89.371243
1142.000000	89.432353
1143.000000	89.540291
1144.000000	89.581162
1145.000000	89.651649
1146.000000	89.637075
1147.000000	89.634103
1148.000000	89.656935
1149.000000	89.680971
1150.000000	89.739607
1151.000000	89.744616
1152.000000	89.780038
1153.000000	89.808819
1154.000000	89.848731
1155.000000	89.883142
1156.000000	89.907485
1157.000000	89.953674
1158.000000	90.012963
1159.000000	90.042634
1160.000000	89.945421
1161.000000	89.992007
1162.000000	90.033756
1163.000000	90.025324
1164.000000	90.137027
1165.000000	90.155005
1166.000000	90.167281
1167.000000	90.187577
1168.000000	90.174748
1169.000000	90.186173
1170.000000	90.169012
1171.000000	90.194946
1172.000000	90.171879
1173.000000	90.113011
1174.000000	90.094394
1175.000000	90.073651
1176.000000	90.110328
1177.000000	90.108166
1178.000000	90.137977
1179.000000	90.170696
1180.000000	90.185823
1181.000000	90.236553
1182.000000	90.281565
1183.000000	90.308111
1184.000000	90.343408
1185.000000	90.341078
1186.000000	90.389460
1187.000000	90.459236
1188.000000	90.472747
1189.000000	90.481444
1190.000000	90.507839
1191.000000	90.476512
1192.000000	90.479271
1193.000000	90.476500
1194.000000	90.515639
1195.000000	90.617863
1196.000000	90.638004
1197.000000	90.645355
1198.000000	90.747583
1199.000000	90.794128
1200.000000	90.837698
1201.000000	90.865486
1202.000000	90.928945
1203.000000	90.971135
1204.000000	91.032646
1205.000000	91.093089
1206.000000	91.120810
1207.000000	91.137492
1208.000000	91.180531
1209.000000	91.191797
1210.000000	91.223235
1211.000000	91.250995
1212.000000	91.283103
1213.000000	91.319539
1214.000000	91.418494
1215.000000	91.482068
1216.000000	91.539192
1217.000000	91.589292
1218.000000	91.624351
1219.000000	91.658936
1220.000000	91.729807
1221.000000	91.729995
1222.000000	91.715120
1223.000000	91.823740
1224.000000	91.912336
1225.000000	91.965760
1226.000000	92.061542
1227.000000	92.113326
1228.000000	92.172641
1229.000000	92.224186
1230.000000	92.219501
1231.000000	92.274255
1232.000000	92.361825
1233.000000	92.425688
1234.000000	92.458659
1235.000000	92.502885
1236.000000	92.561006
1237.000000	92.576242
1238.000000	92.643938
1239.000000	92.700070
1240.000000	92.716671
1241.000000	92.766435
1242.000000	92.780245
1243.000000	92.841803
1244.000000	92.925712
1245.000000	93.000457
1246.000000	93.030859
1247.000000	93.066924
1248.000000	93.075112
1249.000000	93.087162
1250.000000	93.098658
1251.000000	93.126793
1252.000000	93.145970
1253.000000	93.161283
1254.000000	93.204079
1255.000000	93.231941
1256.000000	93.274348
1257.000000	93.320002
1258.000000	93.340564
1259.000000	93.388579
1260.000000	93.418298
1261.000000	93.428960
1262.000000	93.450058
1263.000000	93.505560
1264.000000	93.547272
1265.000000	93.602257
1266.000000	93.638129
1267.000000	93.663925
1268.000000	93.681995
1269.000000	93.670992
1270.000000	93.685897
1271.000000	93.703024
1272.000000	93.739839
1273.000000	93.753877
1274.000000	93.752620
1275.000000	93.797280
1276.000000	93.875093
1277.000000	93.987529
1278.000000	94.059441
1279.000000	94.106628
1280.000000	94.097509
1281.000000	94.089641
1282.000000	94.129075
1283.000000	94.177830
1284.000000	94.199652
1285.000000	94.216695
1286.000000	94.250011
1287.000000	94.332173
1288.000000	94.406197
1289.000000	94.444286
1290.000000	94.504700
1291.000000	94.577053
1292.000000	94.618173
1293.000000	94.613735
1294.000000	94.610402
1295.000000	94.698354
1296.000000	94.744638
1297.000000	94.785345
1298.000000	94.799603
1299.000000	94.779627
1300.000000	94.787467
1301.000000	94.819229
1302.000000	94.836054
1303.000000	94.837524
1304.000000	94.901252
1305.000000	94.959010
1306.000000	94.983568
1307.000000	95.012436
1308.000000	95.032426
1309.000000	95.081022
1310.000000	95.114945
1311.000000	95.108307
1312.000000	95.093183
1313.000000	95.094994
1314.000000	95.121739
1315.000000	95.198905
1316.000000	95.274841
1317.000000	95.286097
1318.000000	95.344063
1319.000000	95.380016
1320.000000	95.403178
1321.000000	95.441483
1322.000000	95.445590
1323.000000	95.447165
1324.000000	95.505407
1325.000000	95.549940
1326.000000	95.555931
1327.000000	95.530627
1328.000000	95.559485
1329.000000	95.563062
1330.000000	95.501378
1331.000000	95.532539
1332.000000	95.548928
1333.000000	95.598629
1334.000000	95.651978
1335.000000	95.626264
1336.000000	95.599592
1337.000000	95.563623
1338.000000	95.480497
1339.000000	95.426377
1340.000000	95.386178
1341.000000	95.380098
1342.000000	95.423144
1343.000000	95.400034
1344.000000	95.395789
1345.000000	95.406803
1346.000000	95.387196
1347.000000	95.400809
1348.000000	95.410333
1349.000000	95.348831
1350.000000	95.256651
1351.000000	95.301565
1352.000000	95.421468
1353.000000	95.410014
1354.000000	95.315444
1355.000000	95.149152
1356.000000	94.973563
1357.000000	94.906632
1358.000000	94.868625
1359.000000	94.875225
1360.000000	94.692021
1361.000000	94.623098
1362.000000	94.723037
1363.000000	94.713423
1364.000000	94.788142
1365.000000	95.053995
1366.000000	95.012265
1367.000000	94.910469
1368.000000	94.945450
1369.000000	94.790609
1370.000000	94.624455
1371.000000	94.499461
1372.000000	94.441801
1373.000000	94.483549
1374.000000	94.481442
1375.000000	94.546842
1376.000000	94.752217
1377.000000	94.655623
1378.000000	94.744749
1379.000000	94.708608
1380.000000	95.872763
1381.000000	95.852510
1382.000000	96.123825
1383.000000	96.018963
1384.000000	95.904385
1385.000000	95.805049
1386.000000	95.600499
1387.000000	95.363254
1388.000000	95.146536
1389.000000	95.068210
1390.000000	95.068659
1391.000000	95.077900
1392.000000	95.378803
1393.000000	95.308600
1394.000000	95.114339
1395.000000	95.177473
1396.000000	95.595484
1397.000000	95.515372
1398.000000	95.429266
1399.000000	95.248936
1400.000000	94.795956
1401.000000	94.757905
1402.000000	94.669923
1403.000000	94.384159
1404.000000	94.391540
1405.000000	94.269228
1406.000000	94.194904
1407.000000	94.178152
1408.000000	94.005634
1409.000000	93.957136
1410.000000	93.700574
1411.000000	93.279648
1412.000000	93.135842
1413.000000	92.868254
1414.000000	92.650948
1415.000000	91.213537
1416.000000	90.965977
1417.000000	90.391285
1418.000000	90.156941
1419.000000	90.009941
1420.000000	89.821191
1421.000000	89.695911
1422.000000	89.505707
1423.000000	89.390050
1424.000000	89.141644
1425.000000	88.978696
1426.000000	88.775768
1427.000000	88.177854
1428.000000	87.923513
1429.000000	87.663370
1430.000000	87.367676
1431.000000	86.659535
1432.000000	86.377558
1433.000000	86.082369
1434.000000	85.822623
1435.000000	85.627979
1436.000000	85.329291
1437.000000	85.122043
1438.000000	84.914764
1439.000000	84.672605
1440.000000	84.588379
1441.000000	84.435523
1442.000000	84.142332
1443.000000	83.949871
1444.000000	83.652253
1445.000000	83.454585
1446.000000	83.244065
1447.000000	83.019208
1448.000000	82.796294
1449.000000	82.599790
1450.000000	82.441104
1451.000000	82.299039
1452.000000	82.131301
1453.000000	81.993226
1454.000000	81.883640
1455.000000	81.887562
1456.000000	81.741318
1457.000000	81.627763
1458.000000	81.499484
1459.000000	81.439211
1460.000000	81.356421
1461.000000	81.274986
1462.000000	81.190225
1463.000000	81.143169
1464.000000	81.114400
1465.000000	81.044087
1466.000000	80.913837
1467.000000	80.736489
1468.000000	80.620589
1469.000000	80.507617
1470.000000	80.426992
1471.000000	80.307377
1472.000000	80.274853
1473.000000	80.226369
1474.000000	80.099103
1475.000000	79.995374
1476.000000	79.877970
1477.000000	79.766810
1478.000000	79.652543
1479.000000	79.507501
1480.000000	79.417810
1481.000000	79.350128
1482.000000	79.298539
1483.000000	79.239520
1484.000000	79.223852
1485.000000	79.148755
1486.000000	79.122978
1487.000000	79.089781
1488.000000	79.047943
1489.000000	78.988626
1490.000000	78.842067
1491.000000	78.753321
1492.000000	78.699602
1493.000000	78.657166
1494.000000	78.645524
1495.000000	78.591553
1496.000000	78.543500
1497.000000	78.485900
1498.000000	78.442148
1499.000000	78.424106
1500.000000	78.427037
1501.000000	78.422620
1502.000000	78.398237
1503.000000	78.418576
1504.000000	78.420494
1505.000000	78.461915
1506.000000	78.472165
1507.000000	78.412954
1508.000000	78.437520
1509.000000	78.502117
1510.000000	78.589069
1511.000000	78.677056
1512.000000	78.777413
1513.000000	78.843329
1514.000000	78.908193
1515.000000	78.956995
1516.000000	78.994868
1517.000000	79.023876
1518.000000	79.100177
1519.000000	79.141431
1520.000000	79.240959
1521.000000	79.283072
1522.000000	79.342354
1523.000000	79.423030
1524.000000	79.470755
1525.000000	79.518081
1526.000000	79.572768
1527.000000	79.637419
1528.000000	79.702648
1529.000000	79.786061
1530.000000	79.852124
1531.000000	79.909741
1532.000000	79.992246
1533.000000	80.067958
1534.000000	80.146810
1535.000000	80.199087
1536.000000	80.289179
1537.000000	80.395253
1538.000000	80.494411
1539.000000	80.591252
1540.000000	80.670544
1541.000000	80.777615
1542.000000	80.860055
1543.000000	80.909736
1544.000000	80.973396
1545.000000	81.044490
1546.000000	81.112002
1547.000000	81.167583
1548.000000	81.240150
1549.000000	81.355057
1550.000000	81.462263
1551.000000	81.589104
1552.000000	81.701408
1553.000000	81.795775
1554.000000	81.891641
1555.000000	81.921439
1556.000000	81.939351
1557.000000	81.958908
1558.000000	82.017929
1559.000000	82.100362
1560.000000	82.224410
1561.000000	82.287966
1562.000000	82.356115
1563.000000	82.403162
1564.000000	82.426949
1565.000000	82.507287
1566.000000	82.607771
1567.000000	82.701325
1568.000000	82.739063
1569.000000	82.744185
1570.000000	82.776928
1571.000000	82.795957
1572.000000	82.829520
1573.000000	82.884766
1574.000000	82.928854
1575.000000	82.929609
1576.000000	82.949924
1577.000000	83.006737
1578.000000	83.049792
1579.000000	83.071782
1580.000000	83.076715
1581.000000	83.052326
1582.000000	83.043655
1583.000000	83.072922
1584.000000	83.078951
1585.000000	83.095503
1586.000000	83.083232
1587.000000	83.114832
1588.000000	83.100595
1589.000000	83.104628
1590.000000	83.140542
1591.000000	83.208040
1592.000000	83.271820
1593.000000	83.314930
1594.000000	83.320622
1595.000000	83.316536
1596.000000	83.349711
1597.000000	83.369691
1598.000000	83.395564
1599.000000	83.422550
1600.000000	83.448012
1601.000000	83.439398
1602.000000	83.417729
1603.000000	83.404130
1604.000000	83.437081
1605.000000	83.437203
1606.000000	83.440326
1607.000000	83.433653
1608.000000	83.420665
1609.000000	83.463176
1610.000000	83.488493
1611.000000	83.501630
1612.000000	83.561441
1613.000000	83.592695
1614.000000	83.607219
1615.000000	83.622762
1616.000000	83.674742
1617.000000	83.717731
1618.000000	83.751149
1619.000000	83.784762
1620.000000	83.826634
1621.000000	83.876730
1622.000000	83.917462
1623.000000	83.956432
1624.000000	84.013705
1625.000000	84.052510
1626.000000	84.091376
1627.000000	84.171669
1628.000000	84.218737
1629.000000	84.335538
1630.000000	84.378439
1631.000000	84.424708
1632.000000	84.423440
1633.000000	84.441720
1634.000000	84.481990
1635.000000	84.497459
1636.000000	84.561417
1637.000000	84.605251
1638.000000	84.659777
1639.000000	84.727837
1640.000000	84.854912
1641.000000	84.958983
1642.000000	85.053493
1643.000000	85.168722
1644.000000	85.183015
1645.000000	85.292209
1646.000000	85.362103
1647.000000	85.387106
1648.000000	85.450753
1649.000000	85.493800
1650.000000	85.531061
1651.000000	85.572986
1652.000000	85.634514
1653.000000	85.670540
1654.000000	85.697703
1655.000000	85.712226
1656.000000	85.741095
1657.000000	85.720531
1658.000000	85.795326
1659.000000	85.760121
1660.000000	85.737057
1661.000000	85.737277
1662.000000	85.708884
1663.000000	85.697866
1664.000000	85.704469
1665.000000	85.705551
1666.000000	85.660484
1667.000000	85.684431
1668.000000	85.704553
1669.000000	85.636452
1670.000000	85.648100
1671.000000	85.598827
1672.000000	85.532910
1673.000000	85.497517
1674.000000	85.437646
1675.000000	85.321006
1676.000000	85.194350
1677.000000	85.084938
1678.000000	84.932286
1679.000000	84.873504
1680.000000	84.744742
1681.000000	84.623617
1682.000000	84.485104
1683.000000	84.365915
1684.000000	84.245479
1685.000000	84.163487
1686.000000	84.054579
1687.000000	83.940324
1688.000000	83.800192
1689.000000	83.688377
1690.000000	83.555807
1691.000000	83.441601
1692.000000	83.328951
1693.000000	83.168225
1694.000000	83.143949
1695.000000	83.119785
1696.000000	82.978367
1697.000000	82.869677
1698.000000	82.782361
1699.000000	82.650261
1700.000000	82.541395
1701.000000	82.501438
1702.000000	82.451094
1703.000000	82.379198
1704.000000	82.378552
1705.000000	82.299185
1706.000000	82.204667
1707.000000	82.184339
1708.000000	82.058071
1709.000000	81.970654
1710.000000	81.928067
1711.000000	81.913447
1712.000000	81.875443
1713.000000	81.841559
1714.000000	81.776853
1715.000000	81.721275
1716.000000	81.688846
1717.000000	81.626630
1718.000000	81.533466
1719.000000	81.493518
1720.000000	81.405644
1721.000000	81.317814
1722.000000	81.270410
1723.000000	81.256849
1724.000000	81.207277
1725.000000	81.155525
1726.000000	81.083811
1727.000000	81.026776
1728.000000	80.999486
1729.000000	80.899200
1730.000000	80.792436
1731.000000	80.808621
1732.000000	80.752311
1733.000000	80.700351
1734.000000	80.628241
1735.000000	80.534917
1736.000000	80.472902
1737.000000	80.407219
1738.000000	80.359299
1739.000000	80.325082
1740.000000	80.288505
1741.000000	80.308449
1742.000000	80.273325
1743.000000	80.318957
1744.000000	80.288818
1745.000000	80.253584
1746.000000	80.244274
1747.000000	80.233983
1748.000000	80.222611
1749.000000	80.217109
1750.000000	80.230720
1751.000000	80.243181
1752.000000	80.311986
1753.000000	80.428915
1754.000000	80.482281
1755.000000	80.525608
1756.000000	80.576581
1757.000000	80.621942
1758.000000	80.682004
1759.000000	80.739470
1760.000000	80.792433
1761.000000	80.822441
1762.000000	80.867629
1763.000000	80.904376
1764.000000	80.933844
1765.000000	80.981439
1766.000000	81.005907
1767.000000	81.073712
1768.000000	81.101794
1769.000000	81.160714
1770.000000	81.249527
1771.000000	81.295601
1772.000000	81.345778
1773.000000	81.387030
1774.000000	81.385062
1775.000000	81.373985
1776.000000	81.359328
1777.000000	81.349826
1778.000000	81.337996
1779.000000	81.380988
1780.000000	81.396518
1781.000000	81.398067
1782.000000	81.428863
1783.000000	81.471061
1784.000000	81.503603
1785.000000	81.506989
1786.000000	81.510261
1787.000000	81.498313
1788.000000	81.446689
1789.000000	81.448255
1790.000000	81.485809
1791.000000	81.514279
1792.000000	81.503502
1793.000000	81.502776
1794.000000	81.513085
1795.000000	81.532038
1796.000000	81.580511
1797.000000	81.644530
1798.000000	81.651803
1799.000000	81.668614
1800.000000	81.697651
1801.000000	81.693646
1802.000000	81.688228
1803.000000	81.712979
1804.000000	81.692469
1805.000000	81.728561
1806.000000	81.757021
1807.000000	81.742346
1808.000000	81.720378
1809.000000	81.741727
1810.000000	81.838389
1811.000000	81.933395
1812.000000	81.996928
1813.000000	82.002678
1814.000000	81.976240
1815.000000	82.013899
1816.000000	82.124709
1817.000000	82.174075
1818.000000	82.122738
1819.000000	82.047298
1820.000000	81.954627
1821.000000	81.928244
1822.000000	81.928791
1823.000000	81.927249
1824.000000	81.943880
1825.000000	81.991855
1826.000000	81.924848
1827.000000	81.846142
1828.000000	81.889120
1829.000000	81.965046
1830.000000	82.028557
1831.000000	82.033570
1832.000000	82.059705
1833.000000	82.091670
1834.000000	82.146150
1835.000000	82.155762
1836.000000	82.145354
1837.000000	82.311403
1838.000000	82.392274
1839.000000	82.665161
1840.000000	82.705405
1841.000000	82.744267
1842.000000	82.739492
1843.000000	82.726139
1844.000000	82.656802
1845.000000	82.578520
1846.000000	82.577422
1847.000000	82.560148
1848.000000	82.503744
1849.000000	82.532197
1850.000000	82.566591
1851.000000	82.518484
1852.000000	82.541100
1853.000000	82.761620
1854.000000	82.864141
1855.000000	82.944999
1856.000000	83.005699
1857.000000	82.936963
1858.000000	82.885385
1859.000000	83.064426
1860.000000	83.155033
1861.000000	83.274223
1862.000000	83.390343
1863.000000	83.409090
1864.000000	83.336882
1865.000000	83.224166
1866.000000	83.145323
1867.000000	83.342221
1868.000000	83.290130
1869.000000	83.249893
1870.000000	83.363269
1871.000000	83.365025
1872.000000	83.225205
1873.000000	83.083941
1874.000000	82.711586
1875.000000	82.595511
1876.000000	82.566958
1877.000000	82.472595
1878.000000	82.398467
1879.000000	82.397406
1880.000000	82.362096
1881.000000	82.229303
1882.000000	82.129069
1883.000000	82.131014
1884.000000	81.991519
1885.000000	81.841486
1886.000000	81.692973
1887.000000	81.417327
1888.000000	81.038591
1889.000000	80.834377
1890.000000	80.594847
1891.000000	80.343238
1892.000000	80.202421
1893.000000	80.070925
1894.000000	79.586832
1895.000000	79.136801
1896.000000	78.755217
1897.000000	78.332976
1898.000000	77.825126
1899.000000	77.542677
1900.000000	77.199598
1901.000000	76.833499
1902.000000	76.335539
1903.000000	75.821818
1904.000000	75.263606
1905.000000	74.690195
1906.000000	74.286299
1907.000000	73.689890
1908.000000	73.241641
1909.000000	72.785177
1910.000000	72.257091
1911.000000	71.645514
1912.000000	71.107107
1913.000000	70.642050
1914.000000	70.061679
1915.000000	69.487360
1916.000000	68.902845
1917.000000	68.329611
1918.000000	67.762197
1919.000000	67.241627
1920.000000	66.777717
1921.000000	66.166021
1922.000000	65.696454
1923.000000	65.186307
1924.000000	64.577629
1925.000000	64.109565
1926.000000	63.598701
1927.000000	63.121447
1928.000000	62.608618
1929.000000	62.165235
1930.000000	61.701318
1931.000000	61.286073
1932.000000	60.896088
1933.000000	60.626737
1934.000000	60.206908
1935.000000	59.902291
1936.000000	59.641719
1937.000000	59.169053
1938.000000	58.987021
1939.000000	58.827133
1940.000000	58.519088
1941.000000	58.201258
1942.000000	58.023114
1943.000000	57.816134
1944.000000	57.644778
1945.000000	57.482900
1946.000000	57.324556
1947.000000	57.260248
1948.000000	57.118055
1949.000000	57.070793
1950.000000	57.019486
1951.000000	57.009163
1952.000000	56.961296
1953.000000	56.933204
1954.000000	56.951776
1955.000000	56.852027
1956.000000	56.880729
1957.000000	56.900803
1958.000000	56.970915
1959.000000	57.077365
1960.000000	57.250126
1961.000000	57.331227
1962.000000	57.437530
1963.000000	57.505197
1964.000000	57.546306
1965.000000	57.714946
1966.000000	57.846499
1967.000000	58.026248
1968.000000	58.142347
1969.000000	58.207581
1970.000000	58.355422
1971.000000	58.453515
1972.000000	58.608200
1973.000000	58.759336
1974.000000	58.906808
1975.000000	59.029937
1976.000000	59.208014
1977.000000	59.390734
1978.000000	59.517808
1979.000000	59.710253
1980.000000	59.869144
1981.000000	60.011181
1982.000000	60.173338
1983.000000	60.385008
1984.000000	60.527131
1985.000000	60.678818
1986.000000	60.791335
1987.000000	60.988804
1988.000000	61.138704
1989.000000	61.265479
1990.000000	61.434384
1991.000000	61.590324
1992.000000	61.742535
1993.000000	61.933109
1994.000000	62.159685
1995.000000	62.247623
1996.000000	62.391026
1997.000000	62.489509
1998.000000	62.655483
1999.000000	62.869990
2000.000000	63.002103
