PE UV       SUBTECH     SPECTRUM    ASCII       PEDS        4.00        
   -1
4-MACRASPIS HIRTIVENTIS DIURNA .ASC
23/11/21
11:25:52.00
23/11/21
11:25:52.00
Vinicio Soto Monge

250,000000
1
Lambda 1050
1050L1511233
PerkinElmer UV WinLab 6.3.2.0749 / 2.02.05 Lambda 900 UV/VIS/NIR, Aug  7 2015 09:38:08

0
0
3350/servo 860,8/2
0
0
UV/VIS
1
1
1
DoubleDePol,CommonBeamDepol,RBeamAtt,SBeamAtt,60mm sphere, WB InGaAs Detector
0
0
0
0
Program
Program
3350/servo 860,8/2
3350/0,4 860,8/0,4
3350/0,4 860,8/0,4
0
20.00
 
 
 
0
 
860,8
319,2
860,8
Front
100
on
S:100 R:100
0
0
0
0
 
0
 
 
 
0
 
 
0
0
0
0
0
 
 
 
 
0
0


0
0
#HDR
-1
-1
#GR
nm
%R
1.0
0.0
2200,000000
-1,000000
1951
8
98,988493
5,182513
#DATA
284.000000	5.406014
285.000000	5.394245
286.000000	5.384739
287.000000	5.377327
288.000000	5.370946
289.000000	5.364826
290.000000	5.359114
291.000000	5.352832
292.000000	5.346489
293.000000	5.343711
294.000000	5.340195
295.000000	5.337873
296.000000	5.336201
297.000000	5.335079
298.000000	5.334266
299.000000	5.333144
300.000000	5.334250
301.000000	5.334933
302.000000	5.336700
303.000000	5.336914
304.000000	5.338370
305.000000	5.339691
306.000000	5.342542
307.000000	5.344347
308.000000	5.347168
309.000000	5.349139
310.000000	5.350707
311.000000	5.353282
312.000000	5.356141
313.000000	5.357443
314.000000	5.358743
315.000000	5.363141
316.000000	5.363883
317.000000	5.361720
318.000000	5.359103
319.000000	5.355910
320.000000	5.349954
321.000000	5.343991
322.000000	5.342441
323.000000	5.337342
324.000000	5.331412
325.000000	5.327510
326.000000	5.321304
327.000000	5.314375
328.000000	5.306774
329.000000	5.298286
330.000000	5.289646
331.000000	5.280487
332.000000	5.270684
333.000000	5.262275
334.000000	5.253367
335.000000	5.242561
336.000000	5.231602
337.000000	5.219603
338.000000	5.209348
339.000000	5.197911
340.000000	5.188279
341.000000	5.178435
342.000000	5.166905
343.000000	5.156579
344.000000	5.148720
345.000000	5.140228
346.000000	5.130181
347.000000	5.119932
348.000000	5.110307
349.000000	5.099743
350.000000	5.087377
351.000000	5.077239
352.000000	5.070651
353.000000	5.066085
354.000000	5.059952
355.000000	5.058601
356.000000	5.057355
357.000000	5.049727
358.000000	5.045943
359.000000	5.042903
360.000000	5.037790
361.000000	5.034654
362.000000	5.032281
363.000000	5.030271
364.000000	5.028112
365.000000	5.024382
366.000000	5.022472
367.000000	5.021004
368.000000	5.018314
369.000000	5.015698
370.000000	5.013441
371.000000	5.011037
372.000000	5.010175
373.000000	5.007147
374.000000	5.003687
375.000000	5.000994
376.000000	4.997213
377.000000	4.997203
378.000000	4.995983
379.000000	4.993129
380.000000	4.990031
381.000000	4.988195
382.000000	4.986992
383.000000	4.985108
384.000000	4.983816
385.000000	4.982386
386.000000	4.980199
387.000000	4.977972
388.000000	4.974829
389.000000	4.973401
390.000000	4.970307
391.000000	4.967153
392.000000	4.964329
393.000000	4.961293
394.000000	4.958247
395.000000	4.955259
396.000000	4.952770
397.000000	4.950446
398.000000	4.947524
399.000000	4.945176
400.000000	4.943871
401.000000	4.941534
402.000000	4.938831
403.000000	4.935550
404.000000	4.932965
405.000000	4.930989
406.000000	4.929485
407.000000	4.927270
408.000000	4.926902
409.000000	4.927032
410.000000	4.925531
411.000000	4.924571
412.000000	4.921188
413.000000	4.918003
414.000000	4.915169
415.000000	4.912491
416.000000	4.909846
417.000000	4.907217
418.000000	4.904953
419.000000	4.903063
420.000000	4.901331
421.000000	4.899824
422.000000	4.898596
423.000000	4.897553
424.000000	4.896507
425.000000	4.895729
426.000000	4.895310
427.000000	4.895302
428.000000	4.895411
429.000000	4.895666
430.000000	4.896153
431.000000	4.896731
432.000000	4.897394
433.000000	4.898333
434.000000	4.899576
435.000000	4.901531
436.000000	4.903931
437.000000	4.906559
438.000000	4.909791
439.000000	4.913383
440.000000	4.917592
441.000000	4.922486
442.000000	4.928320
443.000000	4.934696
444.000000	4.941938
445.000000	4.950215
446.000000	4.959582
447.000000	4.970109
448.000000	4.981835
449.000000	4.995015
450.000000	5.009959
451.000000	5.027006
452.000000	5.046100
453.000000	5.067460
454.000000	5.091708
455.000000	5.119081
456.000000	5.149392
457.000000	5.183193
458.000000	5.221063
459.000000	5.263226
460.000000	5.309852
461.000000	5.361460
462.000000	5.419201
463.000000	5.483300
464.000000	5.554238
465.000000	5.632789
466.000000	5.719334
467.000000	5.814612
468.000000	5.918918
469.000000	6.032607
470.000000	6.155174
471.000000	6.286833
472.000000	6.427151
473.000000	6.574805
474.000000	6.728827
475.000000	6.887591
476.000000	7.049633
477.000000	7.213269
478.000000	7.377136
479.000000	7.539394
480.000000	7.698142
481.000000	7.852065
482.000000	7.999576
483.000000	8.139558
484.000000	8.270997
485.000000	8.392106
486.000000	8.502484
487.000000	8.602185
488.000000	8.690914
489.000000	8.767616
490.000000	8.832817
491.000000	8.886988
492.000000	8.929546
493.000000	8.960978
494.000000	8.981462
495.000000	8.991076
496.000000	8.989937
497.000000	8.977714
498.000000	8.954339
499.000000	8.919648
500.000000	8.873183
501.000000	8.814627
502.000000	8.743643
503.000000	8.660306
504.000000	8.564692
505.000000	8.456997
506.000000	8.337682
507.000000	8.207273
508.000000	8.067480
509.000000	7.919455
510.000000	7.764667
511.000000	7.604717
512.000000	7.441286
513.000000	7.276226
514.000000	7.111148
515.000000	6.948203
516.000000	6.788413
517.000000	6.633419
518.000000	6.484334
519.000000	6.341552
520.000000	6.206726
521.000000	6.080171
522.000000	5.961869
523.000000	5.851755
524.000000	5.750315
525.000000	5.657232
526.000000	5.571962
527.000000	5.494334
528.000000	5.423659
529.000000	5.359451
530.000000	5.301218
531.000000	5.248772
532.000000	5.200995
533.000000	5.157896
534.000000	5.118981
535.000000	5.084049
536.000000	5.053076
537.000000	5.025371
538.000000	5.000733
539.000000	4.978501
540.000000	4.958758
541.000000	4.941001
542.000000	4.925302
543.000000	4.911328
544.000000	4.898738
545.000000	4.887539
546.000000	4.877356
547.000000	4.868312
548.000000	4.860293
549.000000	4.853139
550.000000	4.846440
551.000000	4.840367
552.000000	4.834947
553.000000	4.829999
554.000000	4.825930
555.000000	4.821954
556.000000	4.818547
557.000000	4.815463
558.000000	4.812782
559.000000	4.810515
560.000000	4.808189
561.000000	4.806211
562.000000	4.804511
563.000000	4.803208
564.000000	4.802081
565.000000	4.801174
566.000000	4.800301
567.000000	4.800110
568.000000	4.799921
569.000000	4.800010
570.000000	4.800175
571.000000	4.800532
572.000000	4.801364
573.000000	4.802321
574.000000	4.803667
575.000000	4.805159
576.000000	4.806803
577.000000	4.808709
578.000000	4.810387
579.000000	4.812456
580.000000	4.814937
581.000000	4.817695
582.000000	4.820799
583.000000	4.823980
584.000000	4.827431
585.000000	4.831306
586.000000	4.835473
587.000000	4.839846
588.000000	4.844350
589.000000	4.849036
590.000000	4.854504
591.000000	4.860085
592.000000	4.866273
593.000000	4.872546
594.000000	4.879307
595.000000	4.886280
596.000000	4.893355
597.000000	4.900778
598.000000	4.908186
599.000000	4.916007
600.000000	4.924333
601.000000	4.933181
602.000000	4.942413
603.000000	4.952001
604.000000	4.962303
605.000000	4.973179
606.000000	4.984417
607.000000	4.995948
608.000000	5.007917
609.000000	5.020469
610.000000	5.033758
611.000000	5.047532
612.000000	5.061699
613.000000	5.076835
614.000000	5.092203
615.000000	5.107844
616.000000	5.124155
617.000000	5.140857
618.000000	5.158437
619.000000	5.176515
620.000000	5.195213
621.000000	5.214570
622.000000	5.234606
623.000000	5.255679
624.000000	5.277346
625.000000	5.299370
626.000000	5.322411
627.000000	5.345939
628.000000	5.370494
629.000000	5.395623
630.000000	5.421534
631.000000	5.448462
632.000000	5.476198
633.000000	5.504697
634.000000	5.533944
635.000000	5.564141
636.000000	5.595053
637.000000	5.626587
638.000000	5.659191
639.000000	5.692499
640.000000	5.726997
641.000000	5.762413
642.000000	5.798737
643.000000	5.836394
644.000000	5.874876
645.000000	5.914172
646.000000	5.954639
647.000000	5.996116
648.000000	6.038498
649.000000	6.082103
650.000000	6.126921
651.000000	6.172752
652.000000	6.219581
653.000000	6.267479
654.000000	6.316473
655.000000	6.366479
656.000000	6.417615
657.000000	6.469796
658.000000	6.522853
659.000000	6.577386
660.000000	6.633145
661.000000	6.689505
662.000000	6.747519
663.000000	6.806695
664.000000	6.867050
665.000000	6.928590
666.000000	6.991158
667.000000	7.054956
668.000000	7.120155
669.000000	7.186696
670.000000	7.254191
671.000000	7.322825
672.000000	7.392750
673.000000	7.464027
674.000000	7.536649
675.000000	7.610049
676.000000	7.684513
677.000000	7.760469
678.000000	7.837477
679.000000	7.915501
680.000000	7.994752
681.000000	8.075314
682.000000	8.157186
683.000000	8.240513
684.000000	8.324988
685.000000	8.410624
686.000000	8.497296
687.000000	8.584992
688.000000	8.673366
689.000000	8.763054
690.000000	8.854046
691.000000	8.946255
692.000000	9.039685
693.000000	9.134251
694.000000	9.230160
695.000000	9.327494
696.000000	9.426293
697.000000	9.525473
698.000000	9.626131
699.000000	9.727959
700.000000	9.830861
701.000000	9.935056
702.000000	10.040743
703.000000	10.147738
704.000000	10.255665
705.000000	10.364818
706.000000	10.474904
707.000000	10.585820
708.000000	10.698062
709.000000	10.811109
710.000000	10.924985
711.000000	11.041000
712.000000	11.158355
713.000000	11.276213
714.000000	11.395492
715.000000	11.516024
716.000000	11.637395
717.000000	11.759933
718.000000	11.883392
719.000000	12.008238
720.000000	12.134387
721.000000	12.261880
722.000000	12.390657
723.000000	12.520517
724.000000	12.651477
725.000000	12.783189
726.000000	12.916172
727.000000	13.050218
728.000000	13.185493
729.000000	13.321676
730.000000	13.458765
731.000000	13.596917
732.000000	13.736656
733.000000	13.877286
734.000000	14.019317
735.000000	14.162517
736.000000	14.306512
737.000000	14.451163
738.000000	14.596988
739.000000	14.744010
740.000000	14.892463
741.000000	15.041722
742.000000	15.191939
743.000000	15.343241
744.000000	15.496009
745.000000	15.650284
746.000000	15.804356
747.000000	15.958730
748.000000	16.114758
749.000000	16.272106
750.000000	16.429947
751.000000	16.589779
752.000000	16.751346
753.000000	16.914142
754.000000	17.077351
755.000000	17.240502
756.000000	17.404723
757.000000	17.570396
758.000000	17.736766
759.000000	17.903508
760.000000	18.072091
761.000000	18.241692
762.000000	18.412174
763.000000	18.583980
764.000000	18.757031
765.000000	18.930771
766.000000	19.105425
767.000000	19.279788
768.000000	19.455712
769.000000	19.632312
770.000000	19.809196
771.000000	19.988172
772.000000	20.168256
773.000000	20.349985
774.000000	20.530923
775.000000	20.712406
776.000000	20.895591
777.000000	21.080111
778.000000	21.265609
779.000000	21.452863
780.000000	21.639129
781.000000	21.826047
782.000000	22.014816
783.000000	22.205084
784.000000	22.394234
785.000000	22.583685
786.000000	22.775191
787.000000	22.967872
788.000000	23.159054
789.000000	23.351827
790.000000	23.547344
791.000000	23.743417
792.000000	23.939126
793.000000	24.136006
794.000000	24.334637
795.000000	24.532118
796.000000	24.730065
797.000000	24.929200
798.000000	25.129702
799.000000	25.331681
800.000000	25.533482
801.000000	25.735462
802.000000	25.939395
803.000000	26.143799
804.000000	26.349001
805.000000	26.555278
806.000000	26.760503
807.000000	26.966828
808.000000	27.172900
809.000000	27.381294
810.000000	27.589929
811.000000	27.799678
812.000000	28.008954
813.000000	28.218714
814.000000	28.427348
815.000000	28.639595
816.000000	28.851765
817.000000	29.064261
818.000000	29.278625
819.000000	29.493154
820.000000	29.706657
821.000000	29.918626
822.000000	30.132208
823.000000	30.345856
824.000000	30.559544
825.000000	30.773439
826.000000	30.989894
827.000000	31.206232
828.000000	31.423973
829.000000	31.637655
830.000000	31.854224
831.000000	32.072473
832.000000	32.293990
833.000000	32.511846
834.000000	32.730833
835.000000	32.949349
836.000000	33.166205
837.000000	33.383138
838.000000	33.599828
839.000000	33.819915
840.000000	34.042002
841.000000	34.261174
842.000000	34.483424
843.000000	34.702048
844.000000	34.925872
845.000000	35.145358
846.000000	35.363831
847.000000	35.584721
848.000000	35.810596
849.000000	36.038385
850.000000	36.258474
851.000000	36.480445
852.000000	36.699984
853.000000	36.919680
854.000000	37.147532
855.000000	37.372767
856.000000	37.598955
857.000000	37.816900
858.000000	38.018866
859.000000	38.245992
860.000000	38.479691
861.000000	38.711052
862.000000	38.948878
863.000000	39.177218
864.000000	39.412435
865.000000	39.650115
866.000000	39.847834
867.000000	40.081444
868.000000	40.300203
869.000000	40.510639
870.000000	40.739357
871.000000	40.951383
872.000000	41.206539
873.000000	41.459941
874.000000	41.687523
875.000000	41.918952
876.000000	42.164762
877.000000	42.433138
878.000000	42.684252
879.000000	42.932223
880.000000	43.163980
881.000000	43.376388
882.000000	43.613747
883.000000	43.838359
884.000000	44.083470
885.000000	44.331276
886.000000	44.554002
887.000000	44.781388
888.000000	45.024473
889.000000	45.245053
890.000000	45.504093
891.000000	45.746226
892.000000	45.995438
893.000000	46.250866
894.000000	46.483456
895.000000	46.704094
896.000000	46.951481
897.000000	47.160977
898.000000	47.381038
899.000000	47.607879
900.000000	47.823081
901.000000	48.080978
902.000000	48.273364
903.000000	48.519519
904.000000	48.758860
905.000000	48.971269
906.000000	49.208494
907.000000	49.406343
908.000000	49.606370
909.000000	49.824825
910.000000	50.054319
911.000000	50.274661
912.000000	50.434007
913.000000	50.656763
914.000000	50.865590
915.000000	51.083683
916.000000	51.314463
917.000000	51.541507
918.000000	51.767608
919.000000	51.967288
920.000000	52.171703
921.000000	52.403680
922.000000	52.596997
923.000000	52.799386
924.000000	53.038467
925.000000	53.220385
926.000000	53.416959
927.000000	53.587326
928.000000	53.795438
929.000000	53.994598
930.000000	54.186965
931.000000	54.347673
932.000000	54.551729
933.000000	54.758069
934.000000	54.980062
935.000000	55.196453
936.000000	55.389253
937.000000	55.588520
938.000000	55.758793
939.000000	55.964763
940.000000	56.206856
941.000000	56.411365
942.000000	56.627609
943.000000	56.843293
944.000000	57.051851
945.000000	57.243809
946.000000	57.393728
947.000000	57.626506
948.000000	57.785404
949.000000	57.939134
950.000000	58.114015
951.000000	58.300246
952.000000	58.484903
953.000000	58.669527
954.000000	58.871859
955.000000	59.068214
956.000000	59.250918
957.000000	59.460510
958.000000	59.658079
959.000000	59.839844
960.000000	60.034626
961.000000	60.206303
962.000000	60.427084
963.000000	60.617857
964.000000	60.812639
965.000000	61.035008
966.000000	61.247764
967.000000	61.435597
968.000000	61.627835
969.000000	61.787186
970.000000	61.951973
971.000000	62.135317
972.000000	62.331659
973.000000	62.514942
974.000000	62.699756
975.000000	62.862908
976.000000	63.041115
977.000000	63.198427
978.000000	63.363457
979.000000	63.526763
980.000000	63.702518
981.000000	63.916490
982.000000	64.092879
983.000000	64.279664
984.000000	64.503500
985.000000	64.743734
986.000000	64.944103
987.000000	65.119211
988.000000	65.303282
989.000000	65.496309
990.000000	65.672036
991.000000	65.821392
992.000000	65.983655
993.000000	66.147214
994.000000	66.314759
995.000000	66.500850
996.000000	66.690573
997.000000	66.847130
998.000000	67.029219
999.000000	67.212784
1000.000000	67.360678
1001.000000	67.519384
1002.000000	67.691852
1003.000000	67.852196
1004.000000	68.021839
1005.000000	68.208829
1006.000000	68.392807
1007.000000	68.566304
1008.000000	68.743357
1009.000000	68.887983
1010.000000	69.031517
1011.000000	69.185138
1012.000000	69.357253
1013.000000	69.519655
1014.000000	69.686567
1015.000000	69.828330
1016.000000	69.981686
1017.000000	70.128645
1018.000000	70.284218
1019.000000	70.420738
1020.000000	70.522676
1021.000000	70.673868
1022.000000	70.814036
1023.000000	70.940702
1024.000000	71.049656
1025.000000	71.187464
1026.000000	71.376550
1027.000000	71.565847
1028.000000	71.741445
1029.000000	71.896004
1030.000000	72.015568
1031.000000	72.146744
1032.000000	72.287863
1033.000000	72.410971
1034.000000	72.536793
1035.000000	72.679645
1036.000000	72.840517
1037.000000	72.977941
1038.000000	73.119757
1039.000000	73.256133
1040.000000	73.374825
1041.000000	73.495697
1042.000000	73.640450
1043.000000	73.793591
1044.000000	73.937993
1045.000000	74.089141
1046.000000	74.239065
1047.000000	74.364484
1048.000000	74.469435
1049.000000	74.581959
1050.000000	74.721874
1051.000000	74.850962
1052.000000	74.952008
1053.000000	75.063414
1054.000000	75.196078
1055.000000	75.344580
1056.000000	75.464166
1057.000000	75.597044
1058.000000	75.724801
1059.000000	75.846852
1060.000000	75.979806
1061.000000	76.090232
1062.000000	76.165632
1063.000000	76.260285
1064.000000	76.346339
1065.000000	76.469849
1066.000000	76.617177
1067.000000	76.761762
1068.000000	76.896829
1069.000000	77.043317
1070.000000	77.175203
1071.000000	77.285036
1072.000000	77.408255
1073.000000	77.514360
1074.000000	77.626547
1075.000000	77.758975
1076.000000	77.875812
1077.000000	77.993224
1078.000000	78.084818
1079.000000	78.178285
1080.000000	78.257574
1081.000000	78.375514
1082.000000	78.474431
1083.000000	78.654260
1084.000000	78.815700
1085.000000	78.951045
1086.000000	79.072100
1087.000000	79.194498
1088.000000	79.333956
1089.000000	79.438946
1090.000000	79.535421
1091.000000	79.644188
1092.000000	79.731630
1093.000000	79.820947
1094.000000	79.944557
1095.000000	80.068014
1096.000000	80.189158
1097.000000	80.341972
1098.000000	80.452185
1099.000000	80.590966
1100.000000	80.700269
1101.000000	80.809279
1102.000000	80.928339
1103.000000	81.009778
1104.000000	81.089528
1105.000000	81.177248
1106.000000	81.291730
1107.000000	81.417866
1108.000000	81.532432
1109.000000	81.606657
1110.000000	81.697787
1111.000000	81.828354
1112.000000	81.938498
1113.000000	82.052882
1114.000000	82.178599
1115.000000	82.308597
1116.000000	82.349649
1117.000000	82.428215
1118.000000	82.499812
1119.000000	82.567768
1120.000000	82.622052
1121.000000	82.723095
1122.000000	82.817101
1123.000000	82.921610
1124.000000	83.021908
1125.000000	83.109309
1126.000000	83.184585
1127.000000	83.322898
1128.000000	83.473420
1129.000000	83.569245
1130.000000	83.637780
1131.000000	83.719297
1132.000000	83.776419
1133.000000	83.898909
1134.000000	84.004796
1135.000000	84.102311
1136.000000	84.138532
1137.000000	84.212669
1138.000000	84.323038
1139.000000	84.391727
1140.000000	84.463874
1141.000000	84.505084
1142.000000	84.551482
1143.000000	84.628505
1144.000000	84.713697
1145.000000	84.789449
1146.000000	84.855075
1147.000000	84.907200
1148.000000	84.971018
1149.000000	85.046239
1150.000000	85.100025
1151.000000	85.207549
1152.000000	85.304951
1153.000000	85.355597
1154.000000	85.410137
1155.000000	85.507125
1156.000000	85.541993
1157.000000	85.594629
1158.000000	85.638044
1159.000000	85.667768
1160.000000	85.719168
1161.000000	85.793399
1162.000000	85.818726
1163.000000	85.823462
1164.000000	85.835037
1165.000000	85.883123
1166.000000	85.911905
1167.000000	85.957270
1168.000000	85.957224
1169.000000	85.946157
1170.000000	85.918766
1171.000000	85.949078
1172.000000	85.947937
1173.000000	85.969603
1174.000000	86.025786
1175.000000	86.040911
1176.000000	86.079454
1177.000000	86.115720
1178.000000	86.131105
1179.000000	86.190283
1180.000000	86.220596
1181.000000	86.246719
1182.000000	86.293273
1183.000000	86.343627
1184.000000	86.344358
1185.000000	86.358678
1186.000000	86.377616
1187.000000	86.422328
1188.000000	86.455883
1189.000000	86.496446
1190.000000	86.510205
1191.000000	86.559884
1192.000000	86.619142
1193.000000	86.651947
1194.000000	86.697358
1195.000000	86.730052
1196.000000	86.773461
1197.000000	86.810550
1198.000000	86.881771
1199.000000	86.956650
1200.000000	87.018670
1201.000000	87.071292
1202.000000	87.130385
1203.000000	87.174747
1204.000000	87.245216
1205.000000	87.363205
1206.000000	87.447442
1207.000000	87.513193
1208.000000	87.549411
1209.000000	87.579289
1210.000000	87.634435
1211.000000	87.700079
1212.000000	87.762823
1213.000000	87.842751
1214.000000	87.893285
1215.000000	87.933398
1216.000000	87.973961
1217.000000	88.024220
1218.000000	88.077881
1219.000000	88.155600
1220.000000	88.216170
1221.000000	88.250876
1222.000000	88.317573
1223.000000	88.364903
1224.000000	88.416128
1225.000000	88.480481
1226.000000	88.534946
1227.000000	88.604226
1228.000000	88.657154
1229.000000	88.717750
1230.000000	88.769981
1231.000000	88.817011
1232.000000	88.863636
1233.000000	88.888496
1234.000000	88.933794
1235.000000	88.956551
1236.000000	88.997996
1237.000000	89.037046
1238.000000	89.098267
1239.000000	89.129371
1240.000000	89.167142
1241.000000	89.233399
1242.000000	89.282482
1243.000000	89.347705
1244.000000	89.426133
1245.000000	89.508590
1246.000000	89.570635
1247.000000	89.611380
1248.000000	89.644368
1249.000000	89.711595
1250.000000	89.774909
1251.000000	89.812749
1252.000000	89.838523
1253.000000	89.880785
1254.000000	89.942151
1255.000000	90.026002
1256.000000	90.108108
1257.000000	90.127248
1258.000000	90.190924
1259.000000	90.267516
1260.000000	90.322291
1261.000000	90.375407
1262.000000	90.411856
1263.000000	90.469719
1264.000000	90.513947
1265.000000	90.566579
1266.000000	90.603482
1267.000000	90.640015
1268.000000	90.695400
1269.000000	90.751884
1270.000000	90.809085
1271.000000	90.847172
1272.000000	90.855561
1273.000000	90.886886
1274.000000	90.958337
1275.000000	91.003007
1276.000000	91.027435
1277.000000	91.078725
1278.000000	91.121621
1279.000000	91.147659
1280.000000	91.180982
1281.000000	91.213508
1282.000000	91.261353
1283.000000	91.309715
1284.000000	91.306247
1285.000000	91.347744
1286.000000	91.412988
1287.000000	91.487899
1288.000000	91.544698
1289.000000	91.584650
1290.000000	91.627867
1291.000000	91.697568
1292.000000	91.758629
1293.000000	91.792354
1294.000000	91.789251
1295.000000	91.798618
1296.000000	91.820016
1297.000000	91.842976
1298.000000	91.874079
1299.000000	91.922102
1300.000000	91.958813
1301.000000	91.985842
1302.000000	92.035204
1303.000000	92.074953
1304.000000	92.111321
1305.000000	92.117948
1306.000000	92.150262
1307.000000	92.242846
1308.000000	92.274755
1309.000000	92.288049
1310.000000	92.317738
1311.000000	92.364467
1312.000000	92.414657
1313.000000	92.438872
1314.000000	92.452493
1315.000000	92.463514
1316.000000	92.495030
1317.000000	92.528175
1318.000000	92.548555
1319.000000	92.580960
1320.000000	92.597336
1321.000000	92.620711
1322.000000	92.628001
1323.000000	92.625164
1324.000000	92.625565
1325.000000	92.626163
1326.000000	92.617297
1327.000000	92.624225
1328.000000	92.649974
1329.000000	92.696269
1330.000000	92.740076
1331.000000	92.759131
1332.000000	92.777271
1333.000000	92.789887
1334.000000	92.805426
1335.000000	92.833892
1336.000000	92.866511
1337.000000	92.875326
1338.000000	92.856139
1339.000000	92.831180
1340.000000	92.838173
1341.000000	92.826973
1342.000000	92.803771
1343.000000	92.805185
1344.000000	92.805455
1345.000000	92.802272
1346.000000	92.802125
1347.000000	92.772236
1348.000000	92.761376
1349.000000	92.760519
1350.000000	92.769575
1351.000000	92.742443
1352.000000	92.670768
1353.000000	92.638027
1354.000000	92.637630
1355.000000	92.609735
1356.000000	92.544392
1357.000000	92.525348
1358.000000	92.516923
1359.000000	92.515184
1360.000000	92.475914
1361.000000	92.506535
1362.000000	92.449683
1363.000000	92.387876
1364.000000	92.348024
1365.000000	92.272298
1366.000000	92.220551
1367.000000	92.181769
1368.000000	92.175608
1369.000000	92.119188
1370.000000	92.120892
1371.000000	92.160093
1372.000000	92.198175
1373.000000	92.205572
1374.000000	92.179600
1375.000000	92.191902
1376.000000	92.226224
1377.000000	92.151260
1378.000000	92.120183
1379.000000	92.087371
1380.000000	92.175728
1381.000000	92.051592
1382.000000	92.043777
1383.000000	91.975541
1384.000000	91.972886
1385.000000	91.990367
1386.000000	91.967017
1387.000000	92.058799
1388.000000	91.991705
1389.000000	91.933087
1390.000000	91.910009
1391.000000	91.883622
1392.000000	91.730780
1393.000000	91.573092
1394.000000	91.473062
1395.000000	91.421794
1396.000000	91.389048
1397.000000	91.324573
1398.000000	91.244265
1399.000000	91.174553
1400.000000	91.135359
1401.000000	91.053199
1402.000000	90.975458
1403.000000	90.817447
1404.000000	90.805136
1405.000000	90.599903
1406.000000	90.412955
1407.000000	90.169198
1408.000000	89.987482
1409.000000	89.853524
1410.000000	89.658987
1411.000000	89.470172
1412.000000	89.347107
1413.000000	89.237634
1414.000000	89.088036
1415.000000	88.770062
1416.000000	88.675727
1417.000000	88.459785
1418.000000	88.362690
1419.000000	88.154251
1420.000000	87.887170
1421.000000	87.684451
1422.000000	87.424040
1423.000000	87.299843
1424.000000	87.115139
1425.000000	86.901691
1426.000000	86.741870
1427.000000	86.663737
1428.000000	86.545458
1429.000000	86.389208
1430.000000	86.208049
1431.000000	85.909822
1432.000000	85.722648
1433.000000	85.576765
1434.000000	85.378563
1435.000000	85.164497
1436.000000	84.988883
1437.000000	84.836023
1438.000000	84.692561
1439.000000	84.441054
1440.000000	84.322024
1441.000000	84.176203
1442.000000	84.092341
1443.000000	83.963810
1444.000000	83.810814
1445.000000	83.711236
1446.000000	83.568005
1447.000000	83.433855
1448.000000	83.269659
1449.000000	83.150075
1450.000000	83.091501
1451.000000	82.970779
1452.000000	82.873477
1453.000000	82.733745
1454.000000	82.611551
1455.000000	82.540672
1456.000000	82.432501
1457.000000	82.317179
1458.000000	82.180392
1459.000000	82.084956
1460.000000	81.986596
1461.000000	81.850778
1462.000000	81.717506
1463.000000	81.635454
1464.000000	81.531090
1465.000000	81.423599
1466.000000	81.363476
1467.000000	81.288103
1468.000000	81.176851
1469.000000	81.126971
1470.000000	81.080179
1471.000000	80.991875
1472.000000	80.859788
1473.000000	80.756909
1474.000000	80.683395
1475.000000	80.614687
1476.000000	80.504709
1477.000000	80.406460
1478.000000	80.327916
1479.000000	80.255600
1480.000000	80.158712
1481.000000	80.093638
1482.000000	80.056286
1483.000000	79.993819
1484.000000	79.893808
1485.000000	79.811876
1486.000000	79.775179
1487.000000	79.716089
1488.000000	79.630909
1489.000000	79.590234
1490.000000	79.523718
1491.000000	79.469770
1492.000000	79.401724
1493.000000	79.374751
1494.000000	79.343169
1495.000000	79.347378
1496.000000	79.345116
1497.000000	79.335169
1498.000000	79.312492
1499.000000	79.278512
1500.000000	79.233183
1501.000000	79.184135
1502.000000	79.172548
1503.000000	79.178713
1504.000000	79.140331
1505.000000	79.116853
1506.000000	79.179138
1507.000000	79.230600
1508.000000	79.290984
1509.000000	79.332919
1510.000000	79.351204
1511.000000	79.381584
1512.000000	79.423214
1513.000000	79.479986
1514.000000	79.526798
1515.000000	79.583624
1516.000000	79.650883
1517.000000	79.695390
1518.000000	79.734577
1519.000000	79.806066
1520.000000	79.835556
1521.000000	79.854607
1522.000000	79.919647
1523.000000	80.016541
1524.000000	80.073283
1525.000000	80.121592
1526.000000	80.193361
1527.000000	80.305150
1528.000000	80.396578
1529.000000	80.465253
1530.000000	80.514990
1531.000000	80.594456
1532.000000	80.684822
1533.000000	80.772941
1534.000000	80.872695
1535.000000	81.015844
1536.000000	81.143055
1537.000000	81.239809
1538.000000	81.322496
1539.000000	81.407175
1540.000000	81.514363
1541.000000	81.575429
1542.000000	81.639490
1543.000000	81.699715
1544.000000	81.752113
1545.000000	81.849013
1546.000000	81.941911
1547.000000	82.018841
1548.000000	82.112178
1549.000000	82.218516
1550.000000	82.294858
1551.000000	82.343477
1552.000000	82.416306
1553.000000	82.481489
1554.000000	82.557578
1555.000000	82.638586
1556.000000	82.719543
1557.000000	82.761595
1558.000000	82.801818
1559.000000	82.873686
1560.000000	82.951322
1561.000000	83.027510
1562.000000	83.076329
1563.000000	83.127338
1564.000000	83.192223
1565.000000	83.246425
1566.000000	83.259521
1567.000000	83.290336
1568.000000	83.323122
1569.000000	83.360095
1570.000000	83.380688
1571.000000	83.394496
1572.000000	83.419263
1573.000000	83.428043
1574.000000	83.426564
1575.000000	83.414190
1576.000000	83.402138
1577.000000	83.416365
1578.000000	83.419286
1579.000000	83.442295
1580.000000	83.427249
1581.000000	83.431899
1582.000000	83.452104
1583.000000	83.454143
1584.000000	83.421835
1585.000000	83.424301
1586.000000	83.451092
1587.000000	83.464465
1588.000000	83.485680
1589.000000	83.498511
1590.000000	83.514338
1591.000000	83.545654
1592.000000	83.568188
1593.000000	83.595446
1594.000000	83.628126
1595.000000	83.645057
1596.000000	83.662107
1597.000000	83.677757
1598.000000	83.690175
1599.000000	83.719877
1600.000000	83.760379
1601.000000	83.824131
1602.000000	83.869472
1603.000000	83.926522
1604.000000	83.970659
1605.000000	84.015853
1606.000000	84.056709
1607.000000	84.126575
1608.000000	84.213414
1609.000000	84.303565
1610.000000	84.407454
1611.000000	84.508905
1612.000000	84.573613
1613.000000	84.661433
1614.000000	84.738894
1615.000000	84.822106
1616.000000	84.852953
1617.000000	84.896783
1618.000000	84.961368
1619.000000	85.069036
1620.000000	85.164856
1621.000000	85.245800
1622.000000	85.299714
1623.000000	85.370024
1624.000000	85.422558
1625.000000	85.511999
1626.000000	85.586317
1627.000000	85.674539
1628.000000	85.728440
1629.000000	85.764477
1630.000000	85.822785
1631.000000	85.888060
1632.000000	85.953339
1633.000000	86.036042
1634.000000	86.088700
1635.000000	86.145339
1636.000000	86.211339
1637.000000	86.219773
1638.000000	86.284800
1639.000000	86.362526
1640.000000	86.407291
1641.000000	86.462189
1642.000000	86.520165
1643.000000	86.549578
1644.000000	86.592010
1645.000000	86.596772
1646.000000	86.632927
1647.000000	86.707007
1648.000000	86.739921
1649.000000	86.784602
1650.000000	86.817791
1651.000000	86.923495
1652.000000	86.956218
1653.000000	87.016510
1654.000000	87.003760
1655.000000	86.985242
1656.000000	86.991272
1657.000000	87.010415
1658.000000	87.038502
1659.000000	87.055488
1660.000000	87.043962
1661.000000	87.016033
1662.000000	87.011292
1663.000000	87.041981
1664.000000	87.082356
1665.000000	87.110265
1666.000000	87.122548
1667.000000	87.101671
1668.000000	87.068293
1669.000000	87.046362
1670.000000	87.022387
1671.000000	87.005931
1672.000000	87.004398
1673.000000	86.916170
1674.000000	86.847035
1675.000000	86.797849
1676.000000	86.767857
1677.000000	86.680423
1678.000000	86.603811
1679.000000	86.546733
1680.000000	86.454117
1681.000000	86.346373
1682.000000	86.200976
1683.000000	86.097960
1684.000000	85.967393
1685.000000	85.845274
1686.000000	85.691146
1687.000000	85.593022
1688.000000	85.446577
1689.000000	85.360619
1690.000000	85.283698
1691.000000	85.169678
1692.000000	85.031079
1693.000000	84.910825
1694.000000	84.822504
1695.000000	84.724959
1696.000000	84.643549
1697.000000	84.555388
1698.000000	84.466662
1699.000000	84.356839
1700.000000	84.249728
1701.000000	84.161425
1702.000000	84.109110
1703.000000	84.034580
1704.000000	83.979088
1705.000000	83.914791
1706.000000	83.826594
1707.000000	83.778090
1708.000000	83.747172
1709.000000	83.684107
1710.000000	83.618260
1711.000000	83.520260
1712.000000	83.458889
1713.000000	83.414636
1714.000000	83.346755
1715.000000	83.341678
1716.000000	83.273301
1717.000000	83.201248
1718.000000	83.154511
1719.000000	83.110666
1720.000000	83.061173
1721.000000	83.017223
1722.000000	82.947442
1723.000000	82.903983
1724.000000	82.847839
1725.000000	82.747538
1726.000000	82.671088
1727.000000	82.649432
1728.000000	82.578242
1729.000000	82.488640
1730.000000	82.433171
1731.000000	82.387490
1732.000000	82.306415
1733.000000	82.208301
1734.000000	82.138322
1735.000000	82.096462
1736.000000	82.058030
1737.000000	82.001414
1738.000000	81.961225
1739.000000	81.921433
1740.000000	81.877222
1741.000000	81.826335
1742.000000	81.776238
1743.000000	81.752903
1744.000000	81.736154
1745.000000	81.733501
1746.000000	81.732013
1747.000000	81.737754
1748.000000	81.727223
1749.000000	81.702129
1750.000000	81.689313
1751.000000	81.736093
1752.000000	81.800908
1753.000000	81.823207
1754.000000	81.873713
1755.000000	81.928712
1756.000000	81.947505
1757.000000	82.001817
1758.000000	82.031455
1759.000000	82.061422
1760.000000	82.129185
1761.000000	82.197459
1762.000000	82.256521
1763.000000	82.311098
1764.000000	82.380983
1765.000000	82.402312
1766.000000	82.422766
1767.000000	82.492550
1768.000000	82.578064
1769.000000	82.625269
1770.000000	82.668088
1771.000000	82.717121
1772.000000	82.765312
1773.000000	82.804091
1774.000000	82.842580
1775.000000	82.853171
1776.000000	82.881134
1777.000000	82.940734
1778.000000	82.973095
1779.000000	83.001851
1780.000000	83.016894
1781.000000	83.061000
1782.000000	83.095559
1783.000000	83.115279
1784.000000	83.166167
1785.000000	83.199186
1786.000000	83.222684
1787.000000	83.267094
1788.000000	83.305327
1789.000000	83.321995
1790.000000	83.358414
1791.000000	83.429150
1792.000000	83.483752
1793.000000	83.528324
1794.000000	83.574857
1795.000000	83.622665
1796.000000	83.671559
1797.000000	83.700780
1798.000000	83.734623
1799.000000	83.789882
1800.000000	83.874496
1801.000000	83.945583
1802.000000	83.986113
1803.000000	83.995153
1804.000000	84.021966
1805.000000	84.049100
1806.000000	84.069587
1807.000000	84.098936
1808.000000	84.106298
1809.000000	84.110397
1810.000000	84.175699
1811.000000	84.240766
1812.000000	84.248445
1813.000000	84.229521
1814.000000	84.245209
1815.000000	84.274256
1816.000000	84.276161
1817.000000	84.326943
1818.000000	84.418966
1819.000000	84.493847
1820.000000	84.597503
1821.000000	84.640240
1822.000000	84.636714
1823.000000	84.653792
1824.000000	84.690284
1825.000000	84.752534
1826.000000	84.800900
1827.000000	84.789325
1828.000000	84.808026
1829.000000	84.810647
1830.000000	84.821495
1831.000000	84.832990
1832.000000	84.895317
1833.000000	84.927079
1834.000000	84.926387
1835.000000	84.940213
1836.000000	84.974567
1837.000000	84.992903
1838.000000	84.973390
1839.000000	85.063105
1840.000000	85.104444
1841.000000	85.158917
1842.000000	85.208830
1843.000000	85.250663
1844.000000	85.282254
1845.000000	85.263337
1846.000000	85.290521
1847.000000	85.390285
1848.000000	85.466273
1849.000000	85.502894
1850.000000	85.547803
1851.000000	85.573899
1852.000000	85.530197
1853.000000	85.481094
1854.000000	85.431198
1855.000000	85.427681
1856.000000	85.491772
1857.000000	85.535851
1858.000000	85.577942
1859.000000	85.635490
1860.000000	85.621425
1861.000000	85.585203
1862.000000	85.623125
1863.000000	85.667229
1864.000000	85.698915
1865.000000	85.682074
1866.000000	85.658131
1867.000000	85.640016
1868.000000	85.633066
1869.000000	85.617388
1870.000000	85.588514
1871.000000	85.478330
1872.000000	85.458454
1873.000000	85.462080
1874.000000	85.366484
1875.000000	85.299338
1876.000000	85.210407
1877.000000	85.123487
1878.000000	85.026230
1879.000000	84.937886
1880.000000	84.888043
1881.000000	84.767263
1882.000000	84.578845
1883.000000	84.458330
1884.000000	84.308651
1885.000000	84.145351
1886.000000	84.030990
1887.000000	83.861012
1888.000000	83.670124
1889.000000	83.517196
1890.000000	83.250413
1891.000000	82.955344
1892.000000	82.669378
1893.000000	82.356255
1894.000000	81.995466
1895.000000	81.648777
1896.000000	81.339447
1897.000000	80.988214
1898.000000	80.593889
1899.000000	80.239682
1900.000000	79.844818
1901.000000	79.457029
1902.000000	79.100154
1903.000000	78.588485
1904.000000	78.136976
1905.000000	77.643717
1906.000000	77.193286
1907.000000	76.634651
1908.000000	76.094527
1909.000000	75.540776
1910.000000	75.037916
1911.000000	74.495366
1912.000000	73.924058
1913.000000	73.415935
1914.000000	72.858075
1915.000000	72.316330
1916.000000	71.771802
1917.000000	71.214517
1918.000000	70.617041
1919.000000	70.108947
1920.000000	69.539296
1921.000000	68.937544
1922.000000	68.407916
1923.000000	67.929429
1924.000000	67.374746
1925.000000	66.833300
1926.000000	66.350307
1927.000000	65.838724
1928.000000	65.368735
1929.000000	64.935806
1930.000000	64.476979
1931.000000	64.039274
1932.000000	63.617804
1933.000000	63.221937
1934.000000	62.824849
1935.000000	62.507753
1936.000000	62.134531
1937.000000	61.735035
1938.000000	61.539452
1939.000000	61.272253
1940.000000	61.054739
1941.000000	60.820430
1942.000000	60.653878
1943.000000	60.519100
1944.000000	60.421382
1945.000000	60.241588
1946.000000	60.090740
1947.000000	59.977370
1948.000000	59.872400
1949.000000	59.814481
1950.000000	59.700665
1951.000000	59.639792
1952.000000	59.622989
1953.000000	59.589836
1954.000000	59.525133
1955.000000	59.540343
1956.000000	59.574185
1957.000000	59.614466
1958.000000	59.616585
1959.000000	59.691997
1960.000000	59.766594
1961.000000	59.810920
1962.000000	59.941743
1963.000000	60.056509
1964.000000	60.146648
1965.000000	60.262816
1966.000000	60.369182
1967.000000	60.523199
1968.000000	60.701696
1969.000000	60.845956
1970.000000	60.965359
1971.000000	61.148932
1972.000000	61.273065
1973.000000	61.386602
1974.000000	61.532355
1975.000000	61.671957
1976.000000	61.868343
1977.000000	62.016550
1978.000000	62.138866
1979.000000	62.247962
1980.000000	62.409672
1981.000000	62.588838
1982.000000	62.745948
1983.000000	62.899599
1984.000000	63.036739
1985.000000	63.205431
1986.000000	63.350028
1987.000000	63.492967
1988.000000	63.694069
1989.000000	63.887561
1990.000000	64.063321
1991.000000	64.221079
1992.000000	64.369337
1993.000000	64.552361
1994.000000	64.692491
1995.000000	64.873411
1996.000000	65.046598
1997.000000	65.184024
1998.000000	65.340668
1999.000000	65.486584
2000.000000	65.659448
