PE UV       SUBTECH     SPECTRUM    ASCII       PEDS        4.00        
   -1
4-STRIGIDA BELTI INBIO0004211063.ASC
23/11/21
17:11:42.00
23/11/21
17:11:42.00
Vinicio Soto Monge

250,000000
1
Lambda 1050
1050L1511233
PerkinElmer UV WinLab 6.3.2.0749 / 2.02.05 Lambda 900 UV/VIS/NIR, Aug  7 2015 09:38:08

0
0
3350/servo 860,8/2
0
0
UV/VIS
1
1
1
DoubleDePol,CommonBeamDepol,RBeamAtt,SBeamAtt,60mm sphere, WB InGaAs Detector
0
0
0
0
Program
Program
3350/servo 860,8/2
3350/0,4 860,8/0,4
3350/0,4 860,8/0,4
0
20.00
 
 
 
0
 
860,8
319,2
860,8
Front
100
on
S:100 R:100
0
0
0
0
 
0
 
 
 
0
 
 
0
0
0
0
0
 
 
 
 
0
0


0
0
#HDR
-1
-1
#GR
nm
%R
1.0
0.0
2200,000000
-1,000000
1951
8
105,970740
5,163108
#DATA
284.000000	9.052659
285.000000	9.012076
286.000000	8.971936
287.000000	8.933496
288.000000	8.896995
289.000000	8.861378
290.000000	8.827433
291.000000	8.795243
292.000000	8.764170
293.000000	8.733219
294.000000	8.705098
295.000000	8.675817
296.000000	8.648254
297.000000	8.621287
298.000000	8.596467
299.000000	8.573042
300.000000	8.550365
301.000000	8.528264
302.000000	8.506573
303.000000	8.485542
304.000000	8.465812
305.000000	8.445561
306.000000	8.425879
307.000000	8.406159
308.000000	8.386870
309.000000	8.367173
310.000000	8.347700
311.000000	8.328035
312.000000	8.309825
313.000000	8.289554
314.000000	8.270558
315.000000	8.251017
316.000000	8.232197
317.000000	8.219025
318.000000	8.207028
319.000000	8.197283
320.000000	8.185134
321.000000	8.172003
322.000000	8.163422
323.000000	8.149338
324.000000	8.136224
325.000000	8.126968
326.000000	8.114470
327.000000	8.101745
328.000000	8.089781
329.000000	8.077392
330.000000	8.067125
331.000000	8.055676
332.000000	8.043541
333.000000	8.032452
334.000000	8.019785
335.000000	8.006903
336.000000	7.994719
337.000000	7.983783
338.000000	7.974059
339.000000	7.960808
340.000000	7.949231
341.000000	7.940568
342.000000	7.932591
343.000000	7.922692
344.000000	7.912563
345.000000	7.904695
346.000000	7.898453
347.000000	7.891196
348.000000	7.885552
349.000000	7.879436
350.000000	7.874735
351.000000	7.869813
352.000000	7.860127
353.000000	7.849473
354.000000	7.836076
355.000000	7.827225
356.000000	7.819442
357.000000	7.806536
358.000000	7.801371
359.000000	7.795014
360.000000	7.786472
361.000000	7.779581
362.000000	7.771910
363.000000	7.764217
364.000000	7.757302
365.000000	7.749725
366.000000	7.743847
367.000000	7.740012
368.000000	7.734473
369.000000	7.730655
370.000000	7.726833
371.000000	7.722078
372.000000	7.717270
373.000000	7.711558
374.000000	7.707146
375.000000	7.701060
376.000000	7.691730
377.000000	7.678845
378.000000	7.667576
379.000000	7.657432
380.000000	7.645900
381.000000	7.633678
382.000000	7.621499
383.000000	7.609182
384.000000	7.596442
385.000000	7.583851
386.000000	7.570816
387.000000	7.557064
388.000000	7.544198
389.000000	7.532098
390.000000	7.518578
391.000000	7.505645
392.000000	7.492743
393.000000	7.478791
394.000000	7.465631
395.000000	7.451890
396.000000	7.438195
397.000000	7.425595
398.000000	7.413485
399.000000	7.401062
400.000000	7.388778
401.000000	7.375711
402.000000	7.361498
403.000000	7.348002
404.000000	7.335008
405.000000	7.322136
406.000000	7.310258
407.000000	7.297416
408.000000	7.285418
409.000000	7.275507
410.000000	7.265544
411.000000	7.257462
412.000000	7.252175
413.000000	7.247199
414.000000	7.242305
415.000000	7.237799
416.000000	7.233643
417.000000	7.229813
418.000000	7.226217
419.000000	7.222732
420.000000	7.219335
421.000000	7.216165
422.000000	7.213084
423.000000	7.210211
424.000000	7.207762
425.000000	7.205458
426.000000	7.203140
427.000000	7.201369
428.000000	7.199915
429.000000	7.198337
430.000000	7.196982
431.000000	7.195955
432.000000	7.194824
433.000000	7.193764
434.000000	7.193144
435.000000	7.192582
436.000000	7.192243
437.000000	7.192050
438.000000	7.191784
439.000000	7.191569
440.000000	7.191750
441.000000	7.192066
442.000000	7.192637
443.000000	7.193027
444.000000	7.193741
445.000000	7.194951
446.000000	7.196474
447.000000	7.198385
448.000000	7.200306
449.000000	7.202297
450.000000	7.203867
451.000000	7.205771
452.000000	7.208188
453.000000	7.210863
454.000000	7.213625
455.000000	7.216421
456.000000	7.219172
457.000000	7.222569
458.000000	7.226420
459.000000	7.230052
460.000000	7.233405
461.000000	7.237071
462.000000	7.240863
463.000000	7.244969
464.000000	7.249544
465.000000	7.254333
466.000000	7.259567
467.000000	7.265233
468.000000	7.271060
469.000000	7.277299
470.000000	7.283962
471.000000	7.291079
472.000000	7.298907
473.000000	7.307357
474.000000	7.316653
475.000000	7.326617
476.000000	7.337442
477.000000	7.348984
478.000000	7.361353
479.000000	7.374415
480.000000	7.387979
481.000000	7.402399
482.000000	7.417670
483.000000	7.434343
484.000000	7.452432
485.000000	7.471852
486.000000	7.492432
487.000000	7.514038
488.000000	7.537089
489.000000	7.561948
490.000000	7.588413
491.000000	7.616621
492.000000	7.646587
493.000000	7.678362
494.000000	7.712255
495.000000	7.748531
496.000000	7.786807
497.000000	7.827278
498.000000	7.870113
499.000000	7.915790
500.000000	7.964036
501.000000	8.014800
502.000000	8.068814
503.000000	8.126282
504.000000	8.186904
505.000000	8.250911
506.000000	8.318492
507.000000	8.389534
508.000000	8.464480
509.000000	8.543530
510.000000	8.626648
511.000000	8.713866
512.000000	8.805849
513.000000	8.902637
514.000000	9.004441
515.000000	9.111638
516.000000	9.223768
517.000000	9.340942
518.000000	9.463085
519.000000	9.590230
520.000000	9.723141
521.000000	9.861615
522.000000	10.005444
523.000000	10.154452
524.000000	10.308468
525.000000	10.467352
526.000000	10.630901
527.000000	10.798949
528.000000	10.971096
529.000000	11.146938
530.000000	11.326426
531.000000	11.509255
532.000000	11.694719
533.000000	11.882223
534.000000	12.071106
535.000000	12.261578
536.000000	12.452624
537.000000	12.643753
538.000000	12.834291
539.000000	13.024299
540.000000	13.212659
541.000000	13.398717
542.000000	13.581784
543.000000	13.761257
544.000000	13.936610
545.000000	14.107286
546.000000	14.273049
547.000000	14.433278
548.000000	14.586670
549.000000	14.732925
550.000000	14.871578
551.000000	15.002787
552.000000	15.125507
553.000000	15.239730
554.000000	15.345655
555.000000	15.442968
556.000000	15.531678
557.000000	15.611731
558.000000	15.683268
559.000000	15.747338
560.000000	15.804901
561.000000	15.856200
562.000000	15.900992
563.000000	15.940701
564.000000	15.976170
565.000000	16.007515
566.000000	16.036275
567.000000	16.063322
568.000000	16.089724
569.000000	16.116590
570.000000	16.144327
571.000000	16.174438
572.000000	16.207927
573.000000	16.245550
574.000000	16.287941
575.000000	16.336382
576.000000	16.391330
577.000000	16.454130
578.000000	16.525119
579.000000	16.604415
580.000000	16.692784
581.000000	16.789689
582.000000	16.896202
583.000000	17.013097
584.000000	17.140249
585.000000	17.277289
586.000000	17.425084
587.000000	17.582990
588.000000	17.751251
589.000000	17.929414
590.000000	18.117068
591.000000	18.314164
592.000000	18.520943
593.000000	18.737002
594.000000	18.961336
595.000000	19.193514
596.000000	19.433514
597.000000	19.681446
598.000000	19.936372
599.000000	20.197565
600.000000	20.464602
601.000000	20.738351
602.000000	21.017604
603.000000	21.302275
604.000000	21.591332
605.000000	21.884489
606.000000	22.181061
607.000000	22.480934
608.000000	22.783373
609.000000	23.087363
610.000000	23.393244
611.000000	23.700604
612.000000	24.009092
613.000000	24.318238
614.000000	24.627944
615.000000	24.938553
616.000000	25.249411
617.000000	25.560272
618.000000	25.871230
619.000000	26.181897
620.000000	26.493350
621.000000	26.805277
622.000000	27.118294
623.000000	27.432092
624.000000	27.746546
625.000000	28.062292
626.000000	28.379673
627.000000	28.698207
628.000000	29.017681
629.000000	29.338629
630.000000	29.661110
631.000000	29.985256
632.000000	30.310034
633.000000	30.636742
634.000000	30.964667
635.000000	31.294773
636.000000	31.625511
637.000000	31.957366
638.000000	32.289489
639.000000	32.622256
640.000000	32.955942
641.000000	33.291005
642.000000	33.626810
643.000000	33.963385
644.000000	34.301360
645.000000	34.639346
646.000000	34.976911
647.000000	35.315293
648.000000	35.654818
649.000000	35.994671
650.000000	36.334420
651.000000	36.676315
652.000000	37.018172
653.000000	37.361273
654.000000	37.706090
655.000000	38.051618
656.000000	38.397003
657.000000	38.743414
658.000000	39.091694
659.000000	39.441041
660.000000	39.791181
661.000000	40.141740
662.000000	40.493301
663.000000	40.846693
664.000000	41.200999
665.000000	41.556343
666.000000	41.911466
667.000000	42.267371
668.000000	42.623209
669.000000	42.980528
670.000000	43.338617
671.000000	43.695961
672.000000	44.053405
673.000000	44.410433
674.000000	44.766416
675.000000	45.121192
676.000000	45.474564
677.000000	45.827044
678.000000	46.177991
679.000000	46.526764
680.000000	46.874850
681.000000	47.221934
682.000000	47.566915
683.000000	47.910597
684.000000	48.253342
685.000000	48.595202
686.000000	48.934598
687.000000	49.272668
688.000000	49.607666
689.000000	49.941200
690.000000	50.273373
691.000000	50.606175
692.000000	50.937645
693.000000	51.265813
694.000000	51.592855
695.000000	51.919304
696.000000	52.244905
697.000000	52.567660
698.000000	52.888249
699.000000	53.208206
700.000000	53.526438
701.000000	53.843102
702.000000	54.157726
703.000000	54.469711
704.000000	54.778418
705.000000	55.085373
706.000000	55.391623
707.000000	55.694388
708.000000	55.994500
709.000000	56.294132
710.000000	56.592856
711.000000	56.890526
712.000000	57.184718
713.000000	57.477285
714.000000	57.769593
715.000000	58.059835
716.000000	58.349134
717.000000	58.635394
718.000000	58.918352
719.000000	59.198936
720.000000	59.478446
721.000000	59.757646
722.000000	60.035364
723.000000	60.313458
724.000000	60.589332
725.000000	60.862790
726.000000	61.134308
727.000000	61.405516
728.000000	61.675763
729.000000	61.942018
730.000000	62.205422
731.000000	62.467797
732.000000	62.730184
733.000000	62.991114
734.000000	63.248369
735.000000	63.503366
736.000000	63.758596
737.000000	64.012305
738.000000	64.264304
739.000000	64.515042
740.000000	64.763791
741.000000	65.009653
742.000000	65.255945
743.000000	65.502204
744.000000	65.746066
745.000000	65.988097
746.000000	66.227189
747.000000	66.465717
748.000000	66.704168
749.000000	66.940345
750.000000	67.175214
751.000000	67.408131
752.000000	67.642191
753.000000	67.877995
754.000000	68.112458
755.000000	68.343463
756.000000	68.573125
757.000000	68.800501
758.000000	69.023663
759.000000	69.246449
760.000000	69.469213
761.000000	69.690538
762.000000	69.909741
763.000000	70.128088
764.000000	70.347924
765.000000	70.566403
766.000000	70.782493
767.000000	70.998234
768.000000	71.211644
769.000000	71.425423
770.000000	71.637951
771.000000	71.847659
772.000000	72.059331
773.000000	72.272355
774.000000	72.483076
775.000000	72.690920
776.000000	72.897207
777.000000	73.103984
778.000000	73.308212
779.000000	73.511880
780.000000	73.714352
781.000000	73.916051
782.000000	74.117312
783.000000	74.316191
784.000000	74.513434
785.000000	74.710780
786.000000	74.908706
787.000000	75.103441
788.000000	75.293417
789.000000	75.481012
790.000000	75.673022
791.000000	75.866523
792.000000	76.057192
793.000000	76.248052
794.000000	76.436367
795.000000	76.624141
796.000000	76.808650
797.000000	76.992504
798.000000	77.175802
799.000000	77.360888
800.000000	77.545625
801.000000	77.728765
802.000000	77.911529
803.000000	78.095104
804.000000	78.275469
805.000000	78.455117
806.000000	78.632795
807.000000	78.808256
808.000000	78.979771
809.000000	79.155905
810.000000	79.331381
811.000000	79.507490
812.000000	79.680140
813.000000	79.854208
814.000000	80.024448
815.000000	80.189852
816.000000	80.356596
817.000000	80.522670
818.000000	80.689948
819.000000	80.854854
820.000000	81.019740
821.000000	81.182711
822.000000	81.345230
823.000000	81.506505
824.000000	81.669643
825.000000	81.830805
826.000000	81.987340
827.000000	82.148679
828.000000	82.309203
829.000000	82.471587
830.000000	82.623472
831.000000	82.774248
832.000000	82.928400
833.000000	83.079761
834.000000	83.222234
835.000000	83.366829
836.000000	83.511333
837.000000	83.651749
838.000000	83.792571
839.000000	83.932817
840.000000	84.072570
841.000000	84.213571
842.000000	84.351002
843.000000	84.489047
844.000000	84.627878
845.000000	84.769066
846.000000	84.904290
847.000000	85.036402
848.000000	85.159411
849.000000	85.299341
850.000000	85.440107
851.000000	85.574124
852.000000	85.703117
853.000000	85.830178
854.000000	85.958274
855.000000	86.084723
856.000000	86.214894
857.000000	86.327469
858.000000	86.438220
859.000000	86.582368
860.000000	86.735204
861.000000	86.906466
862.000000	87.029916
863.000000	87.156675
864.000000	87.290477
865.000000	87.402391
866.000000	87.520191
867.000000	87.657950
868.000000	87.786242
869.000000	87.927636
870.000000	88.090458
871.000000	88.227435
872.000000	88.343350
873.000000	88.451738
874.000000	88.563045
875.000000	88.709506
876.000000	88.832024
877.000000	88.965463
878.000000	89.093344
879.000000	89.199645
880.000000	89.311436
881.000000	89.458832
882.000000	89.615490
883.000000	89.743215
884.000000	89.872868
885.000000	89.993329
886.000000	90.122345
887.000000	90.225437
888.000000	90.349514
889.000000	90.491537
890.000000	90.631820
891.000000	90.748710
892.000000	90.850463
893.000000	90.943144
894.000000	91.041574
895.000000	91.130274
896.000000	91.193719
897.000000	91.299657
898.000000	91.419331
899.000000	91.522356
900.000000	91.628357
901.000000	91.735510
902.000000	91.820767
903.000000	91.906056
904.000000	91.994826
905.000000	92.068337
906.000000	92.171134
907.000000	92.271333
908.000000	92.384123
909.000000	92.504075
910.000000	92.567648
911.000000	92.650115
912.000000	92.705976
913.000000	92.784121
914.000000	92.882087
915.000000	92.952609
916.000000	93.002702
917.000000	93.046799
918.000000	93.110290
919.000000	93.170646
920.000000	93.234232
921.000000	93.289896
922.000000	93.368466
923.000000	93.430138
924.000000	93.478115
925.000000	93.525954
926.000000	93.601075
927.000000	93.682131
928.000000	93.786447
929.000000	93.843494
930.000000	93.883870
931.000000	93.951620
932.000000	94.001174
933.000000	94.045136
934.000000	94.124403
935.000000	94.201976
936.000000	94.269496
937.000000	94.314946
938.000000	94.366355
939.000000	94.403192
940.000000	94.460399
941.000000	94.512781
942.000000	94.576060
943.000000	94.632957
944.000000	94.663065
945.000000	94.715042
946.000000	94.797296
947.000000	94.890823
948.000000	94.945970
949.000000	94.984249
950.000000	95.041648
951.000000	95.067032
952.000000	95.085064
953.000000	95.143435
954.000000	95.205061
955.000000	95.258306
956.000000	95.308746
957.000000	95.351737
958.000000	95.410960
959.000000	95.460078
960.000000	95.493110
961.000000	95.489859
962.000000	95.542314
963.000000	95.583101
964.000000	95.626948
965.000000	95.700301
966.000000	95.729636
967.000000	95.766969
968.000000	95.797690
969.000000	95.800341
970.000000	95.822843
971.000000	95.855719
972.000000	95.915442
973.000000	95.957775
974.000000	95.996358
975.000000	96.005244
976.000000	96.013513
977.000000	96.033995
978.000000	96.052372
979.000000	96.084082
980.000000	96.137305
981.000000	96.154011
982.000000	96.176373
983.000000	96.214527
984.000000	96.265988
985.000000	96.322080
986.000000	96.380885
987.000000	96.451073
988.000000	96.497032
989.000000	96.521294
990.000000	96.545780
991.000000	96.581757
992.000000	96.651093
993.000000	96.696030
994.000000	96.715486
995.000000	96.741841
996.000000	96.795569
997.000000	96.821635
998.000000	96.869101
999.000000	96.928178
1000.000000	96.959503
1001.000000	96.998800
1002.000000	97.007565
1003.000000	97.018860
1004.000000	97.046092
1005.000000	97.088522
1006.000000	97.119595
1007.000000	97.140306
1008.000000	97.184749
1009.000000	97.217060
1010.000000	97.262775
1011.000000	97.295385
1012.000000	97.336004
1013.000000	97.371374
1014.000000	97.421149
1015.000000	97.459268
1016.000000	97.479904
1017.000000	97.499494
1018.000000	97.538945
1019.000000	97.562079
1020.000000	97.568458
1021.000000	97.618633
1022.000000	97.657076
1023.000000	97.685760
1024.000000	97.722815
1025.000000	97.743688
1026.000000	97.753638
1027.000000	97.765603
1028.000000	97.751798
1029.000000	97.750762
1030.000000	97.777399
1031.000000	97.802188
1032.000000	97.822233
1033.000000	97.811757
1034.000000	97.796867
1035.000000	97.805438
1036.000000	97.841770
1037.000000	97.894276
1038.000000	97.937337
1039.000000	97.975766
1040.000000	97.996335
1041.000000	98.004937
1042.000000	98.037130
1043.000000	98.088471
1044.000000	98.127220
1045.000000	98.129827
1046.000000	98.144902
1047.000000	98.160659
1048.000000	98.183961
1049.000000	98.175976
1050.000000	98.164388
1051.000000	98.184683
1052.000000	98.197607
1053.000000	98.189386
1054.000000	98.181318
1055.000000	98.202468
1056.000000	98.185274
1057.000000	98.178675
1058.000000	98.171597
1059.000000	98.153715
1060.000000	98.178614
1061.000000	98.213418
1062.000000	98.212557
1063.000000	98.233716
1064.000000	98.269719
1065.000000	98.309824
1066.000000	98.343388
1067.000000	98.383623
1068.000000	98.424873
1069.000000	98.451405
1070.000000	98.464010
1071.000000	98.453383
1072.000000	98.465556
1073.000000	98.465339
1074.000000	98.454560
1075.000000	98.432694
1076.000000	98.447676
1077.000000	98.435039
1078.000000	98.403354
1079.000000	98.422688
1080.000000	98.445302
1081.000000	98.461264
1082.000000	98.465185
1083.000000	98.473208
1084.000000	98.501612
1085.000000	98.525585
1086.000000	98.552442
1087.000000	98.551839
1088.000000	98.582174
1089.000000	98.614998
1090.000000	98.636058
1091.000000	98.665612
1092.000000	98.658718
1093.000000	98.675859
1094.000000	98.698002
1095.000000	98.730727
1096.000000	98.745139
1097.000000	98.761811
1098.000000	98.795603
1099.000000	98.815444
1100.000000	98.818614
1101.000000	98.820366
1102.000000	98.819838
1103.000000	98.842924
1104.000000	98.847628
1105.000000	98.827927
1106.000000	98.840331
1107.000000	98.861485
1108.000000	98.880150
1109.000000	98.909795
1110.000000	98.972846
1111.000000	98.985108
1112.000000	99.003581
1113.000000	99.050132
1114.000000	99.057970
1115.000000	99.060551
1116.000000	99.044338
1117.000000	99.066580
1118.000000	99.081459
1119.000000	99.071935
1120.000000	99.085312
1121.000000	99.058993
1122.000000	99.103894
1123.000000	99.117792
1124.000000	99.126171
1125.000000	99.133253
1126.000000	99.114305
1127.000000	99.169660
1128.000000	99.210120
1129.000000	99.233260
1130.000000	99.203016
1131.000000	99.210185
1132.000000	99.228666
1133.000000	99.234994
1134.000000	99.292585
1135.000000	99.286771
1136.000000	99.280263
1137.000000	99.311939
1138.000000	99.311942
1139.000000	99.326251
1140.000000	99.356814
1141.000000	99.368008
1142.000000	99.356818
1143.000000	99.351560
1144.000000	99.352791
1145.000000	99.291812
1146.000000	99.302440
1147.000000	99.299298
1148.000000	99.254190
1149.000000	99.247011
1150.000000	99.227375
1151.000000	99.255871
1152.000000	99.281273
1153.000000	99.284483
1154.000000	99.295823
1155.000000	99.303829
1156.000000	99.320946
1157.000000	99.293183
1158.000000	99.249461
1159.000000	99.222923
1160.000000	99.192808
1161.000000	99.205329
1162.000000	99.161426
1163.000000	99.107009
1164.000000	99.057695
1165.000000	99.038437
1166.000000	98.992826
1167.000000	98.964186
1168.000000	98.956008
1169.000000	98.872228
1170.000000	98.823844
1171.000000	98.803305
1172.000000	98.756878
1173.000000	98.729266
1174.000000	98.698302
1175.000000	98.662675
1176.000000	98.609165
1177.000000	98.581025
1178.000000	98.548034
1179.000000	98.527886
1180.000000	98.560606
1181.000000	98.533764
1182.000000	98.510134
1183.000000	98.512640
1184.000000	98.493099
1185.000000	98.471595
1186.000000	98.444204
1187.000000	98.387958
1188.000000	98.368800
1189.000000	98.351057
1190.000000	98.304666
1191.000000	98.274407
1192.000000	98.264214
1193.000000	98.280686
1194.000000	98.279050
1195.000000	98.287465
1196.000000	98.275132
1197.000000	98.249935
1198.000000	98.238121
1199.000000	98.277268
1200.000000	98.296152
1201.000000	98.302896
1202.000000	98.287240
1203.000000	98.245861
1204.000000	98.259433
1205.000000	98.297429
1206.000000	98.309264
1207.000000	98.301766
1208.000000	98.284113
1209.000000	98.281299
1210.000000	98.304323
1211.000000	98.339876
1212.000000	98.367614
1213.000000	98.410918
1214.000000	98.422312
1215.000000	98.431278
1216.000000	98.454702
1217.000000	98.485440
1218.000000	98.493849
1219.000000	98.501522
1220.000000	98.530924
1221.000000	98.545487
1222.000000	98.583836
1223.000000	98.594208
1224.000000	98.593359
1225.000000	98.595000
1226.000000	98.617456
1227.000000	98.638137
1228.000000	98.644968
1229.000000	98.662024
1230.000000	98.647933
1231.000000	98.639283
1232.000000	98.662335
1233.000000	98.701385
1234.000000	98.687053
1235.000000	98.693455
1236.000000	98.728990
1237.000000	98.754149
1238.000000	98.768367
1239.000000	98.765757
1240.000000	98.777132
1241.000000	98.801587
1242.000000	98.820136
1243.000000	98.822680
1244.000000	98.841667
1245.000000	98.839950
1246.000000	98.855199
1247.000000	98.863920
1248.000000	98.868439
1249.000000	98.888334
1250.000000	98.899417
1251.000000	98.897610
1252.000000	98.893869
1253.000000	98.900269
1254.000000	98.917286
1255.000000	98.945664
1256.000000	98.968178
1257.000000	98.953463
1258.000000	98.945504
1259.000000	98.956781
1260.000000	98.982610
1261.000000	98.988057
1262.000000	98.971853
1263.000000	98.958610
1264.000000	98.958592
1265.000000	98.991967
1266.000000	99.014229
1267.000000	99.006844
1268.000000	98.982699
1269.000000	98.986526
1270.000000	99.000946
1271.000000	98.975361
1272.000000	98.948547
1273.000000	98.963743
1274.000000	98.998418
1275.000000	98.987619
1276.000000	98.950361
1277.000000	98.957596
1278.000000	98.974957
1279.000000	98.971300
1280.000000	98.987280
1281.000000	98.979776
1282.000000	98.972480
1283.000000	98.980867
1284.000000	98.965790
1285.000000	98.956463
1286.000000	98.950995
1287.000000	98.943087
1288.000000	98.937319
1289.000000	98.923940
1290.000000	98.935321
1291.000000	98.942947
1292.000000	98.939072
1293.000000	98.948978
1294.000000	98.963734
1295.000000	98.978615
1296.000000	98.981019
1297.000000	98.974036
1298.000000	98.981593
1299.000000	98.976978
1300.000000	98.969754
1301.000000	98.977215
1302.000000	98.993926
1303.000000	99.006980
1304.000000	99.027233
1305.000000	99.019079
1306.000000	99.046590
1307.000000	99.088722
1308.000000	99.091276
1309.000000	99.078828
1310.000000	99.093130
1311.000000	99.135255
1312.000000	99.154076
1313.000000	99.170440
1314.000000	99.191634
1315.000000	99.206411
1316.000000	99.216688
1317.000000	99.225726
1318.000000	99.217250
1319.000000	99.214104
1320.000000	99.221979
1321.000000	99.248287
1322.000000	99.257391
1323.000000	99.240946
1324.000000	99.220902
1325.000000	99.197823
1326.000000	99.180359
1327.000000	99.198531
1328.000000	99.197942
1329.000000	99.202492
1330.000000	99.182263
1331.000000	99.176348
1332.000000	99.199875
1333.000000	99.191952
1334.000000	99.222324
1335.000000	99.216916
1336.000000	99.202296
1337.000000	99.190705
1338.000000	99.195783
1339.000000	99.174710
1340.000000	99.148560
1341.000000	99.103539
1342.000000	99.083310
1343.000000	99.086138
1344.000000	99.069825
1345.000000	99.060066
1346.000000	99.015173
1347.000000	98.962760
1348.000000	98.926347
1349.000000	98.874258
1350.000000	98.798134
1351.000000	98.733736
1352.000000	98.659354
1353.000000	98.618444
1354.000000	98.665396
1355.000000	98.694198
1356.000000	98.702849
1357.000000	98.716773
1358.000000	98.679423
1359.000000	98.661243
1360.000000	98.748223
1361.000000	98.791932
1362.000000	98.613210
1363.000000	98.527189
1364.000000	98.473183
1365.000000	98.311223
1366.000000	98.340919
1367.000000	98.454023
1368.000000	98.459941
1369.000000	98.480056
1370.000000	98.574286
1371.000000	98.578025
1372.000000	98.510604
1373.000000	98.425936
1374.000000	98.433353
1375.000000	98.406294
1376.000000	98.457179
1377.000000	98.363949
1378.000000	98.355884
1379.000000	98.220576
1380.000000	98.072462
1381.000000	97.930640
1382.000000	98.071717
1383.000000	98.112776
1384.000000	98.252716
1385.000000	98.303058
1386.000000	98.281119
1387.000000	98.470077
1388.000000	98.423838
1389.000000	98.370300
1390.000000	98.317641
1391.000000	98.201609
1392.000000	97.908849
1393.000000	97.829744
1394.000000	97.888288
1395.000000	97.723630
1396.000000	97.474426
1397.000000	97.478918
1398.000000	97.428519
1399.000000	97.449550
1400.000000	97.654643
1401.000000	97.500542
1402.000000	97.285170
1403.000000	97.191709
1404.000000	97.206790
1405.000000	96.951800
1406.000000	96.878886
1407.000000	96.808069
1408.000000	96.753430
1409.000000	96.660119
1410.000000	96.577225
1411.000000	96.400105
1412.000000	96.343804
1413.000000	96.224419
1414.000000	96.261297
1415.000000	96.282764
1416.000000	96.317259
1417.000000	96.086267
1418.000000	96.002593
1419.000000	95.742380
1420.000000	95.624287
1421.000000	95.548251
1422.000000	95.274089
1423.000000	95.261715
1424.000000	95.096075
1425.000000	94.983654
1426.000000	94.921885
1427.000000	95.048091
1428.000000	95.023934
1429.000000	94.848557
1430.000000	94.760674
1431.000000	94.834400
1432.000000	94.836669
1433.000000	94.805626
1434.000000	94.621338
1435.000000	94.382181
1436.000000	94.314376
1437.000000	94.262260
1438.000000	94.191250
1439.000000	93.984492
1440.000000	93.990957
1441.000000	93.913437
1442.000000	93.913263
1443.000000	93.841429
1444.000000	93.719030
1445.000000	93.737210
1446.000000	93.679961
1447.000000	93.645462
1448.000000	93.582348
1449.000000	93.510635
1450.000000	93.498935
1451.000000	93.424707
1452.000000	93.352089
1453.000000	93.225301
1454.000000	93.180630
1455.000000	93.084533
1456.000000	93.058328
1457.000000	93.032615
1458.000000	92.937851
1459.000000	92.905368
1460.000000	92.811766
1461.000000	92.739303
1462.000000	92.654337
1463.000000	92.596304
1464.000000	92.559545
1465.000000	92.501706
1466.000000	92.408980
1467.000000	92.328406
1468.000000	92.268533
1469.000000	92.287884
1470.000000	92.265810
1471.000000	92.208302
1472.000000	92.142567
1473.000000	92.075906
1474.000000	91.999379
1475.000000	91.941592
1476.000000	91.861630
1477.000000	91.783337
1478.000000	91.747590
1479.000000	91.739028
1480.000000	91.630999
1481.000000	91.605570
1482.000000	91.545251
1483.000000	91.503961
1484.000000	91.452130
1485.000000	91.354932
1486.000000	91.354725
1487.000000	91.313360
1488.000000	91.256871
1489.000000	91.242306
1490.000000	91.238230
1491.000000	91.188604
1492.000000	91.130470
1493.000000	91.074691
1494.000000	91.046604
1495.000000	91.050699
1496.000000	91.056022
1497.000000	91.074196
1498.000000	91.039174
1499.000000	90.983229
1500.000000	90.980979
1501.000000	90.988567
1502.000000	90.983126
1503.000000	90.980315
1504.000000	90.936707
1505.000000	90.938632
1506.000000	91.004126
1507.000000	90.991975
1508.000000	91.026273
1509.000000	91.047134
1510.000000	91.050375
1511.000000	91.066361
1512.000000	91.090540
1513.000000	91.124514
1514.000000	91.117694
1515.000000	91.117336
1516.000000	91.156220
1517.000000	91.209215
1518.000000	91.244007
1519.000000	91.279334
1520.000000	91.301589
1521.000000	91.307093
1522.000000	91.335990
1523.000000	91.390889
1524.000000	91.427785
1525.000000	91.456749
1526.000000	91.484219
1527.000000	91.530271
1528.000000	91.573924
1529.000000	91.608343
1530.000000	91.630074
1531.000000	91.653637
1532.000000	91.682383
1533.000000	91.730624
1534.000000	91.776550
1535.000000	91.808003
1536.000000	91.821823
1537.000000	91.868156
1538.000000	91.907202
1539.000000	91.942660
1540.000000	91.952564
1541.000000	91.938301
1542.000000	91.974731
1543.000000	91.985904
1544.000000	92.011641
1545.000000	92.028868
1546.000000	92.044260
1547.000000	92.067287
1548.000000	92.081384
1549.000000	92.116180
1550.000000	92.168465
1551.000000	92.206625
1552.000000	92.225270
1553.000000	92.233273
1554.000000	92.263887
1555.000000	92.325228
1556.000000	92.373648
1557.000000	92.413337
1558.000000	92.439538
1559.000000	92.453539
1560.000000	92.460905
1561.000000	92.489656
1562.000000	92.524254
1563.000000	92.568178
1564.000000	92.605357
1565.000000	92.623179
1566.000000	92.623725
1567.000000	92.639939
1568.000000	92.677268
1569.000000	92.710962
1570.000000	92.745263
1571.000000	92.764868
1572.000000	92.777442
1573.000000	92.804887
1574.000000	92.830940
1575.000000	92.848589
1576.000000	92.867188
1577.000000	92.872733
1578.000000	92.895994
1579.000000	92.912403
1580.000000	92.905286
1581.000000	92.909028
1582.000000	92.922216
1583.000000	92.954146
1584.000000	92.960578
1585.000000	92.951677
1586.000000	92.937226
1587.000000	92.957309
1588.000000	92.993210
1589.000000	93.019869
1590.000000	93.011621
1591.000000	93.008073
1592.000000	93.018788
1593.000000	93.022017
1594.000000	93.022464
1595.000000	93.044920
1596.000000	93.039628
1597.000000	93.038024
1598.000000	93.055923
1599.000000	93.054966
1600.000000	93.075979
1601.000000	93.127056
1602.000000	93.172015
1603.000000	93.199526
1604.000000	93.223634
1605.000000	93.222941
1606.000000	93.261752
1607.000000	93.324430
1608.000000	93.363486
1609.000000	93.386254
1610.000000	93.443435
1611.000000	93.468611
1612.000000	93.502817
1613.000000	93.547729
1614.000000	93.567832
1615.000000	93.618489
1616.000000	93.651002
1617.000000	93.681054
1618.000000	93.693327
1619.000000	93.752151
1620.000000	93.806402
1621.000000	93.851930
1622.000000	93.864010
1623.000000	93.855797
1624.000000	93.810780
1625.000000	93.827436
1626.000000	93.843259
1627.000000	93.839403
1628.000000	93.847939
1629.000000	93.848333
1630.000000	93.858003
1631.000000	93.917859
1632.000000	93.937685
1633.000000	93.924057
1634.000000	93.950721
1635.000000	93.984700
1636.000000	94.011269
1637.000000	94.009301
1638.000000	94.036127
1639.000000	94.035571
1640.000000	94.065797
1641.000000	94.064828
1642.000000	94.093215
1643.000000	94.074876
1644.000000	94.103596
1645.000000	94.096741
1646.000000	94.123304
1647.000000	94.172261
1648.000000	94.146180
1649.000000	94.157269
1650.000000	94.170105
1651.000000	94.238799
1652.000000	94.262326
1653.000000	94.275513
1654.000000	94.265230
1655.000000	94.262955
1656.000000	94.291701
1657.000000	94.322858
1658.000000	94.369761
1659.000000	94.420457
1660.000000	94.440873
1661.000000	94.444461
1662.000000	94.446436
1663.000000	94.455279
1664.000000	94.493479
1665.000000	94.509895
1666.000000	94.473961
1667.000000	94.455770
1668.000000	94.463403
1669.000000	94.423265
1670.000000	94.379943
1671.000000	94.343901
1672.000000	94.322851
1673.000000	94.296485
1674.000000	94.267531
1675.000000	94.203472
1676.000000	94.182379
1677.000000	94.096956
1678.000000	94.077568
1679.000000	94.010021
1680.000000	93.957746
1681.000000	93.902528
1682.000000	93.805255
1683.000000	93.762658
1684.000000	93.714430
1685.000000	93.668048
1686.000000	93.559995
1687.000000	93.460617
1688.000000	93.394545
1689.000000	93.310239
1690.000000	93.262031
1691.000000	93.167765
1692.000000	93.089447
1693.000000	93.010939
1694.000000	92.929424
1695.000000	92.845202
1696.000000	92.781545
1697.000000	92.728729
1698.000000	92.720769
1699.000000	92.650043
1700.000000	92.602871
1701.000000	92.575070
1702.000000	92.538669
1703.000000	92.507858
1704.000000	92.520984
1705.000000	92.509245
1706.000000	92.447961
1707.000000	92.422456
1708.000000	92.372666
1709.000000	92.365258
1710.000000	92.330636
1711.000000	92.300134
1712.000000	92.270409
1713.000000	92.243730
1714.000000	92.230488
1715.000000	92.247093
1716.000000	92.217522
1717.000000	92.210745
1718.000000	92.207211
1719.000000	92.147216
1720.000000	92.104394
1721.000000	92.087307
1722.000000	92.066573
1723.000000	92.079510
1724.000000	92.073214
1725.000000	92.026962
1726.000000	91.979317
1727.000000	91.931874
1728.000000	91.887283
1729.000000	91.862954
1730.000000	91.864170
1731.000000	91.862440
1732.000000	91.849612
1733.000000	91.790693
1734.000000	91.787615
1735.000000	91.766168
1736.000000	91.745233
1737.000000	91.695996
1738.000000	91.653667
1739.000000	91.614193
1740.000000	91.587746
1741.000000	91.597328
1742.000000	91.561236
1743.000000	91.565508
1744.000000	91.535307
1745.000000	91.548390
1746.000000	91.564336
1747.000000	91.586786
1748.000000	91.557144
1749.000000	91.525447
1750.000000	91.484578
1751.000000	91.501369
1752.000000	91.511105
1753.000000	91.509535
1754.000000	91.530356
1755.000000	91.534381
1756.000000	91.555248
1757.000000	91.589121
1758.000000	91.584397
1759.000000	91.610892
1760.000000	91.643226
1761.000000	91.717701
1762.000000	91.754838
1763.000000	91.781295
1764.000000	91.828425
1765.000000	91.830128
1766.000000	91.803286
1767.000000	91.809725
1768.000000	91.822814
1769.000000	91.818921
1770.000000	91.827875
1771.000000	91.823261
1772.000000	91.849568
1773.000000	91.839964
1774.000000	91.847395
1775.000000	91.849058
1776.000000	91.866244
1777.000000	91.890462
1778.000000	91.896083
1779.000000	91.912638
1780.000000	91.922624
1781.000000	91.929148
1782.000000	91.939274
1783.000000	91.969331
1784.000000	92.017783
1785.000000	92.053908
1786.000000	92.067533
1787.000000	92.084396
1788.000000	92.119136
1789.000000	92.161470
1790.000000	92.200448
1791.000000	92.224461
1792.000000	92.237717
1793.000000	92.218918
1794.000000	92.214345
1795.000000	92.208106
1796.000000	92.199374
1797.000000	92.211620
1798.000000	92.209948
1799.000000	92.213394
1800.000000	92.264533
1801.000000	92.334782
1802.000000	92.361493
1803.000000	92.364568
1804.000000	92.401158
1805.000000	92.450894
1806.000000	92.503027
1807.000000	92.532291
1808.000000	92.563074
1809.000000	92.581571
1810.000000	92.639686
1811.000000	92.669305
1812.000000	92.685396
1813.000000	92.668604
1814.000000	92.687181
1815.000000	92.717946
1816.000000	92.721883
1817.000000	92.844138
1818.000000	92.953853
1819.000000	93.054058
1820.000000	93.119215
1821.000000	93.080480
1822.000000	93.032523
1823.000000	93.002651
1824.000000	93.002462
1825.000000	93.155850
1826.000000	93.242850
1827.000000	93.235933
1828.000000	93.263767
1829.000000	93.287032
1830.000000	93.390872
1831.000000	93.430448
1832.000000	93.419651
1833.000000	93.411540
1834.000000	93.436942
1835.000000	93.537768
1836.000000	93.596560
1837.000000	93.588854
1838.000000	93.538412
1839.000000	93.426772
1840.000000	93.284061
1841.000000	93.322043
1842.000000	93.373661
1843.000000	93.375684
1844.000000	93.374937
1845.000000	93.304664
1846.000000	93.329835
1847.000000	93.483048
1848.000000	93.527120
1849.000000	93.533330
1850.000000	93.517029
1851.000000	93.441466
1852.000000	93.300988
1853.000000	93.221661
1854.000000	93.115895
1855.000000	93.072708
1856.000000	93.044230
1857.000000	92.977801
1858.000000	92.949449
1859.000000	92.943712
1860.000000	92.742956
1861.000000	92.626099
1862.000000	92.665105
1863.000000	92.812926
1864.000000	92.837738
1865.000000	92.733950
1866.000000	92.677996
1867.000000	92.719544
1868.000000	92.741821
1869.000000	92.723322
1870.000000	92.761730
1871.000000	92.647698
1872.000000	92.768543
1873.000000	92.824917
1874.000000	92.917135
1875.000000	92.975088
1876.000000	93.039275
1877.000000	92.998301
1878.000000	92.989530
1879.000000	92.910979
1880.000000	92.915016
1881.000000	92.812837
1882.000000	92.595989
1883.000000	92.579795
1884.000000	92.499371
1885.000000	92.386477
1886.000000	92.382386
1887.000000	92.281304
1888.000000	92.147451
1889.000000	92.121467
1890.000000	91.966509
1891.000000	91.948144
1892.000000	91.925886
1893.000000	91.807434
1894.000000	91.644857
1895.000000	91.516073
1896.000000	91.364394
1897.000000	91.180402
1898.000000	90.857078
1899.000000	90.656190
1900.000000	90.429868
1901.000000	90.232121
1902.000000	90.248570
1903.000000	89.997131
1904.000000	89.753556
1905.000000	89.298433
1906.000000	89.092761
1907.000000	88.647683
1908.000000	88.358597
1909.000000	88.031055
1910.000000	87.739864
1911.000000	87.217440
1912.000000	86.836048
1913.000000	86.551518
1914.000000	86.252963
1915.000000	85.959372
1916.000000	85.581285
1917.000000	85.190270
1918.000000	84.736975
1919.000000	84.467390
1920.000000	84.224011
1921.000000	83.820220
1922.000000	83.517946
1923.000000	83.276973
1924.000000	82.837626
1925.000000	82.527298
1926.000000	82.207650
1927.000000	81.879550
1928.000000	81.591850
1929.000000	81.297327
1930.000000	81.056360
1931.000000	80.802236
1932.000000	80.522982
1933.000000	80.293999
1934.000000	80.000730
1935.000000	79.813793
1936.000000	79.570892
1937.000000	79.114625
1938.000000	78.943050
1939.000000	78.718145
1940.000000	78.568581
1941.000000	78.393489
1942.000000	78.284510
1943.000000	78.174284
1944.000000	78.074605
1945.000000	77.978117
1946.000000	77.985570
1947.000000	77.954136
1948.000000	77.829741
1949.000000	77.786361
1950.000000	77.677962
1951.000000	77.702704
1952.000000	77.760704
1953.000000	77.806407
1954.000000	77.733492
1955.000000	77.695408
1956.000000	77.800694
1957.000000	77.801677
1958.000000	77.774402
1959.000000	77.882056
1960.000000	77.948208
1961.000000	77.988806
1962.000000	78.094433
1963.000000	78.182398
1964.000000	78.281597
1965.000000	78.350223
1966.000000	78.393191
1967.000000	78.514360
1968.000000	78.562001
1969.000000	78.692193
1970.000000	78.752442
1971.000000	78.856732
1972.000000	78.922004
1973.000000	79.032080
1974.000000	79.167487
1975.000000	79.280592
1976.000000	79.366733
1977.000000	79.487104
1978.000000	79.573704
1979.000000	79.672579
1980.000000	79.801417
1981.000000	79.876321
1982.000000	79.947635
1983.000000	80.073124
1984.000000	80.178798
1985.000000	80.320015
1986.000000	80.430502
1987.000000	80.523775
1988.000000	80.615967
1989.000000	80.717391
1990.000000	80.807967
1991.000000	80.878590
1992.000000	80.985050
1993.000000	81.056142
1994.000000	81.112894
1995.000000	81.207124
1996.000000	81.302834
1997.000000	81.393782
1998.000000	81.466877
1999.000000	81.535422
2000.000000	81.619538
