PE UV       SUBTECH     SPECTRUM    ASCII       PEDS        4.00        
   -1
3-STRIGIDA GLABRA INBIOCRI0003420620.ASC
23/11/20
14:42:04.00
23/11/20
14:42:04.00
Vinicio Soto Monge

250,000000
1
Lambda 1050
1050L1511233
PerkinElmer UV WinLab 6.3.2.0749 / 2.02.05 Lambda 900 UV/VIS/NIR, Aug  7 2015 09:38:08

0
0
3350/servo 860,8/2
0
0
UV/VIS
1
1
1
DoubleDePol,CommonBeamDepol,RBeamAtt,SBeamAtt,60mm sphere, WB InGaAs Detector
0
0
0
0
Program
Program
3350/servo 860,8/2
3350/0,4 860,8/0,4
3350/0,4 860,8/0,4
0
20.00
 
 
 
0
 
860,8
319,2
860,8
Front
100
on
S:100 R:100
0
0
0
0
 
0
 
 
 
0
 
 
0
0
0
0
0
 
 
 
 
0
0


0
0
#HDR
-1
-1
#GR
nm
%R
1.0
0.0
2200,000000
-1,000000
1951
8
100,956399
5,374600
#DATA
284.000000	6.396562
285.000000	6.377513
286.000000	6.357837
287.000000	6.340794
288.000000	6.324703
289.000000	6.309029
290.000000	6.295074
291.000000	6.281452
292.000000	6.269500
293.000000	6.258289
294.000000	6.247694
295.000000	6.235752
296.000000	6.225739
297.000000	6.216759
298.000000	6.210261
299.000000	6.203937
300.000000	6.196360
301.000000	6.192857
302.000000	6.188395
303.000000	6.183107
304.000000	6.179018
305.000000	6.175496
306.000000	6.170769
307.000000	6.165934
308.000000	6.164948
309.000000	6.162406
310.000000	6.159333
311.000000	6.156593
312.000000	6.153271
313.000000	6.150431
314.000000	6.147587
315.000000	6.144855
316.000000	6.141012
317.000000	6.131325
318.000000	6.123280
319.000000	6.117048
320.000000	6.111408
321.000000	6.106930
322.000000	6.102846
323.000000	6.092642
324.000000	6.087472
325.000000	6.076332
326.000000	6.065995
327.000000	6.058699
328.000000	6.051054
329.000000	6.040718
330.000000	6.033908
331.000000	6.024652
332.000000	6.012302
333.000000	6.002519
334.000000	5.991516
335.000000	5.981411
336.000000	5.968487
337.000000	5.958507
338.000000	5.949678
339.000000	5.937588
340.000000	5.926162
341.000000	5.915944
342.000000	5.906445
343.000000	5.894208
344.000000	5.885159
345.000000	5.875418
346.000000	5.865471
347.000000	5.855093
348.000000	5.845743
349.000000	5.837508
350.000000	5.829251
351.000000	5.821816
352.000000	5.817664
353.000000	5.812368
354.000000	5.806388
355.000000	5.799733
356.000000	5.794172
357.000000	5.786155
358.000000	5.785041
359.000000	5.778875
360.000000	5.777521
361.000000	5.776294
362.000000	5.770572
363.000000	5.765717
364.000000	5.762993
365.000000	5.758747
366.000000	5.756862
367.000000	5.755998
368.000000	5.751641
369.000000	5.749095
370.000000	5.745599
371.000000	5.742536
372.000000	5.738834
373.000000	5.733643
374.000000	5.731383
375.000000	5.728293
376.000000	5.723409
377.000000	5.720761
378.000000	5.717856
379.000000	5.712997
380.000000	5.709945
381.000000	5.706173
382.000000	5.702731
383.000000	5.698114
384.000000	5.693272
385.000000	5.688484
386.000000	5.683062
387.000000	5.679342
388.000000	5.676522
389.000000	5.672031
390.000000	5.667505
391.000000	5.662140
392.000000	5.657522
393.000000	5.651617
394.000000	5.645975
395.000000	5.641764
396.000000	5.636221
397.000000	5.632220
398.000000	5.627726
399.000000	5.623153
400.000000	5.617682
401.000000	5.612099
402.000000	5.607695
403.000000	5.603244
404.000000	5.598932
405.000000	5.595439
406.000000	5.591479
407.000000	5.586482
408.000000	5.582762
409.000000	5.578951
410.000000	5.575475
411.000000	5.572942
412.000000	5.569460
413.000000	5.566262
414.000000	5.563106
415.000000	5.559857
416.000000	5.556918
417.000000	5.554470
418.000000	5.551952
419.000000	5.549324
420.000000	5.546897
421.000000	5.545159
422.000000	5.543431
423.000000	5.541491
424.000000	5.539914
425.000000	5.538580
426.000000	5.537368
427.000000	5.536247
428.000000	5.535020
429.000000	5.533776
430.000000	5.532881
431.000000	5.532363
432.000000	5.531714
433.000000	5.531456
434.000000	5.531021
435.000000	5.530728
436.000000	5.530714
437.000000	5.530506
438.000000	5.530553
439.000000	5.530500
440.000000	5.530677
441.000000	5.531081
442.000000	5.531718
443.000000	5.532271
444.000000	5.532926
445.000000	5.533409
446.000000	5.534007
447.000000	5.534871
448.000000	5.535669
449.000000	5.536602
450.000000	5.537574
451.000000	5.538634
452.000000	5.539883
453.000000	5.541267
454.000000	5.542698
455.000000	5.543819
456.000000	5.544509
457.000000	5.545433
458.000000	5.546872
459.000000	5.548352
460.000000	5.549891
461.000000	5.551407
462.000000	5.553058
463.000000	5.554908
464.000000	5.556744
465.000000	5.558520
466.000000	5.560401
467.000000	5.562548
468.000000	5.564912
469.000000	5.567681
470.000000	5.570443
471.000000	5.573228
472.000000	5.576339
473.000000	5.579689
474.000000	5.583337
475.000000	5.587020
476.000000	5.590660
477.000000	5.594761
478.000000	5.599278
479.000000	5.604171
480.000000	5.609333
481.000000	5.614465
482.000000	5.619378
483.000000	5.624704
484.000000	5.630621
485.000000	5.637282
486.000000	5.644720
487.000000	5.652961
488.000000	5.662174
489.000000	5.672532
490.000000	5.684431
491.000000	5.697816
492.000000	5.712540
493.000000	5.728391
494.000000	5.745908
495.000000	5.765352
496.000000	5.786763
497.000000	5.809696
498.000000	5.834651
499.000000	5.861609
500.000000	5.890195
501.000000	5.920268
502.000000	5.952120
503.000000	5.985777
504.000000	6.021088
505.000000	6.058123
506.000000	6.097198
507.000000	6.138457
508.000000	6.181659
509.000000	6.227561
510.000000	6.276197
511.000000	6.327598
512.000000	6.382367
513.000000	6.440818
514.000000	6.503447
515.000000	6.570608
516.000000	6.642647
517.000000	6.719905
518.000000	6.802486
519.000000	6.890684
520.000000	6.984667
521.000000	7.084833
522.000000	7.191685
523.000000	7.305312
524.000000	7.425811
525.000000	7.553011
526.000000	7.687316
527.000000	7.829048
528.000000	7.978676
529.000000	8.135890
530.000000	8.300893
531.000000	8.473860
532.000000	8.655187
533.000000	8.844573
534.000000	9.042470
535.000000	9.248827
536.000000	9.464202
537.000000	9.688140
538.000000	9.920499
539.000000	10.161423
540.000000	10.410685
541.000000	10.668003
542.000000	10.933250
543.000000	11.206057
544.000000	11.485981
545.000000	11.772346
546.000000	12.064997
547.000000	12.362251
548.000000	12.664164
549.000000	12.969250
550.000000	13.277069
551.000000	13.586483
552.000000	13.896633
553.000000	14.206665
554.000000	14.515115
555.000000	14.820813
556.000000	15.122617
557.000000	15.419325
558.000000	15.709439
559.000000	15.992067
560.000000	16.265938
561.000000	16.530089
562.000000	16.783574
563.000000	17.025253
564.000000	17.253950
565.000000	17.468853
566.000000	17.669578
567.000000	17.855808
568.000000	18.026697
569.000000	18.181477
570.000000	18.320181
571.000000	18.442872
572.000000	18.549233
573.000000	18.639550
574.000000	18.714433
575.000000	18.774187
576.000000	18.819188
577.000000	18.850021
578.000000	18.867781
579.000000	18.872875
580.000000	18.866686
581.000000	18.849523
582.000000	18.823284
583.000000	18.788766
584.000000	18.747650
585.000000	18.700522
586.000000	18.649593
587.000000	18.596138
588.000000	18.541236
589.000000	18.486209
590.000000	18.432348
591.000000	18.381557
592.000000	18.333724
593.000000	18.290979
594.000000	18.254063
595.000000	18.224116
596.000000	18.201643
597.000000	18.186948
598.000000	18.180164
599.000000	18.182742
600.000000	18.194473
601.000000	18.215679
602.000000	18.246591
603.000000	18.287237
604.000000	18.338673
605.000000	18.400447
606.000000	18.472428
607.000000	18.555010
608.000000	18.647801
609.000000	18.750811
610.000000	18.863487
611.000000	18.986222
612.000000	19.118791
613.000000	19.260367
614.000000	19.410754
615.000000	19.570006
616.000000	19.737218
617.000000	19.911830
618.000000	20.093716
619.000000	20.281797
620.000000	20.476570
621.000000	20.676016
622.000000	20.879883
623.000000	21.087391
624.000000	21.297959
625.000000	21.510562
626.000000	21.724750
627.000000	21.941193
628.000000	22.158596
629.000000	22.376737
630.000000	22.595903
631.000000	22.816151
632.000000	23.037172
633.000000	23.260073
634.000000	23.484116
635.000000	23.709822
636.000000	23.938222
637.000000	24.169537
638.000000	24.403648
639.000000	24.640203
640.000000	24.881464
641.000000	25.126402
642.000000	25.375500
643.000000	25.629713
644.000000	25.888597
645.000000	26.152335
646.000000	26.420831
647.000000	26.693461
648.000000	26.970406
649.000000	27.251820
650.000000	27.537232
651.000000	27.827845
652.000000	28.123077
653.000000	28.421914
654.000000	28.724873
655.000000	29.030666
656.000000	29.339612
657.000000	29.651369
658.000000	29.965871
659.000000	30.284377
660.000000	30.607870
661.000000	30.934778
662.000000	31.264416
663.000000	31.597905
664.000000	31.934974
665.000000	32.274780
666.000000	32.617863
667.000000	32.964636
668.000000	33.315855
669.000000	33.671002
670.000000	34.029585
671.000000	34.391082
672.000000	34.755520
673.000000	35.123450
674.000000	35.493698
675.000000	35.865043
676.000000	36.239178
677.000000	36.614662
678.000000	36.991220
679.000000	37.368355
680.000000	37.747157
681.000000	38.125984
682.000000	38.505448
683.000000	38.886253
684.000000	39.266875
685.000000	39.646642
686.000000	40.025959
687.000000	40.405000
688.000000	40.781570
689.000000	41.158029
690.000000	41.533072
691.000000	41.908378
692.000000	42.283547
693.000000	42.658580
694.000000	43.032269
695.000000	43.404185
696.000000	43.775345
697.000000	44.145133
698.000000	44.513307
699.000000	44.882159
700.000000	45.250808
701.000000	45.619352
702.000000	45.988224
703.000000	46.354847
704.000000	46.721290
705.000000	47.087378
706.000000	47.452704
707.000000	47.817623
708.000000	48.182542
709.000000	48.548106
710.000000	48.912946
711.000000	49.278453
712.000000	49.644687
713.000000	50.009554
714.000000	50.374948
715.000000	50.739299
716.000000	51.103741
717.000000	51.467048
718.000000	51.829502
719.000000	52.190937
720.000000	52.553647
721.000000	52.916539
722.000000	53.277755
723.000000	53.640339
724.000000	54.002096
725.000000	54.363241
726.000000	54.724498
727.000000	55.085492
728.000000	55.446014
729.000000	55.804445
730.000000	56.162424
731.000000	56.520365
732.000000	56.877830
733.000000	57.234296
734.000000	57.588217
735.000000	57.941747
736.000000	58.295845
737.000000	58.647519
738.000000	58.998272
739.000000	59.345838
740.000000	59.691573
741.000000	60.035160
742.000000	60.375443
743.000000	60.713425
744.000000	61.045422
745.000000	61.374563
746.000000	61.699810
747.000000	62.019113
748.000000	62.335688
749.000000	62.646644
750.000000	62.951752
751.000000	63.252322
752.000000	63.548091
753.000000	63.838744
754.000000	64.124968
755.000000	64.404946
756.000000	64.678911
757.000000	64.947845
758.000000	65.210521
759.000000	65.465789
760.000000	65.715736
761.000000	65.959906
762.000000	66.198639
763.000000	66.431351
764.000000	66.662609
765.000000	66.888367
766.000000	67.104813
767.000000	67.316032
768.000000	67.521853
769.000000	67.722896
770.000000	67.916448
771.000000	68.104268
772.000000	68.289588
773.000000	68.468706
774.000000	68.643398
775.000000	68.814679
776.000000	68.982492
777.000000	69.145220
778.000000	69.304379
779.000000	69.462735
780.000000	69.622126
781.000000	69.775524
782.000000	69.930182
783.000000	70.083884
784.000000	70.237328
785.000000	70.391849
786.000000	70.544062
787.000000	70.694141
788.000000	70.843171
789.000000	70.995741
790.000000	71.149559
791.000000	71.304418
792.000000	71.460451
793.000000	71.613640
794.000000	71.769393
795.000000	71.928389
796.000000	72.089835
797.000000	72.251400
798.000000	72.416016
799.000000	72.578603
800.000000	72.740252
801.000000	72.909343
802.000000	73.082685
803.000000	73.260307
804.000000	73.436888
805.000000	73.612341
806.000000	73.789203
807.000000	73.968262
808.000000	74.148506
809.000000	74.331850
810.000000	74.518181
811.000000	74.706516
812.000000	74.898822
813.000000	75.091584
814.000000	75.286779
815.000000	75.478112
816.000000	75.670515
817.000000	75.868250
818.000000	76.065633
819.000000	76.259456
820.000000	76.450487
821.000000	76.650343
822.000000	76.846827
823.000000	77.045156
824.000000	77.239776
825.000000	77.434233
826.000000	77.628890
827.000000	77.823626
828.000000	78.025297
829.000000	78.223000
830.000000	78.416735
831.000000	78.604525
832.000000	78.796009
833.000000	78.984061
834.000000	79.175476
835.000000	79.370947
836.000000	79.556503
837.000000	79.743677
838.000000	79.931809
839.000000	80.112973
840.000000	80.298328
841.000000	80.480547
842.000000	80.662048
843.000000	80.834808
844.000000	81.010609
845.000000	81.194531
846.000000	81.365765
847.000000	81.537572
848.000000	81.707612
849.000000	81.874260
850.000000	82.045377
851.000000	82.219408
852.000000	82.392392
853.000000	82.559611
854.000000	82.724892
855.000000	82.889711
856.000000	83.043917
857.000000	83.199255
858.000000	83.352077
859.000000	83.555869
860.000000	83.739501
861.000000	83.934871
862.000000	84.101297
863.000000	84.273886
864.000000	84.460185
865.000000	84.623993
866.000000	84.790127
867.000000	84.976307
868.000000	85.144351
869.000000	85.297055
870.000000	85.454954
871.000000	85.630262
872.000000	85.784934
873.000000	85.953165
874.000000	86.121707
875.000000	86.301684
876.000000	86.464185
877.000000	86.624667
878.000000	86.798812
879.000000	86.950551
880.000000	87.097376
881.000000	87.271788
882.000000	87.425749
883.000000	87.573730
884.000000	87.741112
885.000000	87.906551
886.000000	88.058993
887.000000	88.211554
888.000000	88.339002
889.000000	88.491234
890.000000	88.613709
891.000000	88.751336
892.000000	88.900946
893.000000	89.055006
894.000000	89.168189
895.000000	89.285222
896.000000	89.387563
897.000000	89.501414
898.000000	89.621396
899.000000	89.699548
900.000000	89.838725
901.000000	89.953703
902.000000	90.044944
903.000000	90.154325
904.000000	90.278297
905.000000	90.368928
906.000000	90.478995
907.000000	90.580018
908.000000	90.677861
909.000000	90.794634
910.000000	90.884848
911.000000	90.994686
912.000000	91.086231
913.000000	91.187157
914.000000	91.309605
915.000000	91.417719
916.000000	91.478406
917.000000	91.552361
918.000000	91.646119
919.000000	91.750076
920.000000	91.804634
921.000000	91.907941
922.000000	91.976580
923.000000	92.070873
924.000000	92.122302
925.000000	92.210619
926.000000	92.301688
927.000000	92.370780
928.000000	92.443422
929.000000	92.487086
930.000000	92.560880
931.000000	92.628973
932.000000	92.710914
933.000000	92.787356
934.000000	92.899818
935.000000	92.946652
936.000000	93.018879
937.000000	93.101579
938.000000	93.166999
939.000000	93.223905
940.000000	93.320773
941.000000	93.374825
942.000000	93.455389
943.000000	93.504235
944.000000	93.560094
945.000000	93.621834
946.000000	93.699465
947.000000	93.778420
948.000000	93.837469
949.000000	93.895966
950.000000	93.949451
951.000000	94.010836
952.000000	94.068981
953.000000	94.121770
954.000000	94.162714
955.000000	94.211759
956.000000	94.235492
957.000000	94.283973
958.000000	94.323277
959.000000	94.390367
960.000000	94.467408
961.000000	94.504985
962.000000	94.597905
963.000000	94.672932
964.000000	94.752547
965.000000	94.842252
966.000000	94.908989
967.000000	94.968341
968.000000	95.009888
969.000000	95.052683
970.000000	95.106202
971.000000	95.160369
972.000000	95.207807
973.000000	95.254376
974.000000	95.307701
975.000000	95.336890
976.000000	95.388555
977.000000	95.437902
978.000000	95.510458
979.000000	95.543876
980.000000	95.592925
981.000000	95.613304
982.000000	95.654486
983.000000	95.698871
984.000000	95.743515
985.000000	95.816075
986.000000	95.889507
987.000000	95.963703
988.000000	96.022683
989.000000	96.038135
990.000000	96.088233
991.000000	96.137255
992.000000	96.220265
993.000000	96.297694
994.000000	96.348250
995.000000	96.397854
996.000000	96.484148
997.000000	96.502461
998.000000	96.502795
999.000000	96.537171
1000.000000	96.538032
1001.000000	96.548700
1002.000000	96.560485
1003.000000	96.582708
1004.000000	96.583401
1005.000000	96.606364
1006.000000	96.635848
1007.000000	96.669803
1008.000000	96.734700
1009.000000	96.786838
1010.000000	96.850055
1011.000000	96.883260
1012.000000	96.904586
1013.000000	96.909500
1014.000000	96.952547
1015.000000	96.992369
1016.000000	97.046751
1017.000000	97.070838
1018.000000	97.105309
1019.000000	97.120942
1020.000000	97.103485
1021.000000	97.116798
1022.000000	97.145519
1023.000000	97.165027
1024.000000	97.207243
1025.000000	97.234904
1026.000000	97.240903
1027.000000	97.234239
1028.000000	97.243516
1029.000000	97.239496
1030.000000	97.251327
1031.000000	97.252241
1032.000000	97.267198
1033.000000	97.309921
1034.000000	97.323617
1035.000000	97.340892
1036.000000	97.379827
1037.000000	97.439826
1038.000000	97.482750
1039.000000	97.533937
1040.000000	97.579903
1041.000000	97.590979
1042.000000	97.603065
1043.000000	97.634545
1044.000000	97.660302
1045.000000	97.675036
1046.000000	97.694039
1047.000000	97.729347
1048.000000	97.768613
1049.000000	97.757311
1050.000000	97.742143
1051.000000	97.730651
1052.000000	97.738705
1053.000000	97.745053
1054.000000	97.757409
1055.000000	97.814697
1056.000000	97.844784
1057.000000	97.845703
1058.000000	97.877577
1059.000000	97.909475
1060.000000	97.980465
1061.000000	98.026432
1062.000000	98.054623
1063.000000	98.082947
1064.000000	98.135185
1065.000000	98.157388
1066.000000	98.200844
1067.000000	98.251678
1068.000000	98.267358
1069.000000	98.295323
1070.000000	98.320206
1071.000000	98.326379
1072.000000	98.300347
1073.000000	98.296720
1074.000000	98.317283
1075.000000	98.360294
1076.000000	98.400463
1077.000000	98.422769
1078.000000	98.407795
1079.000000	98.396873
1080.000000	98.403156
1081.000000	98.423497
1082.000000	98.433722
1083.000000	98.463922
1084.000000	98.518139
1085.000000	98.551189
1086.000000	98.588249
1087.000000	98.606015
1088.000000	98.633656
1089.000000	98.667977
1090.000000	98.646232
1091.000000	98.657173
1092.000000	98.688962
1093.000000	98.703800
1094.000000	98.714874
1095.000000	98.708369
1096.000000	98.724461
1097.000000	98.748252
1098.000000	98.761006
1099.000000	98.793021
1100.000000	98.776780
1101.000000	98.766339
1102.000000	98.762330
1103.000000	98.760305
1104.000000	98.777862
1105.000000	98.767998
1106.000000	98.804227
1107.000000	98.849955
1108.000000	98.855533
1109.000000	98.857995
1110.000000	98.839943
1111.000000	98.854222
1112.000000	98.821555
1113.000000	98.812204
1114.000000	98.847988
1115.000000	98.872366
1116.000000	98.863543
1117.000000	98.840416
1118.000000	98.854194
1119.000000	98.841814
1120.000000	98.856063
1121.000000	98.855872
1122.000000	98.901589
1123.000000	98.927149
1124.000000	98.966113
1125.000000	99.020552
1126.000000	99.022158
1127.000000	99.026065
1128.000000	99.038650
1129.000000	99.050365
1130.000000	99.040522
1131.000000	99.054927
1132.000000	99.033327
1133.000000	99.032887
1134.000000	99.085167
1135.000000	99.108410
1136.000000	99.134350
1137.000000	99.130832
1138.000000	99.160796
1139.000000	99.168802
1140.000000	99.180005
1141.000000	99.129268
1142.000000	99.107345
1143.000000	99.115756
1144.000000	99.128691
1145.000000	99.106784
1146.000000	99.098903
1147.000000	99.138245
1148.000000	99.154187
1149.000000	99.127692
1150.000000	99.084577
1151.000000	99.068985
1152.000000	99.099566
1153.000000	99.041367
1154.000000	99.027427
1155.000000	99.022445
1156.000000	99.010673
1157.000000	98.975013
1158.000000	98.907025
1159.000000	98.840543
1160.000000	98.781702
1161.000000	98.757283
1162.000000	98.693816
1163.000000	98.630842
1164.000000	98.560417
1165.000000	98.524251
1166.000000	98.479640
1167.000000	98.481154
1168.000000	98.411029
1169.000000	98.266549
1170.000000	98.210807
1171.000000	98.142212
1172.000000	98.094299
1173.000000	98.047436
1174.000000	98.005830
1175.000000	97.960465
1176.000000	97.927241
1177.000000	97.891262
1178.000000	97.840098
1179.000000	97.765822
1180.000000	97.731212
1181.000000	97.688194
1182.000000	97.628055
1183.000000	97.585472
1184.000000	97.567617
1185.000000	97.541314
1186.000000	97.482631
1187.000000	97.420928
1188.000000	97.409880
1189.000000	97.355622
1190.000000	97.300819
1191.000000	97.270890
1192.000000	97.234499
1193.000000	97.216075
1194.000000	97.185896
1195.000000	97.144255
1196.000000	97.097841
1197.000000	97.088169
1198.000000	97.110758
1199.000000	97.155457
1200.000000	97.169376
1201.000000	97.171125
1202.000000	97.138601
1203.000000	97.150135
1204.000000	97.176725
1205.000000	97.183738
1206.000000	97.207630
1207.000000	97.200136
1208.000000	97.174353
1209.000000	97.161628
1210.000000	97.168604
1211.000000	97.206718
1212.000000	97.210404
1213.000000	97.257240
1214.000000	97.282743
1215.000000	97.308907
1216.000000	97.313510
1217.000000	97.341727
1218.000000	97.362147
1219.000000	97.358882
1220.000000	97.375903
1221.000000	97.430635
1222.000000	97.466607
1223.000000	97.455395
1224.000000	97.483121
1225.000000	97.486146
1226.000000	97.516931
1227.000000	97.559336
1228.000000	97.601663
1229.000000	97.609517
1230.000000	97.650434
1231.000000	97.713424
1232.000000	97.747983
1233.000000	97.736442
1234.000000	97.705951
1235.000000	97.692267
1236.000000	97.698666
1237.000000	97.708220
1238.000000	97.758976
1239.000000	97.777284
1240.000000	97.819603
1241.000000	97.836995
1242.000000	97.872886
1243.000000	97.928001
1244.000000	97.951805
1245.000000	97.969888
1246.000000	98.005329
1247.000000	98.059191
1248.000000	98.068875
1249.000000	98.102286
1250.000000	98.117608
1251.000000	98.144411
1252.000000	98.157519
1253.000000	98.154722
1254.000000	98.166558
1255.000000	98.210616
1256.000000	98.232096
1257.000000	98.237036
1258.000000	98.274179
1259.000000	98.325597
1260.000000	98.365474
1261.000000	98.338541
1262.000000	98.302139
1263.000000	98.312014
1264.000000	98.334091
1265.000000	98.328697
1266.000000	98.313806
1267.000000	98.308519
1268.000000	98.325923
1269.000000	98.359183
1270.000000	98.402561
1271.000000	98.425551
1272.000000	98.446028
1273.000000	98.444444
1274.000000	98.469423
1275.000000	98.484853
1276.000000	98.472589
1277.000000	98.480220
1278.000000	98.470966
1279.000000	98.489044
1280.000000	98.518790
1281.000000	98.506467
1282.000000	98.465116
1283.000000	98.472086
1284.000000	98.472029
1285.000000	98.480117
1286.000000	98.478850
1287.000000	98.496617
1288.000000	98.522517
1289.000000	98.533112
1290.000000	98.526047
1291.000000	98.547821
1292.000000	98.571303
1293.000000	98.573184
1294.000000	98.537574
1295.000000	98.536267
1296.000000	98.553594
1297.000000	98.577627
1298.000000	98.591246
1299.000000	98.610968
1300.000000	98.602829
1301.000000	98.604327
1302.000000	98.640595
1303.000000	98.658133
1304.000000	98.678866
1305.000000	98.670286
1306.000000	98.673962
1307.000000	98.692272
1308.000000	98.698074
1309.000000	98.714113
1310.000000	98.693610
1311.000000	98.697946
1312.000000	98.720560
1313.000000	98.740400
1314.000000	98.746255
1315.000000	98.758793
1316.000000	98.761271
1317.000000	98.774171
1318.000000	98.748764
1319.000000	98.729551
1320.000000	98.741736
1321.000000	98.751869
1322.000000	98.730024
1323.000000	98.720233
1324.000000	98.710070
1325.000000	98.681394
1326.000000	98.652364
1327.000000	98.637059
1328.000000	98.618621
1329.000000	98.619501
1330.000000	98.633421
1331.000000	98.636525
1332.000000	98.648282
1333.000000	98.644736
1334.000000	98.646208
1335.000000	98.665107
1336.000000	98.658111
1337.000000	98.647573
1338.000000	98.640793
1339.000000	98.616365
1340.000000	98.579524
1341.000000	98.542013
1342.000000	98.513252
1343.000000	98.487678
1344.000000	98.437039
1345.000000	98.425740
1346.000000	98.377749
1347.000000	98.304702
1348.000000	98.253267
1349.000000	98.202633
1350.000000	98.123261
1351.000000	98.041656
1352.000000	97.959401
1353.000000	97.918924
1354.000000	97.919006
1355.000000	97.908282
1356.000000	97.874918
1357.000000	97.874811
1358.000000	97.752004
1359.000000	97.682968
1360.000000	97.674884
1361.000000	97.693702
1362.000000	97.570080
1363.000000	97.482819
1364.000000	97.460214
1365.000000	97.291232
1366.000000	97.217914
1367.000000	97.205691
1368.000000	97.138861
1369.000000	97.115974
1370.000000	97.161942
1371.000000	97.173680
1372.000000	97.133738
1373.000000	97.036359
1374.000000	96.959594
1375.000000	96.886786
1376.000000	96.886006
1377.000000	96.832989
1378.000000	96.753072
1379.000000	96.599456
1380.000000	96.358624
1381.000000	96.170688
1382.000000	96.123414
1383.000000	96.093553
1384.000000	96.112010
1385.000000	96.055771
1386.000000	95.992603
1387.000000	96.145773
1388.000000	96.085827
1389.000000	96.023885
1390.000000	95.924153
1391.000000	95.866242
1392.000000	95.664335
1393.000000	95.634302
1394.000000	95.652521
1395.000000	95.510297
1396.000000	95.191108
1397.000000	95.112668
1398.000000	95.007370
1399.000000	94.872391
1400.000000	94.894225
1401.000000	94.747345
1402.000000	94.583769
1403.000000	94.441827
1404.000000	94.356669
1405.000000	94.122087
1406.000000	93.939916
1407.000000	93.716921
1408.000000	93.588610
1409.000000	93.456781
1410.000000	93.300876
1411.000000	93.069981
1412.000000	92.844434
1413.000000	92.755257
1414.000000	92.724893
1415.000000	92.668561
1416.000000	92.620969
1417.000000	92.462195
1418.000000	92.334951
1419.000000	92.097727
1420.000000	91.930673
1421.000000	91.785986
1422.000000	91.428068
1423.000000	91.280617
1424.000000	91.065530
1425.000000	90.859962
1426.000000	90.599486
1427.000000	90.484431
1428.000000	90.303743
1429.000000	90.033240
1430.000000	89.871358
1431.000000	89.830433
1432.000000	89.673411
1433.000000	89.518141
1434.000000	89.310779
1435.000000	89.081563
1436.000000	88.973683
1437.000000	88.802836
1438.000000	88.659945
1439.000000	88.417094
1440.000000	88.240032
1441.000000	88.029937
1442.000000	87.942831
1443.000000	87.777873
1444.000000	87.615561
1445.000000	87.564155
1446.000000	87.445527
1447.000000	87.333702
1448.000000	87.144199
1449.000000	86.997254
1450.000000	86.943227
1451.000000	86.811736
1452.000000	86.671736
1453.000000	86.464585
1454.000000	86.307958
1455.000000	86.192994
1456.000000	86.087005
1457.000000	85.954487
1458.000000	85.828413
1459.000000	85.702866
1460.000000	85.563576
1461.000000	85.491675
1462.000000	85.425126
1463.000000	85.340958
1464.000000	85.247983
1465.000000	85.130556
1466.000000	85.039319
1467.000000	84.955017
1468.000000	84.889553
1469.000000	84.854580
1470.000000	84.790140
1471.000000	84.657512
1472.000000	84.554903
1473.000000	84.434660
1474.000000	84.300400
1475.000000	84.210147
1476.000000	84.145169
1477.000000	84.038899
1478.000000	83.946267
1479.000000	83.865706
1480.000000	83.730602
1481.000000	83.647825
1482.000000	83.584440
1483.000000	83.514623
1484.000000	83.404243
1485.000000	83.329463
1486.000000	83.288514
1487.000000	83.219368
1488.000000	83.147196
1489.000000	83.097703
1490.000000	83.036676
1491.000000	82.981138
1492.000000	82.958749
1493.000000	82.896249
1494.000000	82.840225
1495.000000	82.823256
1496.000000	82.773883
1497.000000	82.731359
1498.000000	82.714471
1499.000000	82.681444
1500.000000	82.661969
1501.000000	82.643793
1502.000000	82.607159
1503.000000	82.592162
1504.000000	82.591461
1505.000000	82.573787
1506.000000	82.593987
1507.000000	82.579231
1508.000000	82.585136
1509.000000	82.606228
1510.000000	82.613481
1511.000000	82.609988
1512.000000	82.603800
1513.000000	82.637801
1514.000000	82.649348
1515.000000	82.656078
1516.000000	82.674317
1517.000000	82.694588
1518.000000	82.720829
1519.000000	82.788538
1520.000000	82.814957
1521.000000	82.846271
1522.000000	82.890574
1523.000000	82.951275
1524.000000	83.015041
1525.000000	83.069488
1526.000000	83.103177
1527.000000	83.162793
1528.000000	83.232867
1529.000000	83.326183
1530.000000	83.395202
1531.000000	83.472263
1532.000000	83.524661
1533.000000	83.550372
1534.000000	83.620682
1535.000000	83.699041
1536.000000	83.762957
1537.000000	83.842147
1538.000000	83.901703
1539.000000	83.932108
1540.000000	83.994792
1541.000000	84.049923
1542.000000	84.109924
1543.000000	84.162968
1544.000000	84.233913
1545.000000	84.306898
1546.000000	84.370153
1547.000000	84.443171
1548.000000	84.505447
1549.000000	84.584990
1550.000000	84.636517
1551.000000	84.696007
1552.000000	84.783606
1553.000000	84.845183
1554.000000	84.894245
1555.000000	84.955695
1556.000000	85.014325
1557.000000	85.059832
1558.000000	85.105782
1559.000000	85.149140
1560.000000	85.175194
1561.000000	85.209983
1562.000000	85.239616
1563.000000	85.265592
1564.000000	85.298557
1565.000000	85.328014
1566.000000	85.360387
1567.000000	85.406400
1568.000000	85.463148
1569.000000	85.470028
1570.000000	85.481219
1571.000000	85.496649
1572.000000	85.547050
1573.000000	85.581611
1574.000000	85.601669
1575.000000	85.621817
1576.000000	85.646691
1577.000000	85.673597
1578.000000	85.701308
1579.000000	85.736772
1580.000000	85.774404
1581.000000	85.821703
1582.000000	85.836445
1583.000000	85.854389
1584.000000	85.848495
1585.000000	85.891620
1586.000000	85.948049
1587.000000	85.987943
1588.000000	86.023651
1589.000000	86.053777
1590.000000	86.068559
1591.000000	86.081087
1592.000000	86.115325
1593.000000	86.157671
1594.000000	86.164194
1595.000000	86.203404
1596.000000	86.237118
1597.000000	86.261301
1598.000000	86.281876
1599.000000	86.307793
1600.000000	86.362313
1601.000000	86.401320
1602.000000	86.403876
1603.000000	86.435724
1604.000000	86.489238
1605.000000	86.550318
1606.000000	86.623768
1607.000000	86.665087
1608.000000	86.723152
1609.000000	86.786554
1610.000000	86.840585
1611.000000	86.903400
1612.000000	86.969439
1613.000000	87.029065
1614.000000	87.047444
1615.000000	87.099217
1616.000000	87.160370
1617.000000	87.220474
1618.000000	87.259778
1619.000000	87.324945
1620.000000	87.362744
1621.000000	87.380579
1622.000000	87.411744
1623.000000	87.413862
1624.000000	87.411757
1625.000000	87.454163
1626.000000	87.511537
1627.000000	87.570876
1628.000000	87.624691
1629.000000	87.698513
1630.000000	87.756820
1631.000000	87.803330
1632.000000	87.860315
1633.000000	87.904543
1634.000000	87.946949
1635.000000	87.988377
1636.000000	88.028348
1637.000000	88.128704
1638.000000	88.180296
1639.000000	88.201324
1640.000000	88.209898
1641.000000	88.230547
1642.000000	88.241862
1643.000000	88.270815
1644.000000	88.325602
1645.000000	88.345919
1646.000000	88.358271
1647.000000	88.372569
1648.000000	88.446488
1649.000000	88.505709
1650.000000	88.548199
1651.000000	88.573647
1652.000000	88.618365
1653.000000	88.703874
1654.000000	88.757618
1655.000000	88.800206
1656.000000	88.831925
1657.000000	88.838519
1658.000000	88.899424
1659.000000	88.941746
1660.000000	88.940309
1661.000000	88.943599
1662.000000	88.955182
1663.000000	88.954209
1664.000000	88.934640
1665.000000	88.921158
1666.000000	88.912169
1667.000000	88.872513
1668.000000	88.870817
1669.000000	88.825767
1670.000000	88.767000
1671.000000	88.727126
1672.000000	88.617107
1673.000000	88.537024
1674.000000	88.511346
1675.000000	88.458790
1676.000000	88.414374
1677.000000	88.376051
1678.000000	88.285975
1679.000000	88.163451
1680.000000	88.087472
1681.000000	87.991879
1682.000000	87.883779
1683.000000	87.704657
1684.000000	87.583120
1685.000000	87.457767
1686.000000	87.345985
1687.000000	87.213993
1688.000000	87.040490
1689.000000	86.862395
1690.000000	86.736682
1691.000000	86.613366
1692.000000	86.504134
1693.000000	86.370502
1694.000000	86.238994
1695.000000	86.155788
1696.000000	86.051240
1697.000000	85.916756
1698.000000	85.809697
1699.000000	85.712526
1700.000000	85.634930
1701.000000	85.556914
1702.000000	85.482138
1703.000000	85.350277
1704.000000	85.267285
1705.000000	85.165632
1706.000000	85.070735
1707.000000	85.013817
1708.000000	84.941235
1709.000000	84.834350
1710.000000	84.762369
1711.000000	84.650133
1712.000000	84.543831
1713.000000	84.504492
1714.000000	84.404927
1715.000000	84.328141
1716.000000	84.239965
1717.000000	84.172164
1718.000000	84.117921
1719.000000	84.020255
1720.000000	83.922228
1721.000000	83.809268
1722.000000	83.696990
1723.000000	83.631343
1724.000000	83.556040
1725.000000	83.445498
1726.000000	83.341671
1727.000000	83.231620
1728.000000	83.126612
1729.000000	83.052394
1730.000000	82.938267
1731.000000	82.862064
1732.000000	82.796882
1733.000000	82.699881
1734.000000	82.637189
1735.000000	82.530461
1736.000000	82.465956
1737.000000	82.407116
1738.000000	82.368829
1739.000000	82.336773
1740.000000	82.302623
1741.000000	82.247882
1742.000000	82.205993
1743.000000	82.200753
1744.000000	82.229709
1745.000000	82.203014
1746.000000	82.214963
1747.000000	82.245133
1748.000000	82.204486
1749.000000	82.237267
1750.000000	82.258381
1751.000000	82.301066
1752.000000	82.328212
1753.000000	82.371575
1754.000000	82.418985
1755.000000	82.444215
1756.000000	82.501550
1757.000000	82.585514
1758.000000	82.640714
1759.000000	82.752567
1760.000000	82.863310
1761.000000	82.927758
1762.000000	82.995587
1763.000000	83.087185
1764.000000	83.155421
1765.000000	83.226640
1766.000000	83.261334
1767.000000	83.296750
1768.000000	83.344391
1769.000000	83.362014
1770.000000	83.421498
1771.000000	83.462569
1772.000000	83.488412
1773.000000	83.523974
1774.000000	83.586741
1775.000000	83.661497
1776.000000	83.729255
1777.000000	83.798504
1778.000000	83.829977
1779.000000	83.837641
1780.000000	83.904195
1781.000000	83.941743
1782.000000	83.957987
1783.000000	84.009241
1784.000000	84.088094
1785.000000	84.136743
1786.000000	84.175821
1787.000000	84.219765
1788.000000	84.274599
1789.000000	84.321257
1790.000000	84.395276
1791.000000	84.438802
1792.000000	84.465070
1793.000000	84.495489
1794.000000	84.493553
1795.000000	84.500353
1796.000000	84.565388
1797.000000	84.595451
1798.000000	84.606766
1799.000000	84.656530
1800.000000	84.714865
1801.000000	84.765279
1802.000000	84.807690
1803.000000	84.845096
1804.000000	84.901456
1805.000000	84.981291
1806.000000	85.058569
1807.000000	85.127752
1808.000000	85.189080
1809.000000	85.211499
1810.000000	85.224933
1811.000000	85.202472
1812.000000	85.170506
1813.000000	85.169471
1814.000000	85.205966
1815.000000	85.261489
1816.000000	85.279303
1817.000000	85.382722
1818.000000	85.512263
1819.000000	85.574977
1820.000000	85.684918
1821.000000	85.734080
1822.000000	85.773727
1823.000000	85.781779
1824.000000	85.807798
1825.000000	85.877672
1826.000000	85.975232
1827.000000	86.005654
1828.000000	86.023653
1829.000000	86.049912
1830.000000	86.111988
1831.000000	86.168948
1832.000000	86.204836
1833.000000	86.186544
1834.000000	86.206475
1835.000000	86.238532
1836.000000	86.288868
1837.000000	86.353093
1838.000000	86.369516
1839.000000	86.344846
1840.000000	86.280524
1841.000000	86.302705
1842.000000	86.347526
1843.000000	86.393839
1844.000000	86.374478
1845.000000	86.357768
1846.000000	86.419677
1847.000000	86.556510
1848.000000	86.634836
1849.000000	86.658602
1850.000000	86.641200
1851.000000	86.630485
1852.000000	86.570203
1853.000000	86.509014
1854.000000	86.461139
1855.000000	86.418323
1856.000000	86.496151
1857.000000	86.510666
1858.000000	86.509835
1859.000000	86.573916
1860.000000	86.530820
1861.000000	86.466292
1862.000000	86.495267
1863.000000	86.559275
1864.000000	86.550716
1865.000000	86.476047
1866.000000	86.421433
1867.000000	86.392996
1868.000000	86.403029
1869.000000	86.395432
1870.000000	86.457091
1871.000000	86.392589
1872.000000	86.424615
1873.000000	86.442228
1874.000000	86.439183
1875.000000	86.431183
1876.000000	86.375961
1877.000000	86.299868
1878.000000	86.168755
1879.000000	86.088223
1880.000000	86.055561
1881.000000	85.956655
1882.000000	85.751279
1883.000000	85.660756
1884.000000	85.534223
1885.000000	85.387788
1886.000000	85.287948
1887.000000	85.119716
1888.000000	84.917106
1889.000000	84.785117
1890.000000	84.533794
1891.000000	84.250655
1892.000000	84.010005
1893.000000	83.779429
1894.000000	83.440960
1895.000000	83.143417
1896.000000	82.819371
1897.000000	82.463654
1898.000000	82.087062
1899.000000	81.780537
1900.000000	81.413752
1901.000000	81.008702
1902.000000	80.672278
1903.000000	80.268403
1904.000000	79.840247
1905.000000	79.292053
1906.000000	78.817413
1907.000000	78.218879
1908.000000	77.682741
1909.000000	77.182225
1910.000000	76.698042
1911.000000	76.112246
1912.000000	75.569662
1913.000000	75.096403
1914.000000	74.590549
1915.000000	74.073429
1916.000000	73.526848
1917.000000	73.000854
1918.000000	72.363042
1919.000000	71.885930
1920.000000	71.373805
1921.000000	70.792054
1922.000000	70.297864
1923.000000	69.788816
1924.000000	69.222728
1925.000000	68.699510
1926.000000	68.202568
1927.000000	67.714165
1928.000000	67.229743
1929.000000	66.818616
1930.000000	66.432492
1931.000000	66.061984
1932.000000	65.681813
1933.000000	65.308765
1934.000000	64.909972
1935.000000	64.602315
1936.000000	64.307590
1937.000000	63.969976
1938.000000	63.731004
1939.000000	63.416898
1940.000000	63.180208
1941.000000	62.976025
1942.000000	62.800783
1943.000000	62.614911
1944.000000	62.474663
1945.000000	62.322703
1946.000000	62.237889
1947.000000	62.128097
1948.000000	62.013649
1949.000000	61.936207
1950.000000	61.825429
1951.000000	61.786906
1952.000000	61.795376
1953.000000	61.827439
1954.000000	61.748744
1955.000000	61.739120
1956.000000	61.810040
1957.000000	61.813192
1958.000000	61.855776
1959.000000	61.932280
1960.000000	62.034942
1961.000000	62.103242
1962.000000	62.198596
1963.000000	62.280242
1964.000000	62.341297
1965.000000	62.392657
1966.000000	62.483048
1967.000000	62.611309
1968.000000	62.725187
1969.000000	62.843515
1970.000000	62.946853
1971.000000	63.051241
1972.000000	63.173192
1973.000000	63.319386
1974.000000	63.476299
1975.000000	63.625260
1976.000000	63.784038
1977.000000	63.916948
1978.000000	64.090848
1979.000000	64.231140
1980.000000	64.384445
1981.000000	64.502174
1982.000000	64.655637
1983.000000	64.804889
1984.000000	64.948966
1985.000000	65.144910
1986.000000	65.303556
1987.000000	65.435632
1988.000000	65.582696
1989.000000	65.755231
1990.000000	65.923155
1991.000000	66.070642
1992.000000	66.211892
1993.000000	66.347165
1994.000000	66.454893
1995.000000	66.586257
1996.000000	66.736983
1997.000000	66.862320
1998.000000	67.014082
1999.000000	67.176730
2000.000000	67.335519
