PE UV       SUBTECH     SPECTRUM    ASCII       PEDS        4.00        
   -1
CICIMAUCR0020-2.Sample.ASC
24/04/17
09:09:44.00
24/04/17
09:09:44.00
Vinicio Soto Monge
C. resplendens
250,000000
1
Lambda 1050
1050L1511233
PerkinElmer UV WinLab 6.3.2.0749 / 2.02.05 Lambda 900 UV/VIS/NIR, Aug  7 2015 09:38:08

0
0
3350/servo 860,8/2
0
0
UV/VIS
1
1
1
DoubleDePol,CommonBeamDepol,RBeamAtt,SBeamAtt,60mm sphere, WB InGaAs Detector
0
0
0
0
Program
Program
3350/servo 860,8/2
3350/0,2 860,8/0,2
3350/0,2 860,8/0,2
0
15.00
 
 
 
0
 
860,8
319,2
860,8
Front
100
on
S:100 R:100
0
0
0
0
 
0
 
 
 
0
 
 
0
0
0
0
0
 
 
 
 
0
0


0
0
#HDR
-1
-1
#GR
nm
%R
1.0
0.0
2500,000000
-1,000000
2251
8
83,706800
5,981400
#DATA
2482.000000	20.626436
2481.000000	20.670084
2480.000000	20.697018
2479.000000	20.649162
2478.000000	20.735015
2477.000000	20.782631
2476.000000	20.778903
2475.000000	20.801870
2474.000000	20.804395
2473.000000	20.934496
2472.000000	20.992333
2471.000000	20.970569
2470.000000	21.064598
2469.000000	21.087444
2468.000000	21.094298
2467.000000	21.179550
2466.000000	21.223198
2465.000000	21.293539
2464.000000	21.349452
2463.000000	21.439874
2462.000000	21.497470
2461.000000	21.568533
2460.000000	21.640678
2459.000000	21.693945
2458.000000	21.793265
2457.000000	21.872985
2456.000000	21.974470
2455.000000	22.090022
2454.000000	22.171907
2453.000000	22.263532
2452.000000	22.362491
2451.000000	22.495959
2450.000000	22.640370
2449.000000	22.740171
2448.000000	22.838769
2447.000000	22.990875
2446.000000	23.113282
2445.000000	23.267071
2444.000000	23.397774
2443.000000	23.520542
2442.000000	23.642707
2441.000000	23.769082
2440.000000	23.888843
2439.000000	24.002351
2438.000000	24.131371
2437.000000	24.254138
2436.000000	24.348047
2435.000000	24.476947
2434.000000	24.584202
2433.000000	24.686889
2432.000000	24.803644
2431.000000	24.911501
2430.000000	25.012865
2429.000000	25.130823
2428.000000	25.198519
2427.000000	25.293029
2426.000000	25.402570
2425.000000	25.566820
2424.000000	25.815361
2423.000000	26.078931
2422.000000	26.251478
2421.000000	26.386510
2420.000000	26.450719
2419.000000	26.582024
2418.000000	26.734370
2417.000000	26.825273
2416.000000	26.959343
2415.000000	27.033172
2414.000000	27.121910
2413.000000	27.269207
2412.000000	27.408808
2411.000000	27.442596
2410.000000	27.530613
2409.000000	27.660595
2408.000000	27.733822
2407.000000	27.836388
2406.000000	27.872702
2405.000000	27.937392
2404.000000	28.039838
2403.000000	28.103205
2402.000000	28.182084
2401.000000	28.207816
2400.000000	28.274671
2399.000000	28.364371
2398.000000	28.400804
2397.000000	28.458400
2396.000000	28.526578
2395.000000	28.537039
2394.000000	28.593432
2393.000000	28.674716
2392.000000	28.699486
2391.000000	28.690227
2390.000000	28.724736
2389.000000	28.792914
2388.000000	28.799287
2387.000000	28.863255
2386.000000	28.922174
2385.000000	28.907625
2384.000000	28.937685
2383.000000	29.000812
2382.000000	28.999610
2381.000000	28.977605
2380.000000	28.997325
2379.000000	29.029069
2378.000000	28.997205
2377.000000	28.971112
2376.000000	29.006464
2375.000000	29.045783
2374.000000	29.023899
2373.000000	29.002255
2372.000000	29.032676
2371.000000	29.069230
2370.000000	29.050713
2369.000000	29.086785
2368.000000	29.124541
2367.000000	29.106505
2366.000000	29.090392
2365.000000	29.117687
2364.000000	29.139932
2363.000000	29.125623
2362.000000	29.122978
2361.000000	29.171195
2360.000000	29.201256
2359.000000	29.190795
2358.000000	29.191396
2357.000000	29.216406
2356.000000	29.230114
2355.000000	29.222659
2354.000000	29.221096
2353.000000	29.271116
2352.000000	29.287830
2351.000000	29.257288
2350.000000	29.237809
2349.000000	29.265585
2348.000000	29.293241
2347.000000	29.287950
2346.000000	29.333041
2345.000000	29.357690
2344.000000	29.327149
2343.000000	29.356488
2342.000000	29.379214
2341.000000	29.385106
2340.000000	29.443784
2339.000000	29.469756
2338.000000	29.458574
2337.000000	29.529035
2336.000000	29.564747
2335.000000	29.600219
2334.000000	29.632323
2333.000000	29.642544
2332.000000	29.692925
2331.000000	29.743788
2330.000000	29.805832
2329.000000	29.860302
2328.000000	29.893609
2327.000000	29.974893
2326.000000	30.020344
2325.000000	30.063030
2324.000000	30.110526
2323.000000	30.129284
2322.000000	30.135055
2321.000000	30.188683
2320.000000	30.233654
2319.000000	30.240868
2318.000000	30.225838
2317.000000	30.202872
2316.000000	30.224635
2315.000000	30.205276
2314.000000	30.161148
2313.000000	30.163192
2312.000000	30.129043
2311.000000	30.093932
2310.000000	30.042108
2309.000000	30.029483
2308.000000	29.978740
2307.000000	29.914291
2306.000000	29.912487
2305.000000	29.881344
2304.000000	29.866314
2303.000000	29.835652
2302.000000	29.830242
2301.000000	29.830121
2300.000000	29.828919
2299.000000	29.852005
2298.000000	29.856214
2297.000000	29.857777
2296.000000	29.884110
2295.000000	29.927397
2294.000000	29.953369
2293.000000	29.975614
2292.000000	30.046677
2291.000000	30.103552
2290.000000	30.141668
2289.000000	30.143352
2288.000000	30.233293
2287.000000	30.286079
2286.000000	30.330208
2285.000000	30.388165
2284.000000	30.461392
2283.000000	30.525601
2282.000000	30.590532
2281.000000	30.643799
2280.000000	30.733019
2279.000000	30.770294
2278.000000	30.810094
2277.000000	30.869493
2276.000000	30.948011
2275.000000	30.978553
2274.000000	31.018714
2273.000000	31.046610
2272.000000	31.132944
2271.000000	31.197273
2270.000000	31.241763
2269.000000	31.295751
2268.000000	31.424891
2267.000000	31.492467
2266.000000	31.576997
2265.000000	31.696398
2264.000000	31.841891
2263.000000	31.947102
2262.000000	32.101493
2261.000000	32.274762
2260.000000	32.441898
2259.000000	32.661941
2258.000000	32.874409
2257.000000	33.075213
2256.000000	33.267961
2255.000000	33.489928
2254.000000	33.753618
2253.000000	33.967649
2252.000000	34.187331
2251.000000	34.392104
2250.000000	34.628740
2249.000000	34.857681
2248.000000	35.017242
2247.000000	35.217204
2246.000000	35.375082
2245.000000	35.598492
2244.000000	35.723303
2243.000000	35.855209
2242.000000	35.968476
2241.000000	36.052285
2240.000000	36.189481
2239.000000	36.278460
2238.000000	36.319222
2237.000000	36.353852
2236.000000	36.388843
2235.000000	36.414334
2234.000000	36.467601
2233.000000	36.462551
2232.000000	36.453773
2231.000000	36.422871
2230.000000	36.388362
2229.000000	36.344834
2228.000000	36.321748
2227.000000	36.253811
2226.000000	36.180704
2225.000000	36.079580
2224.000000	36.017054
2223.000000	35.933847
2222.000000	35.828755
2221.000000	35.712481
2220.000000	35.597770
2219.000000	35.489072
2218.000000	35.388429
2217.000000	35.297165
2216.000000	35.186182
2215.000000	35.104177
2214.000000	34.986941
2213.000000	34.893032
2212.000000	34.777720
2211.000000	34.686697
2210.000000	34.610223
2209.000000	34.512947
2208.000000	34.436112
2207.000000	34.344728
2206.000000	34.279798
2205.000000	34.204286
2204.000000	34.153904
2203.000000	34.100036
2202.000000	34.068893
2201.000000	34.002519
2200.000000	33.955144
2199.000000	33.874101
2198.000000	33.853540
2197.000000	33.830333
2196.000000	33.757466
2195.000000	33.724520
2194.000000	33.700231
2193.000000	33.686163
2192.000000	33.657305
2191.000000	33.616543
2190.000000	33.595260
2189.000000	33.581913
2188.000000	33.532253
2187.000000	33.489567
2186.000000	33.452051
2185.000000	33.432332
2184.000000	33.402993
2183.000000	33.357060
2182.000000	33.346960
2181.000000	33.328563
2180.000000	33.305476
2179.000000	33.266278
2178.000000	33.235856
2177.000000	33.205916
2176.000000	33.205676
2175.000000	33.186317
2174.000000	33.182228
2173.000000	33.192810
2172.000000	33.204714
2171.000000	33.226838
2170.000000	33.251488
2169.000000	33.280707
2168.000000	33.281669
2167.000000	33.337220
2166.000000	33.371610
2165.000000	33.400588
2164.000000	33.467202
2163.000000	33.527323
2162.000000	33.612094
2161.000000	33.705762
2160.000000	33.775743
2159.000000	33.851736
2158.000000	33.959834
2157.000000	34.096188
2156.000000	34.216310
2155.000000	34.329337
2154.000000	34.465451
2153.000000	34.601325
2152.000000	34.751267
2151.000000	34.908182
2150.000000	35.044657
2149.000000	35.179088
2148.000000	35.335763
2147.000000	35.497849
2146.000000	35.663422
2145.000000	35.808194
2144.000000	35.948516
2143.000000	36.092085
2142.000000	36.235895
2141.000000	36.383792
2140.000000	36.507882
2139.000000	36.642673
2138.000000	36.783958
2137.000000	36.931615
2136.000000	37.057989
2135.000000	37.201799
2134.000000	37.353184
2133.000000	37.466211
2132.000000	37.595832
2131.000000	37.719922
2130.000000	37.789662
2129.000000	37.883932
2128.000000	37.997561
2127.000000	38.117201
2126.000000	38.196080
2125.000000	38.277244
2124.000000	38.370431
2123.000000	38.460372
2122.000000	38.524942
2121.000000	38.590955
2120.000000	38.644222
2119.000000	38.706147
2118.000000	38.773843
2117.000000	38.821339
2116.000000	38.866189
2115.000000	38.886991
2114.000000	38.935809
2113.000000	38.975729
2112.000000	38.998094
2111.000000	39.017213
2110.000000	39.035490
2109.000000	39.065430
2108.000000	39.084428
2107.000000	39.083226
2106.000000	39.091402
2105.000000	39.139018
2104.000000	39.152365
2103.000000	39.151884
2102.000000	39.163307
2101.000000	39.169800
2100.000000	39.168838
2099.000000	39.176654
2098.000000	39.195772
2097.000000	39.216093
2096.000000	39.222947
2095.000000	39.250362
2094.000000	39.276214
2093.000000	39.276334
2092.000000	39.293890
2091.000000	39.324311
2090.000000	39.324191
2089.000000	39.338019
2088.000000	39.355935
2087.000000	39.338740
2086.000000	39.340904
2085.000000	39.328039
2084.000000	39.288118
2083.000000	39.264911
2082.000000	39.219460
2081.000000	39.163307
2080.000000	39.103306
2079.000000	39.009998
2078.000000	38.933524
2077.000000	38.845868
2076.000000	38.741378
2075.000000	38.630635
2074.000000	38.506906
2073.000000	38.364419
2072.000000	38.215199
2071.000000	38.082692
2070.000000	37.935155
2069.000000	37.775955
2068.000000	37.615792
2067.000000	37.460319
2066.000000	37.299315
2065.000000	37.148532
2064.000000	36.996546
2063.000000	36.855021
2062.000000	36.716743
2061.000000	36.584957
2060.000000	36.470487
2059.000000	36.365395
2058.000000	36.279302
2057.000000	36.212688
2056.000000	36.177096
2055.000000	36.170363
2054.000000	36.174692
2053.000000	36.211486
2052.000000	36.282308
2051.000000	36.374053
2050.000000	36.484195
2049.000000	36.635579
2048.000000	36.778066
2047.000000	36.967447
2046.000000	37.142399
2045.000000	37.332502
2044.000000	37.557475
2043.000000	37.757918
2042.000000	37.975436
2041.000000	38.188385
2040.000000	38.405181
2039.000000	38.618731
2038.000000	38.800176
2037.000000	38.994247
2036.000000	39.175331
2035.000000	39.358099
2034.000000	39.524033
2033.000000	39.691530
2032.000000	39.824758
2031.000000	39.984800
2030.000000	40.123079
2029.000000	40.248251
2028.000000	40.375828
2027.000000	40.496070
2026.000000	40.604648
2025.000000	40.718277
2024.000000	40.793548
2023.000000	40.887097
2022.000000	40.961286
2021.000000	41.044854
2020.000000	41.115797
2019.000000	41.181088
2018.000000	41.235798
2017.000000	41.278605
2016.000000	41.309387
2015.000000	41.357243
2014.000000	41.368906
2013.000000	41.378646
2012.000000	41.383576
2011.000000	41.384778
2010.000000	41.367704
2009.000000	41.359648
2008.000000	41.320329
2007.000000	41.271871
2006.000000	41.242291
2005.000000	41.200207
2004.000000	41.144655
2003.000000	41.072630
2002.000000	41.002769
2001.000000	40.915233
2000.000000	40.844771
1999.000000	40.751464
1998.000000	40.643246
1997.000000	40.548014
1996.000000	40.429095
1995.000000	40.314865
1994.000000	40.178510
1993.000000	40.086044
1992.000000	39.943678
1991.000000	39.810089
1990.000000	39.665678
1989.000000	39.549645
1988.000000	39.425194
1987.000000	39.255893
1986.000000	39.118457
1985.000000	38.977533
1984.000000	38.846950
1983.000000	38.698932
1982.000000	38.540814
1981.000000	38.399409
1980.000000	38.283737
1979.000000	38.121771
1978.000000	37.978442
1977.000000	37.860966
1976.000000	37.703809
1975.000000	37.566132
1974.000000	37.473185
1973.000000	37.330819
1972.000000	37.205045
1971.000000	37.064963
1970.000000	36.947487
1969.000000	36.815341
1968.000000	36.701231
1967.000000	36.589166
1966.000000	36.461469
1965.000000	36.325235
1964.000000	36.221345
1963.000000	36.084991
1962.000000	35.935891
1961.000000	35.827673
1960.000000	35.703944
1959.000000	35.551958
1958.000000	35.421496
1957.000000	35.300051
1956.000000	35.159608
1955.000000	35.041170
1954.000000	34.902531
1953.000000	34.746697
1952.000000	34.623329
1951.000000	34.505853
1950.000000	34.401242
1949.000000	34.299277
1948.000000	34.209576
1947.000000	34.092581
1946.000000	33.995064
1945.000000	33.917989
1944.000000	33.809651
1943.000000	33.753017
1942.000000	33.723077
1941.000000	33.658868
1940.000000	33.633256
1939.000000	33.600310
1938.000000	33.578787
1937.000000	33.558466
1936.000000	33.552574
1935.000000	33.567364
1934.000000	33.609208
1933.000000	33.665000
1932.000000	33.743157
1931.000000	33.822277
1930.000000	33.918470
1929.000000	34.041598
1928.000000	34.176750
1927.000000	34.312263
1926.000000	34.450541
1925.000000	34.637638
1924.000000	34.789383
1923.000000	35.030709
1922.000000	35.285502
1921.000000	35.552319
1920.000000	35.821661
1919.000000	36.053127
1918.000000	36.374895
1917.000000	36.640509
1916.000000	36.969972
1915.000000	37.357753
1914.000000	37.804211
1913.000000	38.251391
1912.000000	38.669593
1911.000000	39.101743
1910.000000	39.524274
1909.000000	39.939229
1908.000000	40.466971
1907.000000	41.070466
1906.000000	41.728310
1905.000000	42.421625
1904.000000	43.046042
1903.000000	43.640879
1902.000000	44.313393
1901.000000	45.000215
1900.000000	45.746077
1899.000000	46.491818
1898.000000	47.228060
1897.000000	47.968149
1896.000000	48.611324
1895.000000	49.321714
1894.000000	50.077074
1893.000000	50.865982
1892.000000	51.712125
1891.000000	52.523759
1890.000000	53.277676
1889.000000	53.957164
1888.000000	54.608274
1887.000000	55.264435
1886.000000	55.916748
1885.000000	56.579883
1884.000000	57.196604
1883.000000	57.763064
1882.000000	58.281307
1881.000000	58.779470
1880.000000	59.209335
1879.000000	59.670103
1878.000000	60.107543
1877.000000	60.529112
1876.000000	60.948035
1875.000000	61.335455
1874.000000	61.698946
1873.000000	62.031536
1872.000000	62.345127
1871.000000	62.597154
1870.000000	62.798319
1869.000000	63.019083
1868.000000	63.149907
1867.000000	63.243816
1866.000000	63.316682
1865.000000	63.416363
1864.000000	63.521214
1863.000000	63.642057
1862.000000	63.802941
1861.000000	63.960458
1860.000000	64.098977
1859.000000	64.203828
1858.000000	64.276695
1857.000000	64.322507
1856.000000	64.375654
1855.000000	64.459583
1854.000000	64.473771
1853.000000	64.452368
1852.000000	64.497339
1851.000000	64.536778
1850.000000	64.637300
1849.000000	64.753454
1848.000000	64.743594
1847.000000	64.690688
1846.000000	64.600867
1845.000000	64.532930
1844.000000	64.522710
1843.000000	64.585356
1842.000000	64.629725
1841.000000	64.608322
1840.000000	64.580306
1839.000000	64.538341
1838.000000	64.508641
1837.000000	64.454292
1836.000000	64.378179
1835.000000	64.281625
1834.000000	64.177735
1833.000000	64.103185
1832.000000	64.076131
1831.000000	64.059778
1830.000000	64.045710
1829.000000	64.014687
1828.000000	63.937372
1827.000000	63.902020
1826.000000	63.863783
1825.000000	63.802941
1824.000000	63.789835
1823.000000	63.880016
1822.000000	63.950959
1821.000000	63.941099
1820.000000	63.900457
1819.000000	63.835767
1818.000000	63.786588
1817.000000	63.783582
1816.000000	63.790075
1815.000000	63.762059
1814.000000	63.740415
1813.000000	63.722259
1812.000000	63.695565
1811.000000	63.625584
1810.000000	63.576766
1809.000000	63.552357
1808.000000	63.521575
1807.000000	63.511474
1806.000000	63.461213
1805.000000	63.407946
1804.000000	63.387385
1803.000000	63.373316
1802.000000	63.373677
1801.000000	63.353837
1800.000000	63.273395
1799.000000	63.224577
1798.000000	63.187783
1797.000000	63.171911
1796.000000	63.148103
1795.000000	63.111189
1794.000000	63.090627
1793.000000	63.071509
1792.000000	63.043973
1791.000000	63.027140
1790.000000	63.014514
1789.000000	63.002851
1788.000000	63.004654
1787.000000	63.005255
1786.000000	62.996478
1785.000000	62.985055
1784.000000	62.974954
1783.000000	62.949463
1782.000000	62.930465
1781.000000	62.901847
1780.000000	62.873590
1779.000000	62.839562
1778.000000	62.782928
1777.000000	62.728218
1776.000000	62.673147
1775.000000	62.614349
1774.000000	62.533185
1773.000000	62.481842
1772.000000	62.415468
1771.000000	62.348614
1770.000000	62.279715
1769.000000	62.207209
1768.000000	62.133982
1767.000000	62.067969
1766.000000	62.006044
1765.000000	61.940753
1764.000000	61.899149
1763.000000	61.855982
1762.000000	61.817986
1761.000000	61.780470
1760.000000	61.748005
1759.000000	61.710369
1758.000000	61.682834
1757.000000	61.648204
1756.000000	61.626200
1755.000000	61.578223
1754.000000	61.532411
1753.000000	61.482030
1752.000000	61.418301
1751.000000	61.373812
1750.000000	61.314051
1749.000000	61.245033
1748.000000	61.166875
1747.000000	61.084509
1746.000000	60.975931
1745.000000	60.901621
1744.000000	60.782942
1743.000000	60.689875
1742.000000	60.579252
1741.000000	60.492919
1740.000000	60.404300
1739.000000	60.312315
1738.000000	60.251352
1737.000000	60.187143
1736.000000	60.115840
1735.000000	60.074717
1734.000000	60.022051
1733.000000	60.003654
1732.000000	59.967100
1731.000000	59.934274
1730.000000	59.894234
1729.000000	59.862009
1728.000000	59.837600
1727.000000	59.810906
1726.000000	59.800084
1725.000000	59.822209
1724.000000	59.855035
1723.000000	59.933553
1722.000000	60.032993
1721.000000	60.209508
1720.000000	60.405142
1719.000000	60.648031
1718.000000	60.881421
1717.000000	61.171925
1716.000000	61.417460
1715.000000	61.650489
1714.000000	61.886764
1713.000000	62.085524
1712.000000	62.292822
1711.000000	62.442643
1710.000000	62.569378
1709.000000	62.700322
1708.000000	62.796996
1707.000000	62.867458
1706.000000	62.937319
1705.000000	62.977961
1704.000000	62.993111
1703.000000	63.005616
1702.000000	62.992991
1701.000000	63.001287
1700.000000	63.007901
1699.000000	62.983732
1698.000000	62.975556
1697.000000	62.949223
1696.000000	62.927579
1695.000000	62.904493
1694.000000	62.829822
1693.000000	62.752146
1692.000000	62.707536
1691.000000	62.637676
1690.000000	62.588016
1689.000000	62.610741
1688.000000	62.679039
1687.000000	62.817798
1686.000000	63.024374
1685.000000	63.223976
1684.000000	63.496925
1683.000000	63.729353
1682.000000	64.032243
1681.000000	64.329361
1680.000000	64.625998
1679.000000	64.878506
1678.000000	65.133780
1677.000000	65.396629
1676.000000	65.643245
1675.000000	65.866294
1674.000000	66.089223
1673.000000	66.353515
1672.000000	66.562135
1671.000000	66.804302
1670.000000	67.042862
1669.000000	67.285030
1668.000000	67.514572
1667.000000	67.701067
1666.000000	67.894897
1665.000000	68.093898
1664.000000	68.293019
1663.000000	68.466047
1662.000000	68.618273
1661.000000	68.768576
1660.000000	68.928377
1659.000000	69.031786
1658.000000	69.144332
1657.000000	69.234514
1656.000000	69.335878
1655.000000	69.382051
1654.000000	69.447342
1653.000000	69.482092
1652.000000	69.520930
1651.000000	69.563015
1650.000000	69.550389
1649.000000	69.548826
1648.000000	69.559167
1647.000000	69.560369
1646.000000	69.546421
1645.000000	69.538966
1644.000000	69.535119
1643.000000	69.516000
1642.000000	69.494477
1641.000000	69.484857
1640.000000	69.495078
1639.000000	69.470549
1638.000000	69.443013
1637.000000	69.425217
1636.000000	69.409466
1635.000000	69.364615
1634.000000	69.315316
1633.000000	69.267340
1632.000000	69.225736
1631.000000	69.170064
1630.000000	69.120765
1629.000000	69.070022
1628.000000	69.019641
1627.000000	68.968538
1626.000000	68.905291
1625.000000	68.851422
1624.000000	68.805971
1623.000000	68.763165
1622.000000	68.720840
1621.000000	68.659636
1620.000000	68.619355
1619.000000	68.581960
1618.000000	68.536749
1617.000000	68.506568
1616.000000	68.454985
1615.000000	68.407609
1614.000000	68.357108
1613.000000	68.294822
1612.000000	68.226404
1611.000000	68.168207
1610.000000	68.105561
1609.000000	68.044719
1608.000000	67.943956
1607.000000	67.852452
1606.000000	67.766960
1605.000000	67.680145
1604.000000	67.575174
1603.000000	67.477056
1602.000000	67.394089
1601.000000	67.305832
1600.000000	67.201702
1599.000000	67.099617
1598.000000	67.012682
1597.000000	66.939093
1596.000000	66.842659
1595.000000	66.753800
1594.000000	66.672036
1593.000000	66.606744
1592.000000	66.534599
1591.000000	66.461011
1590.000000	66.383575
1589.000000	66.329466
1588.000000	66.268864
1587.000000	66.199364
1586.000000	66.138883
1585.000000	66.085135
1584.000000	66.023691
1583.000000	65.965374
1582.000000	65.923529
1581.000000	65.880843
1580.000000	65.818799
1579.000000	65.768177
1578.000000	65.736433
1577.000000	65.706613
1576.000000	65.681362
1575.000000	65.667895
1574.000000	65.662364
1573.000000	65.654909
1572.000000	65.668135
1571.000000	65.681482
1570.000000	65.681843
1569.000000	65.688456
1568.000000	65.697715
1567.000000	65.721162
1566.000000	65.750261
1565.000000	65.760481
1564.000000	65.767094
1563.000000	65.784890
1562.000000	65.781163
1561.000000	65.765772
1560.000000	65.756633
1559.000000	65.739439
1558.000000	65.694829
1557.000000	65.639277
1556.000000	65.586130
1555.000000	65.515789
1554.000000	65.439555
1553.000000	65.357550
1552.000000	65.255104
1551.000000	65.151095
1550.000000	65.050933
1549.000000	64.948607
1548.000000	64.845920
1547.000000	64.748284
1546.000000	64.661349
1545.000000	64.582590
1544.000000	64.521387
1543.000000	64.456937
1542.000000	64.398500
1541.000000	64.355453
1540.000000	64.304230
1539.000000	64.247235
1538.000000	64.205391
1537.000000	64.147795
1536.000000	64.103065
1535.000000	64.057614
1534.000000	64.003745
1533.000000	63.953364
1532.000000	63.885427
1531.000000	63.811358
1530.000000	63.754363
1529.000000	63.673561
1528.000000	63.596365
1527.000000	63.534320
1526.000000	63.466985
1525.000000	63.391593
1524.000000	63.326422
1523.000000	63.238886
1522.000000	63.157121
1521.000000	63.086058
1520.000000	63.013913
1519.000000	62.930224
1518.000000	62.849662
1517.000000	62.772106
1516.000000	62.696955
1515.000000	62.620000
1514.000000	62.530901
1513.000000	62.444447
1512.000000	62.346570
1511.000000	62.259274
1510.000000	62.197349
1509.000000	62.115465
1508.000000	62.033099
1507.000000	61.957707
1506.000000	61.898548
1505.000000	61.827966
1504.000000	61.763396
1503.000000	61.685960
1502.000000	61.628244
1501.000000	61.578704
1500.000000	61.520988
1499.000000	61.493332
1498.000000	61.452089
1497.000000	61.420826
1496.000000	61.435255
1495.000000	61.428642
1494.000000	61.431408
1493.000000	61.436578
1492.000000	61.467480
1491.000000	61.493453
1490.000000	61.537461
1489.000000	61.593253
1488.000000	61.654697
1487.000000	61.699788
1486.000000	61.748847
1485.000000	61.791292
1484.000000	61.813657
1483.000000	61.872696
1482.000000	61.948328
1481.000000	62.002918
1480.000000	62.035744
1479.000000	62.082037
1478.000000	62.145766
1477.000000	62.184964
1476.000000	62.227891
1475.000000	62.287050
1474.000000	62.377592
1473.000000	62.465128
1472.000000	62.559759
1471.000000	62.646333
1470.000000	62.677716
1469.000000	62.747457
1468.000000	62.823450
1467.000000	62.951748
1466.000000	63.026538
1465.000000	63.098203
1464.000000	63.193434
1463.000000	63.293596
1462.000000	63.404339
1461.000000	63.495001
1460.000000	63.612598
1459.000000	63.706266
1458.000000	63.852841
1457.000000	63.966711
1456.000000	64.067954
1455.000000	64.180381
1454.000000	64.306635
1453.000000	64.436977
1452.000000	64.584875
1451.000000	64.719786
1450.000000	64.794216
1449.000000	64.840389
1448.000000	64.967004
1447.000000	65.148329
1446.000000	65.329774
1445.000000	65.386769
1444.000000	65.472622
1443.000000	65.614988
1442.000000	65.745571
1441.000000	65.873990
1440.000000	66.011667
1439.000000	66.164254
1438.000000	66.337282
1437.000000	66.434558
1436.000000	66.596524
1435.000000	66.755484
1434.000000	66.939214
1433.000000	67.155529
1432.000000	67.310882
1431.000000	67.511686
1430.000000	67.650686
1429.000000	67.918224
1428.000000	68.123838
1427.000000	68.308289
1426.000000	68.591459
1425.000000	68.851783
1424.000000	69.180164
1423.000000	69.438083
1422.000000	69.636603
1421.000000	70.015846
1420.000000	70.397013
1419.000000	70.712889
1418.000000	70.980788
1417.000000	71.242676
1416.000000	71.669174
1415.000000	72.154711
1414.000000	72.549827
1413.000000	72.851634
1412.000000	73.206588
1411.000000	73.703188
1410.000000	74.192934
1409.000000	74.687609
1408.000000	75.098356
1407.000000	75.540606
1406.000000	76.004741
1405.000000	76.440618
1404.000000	76.790642
1403.000000	77.229886
1402.000000	77.716867
1401.000000	78.396956
1400.000000	78.692991
1399.000000	78.925780
1398.000000	79.204020
1397.000000	79.708435
1396.000000	80.245677
1395.000000	80.552654
1394.000000	80.758268
1393.000000	81.068493
1392.000000	81.449179
1391.000000	81.686296
1390.000000	81.971510
1389.000000	82.373960
1388.000000	82.770158
1387.000000	83.050442
1386.000000	83.339023
1385.000000	83.692053
1384.000000	84.115185
1383.000000	84.307572
1382.000000	84.547335
1381.000000	84.681645
1380.000000	84.743089
1379.000000	84.830385
1378.000000	84.895436
1377.000000	85.018203
1376.000000	85.136761
1375.000000	85.236081
1374.000000	85.385181
1373.000000	85.573360
1372.000000	85.724504
1371.000000	85.866390
1370.000000	85.951401
1369.000000	86.119018
1368.000000	86.274371
1367.000000	86.361546
1366.000000	86.469885
1365.000000	86.604315
1364.000000	86.665278
1363.000000	86.789969
1362.000000	86.967566
1361.000000	86.979350
1360.000000	86.885441
1359.000000	87.009651
1358.000000	87.058108
1357.000000	87.124963
1356.000000	87.251818
1355.000000	87.410057
1354.000000	87.512744
1353.000000	87.572865
1352.000000	87.746494
1351.000000	87.924813
1350.000000	88.104695
1349.000000	88.298044
1348.000000	88.482856
1347.000000	88.611635
1346.000000	88.770114
1345.000000	88.981981
1344.000000	89.150801
1343.000000	89.294370
1342.000000	89.443951
1341.000000	89.606879
1340.000000	89.757662
1339.000000	89.887644
1338.000000	90.011373
1337.000000	90.131014
1336.000000	90.245724
1335.000000	90.347329
1334.000000	90.440156
1333.000000	90.562682
1332.000000	90.669698
1331.000000	90.753146
1330.000000	90.822525
1329.000000	90.889981
1328.000000	90.966936
1327.000000	91.035474
1326.000000	91.099323
1325.000000	91.172790
1324.000000	91.237721
1323.000000	91.287982
1322.000000	91.327061
1321.000000	91.386220
1320.000000	91.439607
1319.000000	91.492995
1318.000000	91.550350
1317.000000	91.589189
1316.000000	91.634760
1315.000000	91.685262
1314.000000	91.737567
1313.000000	91.761255
1312.000000	91.791436
1311.000000	91.829312
1310.000000	91.843140
1309.000000	91.865264
1308.000000	91.898451
1307.000000	91.926227
1306.000000	91.938251
1305.000000	91.952800
1304.000000	91.962901
1303.000000	91.958933
1302.000000	91.964825
1301.000000	91.964825
1300.000000	91.973602
1299.000000	91.978652
1298.000000	91.964103
1297.000000	91.961458
1296.000000	91.955205
1295.000000	91.934403
1294.000000	91.912760
1293.000000	91.905185
1292.000000	91.883301
1291.000000	91.843861
1290.000000	91.826787
1289.000000	91.801416
1288.000000	91.764862
1287.000000	91.731435
1286.000000	91.699450
1285.000000	91.666985
1284.000000	91.625622
1283.000000	91.589429
1282.000000	91.561292
1281.000000	91.532434
1280.000000	91.501532
1279.000000	91.469187
1278.000000	91.453195
1277.000000	91.427824
1276.000000	91.407864
1275.000000	91.386701
1274.000000	91.368544
1273.000000	91.375398
1272.000000	91.377923
1271.000000	91.376601
1270.000000	91.371671
1269.000000	91.369506
1268.000000	91.375398
1267.000000	91.375639
1266.000000	91.372633
1265.000000	91.368184
1264.000000	91.360007
1263.000000	91.347382
1262.000000	91.350268
1261.000000	91.337762
1260.000000	91.315878
1259.000000	91.315277
1258.000000	91.299165
1257.000000	91.262972
1256.000000	91.260206
1255.000000	91.257922
1254.000000	91.232070
1253.000000	91.173031
1252.000000	91.138161
1251.000000	91.108100
1250.000000	91.057478
1249.000000	91.017919
1248.000000	90.969702
1247.000000	90.884450
1246.000000	90.832746
1245.000000	90.797635
1244.000000	90.728256
1243.000000	90.656712
1242.000000	90.584807
1241.000000	90.524085
1240.000000	90.490176
1239.000000	90.429214
1238.000000	90.371979
1237.000000	90.341557
1236.000000	90.287208
1235.000000	90.241516
1234.000000	90.202077
1233.000000	90.154461
1232.000000	90.105041
1231.000000	90.061754
1230.000000	90.014619
1229.000000	89.988046
1228.000000	89.936342
1227.000000	89.905079
1226.000000	89.850489
1225.000000	89.788204
1224.000000	89.754536
1223.000000	89.692852
1222.000000	89.639464
1221.000000	89.595456
1220.000000	89.563471
1219.000000	89.491687
1218.000000	89.452969
1217.000000	89.407157
1216.000000	89.330923
1215.000000	89.272726
1214.000000	89.210441
1213.000000	89.141542
1212.000000	89.081421
1211.000000	88.978133
1210.000000	88.899976
1209.000000	88.837811
1208.000000	88.721777
1207.000000	88.652518
1206.000000	88.558128
1205.000000	88.459409
1204.000000	88.382695
1203.000000	88.310189
1202.000000	88.194636
1201.000000	88.113593
1200.000000	88.040245
1199.000000	87.916156
1198.000000	87.842327
1197.000000	87.746855
1196.000000	87.672906
1195.000000	87.561321
1194.000000	87.478956
1193.000000	87.367010
1192.000000	87.273943
1191.000000	87.191096
1190.000000	87.107528
1189.000000	87.047046
1188.000000	87.007487
1187.000000	86.979350
1186.000000	86.972737
1185.000000	86.972977
1184.000000	87.006284
1183.000000	87.025763
1182.000000	87.079031
1181.000000	87.137829
1180.000000	87.201918
1179.000000	87.287650
1178.000000	87.319394
1177.000000	87.376269
1176.000000	87.450218
1175.000000	87.531742
1174.000000	87.585971
1173.000000	87.679038
1172.000000	87.742767
1171.000000	87.842688
1170.000000	87.942008
1169.000000	88.044935
1168.000000	88.182852
1167.000000	88.314157
1166.000000	88.420090
1165.000000	88.536123
1164.000000	88.676927
1163.000000	88.791397
1162.000000	88.915727
1161.000000	89.019136
1160.000000	89.164508
1159.000000	89.263708
1158.000000	89.373128
1157.000000	89.439381
1156.000000	89.522348
1155.000000	89.604474
1154.000000	89.673974
1153.000000	89.757782
1152.000000	89.743474
1151.000000	89.797703
1150.000000	89.817543
1149.000000	89.878145
1148.000000	89.881511
1147.000000	89.956061
1146.000000	89.973617
1145.000000	89.982034
1144.000000	90.005000
1143.000000	90.033016
1142.000000	90.073778
1141.000000	90.140753
1140.000000	90.184161
1139.000000	90.239833
1138.000000	90.298511
1137.000000	90.372099
1136.000000	90.488734
1135.000000	90.621481
1134.000000	90.645770
1133.000000	90.613304
1132.000000	90.650820
1131.000000	90.696151
1130.000000	90.757354
1129.000000	90.794389
1128.000000	90.808818
1127.000000	90.822766
1126.000000	90.849580
1125.000000	90.841884
1124.000000	90.843568
1123.000000	90.812786
1122.000000	90.793547
1121.000000	90.756152
1120.000000	90.741242
1119.000000	90.683285
1118.000000	90.657674
1117.000000	90.634347
1116.000000	90.587813
1115.000000	90.544526
1114.000000	90.495828
1113.000000	90.464324
1112.000000	90.448813
1111.000000	90.409735
1110.000000	90.346247
1109.000000	90.346728
1108.000000	90.307048
1107.000000	90.276506
1106.000000	90.248851
1105.000000	90.221075
1104.000000	90.191976
1103.000000	90.159150
1102.000000	90.122597
1101.000000	90.081835
1100.000000	90.055622
1099.000000	90.036022
1098.000000	90.006323
1097.000000	89.963637
1096.000000	89.944879
1095.000000	89.917704
1094.000000	89.896181
1093.000000	89.855539
1092.000000	89.817663
1091.000000	89.799025
1090.000000	89.758023
1089.000000	89.706078
1088.000000	89.675898
1087.000000	89.640306
1086.000000	89.590766
1085.000000	89.536056
1084.000000	89.513571
1083.000000	89.474492
1082.000000	89.420263
1081.000000	89.355813
1080.000000	89.319380
1079.000000	89.274530
1078.000000	89.222345
1077.000000	89.183747
1076.000000	89.122544
1075.000000	89.078776
1074.000000	89.029717
1073.000000	88.970558
1072.000000	88.908152
1071.000000	88.862941
1070.000000	88.807269
1069.000000	88.757248
1068.000000	88.699653
1067.000000	88.627868
1066.000000	88.572917
1065.000000	88.515802
1064.000000	88.483217
1063.000000	88.431152
1062.000000	88.350109
1061.000000	88.322453
1060.000000	88.276401
1059.000000	88.221931
1058.000000	88.175878
1057.000000	88.124415
1056.000000	88.087981
1055.000000	88.036999
1054.000000	87.989623
1053.000000	87.936116
1052.000000	87.912188
1051.000000	87.883450
1050.000000	87.829100
1049.000000	87.800122
1048.000000	87.772707
1047.000000	87.725692
1046.000000	87.677355
1045.000000	87.637194
1044.000000	87.610741
1043.000000	87.581041
1042.000000	87.536551
1041.000000	87.492783
1040.000000	87.462482
1039.000000	87.426650
1038.000000	87.381920
1037.000000	87.340196
1036.000000	87.279474
1035.000000	87.220555
1034.000000	87.171497
1033.000000	87.121236
1032.000000	87.067247
1031.000000	87.011575
1030.000000	86.962997
1029.000000	86.911413
1028.000000	86.851292
1027.000000	86.790209
1026.000000	86.732253
1025.000000	86.661791
1024.000000	86.604676
1023.000000	86.562591
1022.000000	86.508001
1021.000000	86.439463
1020.000000	86.387639
1019.000000	86.346035
1018.000000	86.299742
1017.000000	86.259341
1016.000000	86.210643
1015.000000	86.157736
1014.000000	86.123948
1013.000000	86.107716
1012.000000	86.082104
1011.000000	86.054088
1010.000000	86.038937
1009.000000	86.033646
1008.000000	86.038095
1007.000000	86.019578
1006.000000	86.001782
1005.000000	86.021502
1004.000000	86.018736
1003.000000	86.023907
1002.000000	86.043867
1001.000000	86.037013
1000.000000	86.055410
999.000000	86.090882
998.000000	86.123467
997.000000	86.138257
996.000000	86.155692
995.000000	86.169760
994.000000	86.205713
993.000000	86.252487
992.000000	86.268118
991.000000	86.285674
990.000000	86.318620
989.000000	86.362508
988.000000	86.399302
987.000000	86.417699
986.000000	86.437058
985.000000	86.441507
984.000000	86.461828
983.000000	86.464113
982.000000	86.487801
981.000000	86.475416
980.000000	86.482871
979.000000	86.465917
978.000000	86.466277
977.000000	86.427439
976.000000	86.405675
975.000000	86.399543
974.000000	86.382950
973.000000	86.322708
972.000000	86.298299
971.000000	86.299983
970.000000	86.255613
969.000000	86.183468
968.000000	86.163508
967.000000	86.105070
966.000000	86.087154
965.000000	86.070320
964.000000	86.023546
963.000000	85.986872
962.000000	85.983385
961.000000	85.941541
960.000000	85.909076
959.000000	85.920378
958.000000	85.926270
957.000000	85.892723
956.000000	85.868554
955.000000	85.844025
954.000000	85.832602
953.000000	85.885388
952.000000	85.903785
951.000000	85.884306
950.000000	85.876129
949.000000	85.870959
948.000000	85.924827
947.000000	85.921581
946.000000	85.962583
945.000000	86.016692
944.000000	86.027875
943.000000	86.044829
942.000000	86.070561
941.000000	86.148237
940.000000	86.185753
939.000000	86.191765
938.000000	86.196935
937.000000	86.242266
936.000000	86.336055
935.000000	86.369843
934.000000	86.476979
933.000000	86.488161
932.000000	86.519544
931.000000	86.536499
930.000000	86.593974
929.000000	86.603233
928.000000	86.626319
927.000000	86.648684
926.000000	86.754016
925.000000	86.732012
924.000000	86.738265
923.000000	86.748606
922.000000	86.764477
921.000000	86.780590
920.000000	86.879429
919.000000	86.842034
918.000000	86.873176
917.000000	86.870892
916.000000	86.871493
915.000000	86.872695
914.000000	86.860310
913.000000	86.850090
912.000000	86.824358
911.000000	86.798145
910.000000	86.772534
909.000000	86.728525
908.000000	86.695338
907.000000	86.615377
906.000000	86.721551
905.000000	86.632211
904.000000	86.534214
903.000000	86.445355
902.000000	86.343510
901.000000	86.271485
900.000000	86.204390
899.000000	86.104830
898.000000	86.045671
897.000000	85.957293
896.000000	85.887192
895.000000	85.806269
894.000000	85.621096
893.000000	85.519251
892.000000	85.219848
891.000000	85.076760
890.000000	84.929704
889.000000	84.776035
888.000000	84.654711
887.000000	84.526533
886.000000	84.267411
885.000000	83.957187
884.000000	83.788127
883.000000	83.532252
882.000000	83.160103
881.000000	82.946914
880.000000	82.762823
879.000000	82.542540
878.000000	82.304220
877.000000	81.886619
876.000000	81.627618
875.000000	81.217954
874.000000	80.916507
873.000000	80.517784
872.000000	80.290166
871.000000	80.010964
870.000000	79.618494
869.000000	79.275684
868.000000	78.832232
867.000000	78.445894
866.000000	78.034787
865.000000	77.743801
864.000000	77.272813
863.000000	76.911967
862.000000	76.309073
861.000000	75.725539
860.000000	75.145371
859.000000	74.721037
858.000000	77.279667
857.000000	77.156200
856.000000	77.125700
855.000000	77.557100
854.000000	76.906600
853.000000	77.494700
852.000000	78.335200
851.000000	78.314300
850.000000	78.152900
849.000000	78.311300
848.000000	78.586400
847.000000	78.739500
846.000000	78.998200
845.000000	79.075600
844.000000	79.076900
843.000000	79.150500
842.000000	79.165900
841.000000	79.235500
840.000000	79.401000
839.000000	79.442700
838.000000	79.566300
837.000000	80.033000
836.000000	79.925700
835.000000	80.088400
834.000000	79.942800
833.000000	80.061500
832.000000	80.117800
831.000000	80.110600
830.000000	80.340700
829.000000	80.574200
828.000000	80.550600
827.000000	80.460800
826.000000	80.567200
825.000000	80.540000
824.000000	80.755500
823.000000	80.668000
822.000000	80.702500
821.000000	80.786800
820.000000	80.807100
819.000000	80.927900
818.000000	81.011100
817.000000	81.050700
816.000000	81.252500
815.000000	81.289100
814.000000	81.136500
813.000000	81.377100
812.000000	81.487200
811.000000	81.567300
810.000000	81.582100
809.000000	81.845500
808.000000	81.837700
807.000000	81.770400
806.000000	81.965200
805.000000	82.117600
804.000000	82.218100
803.000000	82.375800
802.000000	82.512500
801.000000	82.459400
800.000000	82.527200
799.000000	82.622400
798.000000	82.656700
797.000000	82.763500
796.000000	82.820700
795.000000	82.898500
794.000000	82.953500
793.000000	83.011700
792.000000	82.940000
791.000000	83.090900
790.000000	83.198000
789.000000	83.090600
788.000000	83.189600
787.000000	83.268500
786.000000	83.352500
785.000000	83.342400
784.000000	83.402300
783.000000	83.436700
782.000000	83.466100
781.000000	83.521000
780.000000	83.537000
779.000000	83.633600
778.000000	83.606700
777.000000	83.542400
776.000000	83.609000
775.000000	83.577400
774.000000	83.675200
773.000000	83.706800
772.000000	83.643200
771.000000	83.635900
770.000000	83.689900
769.000000	83.669000
768.000000	83.642500
767.000000	83.565000
766.000000	83.505400
765.000000	83.512600
764.000000	83.548400
763.000000	83.491200
762.000000	83.469700
761.000000	83.488700
760.000000	83.436800
759.000000	83.395500
758.000000	83.350900
757.000000	83.233800
756.000000	83.106600
755.000000	82.985800
754.000000	82.884900
753.000000	82.816300
752.000000	82.767600
751.000000	82.642000
750.000000	82.542700
749.000000	82.419800
748.000000	82.290800
747.000000	82.178800
746.000000	82.020300
745.000000	81.812300
744.000000	81.685800
743.000000	81.626100
742.000000	81.425400
741.000000	81.254500
740.000000	81.088600
739.000000	80.910600
738.000000	80.703000
737.000000	80.491400
736.000000	80.352000
735.000000	80.248900
734.000000	80.094100
733.000000	79.885700
732.000000	79.708000
731.000000	79.550400
730.000000	79.418400
729.000000	79.286500
728.000000	79.156200
727.000000	79.015600
726.000000	78.890700
725.000000	78.802500
724.000000	78.722600
723.000000	78.591100
722.000000	78.461300
721.000000	78.420700
720.000000	78.333800
719.000000	78.217300
718.000000	78.208500
717.000000	78.109800
716.000000	77.999700
715.000000	77.912700
714.000000	77.853600
713.000000	77.809400
712.000000	77.773200
711.000000	77.753800
710.000000	77.698100
709.000000	77.629200
708.000000	77.554900
707.000000	77.545500
706.000000	77.568700
705.000000	77.553700
704.000000	77.565900
703.000000	77.543100
702.000000	77.588500
701.000000	77.602400
700.000000	77.570800
699.000000	77.546500
698.000000	77.619700
697.000000	77.586600
696.000000	77.542200
695.000000	77.541400
694.000000	77.485200
693.000000	77.406400
692.000000	77.298600
691.000000	77.236200
690.000000	77.101000
689.000000	76.917900
688.000000	76.805700
687.000000	76.703100
686.000000	76.543800
685.000000	76.357300
684.000000	76.223700
683.000000	75.999500
682.000000	75.822800
681.000000	75.635300
680.000000	75.461100
679.000000	75.200400
678.000000	74.973600
677.000000	74.756600
676.000000	74.522600
675.000000	74.237400
674.000000	74.017000
673.000000	73.740200
672.000000	73.365000
671.000000	72.986500
670.000000	72.652500
669.000000	72.246000
668.000000	71.821900
667.000000	71.347300
666.000000	70.861500
665.000000	70.350500
664.000000	69.827600
663.000000	69.280800
662.000000	68.670900
661.000000	68.139300
660.000000	67.516000
659.000000	66.888400
658.000000	66.286300
657.000000	65.710600
656.000000	65.064900
655.000000	64.520800
654.000000	63.973900
653.000000	63.455600
652.000000	62.953800
651.000000	62.398800
650.000000	61.954700
649.000000	61.526300
648.000000	61.102800
647.000000	60.751000
646.000000	60.362900
645.000000	60.073200
644.000000	59.795800
643.000000	59.493200
642.000000	59.234200
641.000000	59.025700
640.000000	58.877300
639.000000	58.688100
638.000000	58.621500
637.000000	58.532300
636.000000	58.497800
635.000000	58.495800
634.000000	58.540500
633.000000	58.653800
632.000000	58.827500
631.000000	59.056200
630.000000	59.305000
629.000000	59.544000
628.000000	59.934100
627.000000	60.290400
626.000000	60.711100
625.000000	61.164400
624.000000	61.615600
623.000000	62.119100
622.000000	62.556200
621.000000	63.117600
620.000000	63.660400
619.000000	64.133000
618.000000	64.600500
617.000000	65.112000
616.000000	65.556900
615.000000	66.038200
614.000000	66.522300
613.000000	66.967000
612.000000	67.413900
611.000000	67.827500
610.000000	68.322500
609.000000	68.750400
608.000000	69.178300
607.000000	69.586300
606.000000	70.031200
605.000000	70.513200
604.000000	70.972400
603.000000	71.426500
602.000000	71.887300
601.000000	72.369700
600.000000	72.830900
599.000000	73.253000
598.000000	73.719300
597.000000	74.157300
596.000000	74.622600
595.000000	75.018100
594.000000	75.473100
593.000000	75.764300
592.000000	76.150100
591.000000	76.518000
590.000000	76.846700
589.000000	77.191400
588.000000	77.408700
587.000000	77.683900
586.000000	77.864900
585.000000	78.033600
584.000000	78.235100
583.000000	78.402700
582.000000	78.507700
581.000000	78.586800
580.000000	78.701400
579.000000	78.797700
578.000000	78.850100
577.000000	78.857900
576.000000	78.859500
575.000000	78.892400
574.000000	78.870000
573.000000	78.852600
572.000000	78.850300
571.000000	78.804000
570.000000	78.736500
569.000000	78.701800
568.000000	78.643400
567.000000	78.569800
566.000000	78.523100
565.000000	78.474700
564.000000	78.371100
563.000000	78.258800
562.000000	78.131400
561.000000	78.002000
560.000000	77.866000
559.000000	77.738900
558.000000	77.597100
557.000000	77.377600
556.000000	77.170700
555.000000	77.030600
554.000000	76.742400
553.000000	76.506400
552.000000	76.277800
551.000000	75.956900
550.000000	75.647200
549.000000	75.377100
548.000000	75.009700
547.000000	74.647500
546.000000	74.252500
545.000000	73.847900
544.000000	73.411800
543.000000	72.926500
542.000000	72.438700
541.000000	71.847100
540.000000	71.267700
539.000000	70.735600
538.000000	70.087100
537.000000	69.433000
536.000000	68.738700
535.000000	68.015200
534.000000	67.276300
533.000000	66.502300
532.000000	65.745200
531.000000	64.955100
530.000000	64.133800
529.000000	63.291500
528.000000	62.482900
527.000000	61.690200
526.000000	60.874700
525.000000	60.059700
524.000000	59.265700
523.000000	58.482700
522.000000	57.713000
521.000000	56.933400
520.000000	56.149200
519.000000	55.384400
518.000000	54.616500
517.000000	53.892800
516.000000	53.179600
515.000000	52.461000
514.000000	51.759300
513.000000	51.015900
512.000000	50.283200
511.000000	49.566500
510.000000	48.871800
509.000000	48.155700
508.000000	47.437400
507.000000	46.737700
506.000000	46.010600
505.000000	45.301800
504.000000	44.620600
503.000000	43.939600
502.000000	43.207400
501.000000	42.481200
500.000000	41.797100
499.000000	41.101500
498.000000	40.392300
497.000000	39.693600
496.000000	38.981900
495.000000	38.238500
494.000000	37.486400
493.000000	36.745200
492.000000	36.007400
491.000000	35.259800
490.000000	34.499900
489.000000	33.768800
488.000000	33.082800
487.000000	32.404800
486.000000	31.725700
485.000000	31.066300
484.000000	30.437000
483.000000	29.827200
482.000000	29.272300
481.000000	28.771300
480.000000	28.291500
479.000000	27.822800
478.000000	27.350500
477.000000	26.907900
476.000000	26.504600
475.000000	26.141300
474.000000	25.800800
473.000000	25.486900
472.000000	25.231000
471.000000	24.992600
470.000000	24.790900
469.000000	24.616100
468.000000	24.464300
467.000000	24.351100
466.000000	24.239700
465.000000	24.142700
464.000000	24.087400
463.000000	24.040900
462.000000	24.007800
461.000000	23.991700
460.000000	23.972000
459.000000	23.963100
458.000000	23.978700
457.000000	23.995100
456.000000	23.997400
455.000000	24.021500
454.000000	24.036600
453.000000	24.051000
452.000000	24.054500
451.000000	24.054200
450.000000	24.047300
449.000000	24.045200
448.000000	24.036100
447.000000	24.023000
446.000000	24.020900
445.000000	23.992500
444.000000	23.924700
443.000000	23.855900
442.000000	23.789500
441.000000	23.686400
440.000000	23.573800
439.000000	23.454000
438.000000	23.325700
437.000000	23.187500
436.000000	23.044400
435.000000	22.895100
434.000000	22.729400
433.000000	22.547100
432.000000	22.365900
431.000000	22.159000
430.000000	21.952500
429.000000	21.760400
428.000000	21.540500
427.000000	21.300300
426.000000	21.062400
425.000000	20.812900
424.000000	20.544000
423.000000	20.258500
422.000000	19.971300
421.000000	19.695900
420.000000	19.404100
419.000000	19.105800
418.000000	18.795400
417.000000	18.476200
416.000000	18.158200
415.000000	17.818600
414.000000	17.471200
413.000000	17.136400
412.000000	16.795500
411.000000	16.443300
410.000000	16.119900
409.000000	15.798200
408.000000	15.449600
407.000000	15.111500
406.000000	14.759000
405.000000	14.421200
404.000000	14.109700
403.000000	13.801100
402.000000	13.480300
401.000000	13.168200
400.000000	12.847900
399.000000	12.550800
398.000000	12.272400
397.000000	11.972700
396.000000	11.692400
395.000000	11.420600
394.000000	11.172300
393.000000	10.912600
392.000000	10.655900
391.000000	10.431800
390.000000	10.199600
389.000000	9.979800
388.000000	9.773700
387.000000	9.580700
386.000000	9.406400
385.000000	9.233000
384.000000	9.057600
383.000000	8.901600
382.000000	8.748600
381.000000	8.590800
380.000000	8.464300
379.000000	8.349900
378.000000	8.214400
377.000000	8.108800
376.000000	7.921500
375.000000	7.707600
374.000000	7.546300
373.000000	7.477200
372.000000	7.497800
371.000000	7.417400
370.000000	7.329600
369.000000	7.329200
368.000000	7.340300
367.000000	7.362400
366.000000	7.241600
365.000000	7.219800
364.000000	7.182300
363.000000	7.139500
362.000000	6.973700
361.000000	6.932300
360.000000	6.931300
359.000000	6.891400
358.000000	6.838000
357.000000	6.697200
356.000000	6.631100
355.000000	6.627700
354.000000	6.588300
353.000000	6.620600
352.000000	6.604500
351.000000	6.544300
350.000000	6.470600
349.000000	6.521300
348.000000	6.605600
347.000000	6.552800
346.000000	6.536600
345.000000	6.468600
344.000000	6.367400
343.000000	6.407700
342.000000	6.354500
341.000000	6.182300
340.000000	6.244800
339.000000	6.329200
338.000000	6.106100
337.000000	6.245800
336.000000	6.290500
335.000000	6.378600
334.000000	6.483500
333.000000	6.405600
332.000000	6.262100
331.000000	6.339800
330.000000	6.287900
329.000000	6.203700
328.000000	5.981400
327.000000	6.088500
326.000000	6.193300
325.000000	6.344700
324.000000	6.299600
323.000000	6.272500
322.000000	6.400700
321.000000	6.631500
320.000000	6.379300
319.000000	6.220300
318.000000	6.247400
317.000000	6.552600
316.000000	6.031400
315.000000	6.046300
314.000000	6.081800
313.000000	6.125300
312.000000	6.135100
311.000000	6.120600
310.000000	6.130600
309.000000	6.086400
308.000000	6.069800
307.000000	6.041300
306.000000	6.062800
305.000000	6.049600
304.000000	6.122800
303.000000	6.134500
302.000000	6.129700
301.000000	6.143000
300.000000	6.072200
299.000000	6.144800
298.000000	6.095900
297.000000	6.088000
296.000000	6.111500
295.000000	6.125800
294.000000	6.151100
293.000000	6.135500
292.000000	6.163300
291.000000	6.137100
290.000000	6.152900
289.000000	6.114300
288.000000	6.143600
287.000000	6.183000
286.000000	6.186600
285.000000	6.184800
284.000000	6.136400
283.000000	6.150500
282.000000	6.156300
281.000000	6.119200
280.000000	6.170300
279.000000	6.165300
278.000000	6.159300
277.000000	6.210900
276.000000	6.180500
275.000000	6.189700
274.000000	6.174800
273.000000	6.134100
272.000000	6.168000
271.000000	6.209600
270.000000	6.286600
269.000000	6.234400
268.000000	6.236900
267.000000	6.253600
266.000000	6.261400
265.000000	6.297300
264.000000	6.348500
263.000000	6.377900
262.000000	6.391900
261.000000	6.368100
260.000000	6.391100
259.000000	6.432000
258.000000	6.464700
257.000000	6.575500
256.000000	6.547400
255.000000	6.520100
254.000000	6.513100
253.000000	6.532400
252.000000	6.558900
251.000000	6.613300
250.000000	6.583000
