PE UV       SUBTECH     SPECTRUM    ASCII       PEDS        4.00        
   -1
CICIMAUCR0254-2.ASC
24/06/27
10:32:15.00
24/06/27
10:32:15.00
Vinicio Soto Monge
C. resplendens. Sex F. Ventral
250,000000
1
Lambda 1050
1050L1511233
PerkinElmer UV WinLab 6.3.2.0749 / 2.02.05 Lambda 900 UV/VIS/NIR, Aug  7 2015 09:38:08

0
0
3350/servo 860,8/2
0
0
UV/VIS
1
1
1
DoubleDePol,CommonBeamDepol,RBeamAtt,SBeamAtt,60mm sphere, WB InGaAs Detector
0
0
0
0
Program
Program
3350/servo 860,8/2
3350/0,2 860,8/0,2
3350/0,2 860,8/0,2
0
15.00
 
 
 
0
 
860,8
319,2
860,8
Front
100
on
S:100 R:100
0
0
0
0
 
0
 
 
 
0
 
 
0
0
0
0
0
 
 
 
 
0
0


0
0
#HDR
-1
-1
#GR
nm
%R
1.0
0.0
2500,000000
-1,000000
2251
8
50,329900
3,942400
#DATA
2482.000000	5.025674
2481.000000	5.095276
2480.000000	5.037197
2479.000000	4.982691
2478.000000	5.005968
2477.000000	4.962870
2476.000000	4.993638
2475.000000	5.004124
2474.000000	4.950770
2473.000000	4.989490
2472.000000	4.959413
2471.000000	4.978773
2470.000000	4.983152
2469.000000	4.991679
2468.000000	4.931180
2467.000000	4.964714
2466.000000	4.911590
2465.000000	4.987761
2464.000000	4.982230
2463.000000	4.962179
2462.000000	4.973472
2461.000000	4.979694
2460.000000	4.973011
2459.000000	4.969899
2458.000000	5.001474
2457.000000	4.988798
2456.000000	5.012537
2455.000000	5.003894
2454.000000	5.021295
2453.000000	5.017492
2452.000000	5.073381
2451.000000	5.073497
2450.000000	5.071077
2449.000000	5.102651
2448.000000	5.102190
2447.000000	5.151396
2446.000000	5.189770
2445.000000	5.201063
2444.000000	5.211665
2443.000000	5.208207
2442.000000	5.246927
2441.000000	5.272163
2440.000000	5.260064
2439.000000	5.283457
2438.000000	5.298092
2437.000000	5.304891
2436.000000	5.343725
2435.000000	5.367118
2434.000000	5.385325
2433.000000	5.390857
2432.000000	5.388552
2431.000000	5.423123
2430.000000	5.423238
2429.000000	5.439717
2428.000000	5.458731
2427.000000	5.474633
2426.000000	5.492725
2425.000000	5.506323
2424.000000	5.509319
2423.000000	5.537437
2422.000000	5.537091
2421.000000	5.557142
2420.000000	5.559677
2419.000000	5.555298
2418.000000	5.580420
2417.000000	5.589178
2416.000000	5.594248
2415.000000	5.634581
2414.000000	5.638038
2413.000000	5.640919
2412.000000	5.645874
2411.000000	5.639190
2410.000000	5.638729
2409.000000	5.652442
2408.000000	5.667538
2407.000000	5.686207
2406.000000	5.680790
2405.000000	5.683556
2404.000000	5.701994
2403.000000	5.729881
2402.000000	5.741405
2401.000000	5.751776
2400.000000	5.765604
2399.000000	5.786923
2398.000000	5.799599
2397.000000	5.811007
2396.000000	5.811007
2395.000000	5.804208
2394.000000	5.817921
2393.000000	5.826218
2392.000000	5.850187
2391.000000	5.855834
2390.000000	5.842467
2389.000000	5.847076
2388.000000	5.868279
2387.000000	5.887063
2386.000000	5.891211
2385.000000	5.883491
2384.000000	5.881416
2383.000000	5.887985
2382.000000	5.891557
2381.000000	5.892364
2380.000000	5.887639
2379.000000	5.903542
2378.000000	5.921979
2377.000000	5.921403
2376.000000	5.903426
2375.000000	5.903772
2374.000000	5.905731
2373.000000	5.896397
2372.000000	5.900891
2371.000000	5.909419
2370.000000	5.903196
2369.000000	5.904579
2368.000000	5.907460
2367.000000	5.905040
2366.000000	5.897319
2365.000000	5.875770
2364.000000	5.863670
2363.000000	5.869317
2362.000000	5.870584
2361.000000	5.867473
2360.000000	5.855949
2359.000000	5.843504
2358.000000	5.852377
2357.000000	5.831404
2356.000000	5.812736
2355.000000	5.832211
2354.000000	5.836013
2353.000000	5.825066
2352.000000	5.831750
2351.000000	5.825757
2350.000000	5.809624
2349.000000	5.816769
2348.000000	5.838894
2347.000000	5.849726
2346.000000	5.858139
2345.000000	5.868971
2344.000000	5.861020
2343.000000	5.886948
2342.000000	5.905962
2341.000000	5.885104
2340.000000	5.906999
2339.000000	5.945718
2338.000000	5.935808
2337.000000	5.923132
2336.000000	5.933157
2335.000000	5.934425
2334.000000	5.948368
2333.000000	5.956781
2332.000000	5.940302
2331.000000	5.943529
2330.000000	5.946640
2329.000000	5.953093
2328.000000	5.947677
2327.000000	5.919444
2326.000000	5.928548
2325.000000	5.912300
2324.000000	5.921634
2323.000000	5.921634
2322.000000	5.892940
2321.000000	5.859982
2320.000000	5.854105
2319.000000	5.849266
2318.000000	5.825988
2317.000000	5.827025
2316.000000	5.791647
2315.000000	5.774132
2314.000000	5.760995
2313.000000	5.743940
2312.000000	5.719625
2311.000000	5.711213
2310.000000	5.691046
2309.000000	5.675374
2308.000000	5.663505
2307.000000	5.651751
2306.000000	5.653019
2305.000000	5.641380
2304.000000	5.632852
2303.000000	5.649792
2302.000000	5.664888
2301.000000	5.678601
2300.000000	5.689318
2299.000000	5.705336
2298.000000	5.715246
2297.000000	5.736910
2296.000000	5.729996
2295.000000	5.747973
2294.000000	5.770329
2293.000000	5.799368
2292.000000	5.823222
2291.000000	5.834515
2290.000000	5.824375
2289.000000	5.856986
2288.000000	5.862518
2287.000000	5.886026
2286.000000	5.894669
2285.000000	5.892709
2284.000000	5.872428
2283.000000	5.878651
2282.000000	5.868164
2281.000000	5.862633
2280.000000	5.839125
2279.000000	5.850418
2278.000000	5.846500
2277.000000	5.833363
2276.000000	5.813658
2275.000000	5.815271
2274.000000	5.818613
2273.000000	5.833248
2272.000000	5.814464
2271.000000	5.809855
2270.000000	5.810316
2269.000000	5.803402
2268.000000	5.839701
2267.000000	5.851455
2266.000000	5.849611
2265.000000	5.883952
2264.000000	5.903887
2263.000000	5.953208
2262.000000	5.979828
2261.000000	6.026959
2260.000000	6.077087
2259.000000	6.128713
2258.000000	6.203962
2257.000000	6.247291
2256.000000	6.327265
2255.000000	6.382693
2254.000000	6.438237
2253.000000	6.490900
2252.000000	6.583319
2251.000000	6.628952
2250.000000	6.709502
2249.000000	6.756519
2248.000000	6.820129
2247.000000	6.859770
2246.000000	6.914507
2245.000000	6.972125
2244.000000	7.027093
2243.000000	7.061318
2242.000000	7.094160
2241.000000	7.132764
2240.000000	7.172060
2239.000000	7.197297
2238.000000	7.238205
2237.000000	7.252034
2236.000000	7.282456
2235.000000	7.281880
2234.000000	7.335695
2233.000000	7.334197
2232.000000	7.348141
2231.000000	7.354939
2230.000000	7.379139
2229.000000	7.393313
2228.000000	7.406104
2227.000000	7.384094
2226.000000	7.383864
2225.000000	7.385477
2224.000000	7.388934
2223.000000	7.385131
2222.000000	7.360701
2221.000000	7.366233
2220.000000	7.363352
2219.000000	7.323134
2218.000000	7.320830
2217.000000	7.333966
2216.000000	7.335465
2215.000000	7.301124
2214.000000	7.269780
2213.000000	7.236362
2212.000000	7.263327
2211.000000	7.246733
2210.000000	7.227027
2209.000000	7.221957
2208.000000	7.208590
2207.000000	7.193609
2206.000000	7.179665
2205.000000	7.173904
2204.000000	7.162034
2203.000000	7.148897
2202.000000	7.154890
2201.000000	7.152470
2200.000000	7.145440
2199.000000	7.168948
2198.000000	7.131382
2197.000000	7.126426
2196.000000	7.123661
2195.000000	7.129192
2194.000000	7.127348
2193.000000	7.124698
2192.000000	7.124698
2191.000000	7.129077
2190.000000	7.116977
2189.000000	7.097848
2188.000000	7.091740
2187.000000	7.085748
2186.000000	7.104301
2185.000000	7.112137
2184.000000	7.089320
2183.000000	7.091625
2182.000000	7.068002
2181.000000	7.050832
2180.000000	7.053021
2179.000000	7.071459
2178.000000	7.054058
2177.000000	7.048642
2176.000000	7.042535
2175.000000	7.053021
2174.000000	7.050716
2173.000000	7.042074
2172.000000	7.041037
2171.000000	7.048527
2170.000000	7.057515
2169.000000	7.052791
2168.000000	7.061088
2167.000000	7.069039
2166.000000	7.076529
2165.000000	7.058437
2164.000000	7.070306
2163.000000	7.074916
2162.000000	7.086900
2161.000000	7.122508
2160.000000	7.132764
2159.000000	7.133225
2158.000000	7.158001
2157.000000	7.150280
2156.000000	7.174826
2155.000000	7.190959
2154.000000	7.204211
2153.000000	7.210318
2152.000000	7.258372
2151.000000	7.244428
2150.000000	7.277155
2149.000000	7.312302
2148.000000	7.309076
2147.000000	7.336963
2146.000000	7.352289
2145.000000	7.388243
2144.000000	7.396770
2143.000000	7.404376
2142.000000	7.427308
2141.000000	7.442634
2140.000000	7.448626
2139.000000	7.470175
2138.000000	7.474900
2137.000000	7.492762
2136.000000	7.512467
2135.000000	7.519036
2134.000000	7.534247
2133.000000	7.562364
2132.000000	7.568818
2131.000000	7.559138
2130.000000	7.547614
2129.000000	7.565821
2128.000000	7.587486
2127.000000	7.600623
2126.000000	7.603504
2125.000000	7.607883
2124.000000	7.611916
2123.000000	7.599125
2122.000000	7.611109
2121.000000	7.603388
2120.000000	7.605117
2119.000000	7.599125
2118.000000	7.600507
2117.000000	7.599009
2116.000000	7.599586
2115.000000	7.596935
2114.000000	7.574464
2113.000000	7.568357
2112.000000	7.555796
2111.000000	7.560175
2110.000000	7.560751
2109.000000	7.543466
2108.000000	7.538049
2107.000000	7.519496
2106.000000	7.518229
2105.000000	7.518575
2104.000000	7.502096
2103.000000	7.499100
2102.000000	7.488844
2101.000000	7.482275
2100.000000	7.474785
2099.000000	7.454388
2098.000000	7.460957
2097.000000	7.462109
2096.000000	7.442634
2095.000000	7.440790
2094.000000	7.427769
2093.000000	7.419933
2092.000000	7.421661
2091.000000	7.427999
2090.000000	7.432609
2089.000000	7.411290
2088.000000	7.391124
2087.000000	7.378678
2086.000000	7.381674
2085.000000	7.383864
2084.000000	7.380637
2083.000000	7.383748
2082.000000	7.370842
2081.000000	7.353441
2080.000000	7.360240
2079.000000	7.345375
2078.000000	7.321751
2077.000000	7.309421
2076.000000	7.293403
2075.000000	7.274389
2074.000000	7.259639
2073.000000	7.244428
2072.000000	7.225414
2071.000000	7.208244
2070.000000	7.188423
2069.000000	7.175747
2068.000000	7.149474
2067.000000	7.121932
2066.000000	7.106030
2065.000000	7.091740
2064.000000	7.072381
2063.000000	7.048296
2062.000000	7.029743
2061.000000	7.007618
2060.000000	6.985262
2059.000000	6.981229
2058.000000	6.967631
2057.000000	6.962446
2056.000000	6.957145
2055.000000	6.948963
2054.000000	6.939398
2053.000000	6.949078
2052.000000	6.962446
2051.000000	6.970397
2050.000000	6.955877
2049.000000	6.971434
2048.000000	6.999321
2047.000000	7.021446
2046.000000	7.054750
2045.000000	7.070422
2044.000000	7.088168
2043.000000	7.134032
2042.000000	7.156388
2041.000000	7.180818
2040.000000	7.202828
2039.000000	7.226451
2038.000000	7.258256
2037.000000	7.277155
2036.000000	7.279229
2035.000000	7.286144
2034.000000	7.319101
2033.000000	7.337193
2032.000000	7.346873
2031.000000	7.368653
2030.000000	7.379485
2029.000000	7.404376
2028.000000	7.417628
2027.000000	7.427769
2026.000000	7.410714
2025.000000	7.420970
2024.000000	7.456232
2023.000000	7.438140
2022.000000	7.439177
2021.000000	7.447243
2020.000000	7.446322
2019.000000	7.451392
2018.000000	7.469945
2017.000000	7.453927
2016.000000	7.476283
2015.000000	7.442058
2014.000000	7.436872
2013.000000	7.423505
2012.000000	7.428921
2011.000000	7.426040
2010.000000	7.405874
2009.000000	7.393889
2008.000000	7.384901
2007.000000	7.371994
2006.000000	7.363006
2005.000000	7.352289
2004.000000	7.327859
2003.000000	7.302507
2002.000000	7.287526
2001.000000	7.261944
2000.000000	7.268743
1999.000000	7.245580
1998.000000	7.220920
1997.000000	7.215504
1996.000000	7.195798
1995.000000	7.158232
1994.000000	7.119973
1993.000000	7.130229
1992.000000	7.080562
1991.000000	7.056824
1990.000000	6.994827
1989.000000	6.996786
1988.000000	6.980883
1987.000000	6.943316
1986.000000	6.923265
1985.000000	6.918771
1984.000000	6.887312
1983.000000	6.868067
1982.000000	6.828426
1981.000000	6.832805
1980.000000	6.783945
1979.000000	6.758708
1978.000000	6.746263
1977.000000	6.701436
1976.000000	6.671014
1975.000000	6.650041
1974.000000	6.616968
1973.000000	6.606366
1972.000000	6.591270
1971.000000	6.570989
1970.000000	6.555662
1969.000000	6.521207
1968.000000	6.492398
1967.000000	6.480644
1966.000000	6.466470
1965.000000	6.445266
1964.000000	6.420145
1963.000000	6.403551
1962.000000	6.392027
1961.000000	6.375203
1960.000000	6.369902
1959.000000	6.326804
1958.000000	6.307790
1957.000000	6.298225
1956.000000	6.261350
1955.000000	6.255473
1954.000000	6.258584
1953.000000	6.230697
1952.000000	6.193706
1951.000000	6.169967
1950.000000	6.186100
1949.000000	6.151875
1948.000000	6.155217
1947.000000	6.138047
1946.000000	6.149455
1945.000000	6.123527
1944.000000	6.113617
1943.000000	6.090685
1942.000000	6.090455
1941.000000	6.082503
1940.000000	6.074552
1939.000000	6.082158
1938.000000	6.090570
1937.000000	6.044936
1936.000000	6.058649
1935.000000	6.068560
1934.000000	6.075935
1933.000000	6.079507
1932.000000	6.099558
1931.000000	6.086882
1930.000000	6.110851
1929.000000	6.140582
1928.000000	6.150608
1927.000000	6.150723
1926.000000	6.166741
1925.000000	6.182874
1924.000000	6.229314
1923.000000	6.263309
1922.000000	6.288084
1921.000000	6.287393
1920.000000	6.345472
1919.000000	6.352962
1918.000000	6.401937
1917.000000	6.448262
1916.000000	6.488941
1915.000000	6.524433
1914.000000	6.575137
1913.000000	6.620195
1912.000000	6.666635
1911.000000	6.716417
1910.000000	6.807799
1909.000000	6.865186
1908.000000	6.924533
1907.000000	6.983188
1906.000000	7.064890
1905.000000	7.154429
1904.000000	7.232444
1903.000000	7.296745
1902.000000	7.423966
1901.000000	7.517883
1900.000000	7.615258
1899.000000	7.721851
1898.000000	7.848150
1897.000000	7.974679
1896.000000	8.091067
1895.000000	8.228659
1894.000000	8.361987
1893.000000	8.488286
1892.000000	8.670013
1891.000000	8.838834
1890.000000	9.025286
1889.000000	9.199062
1888.000000	9.411326
1887.000000	9.637419
1886.000000	9.813385
1885.000000	10.025189
1884.000000	10.282395
1883.000000	10.547899
1882.000000	10.833915
1881.000000	11.096538
1880.000000	11.376331
1879.000000	11.612680
1878.000000	11.864701
1877.000000	12.122369
1876.000000	12.371048
1875.000000	12.613390
1874.000000	12.843631
1873.000000	13.089660
1872.000000	13.358276
1871.000000	13.575841
1870.000000	13.786493
1869.000000	14.002560
1868.000000	14.215516
1867.000000	14.383415
1866.000000	14.543017
1865.000000	14.665398
1864.000000	14.802183
1863.000000	14.933898
1862.000000	15.061349
1861.000000	15.172206
1860.000000	15.271424
1859.000000	15.376174
1858.000000	15.464560
1857.000000	15.526096
1856.000000	15.612868
1855.000000	15.691805
1854.000000	15.728911
1853.000000	15.775351
1852.000000	15.823520
1851.000000	15.844262
1850.000000	15.870190
1849.000000	15.886093
1848.000000	15.888743
1847.000000	15.906605
1846.000000	15.902457
1845.000000	15.895658
1844.000000	15.904300
1843.000000	15.900267
1842.000000	15.926310
1841.000000	15.941291
1840.000000	15.926080
1839.000000	15.900613
1838.000000	15.871112
1837.000000	15.842534
1836.000000	15.844378
1835.000000	15.839192
1834.000000	15.812688
1833.000000	15.782726
1832.000000	15.750460
1831.000000	15.726837
1830.000000	15.701831
1829.000000	15.670717
1828.000000	15.642484
1827.000000	15.608144
1826.000000	15.566083
1825.000000	15.537965
1824.000000	15.520564
1823.000000	15.501205
1822.000000	15.492677
1821.000000	15.484035
1820.000000	15.442089
1819.000000	15.421231
1818.000000	15.412012
1817.000000	15.399567
1816.000000	15.385853
1815.000000	15.384471
1814.000000	15.371564
1813.000000	15.351398
1812.000000	15.342179
1811.000000	15.322704
1810.000000	15.288709
1809.000000	15.261859
1808.000000	15.242269
1807.000000	15.216802
1806.000000	15.187417
1805.000000	15.161374
1804.000000	15.127840
1803.000000	15.098916
1802.000000	15.076675
1801.000000	15.050401
1800.000000	15.027239
1799.000000	15.001426
1798.000000	14.977572
1797.000000	14.943578
1796.000000	14.907163
1795.000000	14.887227
1794.000000	14.850121
1793.000000	14.809789
1792.000000	14.790659
1791.000000	14.759891
1790.000000	14.736268
1789.000000	14.715295
1788.000000	14.680148
1787.000000	14.650532
1786.000000	14.616422
1785.000000	14.594873
1784.000000	14.567908
1783.000000	14.531378
1782.000000	14.499227
1781.000000	14.467883
1780.000000	14.435963
1779.000000	14.399663
1778.000000	14.363479
1777.000000	14.320957
1776.000000	14.273711
1775.000000	14.216208
1774.000000	14.168730
1773.000000	14.124134
1772.000000	14.078270
1771.000000	14.017310
1770.000000	13.955659
1769.000000	13.920166
1768.000000	13.872920
1767.000000	13.824520
1766.000000	13.783727
1765.000000	13.755033
1764.000000	13.701103
1763.000000	13.670335
1762.000000	13.665149
1761.000000	13.663997
1760.000000	13.671257
1759.000000	13.693497
1758.000000	13.731755
1757.000000	13.778080
1756.000000	13.803202
1755.000000	13.839847
1754.000000	13.874302
1753.000000	13.876953
1752.000000	13.915326
1751.000000	13.913713
1750.000000	13.917055
1749.000000	13.927426
1748.000000	13.916825
1747.000000	13.892971
1746.000000	13.870039
1745.000000	13.841114
1744.000000	13.788913
1743.000000	13.724380
1742.000000	13.667684
1741.000000	13.566392
1740.000000	13.497942
1739.000000	13.407827
1738.000000	13.306535
1737.000000	13.191299
1736.000000	13.112592
1735.000000	13.046908
1734.000000	13.004501
1733.000000	12.961518
1732.000000	12.943772
1731.000000	12.946076
1730.000000	12.935590
1729.000000	12.953797
1728.000000	12.980878
1727.000000	13.027894
1726.000000	13.059929
1725.000000	13.087932
1724.000000	13.126305
1723.000000	13.158917
1722.000000	13.177816
1721.000000	13.210889
1720.000000	13.268391
1719.000000	13.320939
1718.000000	13.374524
1717.000000	13.419812
1716.000000	13.486072
1715.000000	13.546802
1714.000000	13.616750
1713.000000	13.678747
1712.000000	13.743855
1711.000000	13.809079
1710.000000	13.846185
1709.000000	13.882599
1708.000000	13.902651
1707.000000	13.909910
1706.000000	13.931229
1705.000000	13.919245
1704.000000	13.879719
1703.000000	13.864277
1702.000000	13.827171
1701.000000	13.799630
1700.000000	13.754111
1699.000000	13.692806
1698.000000	13.623434
1697.000000	13.572154
1696.000000	13.508428
1695.000000	13.488953
1694.000000	13.488031
1693.000000	13.479504
1692.000000	13.509580
1691.000000	13.535969
1690.000000	13.619170
1689.000000	13.678516
1688.000000	13.730834
1687.000000	13.809194
1686.000000	13.850794
1685.000000	13.908182
1684.000000	13.981818
1683.000000	14.062944
1682.000000	14.179908
1681.000000	14.365438
1680.000000	14.548088
1679.000000	14.806331
1678.000000	15.030811
1677.000000	15.316251
1676.000000	15.572997
1675.000000	15.797477
1674.000000	16.011239
1673.000000	16.202185
1672.000000	16.348535
1671.000000	16.546050
1670.000000	16.670505
1669.000000	16.818583
1668.000000	16.938889
1667.000000	17.034420
1666.000000	17.119003
1665.000000	17.220181
1664.000000	17.291166
1663.000000	17.360653
1662.000000	17.411472
1661.000000	17.468399
1660.000000	17.520140
1659.000000	17.582483
1658.000000	17.594121
1657.000000	17.663609
1656.000000	17.658538
1655.000000	17.668218
1654.000000	17.695990
1653.000000	17.689191
1652.000000	17.686310
1651.000000	17.667757
1650.000000	17.655427
1649.000000	17.653583
1648.000000	17.638603
1647.000000	17.600229
1646.000000	17.586862
1645.000000	17.570613
1644.000000	17.537195
1643.000000	17.511497
1642.000000	17.491561
1641.000000	17.440857
1640.000000	17.410320
1639.000000	17.346710
1638.000000	17.336338
1637.000000	17.289668
1636.000000	17.246454
1635.000000	17.220641
1634.000000	17.176967
1633.000000	17.119695
1632.000000	17.079362
1631.000000	17.043754
1630.000000	16.986828
1629.000000	16.940503
1628.000000	16.870093
1627.000000	16.822501
1626.000000	16.765344
1625.000000	16.717406
1624.000000	16.682489
1623.000000	16.622106
1622.000000	16.554462
1621.000000	16.528419
1620.000000	16.490506
1619.000000	16.432427
1618.000000	16.366512
1617.000000	16.326986
1616.000000	16.289189
1615.000000	16.242403
1614.000000	16.184093
1613.000000	16.144106
1612.000000	16.103543
1611.000000	16.033365
1610.000000	16.010087
1609.000000	15.956617
1608.000000	15.921355
1607.000000	15.861202
1606.000000	15.800127
1605.000000	15.767976
1604.000000	15.699987
1603.000000	15.629923
1602.000000	15.588323
1601.000000	15.545340
1600.000000	15.478734
1599.000000	15.423305
1598.000000	15.377902
1597.000000	15.340105
1596.000000	15.277992
1595.000000	15.225906
1594.000000	15.196290
1593.000000	15.130375
1592.000000	15.094998
1591.000000	15.033116
1590.000000	14.990824
1589.000000	14.960402
1588.000000	14.923642
1587.000000	14.886536
1586.000000	14.861990
1585.000000	14.802529
1584.000000	14.768995
1583.000000	14.715641
1582.000000	14.683259
1581.000000	14.660212
1580.000000	14.631403
1579.000000	14.610891
1578.000000	14.574131
1577.000000	14.540482
1576.000000	14.509253
1575.000000	14.484477
1574.000000	14.489317
1573.000000	14.452787
1572.000000	14.441148
1571.000000	14.412916
1570.000000	14.413607
1569.000000	14.404042
1568.000000	14.383415
1567.000000	14.384798
1566.000000	14.388255
1565.000000	14.379497
1564.000000	14.360138
1563.000000	14.345387
1562.000000	14.342967
1561.000000	14.335823
1560.000000	14.305861
1559.000000	14.290305
1558.000000	14.271291
1557.000000	14.257001
1556.000000	14.219665
1555.000000	14.189588
1554.000000	14.188205
1553.000000	14.156976
1552.000000	14.118949
1551.000000	14.088411
1550.000000	14.052573
1549.000000	14.018924
1548.000000	13.992765
1547.000000	13.955198
1546.000000	13.920397
1545.000000	13.888592
1544.000000	13.869578
1543.000000	13.846300
1542.000000	13.820487
1541.000000	13.792139
1540.000000	13.774508
1539.000000	13.761025
1538.000000	13.726339
1537.000000	13.693497
1536.000000	13.675059
1535.000000	13.647172
1534.000000	13.620553
1533.000000	13.598543
1532.000000	13.559823
1531.000000	13.515342
1530.000000	13.494485
1529.000000	13.462679
1528.000000	13.418659
1527.000000	13.373948
1526.000000	13.331080
1525.000000	13.310914
1524.000000	13.277034
1523.000000	13.245459
1522.000000	13.208238
1521.000000	13.174935
1520.000000	13.143476
1519.000000	13.101875
1518.000000	13.063387
1517.000000	13.013720
1516.000000	12.969239
1515.000000	12.931326
1514.000000	12.893068
1513.000000	12.851122
1512.000000	12.815629
1511.000000	12.773337
1510.000000	12.731276
1509.000000	12.693709
1508.000000	12.648191
1507.000000	12.600714
1506.000000	12.548166
1505.000000	12.514978
1504.000000	12.461394
1503.000000	12.405735
1502.000000	12.378078
1501.000000	12.354109
1500.000000	12.319999
1499.000000	12.277362
1498.000000	12.230576
1497.000000	12.193124
1496.000000	12.171690
1495.000000	12.137926
1494.000000	12.102203
1493.000000	12.085378
1492.000000	12.052767
1491.000000	12.015315
1490.000000	11.999988
1489.000000	11.984316
1488.000000	11.953203
1487.000000	11.927159
1486.000000	11.910335
1485.000000	11.888670
1484.000000	11.876225
1483.000000	11.859977
1482.000000	11.840963
1481.000000	11.817339
1480.000000	11.811578
1479.000000	11.805816
1478.000000	11.785304
1477.000000	11.776085
1476.000000	11.756034
1475.000000	11.746123
1474.000000	11.750042
1473.000000	11.758339
1472.000000	11.776892
1471.000000	11.770323
1470.000000	11.770438
1469.000000	11.765944
1468.000000	11.758454
1467.000000	11.757301
1466.000000	11.769977
1465.000000	11.790489
1464.000000	11.800630
1463.000000	11.818607
1462.000000	11.842000
1461.000000	11.840963
1460.000000	11.849029
1459.000000	11.884291
1458.000000	11.899272
1457.000000	11.939144
1456.000000	11.973369
1455.000000	12.005289
1454.000000	12.033983
1453.000000	12.045161
1452.000000	12.099207
1451.000000	12.129744
1450.000000	12.193931
1449.000000	12.232189
1448.000000	12.251433
1447.000000	12.305249
1446.000000	12.362060
1445.000000	12.410229
1444.000000	12.445721
1443.000000	12.476720
1442.000000	12.534799
1441.000000	12.615695
1440.000000	12.663172
1439.000000	12.737730
1438.000000	12.812172
1437.000000	12.871979
1436.000000	12.915884
1435.000000	12.989175
1434.000000	13.066613
1433.000000	13.144397
1432.000000	13.227367
1431.000000	13.314140
1430.000000	13.391579
1429.000000	13.481578
1428.000000	13.582410
1427.000000	13.693382
1426.000000	13.811845
1425.000000	13.929040
1424.000000	14.062137
1423.000000	14.184287
1422.000000	14.302980
1421.000000	14.446219
1420.000000	14.613426
1419.000000	14.775563
1418.000000	14.946919
1417.000000	15.093384
1416.000000	15.258287
1415.000000	15.454188
1414.000000	15.675326
1413.000000	15.859128
1412.000000	16.100662
1411.000000	16.298638
1410.000000	16.550890
1409.000000	16.816163
1408.000000	17.089849
1407.000000	17.386466
1406.000000	17.671214
1405.000000	17.962531
1404.000000	18.281504
1403.000000	18.616726
1402.000000	18.914150
1401.000000	19.258130
1400.000000	19.632186
1399.000000	20.010506
1398.000000	20.285689
1397.000000	20.561449
1396.000000	20.913495
1395.000000	21.303223
1394.000000	21.672901
1393.000000	21.983346
1392.000000	22.305201
1391.000000	22.694929
1390.000000	23.102864
1389.000000	23.486255
1388.000000	23.913665
1387.000000	24.443405
1386.000000	24.900086
1385.000000	25.345473
1384.000000	25.817940
1383.000000	26.316106
1382.000000	26.812082
1381.000000	27.275331
1380.000000	27.623804
1379.000000	27.961331
1378.000000	28.265093
1377.000000	28.463760
1376.000000	28.724424
1375.000000	28.950632
1374.000000	29.174766
1373.000000	29.453291
1372.000000	29.689871
1371.000000	29.969203
1370.000000	30.269969
1369.000000	30.519801
1368.000000	30.810772
1367.000000	31.054611
1366.000000	31.260769
1365.000000	31.454019
1364.000000	31.663058
1363.000000	31.817819
1362.000000	31.985834
1361.000000	32.157420
1360.000000	32.319442
1359.000000	32.389851
1358.000000	32.539427
1357.000000	32.656046
1356.000000	32.832473
1355.000000	33.035173
1354.000000	33.286042
1353.000000	33.562723
1352.000000	33.888957
1351.000000	34.227751
1350.000000	34.618401
1349.000000	34.955236
1348.000000	35.278242
1347.000000	35.599635
1346.000000	35.919070
1345.000000	36.220066
1344.000000	36.535928
1343.000000	36.822059
1342.000000	37.104157
1341.000000	37.385563
1340.000000	37.687136
1339.000000	37.966583
1338.000000	38.243957
1337.000000	38.519832
1336.000000	38.798472
1335.000000	39.074117
1334.000000	39.341464
1333.000000	39.609158
1332.000000	39.864406
1331.000000	40.131868
1330.000000	40.365106
1329.000000	40.615284
1328.000000	40.848636
1327.000000	41.082796
1326.000000	41.300707
1325.000000	41.500296
1324.000000	41.721780
1323.000000	41.954326
1322.000000	42.142852
1321.000000	42.322505
1320.000000	42.518983
1319.000000	42.718111
1318.000000	42.877482
1317.000000	43.059785
1316.000000	43.217313
1315.000000	43.381985
1314.000000	43.534558
1313.000000	43.684019
1312.000000	43.833250
1311.000000	43.952634
1310.000000	44.095181
1309.000000	44.228048
1308.000000	44.333028
1307.000000	44.447803
1306.000000	44.545178
1305.000000	44.630913
1304.000000	44.716879
1303.000000	44.798236
1302.000000	44.860118
1301.000000	44.947006
1300.000000	45.009579
1299.000000	45.064316
1298.000000	45.119514
1297.000000	45.155122
1296.000000	45.183931
1295.000000	45.246389
1294.000000	45.280268
1293.000000	45.288565
1292.000000	45.312765
1291.000000	45.348373
1290.000000	45.351254
1289.000000	45.349410
1288.000000	45.347912
1287.000000	45.344801
1286.000000	45.336849
1285.000000	45.325210
1284.000000	45.291562
1283.000000	45.259065
1282.000000	45.236133
1281.000000	45.222074
1280.000000	45.207439
1279.000000	45.173675
1278.000000	45.133227
1277.000000	45.099002
1276.000000	45.067197
1275.000000	45.047492
1274.000000	45.041038
1273.000000	45.015456
1272.000000	45.012460
1271.000000	45.000591
1270.000000	44.986186
1269.000000	44.974778
1268.000000	44.966826
1267.000000	44.956686
1266.000000	44.930297
1265.000000	44.905060
1264.000000	44.890655
1263.000000	44.865649
1262.000000	44.825662
1261.000000	44.790515
1260.000000	44.757903
1259.000000	44.725292
1258.000000	44.682885
1257.000000	44.652808
1256.000000	44.597380
1255.000000	44.540453
1254.000000	44.497240
1253.000000	44.432938
1252.000000	44.378546
1251.000000	44.318278
1250.000000	44.230583
1249.000000	44.148190
1248.000000	44.088613
1247.000000	43.987435
1246.000000	43.881188
1245.000000	43.780587
1244.000000	43.683673
1243.000000	43.579039
1242.000000	43.485122
1241.000000	43.384175
1240.000000	43.270091
1239.000000	43.155662
1238.000000	43.054715
1237.000000	42.951118
1236.000000	42.837610
1235.000000	42.717419
1234.000000	42.603335
1233.000000	42.480494
1232.000000	42.348318
1231.000000	42.216834
1230.000000	42.074402
1229.000000	41.930472
1228.000000	41.776402
1227.000000	41.619911
1226.000000	41.480245
1225.000000	41.319606
1224.000000	41.139031
1223.000000	40.959494
1222.000000	40.795628
1221.000000	40.613555
1220.000000	40.429638
1219.000000	40.256439
1218.000000	40.084045
1217.000000	39.925481
1216.000000	39.763689
1215.000000	39.605816
1214.000000	39.468224
1213.000000	39.340197
1212.000000	39.220582
1211.000000	39.105576
1210.000000	38.970750
1209.000000	38.858395
1208.000000	38.763325
1207.000000	38.673096
1206.000000	38.576989
1205.000000	38.499550
1204.000000	38.449077
1203.000000	38.392611
1202.000000	38.335569
1201.000000	38.292586
1200.000000	38.244763
1199.000000	38.191985
1198.000000	38.144047
1197.000000	38.078478
1196.000000	37.979836
1195.000000	37.856533
1194.000000	37.716291
1193.000000	37.534333
1192.000000	37.326332
1191.000000	37.099432
1190.000000	36.861239
1189.000000	36.625236
1188.000000	36.414700
1187.000000	36.255789
1186.000000	36.155649
1185.000000	36.127877
1184.000000	36.191949
1183.000000	36.325277
1182.000000	36.552176
1181.000000	36.842341
1180.000000	37.190815
1179.000000	37.538366
1178.000000	37.873357
1177.000000	38.198208
1176.000000	38.487450
1175.000000	38.781187
1174.000000	39.042081
1173.000000	39.269903
1172.000000	39.527571
1171.000000	39.762883
1170.000000	40.005109
1169.000000	40.252751
1168.000000	40.517102
1167.000000	40.768202
1166.000000	41.057559
1165.000000	41.353946
1164.000000	41.651601
1163.000000	41.970690
1162.000000	42.282173
1161.000000	42.635717
1160.000000	42.953538
1159.000000	43.302818
1158.000000	43.613955
1157.000000	43.935810
1156.000000	44.247869
1155.000000	44.541260
1154.000000	44.816674
1153.000000	45.073189
1152.000000	45.272087
1151.000000	45.463955
1150.000000	45.651213
1149.000000	45.821878
1148.000000	46.001185
1147.000000	46.205614
1146.000000	46.401515
1145.000000	46.626340
1144.000000	46.892536
1143.000000	47.180626
1142.000000	47.502249
1141.000000	47.876767
1140.000000	48.239760
1139.000000	48.619002
1138.000000	49.026937
1137.000000	49.439021
1136.000000	49.849723
1135.000000	50.291998
1134.000000	50.756169
1133.000000	51.172056
1132.000000	51.554985
1131.000000	51.896545
1130.000000	52.235339
1129.000000	52.513980
1128.000000	52.757934
1127.000000	52.975154
1126.000000	53.146510
1125.000000	53.303577
1124.000000	53.420311
1123.000000	53.527941
1122.000000	53.612870
1121.000000	53.679707
1120.000000	53.745392
1119.000000	53.813496
1118.000000	53.840692
1117.000000	53.879642
1116.000000	53.908796
1115.000000	53.923086
1114.000000	53.932765
1113.000000	53.937836
1112.000000	53.931844
1111.000000	53.958694
1110.000000	53.952471
1109.000000	53.968719
1108.000000	53.953969
1107.000000	53.960653
1106.000000	53.968028
1105.000000	53.968950
1104.000000	53.953738
1103.000000	53.949359
1102.000000	53.955467
1101.000000	53.975749
1100.000000	53.968950
1099.000000	53.980128
1098.000000	53.943252
1097.000000	53.941408
1096.000000	53.917785
1095.000000	53.911562
1094.000000	53.892663
1093.000000	53.868925
1092.000000	53.854175
1091.000000	53.830551
1090.000000	53.800935
1089.000000	53.751499
1088.000000	53.716928
1087.000000	53.690655
1086.000000	53.649515
1085.000000	53.615175
1084.000000	53.565393
1083.000000	53.515957
1082.000000	53.473780
1081.000000	53.453960
1080.000000	53.385510
1079.000000	53.348058
1078.000000	53.315446
1077.000000	53.245037
1076.000000	53.172208
1075.000000	53.138674
1074.000000	53.092580
1073.000000	53.031505
1072.000000	52.989443
1071.000000	52.923644
1070.000000	52.867985
1069.000000	52.795040
1068.000000	52.741110
1067.000000	52.693402
1066.000000	52.625182
1065.000000	52.566181
1064.000000	52.518935
1063.000000	52.427207
1062.000000	52.384454
1061.000000	52.312547
1060.000000	52.228540
1059.000000	52.165275
1058.000000	52.085186
1057.000000	52.047735
1056.000000	51.980667
1055.000000	51.896660
1054.000000	51.812538
1053.000000	51.735791
1052.000000	51.681860
1051.000000	51.625279
1050.000000	51.542425
1049.000000	51.481119
1048.000000	51.424538
1047.000000	51.368764
1046.000000	51.294321
1045.000000	51.232785
1044.000000	51.137485
1043.000000	51.104067
1042.000000	51.044720
1041.000000	50.965323
1040.000000	50.906437
1039.000000	50.850547
1038.000000	50.781060
1037.000000	50.732200
1036.000000	50.651189
1035.000000	50.581356
1034.000000	50.501498
1033.000000	50.457362
1032.000000	50.357107
1031.000000	50.284393
1030.000000	50.220783
1029.000000	50.158901
1028.000000	50.076392
1027.000000	49.968646
1026.000000	49.904575
1025.000000	49.836355
1024.000000	49.755805
1023.000000	49.680441
1022.000000	49.592861
1021.000000	49.487075
1020.000000	49.412056
1019.000000	49.344874
1018.000000	49.273658
1017.000000	49.207512
1016.000000	49.140099
1015.000000	49.057475
1014.000000	49.005849
1013.000000	48.969435
1012.000000	48.915043
1011.000000	48.859384
1010.000000	48.807874
1009.000000	48.796350
1008.000000	48.745992
1007.000000	48.719833
1006.000000	48.673393
1005.000000	48.637555
1004.000000	48.608746
1003.000000	48.587658
1002.000000	48.552395
1001.000000	48.518170
1000.000000	48.488670
999.000000	48.453292
998.000000	48.417800
997.000000	48.412153
996.000000	48.386455
995.000000	48.346353
994.000000	48.310630
993.000000	48.300835
992.000000	48.287237
991.000000	48.257391
990.000000	48.248518
989.000000	48.226047
988.000000	48.210375
987.000000	48.181220
986.000000	48.179722
985.000000	48.164280
984.000000	48.154255
983.000000	48.150913
982.000000	48.152987
981.000000	48.139966
980.000000	48.141809
979.000000	48.144575
978.000000	48.148032
977.000000	48.147341
976.000000	48.145266
975.000000	48.161976
974.000000	48.161745
973.000000	48.151028
972.000000	48.164396
971.000000	48.189978
970.000000	48.197699
969.000000	48.195509
968.000000	48.210375
967.000000	48.232615
966.000000	48.232615
965.000000	48.254971
964.000000	48.257622
963.000000	48.268339
962.000000	48.300489
961.000000	48.339670
960.000000	48.368248
959.000000	48.378504
958.000000	48.406391
957.000000	48.441999
956.000000	48.466775
955.000000	48.513330
954.000000	48.549284
953.000000	48.571179
952.000000	48.616351
951.000000	48.654610
950.000000	48.673854
949.000000	48.712919
948.000000	48.761434
947.000000	48.786440
946.000000	48.811331
945.000000	48.847515
944.000000	48.870908
943.000000	48.870562
942.000000	48.869179
941.000000	48.904096
940.000000	48.906400
939.000000	48.893724
938.000000	48.938090
937.000000	48.965286
936.000000	48.946964
935.000000	48.940165
934.000000	48.965977
933.000000	48.981534
932.000000	49.002853
931.000000	49.015068
930.000000	49.025439
929.000000	49.039383
928.000000	49.057936
927.000000	49.067500
926.000000	49.081559
925.000000	49.074069
924.000000	49.063698
923.000000	49.107833
922.000000	49.138025
921.000000	49.145400
920.000000	49.147244
919.000000	49.139984
918.000000	49.145170
917.000000	49.142173
916.000000	49.151392
915.000000	49.138832
914.000000	49.129728
913.000000	49.128460
912.000000	49.127308
911.000000	49.134913
910.000000	49.126271
909.000000	49.122929
908.000000	49.127884
907.000000	49.150009
906.000000	49.173863
905.000000	49.138486
904.000000	49.140445
903.000000	49.170752
902.000000	49.186654
901.000000	49.210854
900.000000	49.226180
899.000000	49.248075
898.000000	49.207512
897.000000	49.210163
896.000000	49.246001
895.000000	49.237358
894.000000	49.194721
893.000000	49.191955
892.000000	49.200368
891.000000	49.171443
890.000000	49.130765
889.000000	49.083518
888.000000	49.013570
887.000000	48.971509
886.000000	48.913776
885.000000	48.855005
884.000000	48.765236
883.000000	48.703470
882.000000	48.615545
881.000000	48.546057
880.000000	48.446378
879.000000	48.351193
878.000000	48.210721
877.000000	48.055959
876.000000	47.888060
875.000000	47.708176
874.000000	47.559407
873.000000	47.472749
872.000000	47.484273
871.000000	47.545002
870.000000	47.619790
869.000000	47.677408
868.000000	47.751966
867.000000	47.827791
866.000000	47.849571
865.000000	47.930236
864.000000	47.975754
863.000000	48.063795
862.000000	48.122219
861.000000	48.177533
860.000000	48.213025
859.000000	48.276290
858.000000	48.347967
857.000000	47.797700
856.000000	48.577900
855.000000	48.668300
854.000000	49.098500
853.000000	49.723700
852.000000	49.291600
851.000000	49.267400
850.000000	49.620300
849.000000	49.550600
848.000000	49.718600
847.000000	49.721500
846.000000	49.962200
845.000000	50.068200
844.000000	49.855300
843.000000	49.769400
842.000000	49.878800
841.000000	49.942500
840.000000	50.135200
839.000000	49.950100
838.000000	50.329900
837.000000	50.140000
836.000000	50.120400
835.000000	50.276800
834.000000	50.166000
833.000000	50.058000
832.000000	49.936000
831.000000	49.919300
830.000000	50.075900
829.000000	50.052900
828.000000	50.237000
827.000000	50.114900
826.000000	50.049700
825.000000	50.093300
824.000000	49.863000
823.000000	50.127300
822.000000	49.850200
821.000000	49.892400
820.000000	49.678900
819.000000	49.702200
818.000000	49.839100
817.000000	49.746400
816.000000	49.668000
815.000000	49.428000
814.000000	49.404000
813.000000	49.399500
812.000000	49.323000
811.000000	49.311100
810.000000	49.057300
809.000000	49.136100
808.000000	49.085800
807.000000	49.056000
806.000000	48.855100
805.000000	48.850300
804.000000	48.630700
803.000000	48.699800
802.000000	48.476700
801.000000	48.331500
800.000000	48.285300
799.000000	48.305300
798.000000	48.257700
797.000000	48.058300
796.000000	47.909100
795.000000	47.857600
794.000000	47.759000
793.000000	47.632200
792.000000	47.579500
791.000000	47.381000
790.000000	47.342200
789.000000	47.326000
788.000000	47.117100
787.000000	46.951000
786.000000	46.861800
785.000000	46.624700
784.000000	46.618600
783.000000	46.510500
782.000000	46.294400
781.000000	46.091000
780.000000	46.065500
779.000000	45.841100
778.000000	45.729000
777.000000	45.570700
776.000000	45.438500
775.000000	45.301500
774.000000	45.168300
773.000000	44.869900
772.000000	44.818200
771.000000	44.638300
770.000000	44.527500
769.000000	44.362700
768.000000	44.179100
767.000000	43.917200
766.000000	43.891100
765.000000	43.701300
764.000000	43.512600
763.000000	43.259700
762.000000	43.192400
761.000000	43.004600
760.000000	42.856700
759.000000	42.618300
758.000000	42.376700
757.000000	42.165400
756.000000	41.907900
755.000000	41.877800
754.000000	41.768900
753.000000	41.476600
752.000000	41.329600
751.000000	41.078000
750.000000	40.887300
749.000000	40.634000
748.000000	40.413300
747.000000	40.184400
746.000000	39.994300
745.000000	39.804700
744.000000	39.561100
743.000000	39.297800
742.000000	39.044900
741.000000	38.853100
740.000000	38.627800
739.000000	38.361900
738.000000	38.134600
737.000000	37.927200
736.000000	37.630800
735.000000	37.402200
734.000000	37.244900
733.000000	36.970600
732.000000	36.755700
731.000000	36.526100
730.000000	36.305600
729.000000	36.051700
728.000000	35.805900
727.000000	35.586600
726.000000	35.350200
725.000000	35.113800
724.000000	34.860900
723.000000	34.608200
722.000000	34.356900
721.000000	34.114600
720.000000	33.859000
719.000000	33.628900
718.000000	33.429100
717.000000	33.205500
716.000000	32.955000
715.000000	32.741700
714.000000	32.499400
713.000000	32.251200
712.000000	32.045000
711.000000	31.795300
710.000000	31.568800
709.000000	31.359300
708.000000	31.142100
707.000000	30.908800
706.000000	30.673700
705.000000	30.466100
704.000000	30.270700
703.000000	30.078500
702.000000	29.850500
701.000000	29.656500
700.000000	29.446700
699.000000	29.278700
698.000000	29.074100
697.000000	28.893200
696.000000	28.736400
695.000000	28.593000
694.000000	28.417300
693.000000	28.239300
692.000000	28.080800
691.000000	27.915200
690.000000	27.760400
689.000000	27.606500
688.000000	27.428000
687.000000	27.261000
686.000000	27.092000
685.000000	26.953300
684.000000	26.837600
683.000000	26.711000
682.000000	26.594400
681.000000	26.476100
680.000000	26.329700
679.000000	26.225900
678.000000	26.082300
677.000000	25.963900
676.000000	25.857100
675.000000	25.707200
674.000000	25.586500
673.000000	25.485400
672.000000	25.367100
671.000000	25.252300
670.000000	25.157600
669.000000	25.066300
668.000000	24.950600
667.000000	24.875300
666.000000	24.799600
665.000000	24.716000
664.000000	24.622800
663.000000	24.509500
662.000000	24.434800
661.000000	24.351700
660.000000	24.258500
659.000000	24.209800
658.000000	24.146000
657.000000	24.066100
656.000000	23.969300
655.000000	23.899500
654.000000	23.845400
653.000000	23.787500
652.000000	23.734300
651.000000	23.675700
650.000000	23.606800
649.000000	23.566100
648.000000	23.500700
647.000000	23.423000
646.000000	23.371800
645.000000	23.313100
644.000000	23.252700
643.000000	23.212800
642.000000	23.178800
641.000000	23.121000
640.000000	23.068100
639.000000	23.025500
638.000000	22.987000
637.000000	22.950900
636.000000	22.925400
635.000000	22.914500
634.000000	22.901100
633.000000	22.860000
632.000000	22.822600
631.000000	22.809800
630.000000	22.817900
629.000000	22.817700
628.000000	22.803300
627.000000	22.801400
626.000000	22.803000
625.000000	22.810600
624.000000	22.838600
623.000000	22.862300
622.000000	22.870500
621.000000	22.890600
620.000000	22.931500
619.000000	22.978400
618.000000	23.014900
617.000000	23.039000
616.000000	23.061500
615.000000	23.116400
614.000000	23.162700
613.000000	23.215900
612.000000	23.255800
611.000000	23.307800
610.000000	23.371200
609.000000	23.414100
608.000000	23.476300
607.000000	23.543900
606.000000	23.588600
605.000000	23.639300
604.000000	23.687900
603.000000	23.736200
602.000000	23.793500
601.000000	23.846300
600.000000	23.895100
599.000000	23.939300
598.000000	23.965900
597.000000	24.010500
596.000000	24.029400
595.000000	24.039100
594.000000	24.076300
593.000000	24.103200
592.000000	24.110900
591.000000	24.117500
590.000000	24.128400
589.000000	24.135100
588.000000	24.114200
587.000000	24.119100
586.000000	24.116700
585.000000	24.092000
584.000000	24.064900
583.000000	24.035900
582.000000	24.011000
581.000000	23.971400
580.000000	23.934300
579.000000	23.881500
578.000000	23.832300
577.000000	23.771300
576.000000	23.718600
575.000000	23.643800
574.000000	23.558700
573.000000	23.481500
572.000000	23.402600
571.000000	23.309900
570.000000	23.230500
569.000000	23.128000
568.000000	23.018600
567.000000	22.914600
566.000000	22.818900
565.000000	22.718100
564.000000	22.573500
563.000000	22.445500
562.000000	22.308900
561.000000	22.153200
560.000000	22.025100
559.000000	21.864100
558.000000	21.701900
557.000000	21.530000
556.000000	21.389600
555.000000	21.211400
554.000000	21.044900
553.000000	20.852300
552.000000	20.666100
551.000000	20.477000
550.000000	20.292900
549.000000	20.095500
548.000000	19.890100
547.000000	19.689600
546.000000	19.481000
545.000000	19.288000
544.000000	19.078300
543.000000	18.862900
542.000000	18.659100
541.000000	18.442800
540.000000	18.225800
539.000000	18.018900
538.000000	17.786500
537.000000	17.567700
536.000000	17.365400
535.000000	17.134200
534.000000	16.915100
533.000000	16.691500
532.000000	16.451700
531.000000	16.223500
530.000000	16.013500
529.000000	15.801300
528.000000	15.577800
527.000000	15.364300
526.000000	15.157000
525.000000	14.949100
524.000000	14.730200
523.000000	14.521700
522.000000	14.312000
521.000000	14.118600
520.000000	13.946500
519.000000	13.758000
518.000000	13.575500
517.000000	13.401400
516.000000	13.229400
515.000000	13.062500
514.000000	12.909800
513.000000	12.757700
512.000000	12.602800
511.000000	12.463700
510.000000	12.321000
509.000000	12.179000
508.000000	12.044200
507.000000	11.948100
506.000000	11.837700
505.000000	11.703900
504.000000	11.597100
503.000000	11.471800
502.000000	11.400700
501.000000	11.289700
500.000000	11.207600
499.000000	11.104200
498.000000	11.017700
497.000000	10.933200
496.000000	10.851800
495.000000	10.783300
494.000000	10.706100
493.000000	10.647500
492.000000	10.550800
491.000000	10.494100
490.000000	10.454900
489.000000	10.402300
488.000000	10.354400
487.000000	10.302500
486.000000	10.245900
485.000000	10.201600
484.000000	10.134800
483.000000	10.094800
482.000000	10.048900
481.000000	10.009600
480.000000	9.961000
479.000000	9.900000
478.000000	9.848200
477.000000	9.804000
476.000000	9.751000
475.000000	9.719300
474.000000	9.657200
473.000000	9.616600
472.000000	9.567500
471.000000	9.518700
470.000000	9.464900
469.000000	9.435900
468.000000	9.393100
467.000000	9.350700
466.000000	9.293200
465.000000	9.272100
464.000000	9.221900
463.000000	9.182900
462.000000	9.149100
461.000000	9.132300
460.000000	9.066500
459.000000	9.062600
458.000000	9.004600
457.000000	8.949600
456.000000	8.908900
455.000000	8.890800
454.000000	8.834100
453.000000	8.774800
452.000000	8.732300
451.000000	8.727100
450.000000	8.647400
449.000000	8.598300
448.000000	8.562200
447.000000	8.524800
446.000000	8.482100
445.000000	8.421900
444.000000	8.359000
443.000000	8.281700
442.000000	8.249700
441.000000	8.206200
440.000000	8.122300
439.000000	8.080600
438.000000	8.026000
437.000000	7.957300
436.000000	7.910200
435.000000	7.822300
434.000000	7.761100
433.000000	7.684300
432.000000	7.625600
431.000000	7.574000
430.000000	7.497600
429.000000	7.446100
428.000000	7.370400
427.000000	7.303500
426.000000	7.255200
425.000000	7.196100
424.000000	7.107800
423.000000	7.042600
422.000000	6.980600
421.000000	6.920300
420.000000	6.865500
419.000000	6.804300
418.000000	6.712400
417.000000	6.657300
416.000000	6.621500
415.000000	6.542900
414.000000	6.494400
413.000000	6.406700
412.000000	6.354500
411.000000	6.290900
410.000000	6.240100
409.000000	6.182600
408.000000	6.127700
407.000000	6.064500
406.000000	6.004700
405.000000	5.943100
404.000000	5.890000
403.000000	5.846200
402.000000	5.797500
401.000000	5.749700
400.000000	5.681700
399.000000	5.628900
398.000000	5.590500
397.000000	5.562100
396.000000	5.483700
395.000000	5.447000
394.000000	5.420300
393.000000	5.357500
392.000000	5.324400
391.000000	5.272400
390.000000	5.223500
389.000000	5.192700
388.000000	5.159700
387.000000	5.109200
386.000000	5.070700
385.000000	5.035500
384.000000	4.998000
383.000000	4.961800
382.000000	4.929900
381.000000	4.909500
380.000000	4.872700
379.000000	4.836100
378.000000	4.812800
377.000000	4.802100
376.000000	4.721400
375.000000	4.356500
374.000000	3.942400
373.000000	3.999000
372.000000	4.058300
371.000000	4.018300
370.000000	4.329200
369.000000	4.386900
368.000000	4.437000
367.000000	4.384700
366.000000	4.438800
365.000000	4.701400
364.000000	4.680800
363.000000	4.380500
362.000000	4.557900
361.000000	4.708600
360.000000	4.517800
359.000000	4.434500
358.000000	4.481100
357.000000	4.571300
356.000000	4.502300
355.000000	4.305000
354.000000	4.316800
353.000000	4.647200
352.000000	4.572200
351.000000	4.465800
350.000000	4.412400
349.000000	4.418000
348.000000	4.522600
347.000000	4.444000
346.000000	4.568300
345.000000	4.665900
344.000000	4.647800
343.000000	4.420200
342.000000	4.301700
341.000000	4.785200
340.000000	4.812300
339.000000	4.676400
338.000000	4.811000
337.000000	4.748800
336.000000	4.578800
335.000000	4.821300
334.000000	4.837600
333.000000	4.599200
332.000000	4.509900
331.000000	4.499700
330.000000	5.031500
329.000000	5.071900
328.000000	4.962800
327.000000	4.950700
326.000000	4.664900
325.000000	4.962200
324.000000	5.083200
323.000000	4.988100
322.000000	5.283800
321.000000	5.193400
320.000000	5.714600
319.000000	6.354500
318.000000	5.815800
317.000000	5.515700
316.000000	4.924000
315.000000	4.365100
314.000000	4.373400
313.000000	4.320700
312.000000	4.333200
311.000000	4.365000
310.000000	4.295700
309.000000	4.346100
308.000000	4.349100
307.000000	4.327900
306.000000	4.377200
305.000000	4.374700
304.000000	4.349600
303.000000	4.315200
302.000000	4.316600
301.000000	4.370800
300.000000	4.374900
299.000000	4.407200
298.000000	4.424700
297.000000	4.391000
296.000000	4.388700
295.000000	4.377900
294.000000	4.336100
293.000000	4.372800
292.000000	4.411000
291.000000	4.422100
290.000000	4.411900
289.000000	4.391400
288.000000	4.365600
287.000000	4.376100
286.000000	4.379200
285.000000	4.396900
284.000000	4.381100
283.000000	4.369400
282.000000	4.393400
281.000000	4.426300
280.000000	4.417400
279.000000	4.422500
278.000000	4.373800
277.000000	4.402400
276.000000	4.453700
275.000000	4.438500
274.000000	4.452200
273.000000	4.471500
272.000000	4.502500
271.000000	4.506300
270.000000	4.526500
269.000000	4.525400
268.000000	4.562100
267.000000	4.539700
266.000000	4.557800
265.000000	4.600900
264.000000	4.644800
263.000000	4.658200
262.000000	4.669400
261.000000	4.681300
260.000000	4.718500
259.000000	4.705500
258.000000	4.708900
257.000000	4.760600
256.000000	4.751100
255.000000	4.735800
254.000000	4.770200
253.000000	4.771200
252.000000	4.829000
251.000000	4.836600
250.000000	4.803000
