PE UV       SUBTECH     SPECTRUM    ASCII       PEDS        4.00        
   -1
CICIMAUCR0008-5.Sample.ASC
24/04/25
10:02:58.00
24/04/25
10:02:58.00
Vinicio Soto Monge
C. kalinini
250,000000
1
Lambda 1050
1050L1511233
PerkinElmer UV WinLab 6.3.2.0749 / 2.02.05 Lambda 900 UV/VIS/NIR, Aug  7 2015 09:38:08

0
0
3350/servo 860,8/2
0
0
UV/VIS
1
1
1
DoubleDePol,CommonBeamDepol,RBeamAtt,SBeamAtt,60mm sphere, WB InGaAs Detector
0
0
0
0
Program
Program
3350/servo 860,8/2
3350/0,2 860,8/0,2
3350/0,2 860,8/0,2
0
15.00
 
 
 
0
 
860,8
319,2
860,8
Front
100
on
S:100 R:100
0
0
0
0
 
0
 
 
 
0
 
 
0
0
0
0
0
 
 
 
 
0
0


0
0
#HDR
-1
-1
#GR
nm
%R
1.0
0.0
2500,000000
-1,000000
2251
8
95,184700
4,916500
#DATA
2482.000000	6.350126
2481.000000	6.293216
2480.000000	6.354288
2479.000000	6.291304
2478.000000	6.370821
2477.000000	6.371046
2476.000000	6.365422
2475.000000	6.334830
2474.000000	6.373408
2473.000000	6.362836
2472.000000	6.376332
2471.000000	6.284443
2470.000000	6.373295
2469.000000	6.371271
2468.000000	6.366097
2467.000000	6.383305
2466.000000	6.392978
2465.000000	6.420421
2464.000000	6.407712
2463.000000	6.409849
2462.000000	6.421996
2461.000000	6.431106
2460.000000	6.457311
2459.000000	6.527044
2458.000000	6.538066
2457.000000	6.579793
2456.000000	6.599025
2455.000000	6.640752
2454.000000	6.695526
2453.000000	6.710709
2452.000000	6.735115
2451.000000	6.807322
2450.000000	6.845562
2449.000000	6.898874
2448.000000	6.931265
2447.000000	6.991550
2446.000000	7.040362
2445.000000	7.080740
2444.000000	7.133489
2443.000000	7.175665
2442.000000	7.193998
2441.000000	7.245173
2440.000000	7.293085
2439.000000	7.324577
2438.000000	7.368104
2437.000000	7.418828
2436.000000	7.469440
2435.000000	7.483949
2434.000000	7.514654
2433.000000	7.561779
2432.000000	7.583149
2431.000000	7.609804
2430.000000	7.663341
2429.000000	7.676162
2428.000000	7.687072
2427.000000	7.712491
2426.000000	7.765802
2425.000000	7.787734
2424.000000	7.817764
2423.000000	7.822825
2422.000000	7.823050
2421.000000	7.844982
2420.000000	7.871637
2419.000000	7.875349
2418.000000	7.902117
2417.000000	7.912015
2416.000000	7.936308
2415.000000	7.936196
2414.000000	7.961502
2413.000000	7.973311
2412.000000	7.993669
2411.000000	8.031347
2410.000000	8.073636
2409.000000	8.124473
2408.000000	8.150791
2407.000000	8.169236
2406.000000	8.184082
2405.000000	8.197017
2404.000000	8.225134
2403.000000	8.255277
2402.000000	8.277321
2401.000000	8.295654
2400.000000	8.330745
2399.000000	8.352002
2398.000000	8.383719
2397.000000	8.391142
2396.000000	8.415886
2395.000000	8.430844
2394.000000	8.453339
2393.000000	8.478757
2392.000000	8.492929
2391.000000	8.516210
2390.000000	8.533081
2389.000000	8.531281
2388.000000	8.541066
2387.000000	8.549839
2386.000000	8.546352
2385.000000	8.559287
2384.000000	8.577844
2383.000000	8.573570
2382.000000	8.571433
2381.000000	8.561423
2380.000000	8.551526
2379.000000	8.539492
2378.000000	8.542641
2377.000000	8.540729
2376.000000	8.524983
2375.000000	8.506088
2374.000000	8.480669
2373.000000	8.465373
2372.000000	8.458287
2371.000000	8.439955
2370.000000	8.406776
2369.000000	8.368535
2368.000000	8.354251
2367.000000	8.327258
2366.000000	8.282720
2365.000000	8.228846
2364.000000	8.186219
2363.000000	8.161701
2362.000000	8.108839
2361.000000	8.073861
2360.000000	8.038882
2359.000000	7.989395
2358.000000	7.971512
2357.000000	7.951379
2356.000000	7.929110
2355.000000	7.906953
2354.000000	7.883447
2353.000000	7.880635
2352.000000	7.894581
2351.000000	7.912577
2350.000000	7.948118
2349.000000	7.964089
2348.000000	7.985796
2347.000000	8.032696
2346.000000	8.076560
2345.000000	8.097142
2344.000000	8.133920
2343.000000	8.162151
2342.000000	8.193867
2341.000000	8.212313
2340.000000	8.244142
2339.000000	8.275971
2338.000000	8.297004
2337.000000	8.282945
2336.000000	8.273497
2335.000000	8.275072
2334.000000	8.277321
2333.000000	8.250441
2332.000000	8.223335
2331.000000	8.216924
2330.000000	8.191281
2329.000000	8.159339
2328.000000	8.120874
2327.000000	8.077010
2326.000000	8.037982
2325.000000	8.002779
2324.000000	7.958465
2323.000000	7.880298
2322.000000	7.841720
2321.000000	7.797744
2320.000000	7.732285
2319.000000	7.668627
2318.000000	7.595296
2317.000000	7.534111
2316.000000	7.473827
2315.000000	7.414779
2314.000000	7.371028
2313.000000	7.321878
2312.000000	7.283300
2311.000000	7.233813
2310.000000	7.194673
2309.000000	7.173866
2308.000000	7.165543
2307.000000	7.151596
2306.000000	7.175553
2305.000000	7.189499
2304.000000	7.234713
2303.000000	7.283075
2302.000000	7.323565
2301.000000	7.391723
2300.000000	7.457968
2299.000000	7.508130
2298.000000	7.588435
2297.000000	7.645570
2296.000000	7.723625
2295.000000	7.767826
2294.000000	7.804042
2293.000000	7.839920
2292.000000	7.886259
2291.000000	7.925174
2290.000000	7.942719
2289.000000	7.946656
2288.000000	7.953966
2287.000000	7.952954
2286.000000	7.939458
2285.000000	7.916063
2284.000000	7.911002
2283.000000	7.895706
2282.000000	7.845769
2281.000000	7.856116
2280.000000	7.835872
2279.000000	7.799431
2278.000000	7.780198
2277.000000	7.746119
2276.000000	7.746344
2275.000000	7.743195
2274.000000	7.735997
2273.000000	7.720364
2272.000000	7.722613
2271.000000	7.748481
2270.000000	7.771425
2269.000000	7.806741
2268.000000	7.862302
2267.000000	7.927873
2266.000000	8.013351
2265.000000	8.085783
2264.000000	8.213325
2263.000000	8.318036
2262.000000	8.452776
2261.000000	8.572333
2260.000000	8.772195
2259.000000	8.933591
2258.000000	9.120293
2257.000000	9.282477
2256.000000	9.455120
2255.000000	9.652507
2254.000000	9.836960
2253.000000	10.008366
2252.000000	10.154691
2251.000000	10.339481
2250.000000	10.500878
2249.000000	10.624596
2248.000000	10.779806
2247.000000	10.918708
2246.000000	11.023644
2245.000000	11.115983
2244.000000	11.250049
2243.000000	11.349248
2242.000000	11.446986
2241.000000	11.527628
2240.000000	11.598934
2239.000000	11.685312
2238.000000	11.752345
2237.000000	11.836474
2236.000000	11.850308
2235.000000	11.922514
2234.000000	11.967953
2233.000000	11.993933
2232.000000	12.057705
2231.000000	12.104605
2230.000000	12.101456
2229.000000	12.101343
2228.000000	12.136884
2227.000000	12.153867
2226.000000	12.160166
2225.000000	12.160053
2224.000000	12.128449
2223.000000	12.131711
2222.000000	12.125187
2221.000000	12.112928
2220.000000	12.085035
2219.000000	12.081099
2218.000000	12.041734
2217.000000	12.021039
2216.000000	11.990222
2215.000000	11.980212
2214.000000	11.957605
2213.000000	11.932412
2212.000000	11.912054
2211.000000	11.892822
2210.000000	11.875051
2209.000000	11.836136
2208.000000	11.837823
2207.000000	11.812742
2206.000000	11.807681
2205.000000	11.799583
2204.000000	11.784737
2203.000000	11.749871
2202.000000	11.745597
2201.000000	11.734800
2200.000000	11.729513
2199.000000	11.736937
2198.000000	11.716017
2197.000000	11.708256
2196.000000	11.704095
2195.000000	11.694760
2194.000000	11.673503
2193.000000	11.671028
2192.000000	11.672940
2191.000000	11.633688
2190.000000	11.625140
2189.000000	11.629189
2188.000000	11.625253
2187.000000	11.612431
2186.000000	11.594548
2185.000000	11.588025
2184.000000	11.570029
2183.000000	11.562269
2182.000000	11.559682
2181.000000	11.542136
2180.000000	11.549110
2179.000000	11.545286
2178.000000	11.534263
2177.000000	11.536400
2176.000000	11.544611
2175.000000	11.530102
2174.000000	11.527740
2173.000000	11.530327
2172.000000	11.535726
2171.000000	11.536850
2170.000000	11.541799
2169.000000	11.552821
2168.000000	11.571829
2167.000000	11.587125
2166.000000	11.589824
2165.000000	11.604670
2164.000000	11.613106
2163.000000	11.647297
2162.000000	11.675865
2161.000000	11.675527
2160.000000	11.710281
2159.000000	11.731425
2158.000000	11.757181
2157.000000	11.782150
2156.000000	11.818928
2155.000000	11.842884
2154.000000	11.883599
2153.000000	11.930725
2152.000000	11.964466
2151.000000	11.989772
2150.000000	12.018565
2149.000000	12.044770
2148.000000	12.093358
2147.000000	12.128674
2146.000000	12.152743
2145.000000	12.189746
2144.000000	12.198069
2143.000000	12.231810
2142.000000	12.280960
2141.000000	12.308853
2140.000000	12.329098
2139.000000	12.376336
2138.000000	12.387245
2137.000000	12.412664
2136.000000	12.453041
2135.000000	12.470811
2134.000000	12.481046
2133.000000	12.505228
2132.000000	12.527609
2131.000000	12.538407
2130.000000	12.564837
2129.000000	12.588794
2128.000000	12.583170
2127.000000	12.582383
2126.000000	12.581033
2125.000000	12.596667
2124.000000	12.609826
2123.000000	12.607464
2122.000000	12.609488
2121.000000	12.616012
2120.000000	12.600378
2119.000000	12.582383
2118.000000	12.592843
2117.000000	12.591156
2116.000000	12.581483
2115.000000	12.562813
2114.000000	12.540993
2113.000000	12.540206
2112.000000	12.535932
2111.000000	12.516925
2110.000000	12.499042
2109.000000	12.489482
2108.000000	12.472836
2107.000000	12.469012
2106.000000	12.470249
2105.000000	12.447755
2104.000000	12.427285
2103.000000	12.429534
2102.000000	12.409852
2101.000000	12.390394
2100.000000	12.382971
2099.000000	12.377235
2098.000000	12.368013
2097.000000	12.357665
2096.000000	12.339895
2095.000000	12.330672
2094.000000	12.328985
2093.000000	12.324374
2092.000000	12.315939
2091.000000	12.314139
2090.000000	12.312452
2089.000000	12.300080
2088.000000	12.294119
2087.000000	12.288383
2086.000000	12.294569
2085.000000	12.281297
2084.000000	12.265551
2083.000000	12.247893
2082.000000	12.234397
2081.000000	12.244632
2080.000000	12.234397
2079.000000	12.207629
2078.000000	12.190758
2077.000000	12.175349
2076.000000	12.158141
2075.000000	12.151618
2074.000000	12.126537
2073.000000	12.111691
2072.000000	12.103368
2071.000000	12.092908
2070.000000	12.070076
2069.000000	12.043983
2068.000000	12.019464
2067.000000	12.012491
2066.000000	11.998432
2065.000000	11.973014
2064.000000	11.957493
2063.000000	11.935111
2062.000000	11.942309
2061.000000	11.932187
2060.000000	11.923301
2059.000000	11.922064
2058.000000	11.934211
2057.000000	11.940397
2056.000000	11.969977
2055.000000	11.994721
2054.000000	12.032511
2053.000000	12.090546
2052.000000	12.154880
2051.000000	12.207966
2050.000000	12.285346
2049.000000	12.379935
2048.000000	12.446968
2047.000000	12.561801
2046.000000	12.662350
2045.000000	12.752889
2044.000000	12.856363
2043.000000	12.968834
2042.000000	13.061173
2041.000000	13.183317
2040.000000	13.288815
2039.000000	13.385765
2038.000000	13.490026
2037.000000	13.589001
2036.000000	13.664356
2035.000000	13.784138
2034.000000	13.855557
2033.000000	13.931138
2032.000000	14.014817
2031.000000	14.101982
2030.000000	14.160354
2029.000000	14.221314
2028.000000	14.295432
2027.000000	14.357517
2026.000000	14.431073
2025.000000	14.462902
2024.000000	14.508903
2023.000000	14.583921
2022.000000	14.619799
2021.000000	14.675135
2020.000000	14.720349
2019.000000	14.764887
2018.000000	14.787944
2017.000000	14.833157
2016.000000	14.862850
2015.000000	14.903339
2014.000000	14.919648
2013.000000	14.936856
2012.000000	14.977008
2011.000000	14.972622
2010.000000	14.990505
2009.000000	15.010637
2008.000000	15.003889
2007.000000	14.991292
2006.000000	15.005126
2005.000000	14.994216
2004.000000	14.989605
2003.000000	14.956426
2002.000000	14.943717
2001.000000	14.919535
2000.000000	14.893667
1999.000000	14.892317
1998.000000	14.865999
1997.000000	14.825509
1996.000000	14.773885
1995.000000	14.746892
1994.000000	14.713713
1993.000000	14.664338
1992.000000	14.608665
1991.000000	14.559290
1990.000000	14.513739
1989.000000	14.462790
1988.000000	14.405879
1987.000000	14.364265
1986.000000	14.301506
1985.000000	14.245158
1984.000000	14.189260
1983.000000	14.129425
1982.000000	14.061942
1981.000000	14.022465
1980.000000	13.949246
1979.000000	13.884013
1978.000000	13.834975
1977.000000	13.770417
1976.000000	13.712719
1975.000000	13.652997
1974.000000	13.612282
1973.000000	13.567519
1972.000000	13.507009
1971.000000	13.466407
1970.000000	13.435365
1969.000000	13.325930
1968.000000	13.331104
1967.000000	13.273181
1966.000000	13.227743
1965.000000	13.182642
1964.000000	13.127194
1963.000000	13.085579
1962.000000	13.048126
1961.000000	12.997739
1960.000000	12.940379
1959.000000	12.913048
1958.000000	12.856925
1957.000000	12.819810
1956.000000	12.793266
1955.000000	12.741417
1954.000000	12.698678
1953.000000	12.648291
1952.000000	12.614887
1951.000000	12.591268
1950.000000	12.567649
1949.000000	12.545492
1948.000000	12.513663
1947.000000	12.483746
1946.000000	12.479809
1945.000000	12.446855
1944.000000	12.457540
1943.000000	12.424586
1942.000000	12.442131
1941.000000	12.444381
1940.000000	12.441007
1939.000000	12.471824
1938.000000	12.498929
1937.000000	12.486108
1936.000000	12.529746
1935.000000	12.593405
1934.000000	12.623885
1933.000000	12.685069
1932.000000	12.748953
1931.000000	12.827120
1930.000000	12.909449
1929.000000	12.994702
1928.000000	13.063310
1927.000000	13.155536
1926.000000	13.266883
1925.000000	13.401623
1924.000000	13.518369
1923.000000	13.644561
1922.000000	13.769179
1921.000000	13.905607
1920.000000	14.058680
1919.000000	14.200732
1918.000000	14.383835
1917.000000	14.543769
1916.000000	14.724848
1915.000000	14.899628
1914.000000	15.094091
1913.000000	15.277756
1912.000000	15.458385
1911.000000	15.654310
1910.000000	15.871267
1909.000000	16.085525
1908.000000	16.305406
1907.000000	16.545195
1906.000000	16.780035
1905.000000	17.018474
1904.000000	17.255563
1903.000000	17.483092
1902.000000	17.734353
1901.000000	18.005296
1900.000000	18.248797
1899.000000	18.493197
1898.000000	18.763802
1897.000000	19.025298
1896.000000	19.270260
1895.000000	19.534230
1894.000000	19.806748
1893.000000	20.080503
1892.000000	20.349872
1891.000000	20.611930
1890.000000	20.854080
1889.000000	21.161239
1888.000000	21.468511
1887.000000	21.788154
1886.000000	22.133891
1885.000000	22.550597
1884.000000	22.973264
1883.000000	23.379060
1882.000000	23.839630
1881.000000	24.275568
1880.000000	24.681589
1879.000000	25.091097
1878.000000	25.492282
1877.000000	25.814400
1876.000000	26.134493
1875.000000	26.439402
1874.000000	26.704497
1873.000000	26.936863
1872.000000	27.132675
1871.000000	27.286873
1870.000000	27.430836
1869.000000	27.566027
1868.000000	27.659828
1867.000000	27.726073
1866.000000	27.801992
1865.000000	27.859239
1864.000000	27.916825
1863.000000	27.979809
1862.000000	28.028734
1861.000000	28.033457
1860.000000	28.008489
1859.000000	27.979584
1858.000000	27.973285
1857.000000	27.944605
1856.000000	27.885220
1855.000000	27.827522
1854.000000	27.740132
1853.000000	27.661065
1852.000000	27.629123
1851.000000	27.598194
1850.000000	27.558041
1849.000000	27.475150
1848.000000	27.325563
1847.000000	27.185424
1846.000000	27.105232
1845.000000	27.087574
1844.000000	27.082176
1843.000000	27.074752
1842.000000	27.010419
1841.000000	26.914818
1840.000000	26.844974
1839.000000	26.789638
1838.000000	26.739701
1837.000000	26.664907
1836.000000	26.566832
1835.000000	26.468757
1834.000000	26.396551
1833.000000	26.338403
1832.000000	26.272608
1831.000000	26.176670
1830.000000	26.086693
1829.000000	25.995366
1828.000000	25.896729
1827.000000	25.808326
1826.000000	25.736232
1825.000000	25.707327
1824.000000	25.704965
1823.000000	25.721723
1822.000000	25.702266
1821.000000	25.635795
1820.000000	25.575848
1819.000000	25.553354
1818.000000	25.564714
1817.000000	25.571574
1816.000000	25.570337
1815.000000	25.569775
1814.000000	25.566513
1813.000000	25.551779
1812.000000	25.534234
1811.000000	25.509828
1810.000000	25.471362
1809.000000	25.442682
1808.000000	25.431997
1807.000000	25.386559
1806.000000	25.331561
1805.000000	25.302768
1804.000000	25.268127
1803.000000	25.235510
1802.000000	25.204581
1801.000000	25.147333
1800.000000	25.106618
1799.000000	25.056906
1798.000000	25.024514
1797.000000	25.004719
1796.000000	24.974914
1795.000000	24.923740
1794.000000	24.879539
1793.000000	24.843660
1792.000000	24.802833
1791.000000	24.762569
1790.000000	24.701047
1789.000000	24.650660
1788.000000	24.580703
1787.000000	24.497137
1786.000000	24.431791
1785.000000	24.377017
1784.000000	24.285128
1783.000000	24.219782
1782.000000	24.151175
1781.000000	24.058724
1780.000000	23.977069
1779.000000	23.888105
1778.000000	23.780132
1777.000000	23.670360
1776.000000	23.544505
1775.000000	23.408190
1774.000000	23.268838
1773.000000	23.124200
1772.000000	22.999694
1771.000000	22.851007
1770.000000	22.705582
1769.000000	22.598847
1768.000000	22.463769
1767.000000	22.360183
1766.000000	22.298099
1765.000000	22.240851
1764.000000	22.201823
1763.000000	22.195075
1762.000000	22.222855
1761.000000	22.299223
1760.000000	22.343537
1759.000000	22.403034
1758.000000	22.465681
1757.000000	22.511457
1756.000000	22.523491
1755.000000	22.542274
1754.000000	22.533276
1753.000000	22.510220
1752.000000	22.472879
1751.000000	22.417543
1750.000000	22.342975
1749.000000	22.268519
1748.000000	22.145250
1747.000000	22.015346
1746.000000	21.869471
1745.000000	21.687942
1744.000000	21.487968
1743.000000	21.269437
1742.000000	21.012777
1741.000000	20.739247
1740.000000	20.515542
1739.000000	20.284526
1738.000000	20.042038
1737.000000	19.880979
1736.000000	19.771207
1735.000000	19.706086
1734.000000	19.677069
1733.000000	19.712272
1732.000000	19.767833
1731.000000	19.851062
1730.000000	19.944526
1729.000000	20.060821
1728.000000	20.171268
1727.000000	20.271030
1726.000000	20.338287
1725.000000	20.384288
1724.000000	20.405320
1723.000000	20.423990
1722.000000	20.445472
1721.000000	20.443335
1720.000000	20.446260
1719.000000	20.463018
1718.000000	20.501371
1717.000000	20.531850
1716.000000	20.604507
1715.000000	20.651407
1714.000000	20.710792
1713.000000	20.758817
1712.000000	20.809767
1711.000000	20.813703
1710.000000	20.803918
1709.000000	20.785473
1708.000000	20.762754
1707.000000	20.726875
1706.000000	20.696846
1705.000000	20.624639
1704.000000	20.558956
1703.000000	20.441086
1702.000000	20.319167
1701.000000	20.167331
1700.000000	19.985015
1699.000000	19.845213
1698.000000	19.694839
1697.000000	19.642090
1696.000000	19.603288
1695.000000	19.658061
1694.000000	19.746351
1693.000000	19.918095
1692.000000	20.107609
1691.000000	20.249660
1690.000000	20.425790
1689.000000	20.531288
1688.000000	20.541635
1687.000000	20.589998
1686.000000	20.613055
1685.000000	20.712367
1684.000000	20.920214
1683.000000	21.209265
1682.000000	21.667922
1681.000000	22.225780
1680.000000	22.850782
1679.000000	23.456215
1678.000000	24.016434
1677.000000	24.537851
1676.000000	25.017428
1675.000000	25.449655
1674.000000	25.781783
1673.000000	26.094228
1672.000000	26.382042
1671.000000	26.630041
1670.000000	26.860382
1669.000000	27.026165
1668.000000	27.219615
1667.000000	27.369877
1666.000000	27.495170
1665.000000	27.610341
1664.000000	27.723936
1663.000000	27.798842
1662.000000	27.888819
1661.000000	27.949441
1660.000000	27.993080
1659.000000	28.064612
1658.000000	28.097453
1657.000000	28.159763
1656.000000	28.175509
1655.000000	28.191254
1654.000000	28.185743
1653.000000	28.173821
1652.000000	28.157063
1651.000000	28.137268
1650.000000	28.114549
1649.000000	28.088568
1648.000000	28.040093
1647.000000	28.001291
1646.000000	27.957314
1645.000000	27.899729
1644.000000	27.859802
1643.000000	27.802554
1642.000000	27.740020
1641.000000	27.688733
1640.000000	27.613490
1639.000000	27.543645
1638.000000	27.496182
1637.000000	27.438372
1636.000000	27.355368
1635.000000	27.282037
1634.000000	27.221752
1633.000000	27.128739
1632.000000	27.048884
1631.000000	26.974428
1630.000000	26.888163
1629.000000	26.784914
1628.000000	26.700448
1627.000000	26.620481
1626.000000	26.510822
1625.000000	26.418033
1624.000000	26.332667
1623.000000	26.228069
1622.000000	26.136855
1621.000000	26.053851
1620.000000	25.959263
1619.000000	25.851065
1618.000000	25.773123
1617.000000	25.683596
1616.000000	25.611277
1615.000000	25.523774
1614.000000	25.427724
1613.000000	25.361590
1612.000000	25.281398
1611.000000	25.193671
1610.000000	25.121914
1609.000000	25.036436
1608.000000	24.948596
1607.000000	24.855132
1606.000000	24.786188
1605.000000	24.709707
1604.000000	24.616468
1603.000000	24.533240
1602.000000	24.453273
1601.000000	24.377917
1600.000000	24.302111
1599.000000	24.233504
1598.000000	24.155786
1597.000000	24.088416
1596.000000	24.034992
1595.000000	23.974933
1594.000000	23.920384
1593.000000	23.857175
1592.000000	23.792954
1591.000000	23.759213
1590.000000	23.728733
1589.000000	23.687344
1588.000000	23.650790
1587.000000	23.610976
1586.000000	23.580833
1585.000000	23.567674
1584.000000	23.548442
1583.000000	23.531458
1582.000000	23.508964
1581.000000	23.504803
1580.000000	23.503566
1579.000000	23.503228
1578.000000	23.507390
1577.000000	23.527859
1576.000000	23.545067
1575.000000	23.560476
1574.000000	23.585220
1573.000000	23.613562
1572.000000	23.642018
1571.000000	23.679133
1570.000000	23.717261
1569.000000	23.765848
1568.000000	23.805776
1567.000000	23.848402
1566.000000	23.909474
1565.000000	23.961324
1564.000000	23.998551
1563.000000	24.035892
1562.000000	24.085042
1561.000000	24.130143
1560.000000	24.156686
1559.000000	24.183117
1558.000000	24.215059
1557.000000	24.240702
1556.000000	24.261622
1555.000000	24.261397
1554.000000	24.269945
1553.000000	24.297275
1552.000000	24.304586
1551.000000	24.302899
1550.000000	24.307960
1549.000000	24.293564
1548.000000	24.293451
1547.000000	24.300874
1546.000000	24.306498
1545.000000	24.320219
1544.000000	24.340127
1543.000000	24.355985
1542.000000	24.368132
1541.000000	24.383316
1540.000000	24.390851
1539.000000	24.401199
1538.000000	24.411546
1537.000000	24.401086
1536.000000	24.405585
1535.000000	24.423468
1534.000000	24.416720
1533.000000	24.415820
1532.000000	24.414470
1531.000000	24.402211
1530.000000	24.392988
1529.000000	24.362171
1528.000000	24.353511
1527.000000	24.350137
1526.000000	24.334616
1525.000000	24.313021
1524.000000	24.303911
1523.000000	24.275343
1522.000000	24.242951
1521.000000	24.238678
1520.000000	24.207748
1519.000000	24.172095
1518.000000	24.123170
1517.000000	24.095389
1516.000000	24.071883
1515.000000	24.036117
1514.000000	23.999339
1513.000000	23.970884
1512.000000	23.933543
1511.000000	23.896428
1510.000000	23.865498
1509.000000	23.833331
1508.000000	23.810725
1507.000000	23.765399
1506.000000	23.747403
1505.000000	23.713437
1504.000000	23.681270
1503.000000	23.656414
1502.000000	23.624697
1501.000000	23.607264
1500.000000	23.593543
1499.000000	23.571498
1498.000000	23.567224
1497.000000	23.563175
1496.000000	23.556764
1495.000000	23.546080
1494.000000	23.564075
1493.000000	23.574422
1492.000000	23.580833
1491.000000	23.573185
1490.000000	23.596242
1489.000000	23.619973
1488.000000	23.634482
1487.000000	23.644829
1486.000000	23.661475
1485.000000	23.678458
1484.000000	23.737731
1483.000000	23.758200
1482.000000	23.765174
1481.000000	23.824109
1480.000000	23.868197
1479.000000	23.902501
1478.000000	23.947939
1477.000000	23.999001
1476.000000	24.059623
1475.000000	24.119683
1474.000000	24.179293
1473.000000	24.235866
1472.000000	24.295026
1471.000000	24.349687
1470.000000	24.391189
1469.000000	24.457772
1468.000000	24.532677
1467.000000	24.593749
1466.000000	24.646723
1465.000000	24.702284
1464.000000	24.814080
1463.000000	24.893148
1462.000000	24.968728
1461.000000	25.089747
1460.000000	25.155543
1459.000000	25.292646
1458.000000	25.395219
1457.000000	25.514326
1456.000000	25.620499
1455.000000	25.741856
1454.000000	25.876259
1453.000000	26.036868
1452.000000	26.167334
1451.000000	26.267321
1450.000000	26.398125
1449.000000	26.489452
1448.000000	26.714844
1447.000000	26.850147
1446.000000	26.993323
1445.000000	27.118841
1444.000000	27.265166
1443.000000	27.394958
1442.000000	27.584922
1441.000000	27.712464
1440.000000	27.879709
1439.000000	28.033570
1438.000000	28.132207
1437.000000	28.306987
1436.000000	28.439141
1435.000000	28.587828
1434.000000	28.757660
1433.000000	28.902635
1432.000000	29.051997
1431.000000	29.200122
1430.000000	29.387611
1429.000000	29.607717
1428.000000	29.804992
1427.000000	30.010477
1426.000000	30.255664
1425.000000	30.494553
1424.000000	30.726356
1423.000000	30.968507
1422.000000	31.214257
1421.000000	31.475977
1420.000000	31.769190
1419.000000	32.003805
1418.000000	32.174311
1417.000000	32.459538
1416.000000	32.728457
1415.000000	33.005474
1414.000000	33.193863
1413.000000	33.397323
1412.000000	33.692111
1411.000000	33.998595
1410.000000	34.374811
1409.000000	34.718748
1408.000000	35.108686
1407.000000	35.476579
1406.000000	35.901271
1405.000000	36.256905
1404.000000	36.689469
1403.000000	37.076033
1402.000000	37.550099
1401.000000	37.812494
1400.000000	38.102220
1399.000000	38.289598
1398.000000	38.587759
1397.000000	38.829459
1396.000000	39.017624
1395.000000	39.161700
1394.000000	39.272034
1393.000000	39.450076
1392.000000	39.643751
1391.000000	39.845075
1390.000000	40.064619
1389.000000	40.392810
1388.000000	40.666790
1387.000000	40.987333
1386.000000	41.357026
1385.000000	41.802974
1384.000000	42.209333
1383.000000	42.556307
1382.000000	42.772476
1381.000000	42.894170
1380.000000	43.033185
1379.000000	43.104154
1378.000000	43.203129
1377.000000	43.334833
1376.000000	43.528058
1375.000000	43.792478
1374.000000	44.129442
1373.000000	44.516118
1372.000000	44.905381
1371.000000	45.276986
1370.000000	45.624747
1369.000000	45.962948
1368.000000	46.235691
1367.000000	46.473568
1366.000000	46.712456
1365.000000	46.924915
1364.000000	47.107905
1363.000000	47.314403
1362.000000	47.423725
1361.000000	47.467026
1360.000000	47.510890
1359.000000	47.665313
1358.000000	47.838743
1357.000000	48.096752
1356.000000	48.511996
1355.000000	49.010131
1354.000000	49.537847
1353.000000	50.100090
1352.000000	50.669532
1351.000000	51.208832
1350.000000	51.696620
1349.000000	52.137394
1348.000000	52.541728
1347.000000	52.892864
1346.000000	53.252097
1345.000000	53.612230
1344.000000	53.917814
1343.000000	54.207090
1342.000000	54.486581
1341.000000	54.759436
1340.000000	54.999000
1339.000000	55.242950
1338.000000	55.473854
1337.000000	55.686199
1336.000000	55.867278
1335.000000	56.039584
1334.000000	56.218076
1333.000000	56.407590
1332.000000	56.572810
1331.000000	56.720260
1330.000000	56.860399
1329.000000	56.993453
1328.000000	57.112222
1327.000000	57.230542
1326.000000	57.326368
1325.000000	57.429054
1324.000000	57.524429
1323.000000	57.619243
1322.000000	57.732726
1321.000000	57.819329
1320.000000	57.897159
1319.000000	57.980275
1318.000000	58.035049
1317.000000	58.101519
1316.000000	58.189584
1315.000000	58.265727
1314.000000	58.318139
1313.000000	58.375050
1312.000000	58.432297
1311.000000	58.482010
1310.000000	58.525199
1309.000000	58.571312
1308.000000	58.615176
1307.000000	58.640257
1306.000000	58.654091
1305.000000	58.665900
1304.000000	58.668937
1303.000000	58.666462
1302.000000	58.677260
1301.000000	58.685695
1300.000000	58.679284
1299.000000	58.678609
1298.000000	58.677372
1297.000000	58.672536
1296.000000	58.658590
1295.000000	58.643518
1294.000000	58.625298
1293.000000	58.588970
1292.000000	58.554891
1291.000000	58.528010
1290.000000	58.494831
1289.000000	58.454904
1288.000000	58.398444
1287.000000	58.342770
1286.000000	58.289121
1285.000000	58.212754
1284.000000	58.142684
1283.000000	58.075988
1282.000000	58.004907
1281.000000	57.946534
1280.000000	57.892435
1279.000000	57.835188
1278.000000	57.783901
1277.000000	57.727778
1276.000000	57.676378
1275.000000	57.629365
1274.000000	57.595511
1273.000000	57.569755
1272.000000	57.545237
1271.000000	57.523305
1270.000000	57.495412
1269.000000	57.443900
1268.000000	57.415220
1267.000000	57.391601
1266.000000	57.349312
1265.000000	57.307810
1264.000000	57.270807
1263.000000	57.236503
1262.000000	57.193089
1261.000000	57.149900
1260.000000	57.118296
1259.000000	57.082642
1258.000000	57.025844
1257.000000	56.979169
1256.000000	56.916972
1255.000000	56.856463
1254.000000	56.770535
1253.000000	56.695291
1252.000000	56.640068
1251.000000	56.554702
1250.000000	56.464950
1249.000000	56.380035
1248.000000	56.269588
1247.000000	56.165664
1246.000000	56.041834
1245.000000	55.920702
1244.000000	55.777526
1243.000000	55.622991
1242.000000	55.502197
1241.000000	55.366331
1240.000000	55.224168
1239.000000	55.079192
1238.000000	54.929043
1237.000000	54.775295
1236.000000	54.612212
1235.000000	54.461163
1234.000000	54.307190
1233.000000	54.135109
1232.000000	53.976412
1231.000000	53.781499
1230.000000	53.604244
1229.000000	53.429127
1228.000000	53.254684
1227.000000	53.064832
1226.000000	52.863734
1225.000000	52.693902
1224.000000	52.513273
1223.000000	52.337593
1222.000000	52.158089
1221.000000	51.980722
1220.000000	51.812577
1219.000000	51.638809
1218.000000	51.478088
1217.000000	51.347959
1216.000000	51.194885
1215.000000	51.070155
1214.000000	50.955996
1213.000000	50.813833
1212.000000	50.681792
1211.000000	50.548963
1210.000000	50.421983
1209.000000	50.326832
1208.000000	50.234156
1207.000000	50.184331
1206.000000	50.115161
1205.000000	50.060838
1204.000000	50.037556
1203.000000	49.960963
1202.000000	49.927784
1201.000000	49.893256
1200.000000	49.785058
1199.000000	49.680797
1198.000000	49.525475
1197.000000	49.324264
1196.000000	49.066817
1195.000000	48.747399
1194.000000	48.383329
1193.000000	47.945254
1192.000000	47.471187
1191.000000	47.013205
1190.000000	46.596161
1189.000000	46.285403
1188.000000	46.063272
1187.000000	46.018059
1186.000000	46.105787
1185.000000	46.311496
1184.000000	46.641712
1183.000000	47.094859
1182.000000	47.623923
1181.000000	48.155800
1180.000000	48.680253
1179.000000	49.154882
1178.000000	49.533010
1177.000000	49.900004
1176.000000	50.213124
1175.000000	50.519833
1174.000000	50.885477
1173.000000	51.182176
1172.000000	51.543771
1171.000000	51.887821
1170.000000	52.243905
1169.000000	52.614497
1168.000000	52.986327
1167.000000	53.320367
1166.000000	53.666666
1165.000000	54.053567
1164.000000	54.434620
1163.000000	54.803525
1162.000000	55.156235
1161.000000	55.481839
1160.000000	55.801370
1159.000000	56.109879
1158.000000	56.361477
1157.000000	56.609251
1156.000000	56.771435
1155.000000	56.932943
1154.000000	56.988279
1153.000000	57.021346
1152.000000	57.027644
1151.000000	56.992665
1150.000000	56.997389
1149.000000	56.959149
1148.000000	57.002900
1147.000000	57.075894
1146.000000	57.230542
1145.000000	57.425905
1144.000000	57.648485
1143.000000	57.942485
1142.000000	58.205330
1141.000000	58.499105
1140.000000	58.794117
1139.000000	59.112636
1138.000000	59.443301
1137.000000	59.778353
1136.000000	60.115992
1135.000000	60.428325
1134.000000	60.651355
1133.000000	60.913188
1132.000000	61.145441
1131.000000	61.347440
1130.000000	61.546514
1129.000000	61.682266
1128.000000	61.787989
1127.000000	61.892925
1126.000000	61.968506
1125.000000	62.033627
1124.000000	62.088400
1123.000000	62.132376
1122.000000	62.158132
1121.000000	62.171741
1120.000000	62.187712
1119.000000	62.196260
1118.000000	62.194573
1117.000000	62.179614
1116.000000	62.166905
1115.000000	62.132039
1114.000000	62.099647
1113.000000	62.063094
1112.000000	62.036888
1111.000000	62.013157
1110.000000	61.985376
1109.000000	61.946124
1108.000000	61.919918
1107.000000	61.872680
1106.000000	61.838376
1105.000000	61.807334
1104.000000	61.766395
1103.000000	61.719607
1102.000000	61.668208
1101.000000	61.640765
1100.000000	61.585766
1099.000000	61.528181
1098.000000	61.465197
1097.000000	61.413010
1096.000000	61.355650
1095.000000	61.293791
1094.000000	61.246665
1093.000000	61.186156
1092.000000	61.105739
1091.000000	61.047254
1090.000000	60.992368
1089.000000	60.933095
1088.000000	60.871911
1087.000000	60.802291
1086.000000	60.731097
1085.000000	60.687458
1084.000000	60.615477
1083.000000	60.555305
1082.000000	60.490521
1081.000000	60.433723
1080.000000	60.378950
1079.000000	60.328787
1078.000000	60.269178
1077.000000	60.214742
1076.000000	60.171440
1075.000000	60.085737
1074.000000	60.028489
1073.000000	59.990924
1072.000000	59.918267
1071.000000	59.847186
1070.000000	59.793199
1069.000000	59.745399
1068.000000	59.671393
1067.000000	59.613695
1066.000000	59.544301
1065.000000	59.470519
1064.000000	59.407086
1063.000000	59.333192
1062.000000	59.256374
1061.000000	59.180569
1060.000000	59.105213
1059.000000	59.040992
1058.000000	58.960237
1057.000000	58.869586
1056.000000	58.810313
1055.000000	58.733270
1054.000000	58.666800
1053.000000	58.592119
1052.000000	58.525199
1051.000000	58.479310
1050.000000	58.402268
1049.000000	58.346482
1048.000000	58.303518
1047.000000	58.226925
1046.000000	58.178562
1045.000000	58.133236
1044.000000	58.071602
1043.000000	58.014017
1042.000000	57.966666
1041.000000	57.931800
1040.000000	57.882425
1039.000000	57.829564
1038.000000	57.779289
1037.000000	57.739475
1036.000000	57.688525
1035.000000	57.632177
1034.000000	57.588313
1033.000000	57.541750
1032.000000	57.496199
1031.000000	57.437602
1030.000000	57.374730
1029.000000	57.309047
1028.000000	57.267545
1027.000000	57.207036
1026.000000	57.141577
1025.000000	57.075782
1024.000000	57.021458
1023.000000	56.975457
1022.000000	56.904825
1021.000000	56.843754
1020.000000	56.777845
1019.000000	56.704964
1018.000000	56.659526
1017.000000	56.618361
1016.000000	56.561001
1015.000000	56.517362
1014.000000	56.489019
1013.000000	56.456852
1012.000000	56.427160
1011.000000	56.409839
1010.000000	56.397580
1009.000000	56.396905
1008.000000	56.383521
1007.000000	56.392069
1006.000000	56.399942
1005.000000	56.387570
1004.000000	56.379585
1003.000000	56.393194
1002.000000	56.392406
1001.000000	56.389707
1000.000000	56.387458
999.000000	56.376436
998.000000	56.381947
997.000000	56.392181
996.000000	56.411527
995.000000	56.423898
994.000000	56.436383
993.000000	56.462026
992.000000	56.480022
991.000000	56.493518
990.000000	56.495880
989.000000	56.520736
988.000000	56.552790
987.000000	56.561001
986.000000	56.596767
985.000000	56.632195
984.000000	56.665824
983.000000	56.679433
982.000000	56.718573
981.000000	56.739493
980.000000	56.780095
979.000000	56.795166
978.000000	56.836218
977.000000	56.868047
976.000000	56.900889
975.000000	56.938454
974.000000	56.998739
973.000000	57.011223
972.000000	57.050363
971.000000	57.101538
970.000000	57.141915
969.000000	57.179480
968.000000	57.232679
967.000000	57.288465
966.000000	57.357972
965.000000	57.405660
964.000000	57.477304
963.000000	57.541525
962.000000	57.616881
961.000000	57.713831
960.000000	57.806282
959.000000	57.872753
958.000000	57.957219
957.000000	58.047533
956.000000	58.123789
955.000000	58.240084
954.000000	58.330061
953.000000	58.427124
952.000000	58.504729
951.000000	58.624848
950.000000	58.734058
949.000000	58.824035
948.000000	58.921547
947.000000	59.024458
946.000000	59.133556
945.000000	59.232868
944.000000	59.371882
943.000000	59.481429
942.000000	59.577480
941.000000	59.694112
940.000000	59.820417
939.000000	59.941099
938.000000	60.055595
937.000000	60.165704
936.000000	60.280312
935.000000	60.391659
934.000000	60.551031
933.000000	60.657878
932.000000	60.801729
931.000000	60.953003
930.000000	61.061538
929.000000	61.189530
928.000000	61.308187
927.000000	61.468346
926.000000	61.578905
925.000000	61.712971
924.000000	61.842313
923.000000	61.974354
922.000000	62.124841
921.000000	62.281851
920.000000	62.462254
919.000000	62.579450
918.000000	62.726112
917.000000	62.876486
916.000000	63.040132
915.000000	63.168124
914.000000	63.331995
913.000000	63.468197
912.000000	63.616097
911.000000	63.745776
910.000000	63.894463
909.000000	64.048661
908.000000	64.222542
907.000000	64.375503
906.000000	64.548371
905.000000	64.698183
904.000000	64.861041
903.000000	65.019176
902.000000	65.177648
901.000000	65.299679
900.000000	65.449491
899.000000	65.595703
898.000000	65.765985
897.000000	65.875419
896.000000	66.001837
895.000000	66.114083
894.000000	66.177180
893.000000	66.289988
892.000000	66.398073
891.000000	66.499635
890.000000	66.590849
889.000000	66.595910
888.000000	66.635163
887.000000	66.624365
886.000000	66.668117
885.000000	66.738524
884.000000	66.752695
883.000000	66.698034
882.000000	66.686337
881.000000	66.594560
880.000000	66.563743
879.000000	66.440587
878.000000	66.388401
877.000000	66.231278
876.000000	66.135228
875.000000	65.929181
874.000000	65.786567
873.000000	65.480758
872.000000	65.100492
871.000000	64.702569
870.000000	64.355483
869.000000	63.902449
868.000000	63.607549
867.000000	63.578869
866.000000	63.732055
865.000000	63.932479
864.000000	64.117044
863.000000	64.265169
862.000000	64.402046
861.000000	64.537124
860.000000	64.708755
859.000000	64.858454
858.000000	66.374567
857.000000	66.175000
856.000000	66.477500
855.000000	66.471200
854.000000	66.066200
853.000000	66.699400
852.000000	67.011400
851.000000	67.470000
850.000000	67.443000
849.000000	67.747700
848.000000	67.404400
847.000000	67.318200
846.000000	67.761600
845.000000	67.466400
844.000000	67.257200
843.000000	67.859900
842.000000	67.962600
841.000000	68.012600
840.000000	67.950800
839.000000	68.044800
838.000000	68.078000
837.000000	68.519600
836.000000	68.578100
835.000000	68.403300
834.000000	68.456100
833.000000	68.576600
832.000000	68.734200
831.000000	68.925000
830.000000	69.021700
829.000000	69.061900
828.000000	69.253800
827.000000	69.422700
826.000000	69.531600
825.000000	69.922500
824.000000	70.155200
823.000000	70.247000
822.000000	70.627900
821.000000	70.841100
820.000000	71.137500
819.000000	71.571000
818.000000	72.028500
817.000000	72.309400
816.000000	72.624400
815.000000	73.119800
814.000000	73.574400
813.000000	74.164900
812.000000	74.621600
811.000000	75.072000
810.000000	75.549600
809.000000	76.119500
808.000000	76.634000
807.000000	77.253200
806.000000	77.673900
805.000000	78.374400
804.000000	79.003400
803.000000	79.435900
802.000000	79.866900
801.000000	80.564100
800.000000	81.177900
799.000000	81.795900
798.000000	82.400300
797.000000	82.880500
796.000000	83.579900
795.000000	84.139800
794.000000	84.650300
793.000000	85.144800
792.000000	85.664300
791.000000	86.198200
790.000000	86.795300
789.000000	87.266500
788.000000	87.680700
787.000000	88.226900
786.000000	88.648900
785.000000	89.091500
784.000000	89.684200
783.000000	90.075800
782.000000	90.402000
781.000000	90.815300
780.000000	91.316600
779.000000	91.672500
778.000000	91.970200
777.000000	92.291400
776.000000	92.486300
775.000000	92.780900
774.000000	92.970600
773.000000	93.252100
772.000000	93.465000
771.000000	93.682300
770.000000	93.993800
769.000000	94.106600
768.000000	94.169000
767.000000	94.337700
766.000000	94.442400
765.000000	94.632300
764.000000	94.725500
763.000000	94.799700
762.000000	94.983800
761.000000	95.050300
760.000000	95.107400
759.000000	95.184300
758.000000	95.182600
757.000000	95.146900
756.000000	95.154400
755.000000	95.184700
754.000000	95.161200
753.000000	95.148100
752.000000	95.134700
751.000000	95.092900
750.000000	95.054900
749.000000	95.000400
748.000000	95.020200
747.000000	95.022700
746.000000	94.903800
745.000000	94.818800
744.000000	94.740700
743.000000	94.633800
742.000000	94.547700
741.000000	94.470700
740.000000	94.344900
739.000000	94.223900
738.000000	94.162900
737.000000	94.031100
736.000000	93.900900
735.000000	93.786700
734.000000	93.682100
733.000000	93.598200
732.000000	93.526300
731.000000	93.402000
730.000000	93.302800
729.000000	93.192900
728.000000	93.095000
727.000000	92.996300
726.000000	92.850000
725.000000	92.706600
724.000000	92.687900
723.000000	92.536400
722.000000	92.307200
721.000000	92.211800
720.000000	92.090400
719.000000	91.980800
718.000000	91.936200
717.000000	91.852600
716.000000	91.764100
715.000000	91.584500
714.000000	91.493400
713.000000	91.436200
712.000000	91.277300
711.000000	91.222900
710.000000	91.143300
709.000000	91.026900
708.000000	90.854200
707.000000	90.782300
706.000000	90.776000
705.000000	90.608000
704.000000	90.439900
703.000000	90.251900
702.000000	90.015800
701.000000	89.792800
700.000000	89.533700
699.000000	89.358700
698.000000	89.132500
697.000000	88.787900
696.000000	88.475200
695.000000	88.080300
694.000000	87.674600
693.000000	87.281000
692.000000	86.782600
691.000000	86.259800
690.000000	85.758900
689.000000	85.218800
688.000000	84.618000
687.000000	83.898300
686.000000	83.216600
685.000000	82.491300
684.000000	81.769300
683.000000	81.015000
682.000000	80.183300
681.000000	79.463200
680.000000	78.754100
679.000000	77.978200
678.000000	77.305600
677.000000	76.589500
676.000000	75.923900
675.000000	75.300800
674.000000	74.682900
673.000000	74.167700
672.000000	73.653500
671.000000	73.173100
670.000000	72.748100
669.000000	72.338600
668.000000	71.949300
667.000000	71.624600
666.000000	71.361000
665.000000	71.095600
664.000000	70.908800
663.000000	70.672900
662.000000	70.468700
661.000000	70.241000
660.000000	70.057300
659.000000	69.842700
658.000000	69.663200
657.000000	69.406400
656.000000	69.155200
655.000000	68.889500
654.000000	68.628300
653.000000	68.354200
652.000000	67.963000
651.000000	67.625200
650.000000	67.261100
649.000000	66.869400
648.000000	66.461700
647.000000	65.973700
646.000000	65.581800
645.000000	65.079400
644.000000	64.611300
643.000000	64.076300
642.000000	63.556800
641.000000	63.078400
640.000000	62.591300
639.000000	62.081400
638.000000	61.605700
637.000000	61.182500
636.000000	60.781300
635.000000	60.351700
634.000000	60.010100
633.000000	59.677100
632.000000	59.399900
631.000000	59.112900
630.000000	58.971000
629.000000	58.852400
628.000000	58.810800
627.000000	58.827600
626.000000	58.821300
625.000000	58.978400
624.000000	59.165200
623.000000	59.434900
622.000000	59.721800
621.000000	60.081800
620.000000	60.432600
619.000000	60.858900
618.000000	61.306800
617.000000	61.710100
616.000000	62.206100
615.000000	62.697300
614.000000	63.228300
613.000000	63.743100
612.000000	64.334700
611.000000	64.828900
610.000000	65.359300
609.000000	65.908100
608.000000	66.486800
607.000000	67.066100
606.000000	67.605000
605.000000	68.177900
604.000000	68.783400
603.000000	69.376900
602.000000	69.963000
601.000000	70.565300
600.000000	71.036400
599.000000	71.568400
598.000000	72.084100
597.000000	72.519400
596.000000	72.986900
595.000000	73.316200
594.000000	73.679000
593.000000	74.018200
592.000000	74.460400
591.000000	74.773600
590.000000	75.181200
589.000000	75.509800
588.000000	75.896400
587.000000	76.220600
586.000000	76.470600
585.000000	76.753600
584.000000	76.943400
583.000000	77.065200
582.000000	77.153500
581.000000	77.230300
580.000000	77.286800
579.000000	77.347400
578.000000	77.347200
577.000000	77.357300
576.000000	77.410400
575.000000	77.319600
574.000000	77.256400
573.000000	77.150400
572.000000	77.009300
571.000000	76.809800
570.000000	76.664600
569.000000	76.520100
568.000000	76.371200
567.000000	76.227100
566.000000	76.104600
565.000000	75.940800
564.000000	75.770200
563.000000	75.535400
562.000000	75.261300
561.000000	75.000900
560.000000	74.654700
559.000000	74.241600
558.000000	73.932700
557.000000	73.521700
556.000000	73.165700
555.000000	72.791000
554.000000	72.399700
553.000000	71.949800
552.000000	71.472700
551.000000	71.035900
550.000000	70.496900
549.000000	69.994300
548.000000	69.464500
547.000000	68.907100
546.000000	68.396900
545.000000	67.849800
544.000000	67.301000
543.000000	66.657200
542.000000	66.046500
541.000000	65.394900
540.000000	64.709700
539.000000	63.996800
538.000000	63.265800
537.000000	62.526200
536.000000	61.737600
535.000000	60.902900
534.000000	60.086800
533.000000	59.220700
532.000000	58.351600
531.000000	57.445400
530.000000	56.554100
529.000000	55.632800
528.000000	54.706400
527.000000	53.772800
526.000000	52.842500
525.000000	51.909100
524.000000	50.977800
523.000000	50.044900
522.000000	49.107700
521.000000	48.180000
520.000000	47.255700
519.000000	46.358000
518.000000	45.501900
517.000000	44.649700
516.000000	43.807100
515.000000	42.991900
514.000000	42.244300
513.000000	41.522300
512.000000	40.832600
511.000000	40.221800
510.000000	39.649200
509.000000	39.120200
508.000000	38.628400
507.000000	38.189600
506.000000	37.763700
505.000000	37.380000
504.000000	37.036100
503.000000	36.694600
502.000000	36.389700
501.000000	36.069800
500.000000	35.788900
499.000000	35.535000
498.000000	35.260300
497.000000	34.947200
496.000000	34.629500
495.000000	34.283700
494.000000	33.949300
493.000000	33.599600
492.000000	33.213200
491.000000	32.793900
490.000000	32.337100
489.000000	31.896900
488.000000	31.428100
487.000000	30.969500
486.000000	30.490800
485.000000	30.045800
484.000000	29.608700
483.000000	29.173700
482.000000	28.767700
481.000000	28.385400
480.000000	28.017300
479.000000	27.684000
478.000000	27.392200
477.000000	27.118100
476.000000	26.890500
475.000000	26.709300
474.000000	26.572000
473.000000	26.488700
472.000000	26.411100
471.000000	26.371100
470.000000	26.365900
469.000000	26.383400
468.000000	26.427100
467.000000	26.483600
466.000000	26.552000
465.000000	26.639000
464.000000	26.737400
463.000000	26.820900
462.000000	26.907000
461.000000	27.013500
460.000000	27.089000
459.000000	27.163300
458.000000	27.234300
457.000000	27.280500
456.000000	27.311600
455.000000	27.330100
454.000000	27.340800
453.000000	27.329900
452.000000	27.310900
451.000000	27.246100
450.000000	27.168400
449.000000	27.088900
448.000000	27.016300
447.000000	26.936700
446.000000	26.802100
445.000000	26.664600
444.000000	26.506700
443.000000	26.330800
442.000000	26.149700
441.000000	25.958000
440.000000	25.751800
439.000000	25.545300
438.000000	25.300600
437.000000	25.039800
436.000000	24.820100
435.000000	24.545100
434.000000	24.232800
433.000000	23.930400
432.000000	23.624600
431.000000	23.326800
430.000000	22.980100
429.000000	22.587000
428.000000	22.216600
427.000000	21.852700
426.000000	21.443800
425.000000	21.016000
424.000000	20.586000
423.000000	20.127300
422.000000	19.637300
421.000000	19.148000
420.000000	18.659700
419.000000	18.159300
418.000000	17.643500
417.000000	17.120000
416.000000	16.596800
415.000000	16.077200
414.000000	15.565800
413.000000	15.061800
412.000000	14.542700
411.000000	14.023500
410.000000	13.542900
409.000000	13.078700
408.000000	12.619500
407.000000	12.167400
406.000000	11.742400
405.000000	11.348200
404.000000	10.954000
403.000000	10.548800
402.000000	10.191300
401.000000	9.858200
400.000000	9.527800
399.000000	9.219100
398.000000	8.943500
397.000000	8.686000
396.000000	8.431200
395.000000	8.214900
394.000000	8.010800
393.000000	7.798100
392.000000	7.615600
391.000000	7.451300
390.000000	7.285600
389.000000	7.140600
388.000000	7.015800
387.000000	6.894300
386.000000	6.756000
385.000000	6.670700
384.000000	6.598100
383.000000	6.490700
382.000000	6.424300
381.000000	6.362800
380.000000	6.278500
379.000000	6.230100
378.000000	6.154700
377.000000	6.097000
376.000000	5.955600
375.000000	5.644200
374.000000	5.600000
373.000000	5.773400
372.000000	5.695800
371.000000	5.638200
370.000000	5.642700
369.000000	5.675100
368.000000	5.518600
367.000000	5.535400
366.000000	5.665500
365.000000	5.535100
364.000000	5.585200
363.000000	5.509200
362.000000	5.574700
361.000000	5.543200
360.000000	5.378600
359.000000	5.523600
358.000000	5.570500
357.000000	5.456600
356.000000	5.422200
355.000000	5.423200
354.000000	5.471200
353.000000	5.382700
352.000000	5.310300
351.000000	5.470900
350.000000	5.561000
349.000000	5.215400
348.000000	5.243800
347.000000	5.249600
346.000000	5.143900
345.000000	5.166300
344.000000	5.433100
343.000000	5.257100
342.000000	5.125000
341.000000	5.251700
340.000000	5.177400
339.000000	5.178500
338.000000	5.241200
337.000000	5.319000
336.000000	5.355600
335.000000	5.195900
334.000000	5.228700
333.000000	5.326400
332.000000	5.371400
331.000000	5.436500
330.000000	5.177500
329.000000	5.319800
328.000000	5.133800
327.000000	5.440500
326.000000	5.223800
325.000000	5.355000
324.000000	5.765300
323.000000	5.759800
322.000000	5.883000
321.000000	5.631500
320.000000	5.507600
319.000000	5.573600
318.000000	5.384200
317.000000	6.416000
316.000000	5.128100
315.000000	4.954700
314.000000	4.917600
313.000000	5.019200
312.000000	4.962200
311.000000	4.957200
310.000000	4.916600
309.000000	4.921000
308.000000	4.916500
307.000000	5.003700
306.000000	4.968400
305.000000	5.064300
304.000000	4.982100
303.000000	4.957700
302.000000	5.063500
301.000000	5.010800
300.000000	4.927100
299.000000	5.056800
298.000000	5.018800
297.000000	5.057500
296.000000	5.046000
295.000000	4.980700
294.000000	5.049300
293.000000	5.100900
292.000000	5.115300
291.000000	5.019300
290.000000	5.118100
289.000000	5.118100
288.000000	5.013000
287.000000	5.057900
286.000000	5.046000
285.000000	5.069400
284.000000	5.097600
283.000000	5.078600
282.000000	5.068400
281.000000	5.110000
280.000000	5.160500
279.000000	5.218700
278.000000	5.099000
277.000000	5.185300
276.000000	5.145500
275.000000	5.190200
274.000000	5.217800
273.000000	5.194600
272.000000	5.208000
271.000000	5.192100
270.000000	5.260600
269.000000	5.304500
268.000000	5.279100
267.000000	5.335700
266.000000	5.274100
265.000000	5.296000
264.000000	5.359700
263.000000	5.362000
262.000000	5.418800
261.000000	5.485000
260.000000	5.373100
259.000000	5.422900
258.000000	5.462900
257.000000	5.503700
256.000000	5.515000
255.000000	5.514000
254.000000	5.506500
253.000000	5.530200
252.000000	5.494800
251.000000	5.577400
250.000000	5.611200
