PE UV       SUBTECH     SPECTRUM    ASCII       PEDS        4.00        
   -1
CICIMAUCR0223-1.ASC
24/06/14
11:37:32.00
24/06/14
11:37:32.00
Vinicio Soto Monge
C. resplendens. Sex M. Ventral 
250,000000
1
Lambda 1050
1050L1511233
PerkinElmer UV WinLab 6.3.2.0749 / 2.02.05 Lambda 900 UV/VIS/NIR, Aug  7 2015 09:38:08

0
0
3350/servo 860,8/2
0
0
UV/VIS
1
1
1
DoubleDePol,CommonBeamDepol,RBeamAtt,SBeamAtt,60mm sphere, WB InGaAs Detector
0
0
0
0
Program
Program
3350/servo 860,8/2
3350/0,2 860,8/0,2
3350/0,2 860,8/0,2
0
15.00
 
 
 
0
 
860,8
319,2
860,8
Front
100
on
S:100 R:100
0
0
0
0
 
0
 
 
 
0
 
 
0
0
0
0
0
 
 
 
 
0
0


0
0
#HDR
-1
-1
#GR
nm
%R
1.0
0.0
2500,000000
-1,000000
2251
8
54,638900
4,157900
#DATA
2482.000000	6.284979
2481.000000	6.443700
2480.000000	6.389013
2479.000000	6.380072
2478.000000	6.375892
2477.000000	6.393425
2476.000000	6.313774
2475.000000	6.293455
2474.000000	6.327591
2473.000000	6.371945
2472.000000	6.324688
2471.000000	6.323179
2470.000000	6.389129
2469.000000	6.371945
2468.000000	6.392961
2467.000000	6.370551
2466.000000	6.364514
2465.000000	6.384368
2464.000000	6.386691
2463.000000	6.394586
2462.000000	6.401669
2461.000000	6.390987
2460.000000	6.437430
2459.000000	6.449738
2458.000000	6.495717
2457.000000	6.493046
2456.000000	6.506167
2455.000000	6.521261
2454.000000	6.576761
2453.000000	6.599751
2452.000000	6.598706
2451.000000	6.643059
2450.000000	6.657108
2449.000000	6.709125
2448.000000	6.745932
2447.000000	6.726309
2446.000000	6.782622
2445.000000	6.819429
2444.000000	6.861925
2443.000000	6.904885
2442.000000	6.924043
2441.000000	6.940414
2440.000000	7.001488
2439.000000	7.033650
2438.000000	7.069644
2437.000000	7.089034
2436.000000	7.131298
2435.000000	7.137219
2434.000000	7.154171
2433.000000	7.204330
2432.000000	7.223836
2431.000000	7.255534
2430.000000	7.290018
2429.000000	7.297217
2428.000000	7.329379
2427.000000	7.346447
2426.000000	7.376520
2425.000000	7.402412
2424.000000	7.423195
2423.000000	7.427375
2422.000000	7.437593
2421.000000	7.459538
2420.000000	7.471381
2419.000000	7.508652
2418.000000	7.524559
2417.000000	7.531990
2416.000000	7.555211
2415.000000	7.582149
2414.000000	7.583774
2413.000000	7.625341
2412.000000	7.630334
2411.000000	7.633121
2410.000000	7.644035
2409.000000	7.661567
2408.000000	7.683280
2407.000000	7.707314
2406.000000	7.726124
2405.000000	7.723105
2404.000000	7.731000
2403.000000	7.769549
2402.000000	7.811928
2401.000000	7.832712
2400.000000	7.831086
2399.000000	7.863016
2398.000000	7.900403
2397.000000	7.913408
2396.000000	7.926063
2395.000000	7.926412
2394.000000	7.943364
2393.000000	7.968211
2392.000000	7.982725
2391.000000	7.983421
2390.000000	8.025453
2389.000000	8.047165
2388.000000	8.039850
2387.000000	8.052971
2386.000000	8.066904
2385.000000	8.079095
2384.000000	8.088268
2383.000000	8.089080
2382.000000	8.089545
2381.000000	8.083507
2380.000000	8.085829
2379.000000	8.083972
2378.000000	8.078747
2377.000000	8.079792
2376.000000	8.069806
2375.000000	8.060866
2374.000000	8.070387
2373.000000	8.079560
2372.000000	8.080488
2371.000000	8.059357
2370.000000	8.042172
2369.000000	8.038341
2368.000000	8.028239
2367.000000	8.009198
2366.000000	7.986672
2365.000000	7.969604
2364.000000	7.931056
2363.000000	7.911434
2362.000000	7.902261
2361.000000	7.869635
2360.000000	7.850593
2359.000000	7.836195
2358.000000	7.811116
2357.000000	7.786268
2356.000000	7.758054
2355.000000	7.744933
2354.000000	7.750158
2353.000000	7.738547
2352.000000	7.733323
2351.000000	7.737619
2350.000000	7.726820
2349.000000	7.734948
2348.000000	7.749113
2347.000000	7.765833
2346.000000	7.790216
2345.000000	7.805891
2344.000000	7.830274
2343.000000	7.856630
2342.000000	7.872886
2341.000000	7.892972
2340.000000	7.910621
2339.000000	7.924786
2338.000000	7.929547
2337.000000	7.940577
2336.000000	7.935933
2335.000000	7.939416
2334.000000	7.939532
2333.000000	7.938835
2332.000000	7.931172
2331.000000	7.917239
2330.000000	7.898081
2329.000000	7.876253
2328.000000	7.859533
2327.000000	7.836776
2326.000000	7.809258
2325.000000	7.768852
2324.000000	7.724963
2323.000000	7.693381
2322.000000	7.656923
2321.000000	7.616053
2320.000000	7.582381
2319.000000	7.524443
2318.000000	7.486475
2317.000000	7.435851
2316.000000	7.388131
2315.000000	7.355272
2314.000000	7.308364
2313.000000	7.271209
2312.000000	7.205259
2311.000000	7.164853
2310.000000	7.130949
2309.000000	7.102735
2308.000000	7.088105
2307.000000	7.075914
2306.000000	7.042242
2305.000000	7.025406
2304.000000	7.044564
2303.000000	7.058729
2302.000000	7.072430
2301.000000	7.101922
2300.000000	7.120848
2299.000000	7.145114
2298.000000	7.180644
2297.000000	7.207465
2296.000000	7.285722
2295.000000	7.309525
2294.000000	7.339481
2293.000000	7.380816
2292.000000	7.431671
2291.000000	7.446650
2290.000000	7.459421
2289.000000	7.487868
2288.000000	7.476141
2287.000000	7.504588
2286.000000	7.493790
2285.000000	7.469059
2284.000000	7.463718
2283.000000	7.448391
2282.000000	7.429814
2281.000000	7.421222
2280.000000	7.398696
2279.000000	7.359219
2278.000000	7.337159
2277.000000	7.332050
2276.000000	7.300004
2275.000000	7.292341
2274.000000	7.270628
2273.000000	7.256115
2272.000000	7.243691
2271.000000	7.227087
2270.000000	7.254373
2269.000000	7.250890
2268.000000	7.273067
2267.000000	7.311963
2266.000000	7.365257
2265.000000	7.402528
2264.000000	7.451874
2263.000000	7.528506
2262.000000	7.617910
2261.000000	7.689433
2260.000000	7.796950
2259.000000	7.876369
2258.000000	7.983537
2257.000000	8.118921
2256.000000	8.238861
2255.000000	8.403620
2254.000000	8.504983
2253.000000	8.634212
2252.000000	8.754385
2251.000000	8.879899
2250.000000	9.007386
2249.000000	9.122102
2248.000000	9.234728
2247.000000	9.328892
2246.000000	9.433623
2245.000000	9.540675
2244.000000	9.617075
2243.000000	9.710542
2242.000000	9.792283
2241.000000	9.856840
2240.000000	9.931846
2239.000000	9.995706
2238.000000	10.059798
2237.000000	10.102294
2236.000000	10.138752
2235.000000	10.184615
2234.000000	10.224905
2233.000000	10.272394
2232.000000	10.302350
2231.000000	10.326617
2230.000000	10.349490
2229.000000	10.351812
2228.000000	10.373989
2227.000000	10.388271
2226.000000	10.394889
2225.000000	10.408938
2224.000000	10.429257
2223.000000	10.409170
2222.000000	10.392102
2221.000000	10.395237
2220.000000	10.374337
2219.000000	10.351000
2218.000000	10.313961
2217.000000	10.324643
2216.000000	10.334744
2215.000000	10.304092
2214.000000	10.299447
2213.000000	10.251030
2212.000000	10.257300
2211.000000	10.235587
2210.000000	10.233846
2209.000000	10.199129
2208.000000	10.188563
2207.000000	10.185660
2206.000000	10.184848
2205.000000	10.165109
2204.000000	10.154891
2203.000000	10.137823
2202.000000	10.143513
2201.000000	10.134572
2200.000000	10.102642
2199.000000	10.114137
2198.000000	10.095908
2197.000000	10.079188
2196.000000	10.076750
2195.000000	10.075009
2194.000000	10.082207
2193.000000	10.071061
2192.000000	10.074544
2191.000000	10.051787
2190.000000	10.065604
2189.000000	10.045749
2188.000000	10.032280
2187.000000	10.029494
2186.000000	10.010684
2185.000000	10.014051
2184.000000	10.004879
2183.000000	10.006272
2182.000000	10.003718
2181.000000	9.983747
2180.000000	9.972252
2179.000000	9.955765
2178.000000	9.943341
2177.000000	9.947173
2176.000000	9.954952
2175.000000	9.942412
2174.000000	9.928015
2173.000000	9.953326
2172.000000	9.937187
2171.000000	9.932194
2170.000000	9.931962
2169.000000	9.950075
2168.000000	9.946824
2167.000000	9.942528
2166.000000	9.983050
2165.000000	9.983399
2164.000000	9.990713
2163.000000	10.000118
2162.000000	10.011265
2161.000000	10.023688
2160.000000	10.057012
2159.000000	10.077679
2158.000000	10.060727
2157.000000	10.095444
2156.000000	10.115647
2155.000000	10.131786
2154.000000	10.166502
2153.000000	10.175211
2152.000000	10.200638
2151.000000	10.228621
2150.000000	10.240696
2149.000000	10.277619
2148.000000	10.298286
2147.000000	10.329636
2146.000000	10.347284
2145.000000	10.386181
2144.000000	10.382349
2143.000000	10.403945
2142.000000	10.421942
2141.000000	10.456659
2140.000000	10.479300
2139.000000	10.493581
2138.000000	10.502986
2137.000000	10.517616
2136.000000	10.538632
2135.000000	10.546179
2134.000000	10.573116
2133.000000	10.591345
2132.000000	10.586933
2131.000000	10.589487
2130.000000	10.597615
2129.000000	10.598079
2128.000000	10.602143
2127.000000	10.601214
2126.000000	10.597151
2125.000000	10.589604
2124.000000	10.596454
2123.000000	10.609690
2122.000000	10.578225
2121.000000	10.569865
2120.000000	10.566498
2119.000000	10.567543
2118.000000	10.568588
2117.000000	10.548617
2116.000000	10.538051
2115.000000	10.520170
2114.000000	10.514017
2113.000000	10.489285
2112.000000	10.469547
2111.000000	10.443074
2110.000000	10.443190
2109.000000	10.419272
2108.000000	10.401507
2107.000000	10.368416
2106.000000	10.352393
2105.000000	10.354831
2104.000000	10.337531
2103.000000	10.322321
2102.000000	10.303047
2101.000000	10.284701
2100.000000	10.273787
2099.000000	10.269143
2098.000000	10.259506
2097.000000	10.244063
2096.000000	10.234078
2095.000000	10.210275
2094.000000	10.199826
2093.000000	10.185196
2092.000000	10.179507
2091.000000	10.176720
2090.000000	10.156401
2089.000000	10.148041
2088.000000	10.143745
2087.000000	10.123658
2086.000000	10.096373
2085.000000	10.083020
2084.000000	10.064907
2083.000000	10.068855
2082.000000	10.066300
2081.000000	10.038434
2080.000000	10.022179
2079.000000	10.002789
2078.000000	9.974226
2077.000000	9.956926
2076.000000	9.945199
2075.000000	9.926970
2074.000000	9.905606
2073.000000	9.885170
2072.000000	9.859394
2071.000000	9.828974
2070.000000	9.804939
2069.000000	9.772312
2068.000000	9.743982
2067.000000	9.732371
2066.000000	9.706130
2065.000000	9.675478
2064.000000	9.659919
2063.000000	9.645173
2062.000000	9.626363
2061.000000	9.612430
2060.000000	9.586074
2059.000000	9.557279
2058.000000	9.555653
2057.000000	9.557046
2056.000000	9.544042
2055.000000	9.565871
2054.000000	9.574927
2053.000000	9.560762
2052.000000	9.584100
2051.000000	9.609411
2050.000000	9.635072
2049.000000	9.666305
2048.000000	9.696145
2047.000000	9.747349
2046.000000	9.802385
2045.000000	9.849989
2044.000000	9.889350
2043.000000	9.917797
2042.000000	9.952630
2041.000000	10.023688
2040.000000	10.078027
2039.000000	10.123194
2038.000000	10.172424
2037.000000	10.216778
2036.000000	10.266124
2035.000000	10.296196
2034.000000	10.313961
2033.000000	10.344033
2032.000000	10.388154
2031.000000	10.429257
2030.000000	10.448763
2029.000000	10.464322
2028.000000	10.498226
2027.000000	10.520286
2026.000000	10.552449
2025.000000	10.564872
2024.000000	10.559880
2023.000000	10.576019
2022.000000	10.593667
2021.000000	10.607484
2020.000000	10.629313
2019.000000	10.607368
2018.000000	10.635583
2017.000000	10.643594
2016.000000	10.644755
2015.000000	10.654741
2014.000000	10.655321
2013.000000	10.641156
2012.000000	10.635815
2011.000000	10.633144
2010.000000	10.609574
2009.000000	10.576135
2008.000000	10.573813
2007.000000	10.560460
2006.000000	10.546875
2005.000000	10.547572
2004.000000	10.514365
2003.000000	10.479648
2002.000000	10.454453
2001.000000	10.447951
2000.000000	10.400462
1999.000000	10.383394
1998.000000	10.346123
1997.000000	10.315006
1996.000000	10.280521
1995.000000	10.263221
1994.000000	10.212714
1993.000000	10.162322
1992.000000	10.112744
1991.000000	10.081395
1990.000000	10.019625
1989.000000	10.002789
1988.000000	9.968653
1987.000000	9.910598
1986.000000	9.853240
1985.000000	9.811441
1984.000000	9.780672
1983.000000	9.738060
1982.000000	9.685115
1981.000000	9.659106
1980.000000	9.627292
1979.000000	9.567380
1978.000000	9.510254
1977.000000	9.466017
1976.000000	9.434319
1975.000000	9.362680
1974.000000	9.331563
1973.000000	9.285467
1972.000000	9.258414
1971.000000	9.207210
1970.000000	9.168197
1969.000000	9.136616
1968.000000	9.098996
1967.000000	9.051043
1966.000000	9.019926
1965.000000	8.965703
1964.000000	8.936676
1963.000000	8.886169
1962.000000	8.841002
1961.000000	8.838564
1960.000000	8.797461
1959.000000	8.737085
1958.000000	8.694473
1957.000000	8.687274
1956.000000	8.640250
1955.000000	8.621672
1954.000000	8.573487
1953.000000	8.546434
1952.000000	8.528205
1951.000000	8.490934
1950.000000	8.454475
1949.000000	8.425564
1948.000000	8.409077
1947.000000	8.389338
1946.000000	8.380746
1945.000000	8.332909
1944.000000	8.323969
1943.000000	8.299238
1942.000000	8.269630
1941.000000	8.291691
1940.000000	8.274390
1939.000000	8.248266
1938.000000	8.232591
1937.000000	8.252794
1936.000000	8.260109
1935.000000	8.242693
1934.000000	8.257439
1933.000000	8.275668
1932.000000	8.287627
1931.000000	8.274507
1930.000000	8.323853
1929.000000	8.349629
1928.000000	8.394912
1927.000000	8.406755
1926.000000	8.453779
1925.000000	8.481993
1924.000000	8.552123
1923.000000	8.583240
1922.000000	8.627594
1921.000000	8.702949
1920.000000	8.765880
1919.000000	8.836010
1918.000000	8.907417
1917.000000	9.005296
1916.000000	9.052669
1915.000000	9.151942
1914.000000	9.226484
1913.000000	9.343754
1912.000000	9.450574
1911.000000	9.555305
1910.000000	9.653301
1909.000000	9.779163
1908.000000	9.878088
1907.000000	9.961802
1906.000000	10.126793
1905.000000	10.267866
1904.000000	10.411492
1903.000000	10.566730
1902.000000	10.731605
1901.000000	10.899963
1900.000000	11.069134
1899.000000	11.285445
1898.000000	11.462395
1897.000000	11.677661
1896.000000	11.881896
1895.000000	12.060820
1894.000000	12.279454
1893.000000	12.511555
1892.000000	12.766415
1891.000000	13.050417
1890.000000	13.321996
1889.000000	13.609134
1888.000000	13.920770
1887.000000	14.231478
1886.000000	14.552171
1885.000000	14.923603
1884.000000	15.340551
1883.000000	15.791402
1882.000000	16.230758
1881.000000	16.690782
1880.000000	17.148368
1879.000000	17.570888
1878.000000	18.051812
1877.000000	18.494535
1876.000000	18.925648
1875.000000	19.319025
1874.000000	19.725755
1873.000000	20.121454
1872.000000	20.525165
1871.000000	20.890908
1870.000000	21.217639
1869.000000	21.562715
1868.000000	21.880621
1867.000000	22.129095
1866.000000	22.352024
1865.000000	22.542094
1864.000000	22.730075
1863.000000	22.915965
1862.000000	23.046472
1861.000000	23.209837
1860.000000	23.351838
1859.000000	23.468992
1858.000000	23.579876
1857.000000	23.675898
1856.000000	23.771108
1855.000000	23.818829
1854.000000	23.845185
1853.000000	23.900221
1852.000000	23.930990
1851.000000	23.935170
1850.000000	23.963036
1849.000000	23.963965
1848.000000	23.949567
1847.000000	23.947826
1846.000000	23.902659
1845.000000	23.860860
1844.000000	23.857841
1843.000000	23.830440
1842.000000	23.857145
1841.000000	23.877580
1840.000000	23.834387
1839.000000	23.808495
1838.000000	23.766812
1837.000000	23.715724
1836.000000	23.688322
1835.000000	23.646058
1834.000000	23.610065
1833.000000	23.546901
1832.000000	23.494304
1831.000000	23.474217
1830.000000	23.420343
1829.000000	23.347426
1828.000000	23.281128
1827.000000	23.205309
1826.000000	23.138198
1825.000000	23.094541
1824.000000	23.046472
1823.000000	23.013613
1822.000000	23.015819
1821.000000	22.991784
1820.000000	22.950450
1819.000000	22.920610
1818.000000	22.870102
1817.000000	22.836895
1816.000000	22.828419
1815.000000	22.827258
1814.000000	22.824123
1813.000000	22.803572
1812.000000	22.788710
1811.000000	22.761308
1810.000000	22.727985
1809.000000	22.684560
1808.000000	22.663196
1807.000000	22.644502
1806.000000	22.593066
1805.000000	22.537450
1804.000000	22.484969
1803.000000	22.453503
1802.000000	22.409962
1801.000000	22.346683
1800.000000	22.297917
1799.000000	22.245436
1798.000000	22.189936
1797.000000	22.141286
1796.000000	22.097861
1795.000000	22.041781
1794.000000	21.994873
1793.000000	21.962594
1792.000000	21.906746
1791.000000	21.838938
1790.000000	21.790521
1789.000000	21.733395
1788.000000	21.680450
1787.000000	21.639231
1786.000000	21.574674
1785.000000	21.507563
1784.000000	21.431744
1783.000000	21.366375
1782.000000	21.306579
1781.000000	21.228553
1780.000000	21.159933
1779.000000	21.086552
1778.000000	21.012475
1777.000000	20.934798
1776.000000	20.853754
1775.000000	20.764814
1774.000000	20.672972
1773.000000	20.577066
1772.000000	20.463860
1771.000000	20.363309
1770.000000	20.277156
1769.000000	20.162557
1768.000000	20.050279
1767.000000	19.958437
1766.000000	19.858816
1765.000000	19.790311
1764.000000	19.748396
1763.000000	19.708571
1762.000000	19.709151
1761.000000	19.725290
1760.000000	19.758730
1759.000000	19.818410
1758.000000	19.878090
1757.000000	19.942879
1756.000000	19.992457
1755.000000	20.058871
1754.000000	20.106941
1753.000000	20.139451
1752.000000	20.163370
1751.000000	20.156287
1750.000000	20.143283
1749.000000	20.134342
1748.000000	20.090453
1747.000000	20.052137
1746.000000	19.980498
1745.000000	19.900731
1744.000000	19.800645
1743.000000	19.676757
1742.000000	19.525235
1741.000000	19.351884
1740.000000	19.178185
1739.000000	18.993688
1738.000000	18.789684
1737.000000	18.608090
1736.000000	18.466088
1735.000000	18.338601
1734.000000	18.255583
1733.000000	18.197877
1732.000000	18.199386
1731.000000	18.221911
1730.000000	18.283101
1729.000000	18.375988
1728.000000	18.441938
1727.000000	18.548758
1726.000000	18.645941
1725.000000	18.735577
1724.000000	18.813254
1723.000000	18.870728
1722.000000	18.903239
1721.000000	18.944109
1720.000000	19.002396
1719.000000	19.025734
1718.000000	19.064979
1717.000000	19.111771
1716.000000	19.173424
1715.000000	19.272233
1714.000000	19.342595
1713.000000	19.413073
1712.000000	19.476701
1711.000000	19.540793
1710.000000	19.588282
1709.000000	19.609994
1708.000000	19.612316
1707.000000	19.595248
1706.000000	19.570865
1705.000000	19.539632
1704.000000	19.500619
1703.000000	19.427819
1702.000000	19.338299
1701.000000	19.246805
1700.000000	19.129419
1699.000000	19.001583
1698.000000	18.864807
1697.000000	18.727566
1696.000000	18.620862
1695.000000	18.576276
1694.000000	18.556886
1693.000000	18.603678
1692.000000	18.692849
1691.000000	18.820918
1690.000000	18.967679
1689.000000	19.107474
1688.000000	19.218591
1687.000000	19.283728
1686.000000	19.340157
1685.000000	19.367675
1684.000000	19.441288
1683.000000	19.543696
1682.000000	19.776959
1681.000000	20.088247
1680.000000	20.465717
1679.000000	20.957439
1678.000000	21.403297
1677.000000	21.904192
1676.000000	22.363751
1675.000000	22.784181
1674.000000	23.144352
1673.000000	23.469689
1672.000000	23.764606
1671.000000	24.016214
1670.000000	24.257372
1669.000000	24.456964
1668.000000	24.605699
1667.000000	24.745494
1666.000000	24.872285
1665.000000	24.986885
1664.000000	25.095563
1663.000000	25.191585
1662.000000	25.258696
1661.000000	25.320466
1660.000000	25.412889
1659.000000	25.445980
1658.000000	25.525631
1657.000000	25.549781
1656.000000	25.547227
1655.000000	25.554542
1654.000000	25.559186
1653.000000	25.571842
1652.000000	25.552336
1651.000000	25.534339
1650.000000	25.483483
1649.000000	25.460726
1648.000000	25.453991
1647.000000	25.383513
1646.000000	25.363542
1645.000000	25.305720
1644.000000	25.240815
1643.000000	25.197391
1642.000000	25.126796
1641.000000	25.090803
1640.000000	25.021834
1639.000000	24.952633
1638.000000	24.893766
1637.000000	24.833041
1636.000000	24.781720
1635.000000	24.680357
1634.000000	24.629037
1633.000000	24.551244
1632.000000	24.466252
1631.000000	24.395310
1630.000000	24.313337
1629.000000	24.231132
1628.000000	24.168084
1627.000000	24.058361
1626.000000	23.982078
1625.000000	23.900221
1624.000000	23.813023
1623.000000	23.722226
1622.000000	23.660572
1621.000000	23.575232
1620.000000	23.502548
1619.000000	23.435669
1618.000000	23.355670
1617.000000	23.266730
1616.000000	23.189750
1615.000000	23.123684
1614.000000	23.036835
1613.000000	22.973671
1612.000000	22.904470
1611.000000	22.840959
1610.000000	22.745749
1609.000000	22.695590
1608.000000	22.619887
1607.000000	22.551267
1606.000000	22.464533
1605.000000	22.406247
1604.000000	22.324390
1603.000000	22.236728
1602.000000	22.169501
1601.000000	22.100183
1600.000000	22.032028
1599.000000	21.936934
1598.000000	21.868546
1597.000000	21.816065
1596.000000	21.745819
1595.000000	21.681146
1594.000000	21.620189
1593.000000	21.545415
1592.000000	21.498739
1591.000000	21.436505
1590.000000	21.377289
1589.000000	21.311223
1588.000000	21.270004
1587.000000	21.219149
1586.000000	21.153199
1585.000000	21.106407
1584.000000	21.058338
1583.000000	21.016654
1582.000000	20.974971
1581.000000	20.935843
1580.000000	20.894508
1579.000000	20.867222
1578.000000	20.831461
1577.000000	20.813464
1576.000000	20.776773
1575.000000	20.751694
1574.000000	20.738225
1573.000000	20.725801
1572.000000	20.716397
1571.000000	20.712217
1570.000000	20.697935
1569.000000	20.703625
1568.000000	20.698864
1567.000000	20.682957
1566.000000	20.681216
1565.000000	20.678197
1564.000000	20.687718
1563.000000	20.701419
1562.000000	20.692710
1561.000000	20.677732
1560.000000	20.683770
1559.000000	20.681216
1558.000000	20.687369
1557.000000	20.669837
1556.000000	20.641274
1555.000000	20.617936
1554.000000	20.593902
1553.000000	20.564062
1552.000000	20.549084
1551.000000	20.528068
1550.000000	20.483366
1549.000000	20.450391
1548.000000	20.416255
1547.000000	20.394543
1546.000000	20.375733
1545.000000	20.342177
1544.000000	20.314660
1543.000000	20.294340
1542.000000	20.263572
1541.000000	20.226301
1540.000000	20.210742
1539.000000	20.202498
1538.000000	20.168594
1537.000000	20.143747
1536.000000	20.127724
1535.000000	20.104154
1534.000000	20.077333
1533.000000	20.056317
1532.000000	20.018930
1531.000000	19.973067
1530.000000	19.933358
1529.000000	19.910136
1528.000000	19.877161
1527.000000	19.814346
1526.000000	19.770689
1525.000000	19.738875
1524.000000	19.689993
1523.000000	19.650748
1522.000000	19.593855
1521.000000	19.550779
1520.000000	19.497485
1519.000000	19.440359
1518.000000	19.398444
1517.000000	19.344801
1516.000000	19.291043
1515.000000	19.242509
1514.000000	19.203729
1513.000000	19.136386
1512.000000	19.070087
1511.000000	19.028288
1510.000000	18.962919
1509.000000	18.900220
1508.000000	18.840656
1507.000000	18.785156
1506.000000	18.735926
1505.000000	18.679845
1504.000000	18.631776
1503.000000	18.574766
1502.000000	18.514041
1501.000000	18.463534
1500.000000	18.405363
1499.000000	18.347425
1498.000000	18.281243
1497.000000	18.230736
1496.000000	18.203914
1495.000000	18.165947
1494.000000	18.118923
1493.000000	18.086180
1492.000000	18.052857
1491.000000	18.017908
1490.000000	17.971116
1489.000000	17.944759
1488.000000	17.937560
1487.000000	17.910971
1486.000000	17.869985
1485.000000	17.835384
1484.000000	17.798578
1483.000000	17.764906
1482.000000	17.741917
1481.000000	17.724500
1480.000000	17.719972
1479.000000	17.703717
1478.000000	17.688855
1477.000000	17.682237
1476.000000	17.673180
1475.000000	17.660060
1474.000000	17.643224
1473.000000	17.647288
1472.000000	17.667259
1471.000000	17.680147
1470.000000	17.677360
1469.000000	17.673877
1468.000000	17.677012
1467.000000	17.693267
1466.000000	17.711728
1465.000000	17.715560
1464.000000	17.726706
1463.000000	17.737389
1462.000000	17.749812
1461.000000	17.788709
1460.000000	17.824819
1459.000000	17.861973
1458.000000	17.908417
1457.000000	17.955093
1456.000000	18.005252
1455.000000	18.049606
1454.000000	18.101390
1453.000000	18.172913
1452.000000	18.246759
1451.000000	18.311664
1450.000000	18.392475
1449.000000	18.453316
1448.000000	18.511952
1447.000000	18.595434
1446.000000	18.709685
1445.000000	18.791310
1444.000000	18.842282
1443.000000	18.919842
1442.000000	19.024921
1441.000000	19.117344
1440.000000	19.221958
1439.000000	19.306485
1438.000000	19.406571
1437.000000	19.525931
1436.000000	19.637744
1435.000000	19.737250
1434.000000	19.864389
1433.000000	19.977015
1432.000000	20.080468
1431.000000	20.234777
1430.000000	20.348796
1429.000000	20.494745
1428.000000	20.655323
1427.000000	20.828442
1426.000000	20.980545
1425.000000	21.165738
1424.000000	21.357783
1423.000000	21.578854
1422.000000	21.772059
1421.000000	21.984887
1420.000000	22.202359
1419.000000	22.480789
1418.000000	22.716374
1417.000000	22.940464
1416.000000	23.185919
1415.000000	23.465277
1414.000000	23.772966
1413.000000	24.062425
1412.000000	24.352117
1411.000000	24.638094
1410.000000	25.006275
1409.000000	25.405922
1408.000000	25.780025
1407.000000	26.204172
1406.000000	26.610089
1405.000000	27.053277
1404.000000	27.542444
1403.000000	27.963339
1402.000000	28.384698
1401.000000	28.858423
1400.000000	29.365122
1399.000000	29.802505
1398.000000	30.142356
1397.000000	30.476053
1396.000000	30.954770
1395.000000	31.371834
1394.000000	31.729914
1393.000000	32.077893
1392.000000	32.461517
1391.000000	32.871962
1390.000000	33.280549
1389.000000	33.700283
1388.000000	34.223819
1387.000000	34.783696
1386.000000	35.331382
1385.000000	35.883481
1384.000000	36.544141
1383.000000	37.194351
1382.000000	37.855940
1381.000000	38.415934
1380.000000	38.828237
1379.000000	39.187362
1378.000000	39.510145
1377.000000	39.748749
1376.000000	40.020328
1375.000000	40.265666
1374.000000	40.513675
1373.000000	40.842263
1372.000000	41.235756
1371.000000	41.658625
1370.000000	42.032264
1369.000000	42.379430
1368.000000	42.749469
1367.000000	43.109988
1366.000000	43.382379
1365.000000	43.638399
1364.000000	43.882112
1363.000000	44.066958
1362.000000	44.284314
1361.000000	44.494935
1360.000000	44.665383
1359.000000	44.692901
1358.000000	44.839547
1357.000000	44.997571
1356.000000	45.203665
1355.000000	45.503922
1354.000000	45.899622
1353.000000	46.357323
1352.000000	46.843588
1351.000000	47.373161
1350.000000	47.902502
1349.000000	48.413033
1348.000000	48.856453
1347.000000	49.294997
1346.000000	49.705907
1345.000000	50.087789
1344.000000	50.520179
1343.000000	50.880349
1342.000000	51.240403
1341.000000	51.597902
1340.000000	51.966432
1339.000000	52.308605
1338.000000	52.647295
1337.000000	52.978322
1336.000000	53.296345
1335.000000	53.635034
1334.000000	53.933202
1333.000000	54.234273
1332.000000	54.539175
1331.000000	54.811218
1330.000000	55.075599
1329.000000	55.353447
1328.000000	55.619221
1327.000000	55.855851
1326.000000	56.084353
1325.000000	56.302870
1324.000000	56.513492
1323.000000	56.728874
1322.000000	56.937174
1321.000000	57.123180
1320.000000	57.291422
1319.000000	57.490085
1318.000000	57.644278
1317.000000	57.807062
1316.000000	57.969499
1315.000000	58.130542
1314.000000	58.278813
1313.000000	58.406997
1312.000000	58.535646
1311.000000	58.658954
1310.000000	58.760201
1309.000000	58.857152
1308.000000	58.977557
1307.000000	59.080546
1306.000000	59.150443
1305.000000	59.226959
1304.000000	59.279092
1303.000000	59.348293
1302.000000	59.394620
1301.000000	59.433865
1300.000000	59.467305
1299.000000	59.495867
1298.000000	59.540453
1297.000000	59.557870
1296.000000	59.570990
1295.000000	59.583065
1294.000000	59.577144
1293.000000	59.587594
1292.000000	59.582253
1291.000000	59.566810
1290.000000	59.549626
1289.000000	59.512819
1288.000000	59.470323
1287.000000	59.425854
1286.000000	59.388234
1285.000000	59.334476
1284.000000	59.278163
1283.000000	59.215813
1282.000000	59.141735
1281.000000	59.071025
1280.000000	58.999269
1279.000000	58.939938
1278.000000	58.866905
1277.000000	58.800026
1276.000000	58.741159
1275.000000	58.686936
1274.000000	58.626676
1273.000000	58.572569
1272.000000	58.524151
1271.000000	58.473760
1270.000000	58.438115
1269.000000	58.392716
1268.000000	58.336868
1267.000000	58.283225
1266.000000	58.232253
1265.000000	58.178147
1264.000000	58.126130
1263.000000	58.071094
1262.000000	57.998526
1261.000000	57.947206
1260.000000	57.892286
1259.000000	57.829123
1258.000000	57.763289
1257.000000	57.676440
1256.000000	57.606194
1255.000000	57.531304
1254.000000	57.434817
1253.000000	57.340769
1252.000000	57.262860
1251.000000	57.174385
1250.000000	57.057927
1249.000000	56.938103
1248.000000	56.834069
1247.000000	56.730152
1246.000000	56.603361
1245.000000	56.463565
1244.000000	56.320751
1243.000000	56.172132
1242.000000	56.025138
1241.000000	55.866997
1240.000000	55.705838
1239.000000	55.537480
1238.000000	55.374928
1237.000000	55.221548
1236.000000	55.046107
1235.000000	54.859288
1234.000000	54.680247
1233.000000	54.494241
1232.000000	54.314156
1231.000000	54.129310
1230.000000	53.922752
1229.000000	53.727573
1228.000000	53.528098
1227.000000	53.319218
1226.000000	53.108016
1225.000000	52.882532
1224.000000	52.676787
1223.000000	52.461289
1222.000000	52.245558
1221.000000	52.030524
1220.000000	51.811427
1219.000000	51.598599
1218.000000	51.387861
1217.000000	51.199068
1216.000000	51.019564
1215.000000	50.831931
1214.000000	50.642674
1213.000000	50.454345
1212.000000	50.280878
1211.000000	50.107179
1210.000000	49.955076
1209.000000	49.796123
1208.000000	49.639144
1207.000000	49.498536
1206.000000	49.378711
1205.000000	49.272356
1204.000000	49.163910
1203.000000	49.086930
1202.000000	49.010994
1201.000000	48.947599
1200.000000	48.886293
1199.000000	48.810706
1198.000000	48.682522
1197.000000	48.532625
1196.000000	48.361829
1195.000000	48.145750
1194.000000	47.855245
1193.000000	47.510518
1192.000000	47.108316
1191.000000	46.652356
1190.000000	46.196629
1189.000000	45.765980
1188.000000	45.380963
1187.000000	45.062592
1186.000000	44.888313
1185.000000	44.821318
1184.000000	44.908283
1183.000000	45.129007
1182.000000	45.445404
1181.000000	45.878490
1180.000000	46.369399
1179.000000	46.870525
1178.000000	47.372697
1177.000000	47.818555
1176.000000	48.199044
1175.000000	48.539476
1174.000000	48.861794
1173.000000	49.175056
1172.000000	49.493775
1171.000000	49.800884
1170.000000	50.129472
1169.000000	50.468975
1168.000000	50.824965
1167.000000	51.173872
1166.000000	51.529282
1165.000000	51.901992
1164.000000	52.272379
1163.000000	52.649966
1162.000000	53.030919
1161.000000	53.403513
1160.000000	53.777384
1159.000000	54.145101
1158.000000	54.495518
1157.000000	54.839433
1156.000000	55.144800
1155.000000	55.427757
1154.000000	55.665548
1153.000000	55.871410
1152.000000	56.018403
1151.000000	56.128591
1150.000000	56.215324
1149.000000	56.275933
1148.000000	56.355120
1147.000000	56.472506
1146.000000	56.578281
1145.000000	56.755463
1144.000000	57.001614
1143.000000	57.280276
1142.000000	57.602130
1141.000000	57.955334
1140.000000	58.336519
1139.000000	58.715499
1138.000000	59.095640
1137.000000	59.514909
1136.000000	59.936385
1135.000000	60.391068
1134.000000	60.846215
1133.000000	61.272567
1132.000000	61.611257
1131.000000	61.927886
1130.000000	62.238013
1129.000000	62.519113
1128.000000	62.736469
1127.000000	62.920154
1126.000000	63.047641
1125.000000	63.171646
1124.000000	63.241775
1123.000000	63.326883
1122.000000	63.382035
1121.000000	63.431265
1120.000000	63.420235
1119.000000	63.434284
1118.000000	63.440670
1117.000000	63.435677
1116.000000	63.425924
1115.000000	63.392949
1114.000000	63.358001
1113.000000	63.315853
1112.000000	63.276028
1111.000000	63.229816
1110.000000	63.213213
1109.000000	63.160847
1108.000000	63.132401
1107.000000	63.083867
1106.000000	63.033824
1105.000000	62.972054
1104.000000	62.943608
1103.000000	62.905872
1102.000000	62.843289
1101.000000	62.808573
1100.000000	62.746803
1099.000000	62.682478
1098.000000	62.641260
1097.000000	62.574962
1096.000000	62.521319
1095.000000	62.453744
1094.000000	62.391509
1093.000000	62.316619
1092.000000	62.236620
1091.000000	62.162542
1090.000000	62.083356
1089.000000	61.990469
1088.000000	61.913953
1087.000000	61.845913
1086.000000	61.737584
1085.000000	61.642606
1084.000000	61.568413
1083.000000	61.485047
1082.000000	61.392972
1081.000000	61.259679
1080.000000	61.194194
1079.000000	61.108157
1078.000000	61.008535
1077.000000	60.888362
1076.000000	60.795940
1075.000000	60.704562
1074.000000	60.618990
1073.000000	60.509499
1072.000000	60.408600
1071.000000	60.292956
1070.000000	60.217601
1069.000000	60.121114
1068.000000	60.018938
1067.000000	59.921059
1066.000000	59.823875
1065.000000	59.703006
1064.000000	59.604894
1063.000000	59.478683
1062.000000	59.374534
1061.000000	59.260398
1060.000000	59.166699
1059.000000	59.059530
1058.000000	58.952826
1057.000000	58.830099
1056.000000	58.709810
1055.000000	58.576633
1054.000000	58.474457
1053.000000	58.375416
1052.000000	58.253385
1051.000000	58.129033
1050.000000	57.997017
1049.000000	57.923520
1048.000000	57.807062
1047.000000	57.698384
1046.000000	57.596092
1045.000000	57.490549
1044.000000	57.386051
1043.000000	57.295022
1042.000000	57.187853
1041.000000	57.113543
1040.000000	57.006143
1039.000000	56.882370
1038.000000	56.765913
1037.000000	56.674071
1036.000000	56.561561
1035.000000	56.463914
1034.000000	56.349198
1033.000000	56.248996
1032.000000	56.114426
1031.000000	55.990886
1030.000000	55.872919
1029.000000	55.743922
1028.000000	55.632341
1027.000000	55.521689
1026.000000	55.380733
1025.000000	55.236990
1024.000000	55.127151
1023.000000	54.998618
1022.000000	54.886341
1021.000000	54.763614
1020.000000	54.625328
1019.000000	54.490061
1018.000000	54.387653
1017.000000	54.269222
1016.000000	54.180631
1015.000000	54.060226
1014.000000	53.958050
1013.000000	53.848094
1012.000000	53.763567
1011.000000	53.701565
1010.000000	53.627720
1009.000000	53.559331
1008.000000	53.485834
1007.000000	53.416401
1006.000000	53.349522
1005.000000	53.311555
1004.000000	53.245024
1003.000000	53.178610
1002.000000	53.136811
1001.000000	53.090367
1000.000000	53.025346
999.000000	52.952430
998.000000	52.899252
997.000000	52.837366
996.000000	52.789297
995.000000	52.732055
994.000000	52.694436
993.000000	52.633594
992.000000	52.576701
991.000000	52.547558
990.000000	52.502972
989.000000	52.441318
988.000000	52.413452
987.000000	52.393133
986.000000	52.347966
985.000000	52.306051
984.000000	52.280275
983.000000	52.240333
982.000000	52.224543
981.000000	52.200972
980.000000	52.176357
979.000000	52.142453
978.000000	52.121554
977.000000	52.097752
976.000000	52.087998
975.000000	52.073717
974.000000	52.047012
973.000000	52.020887
972.000000	52.009393
971.000000	51.993834
970.000000	51.967709
969.000000	51.949480
968.000000	51.916970
967.000000	51.917550
966.000000	51.931251
965.000000	51.901179
964.000000	51.896070
963.000000	51.886433
962.000000	51.895374
961.000000	51.898160
960.000000	51.897696
959.000000	51.913835
958.000000	51.905243
957.000000	51.917666
956.000000	51.928000
955.000000	51.923124
954.000000	51.941004
953.000000	51.943210
952.000000	51.922543
951.000000	51.930438
950.000000	51.942630
949.000000	51.934967
948.000000	51.934618
947.000000	51.932180
946.000000	51.927304
945.000000	51.907101
944.000000	51.907797
943.000000	51.911513
942.000000	51.879699
941.000000	51.861238
940.000000	51.863908
939.000000	51.859031
938.000000	51.840106
937.000000	51.824547
936.000000	51.823386
935.000000	51.812820
934.000000	51.798306
933.000000	51.788669
932.000000	51.787044
931.000000	51.786812
930.000000	51.769395
929.000000	51.754069
928.000000	51.725738
927.000000	51.725854
926.000000	51.707509
925.000000	51.666755
924.000000	51.632851
923.000000	51.592794
922.000000	51.561212
921.000000	51.591981
920.000000	51.580370
919.000000	51.522315
918.000000	51.471576
917.000000	51.439994
916.000000	51.404000
915.000000	51.384726
914.000000	51.337005
913.000000	51.293348
912.000000	51.244234
911.000000	51.196978
910.000000	51.159010
909.000000	51.114541
908.000000	51.090971
907.000000	51.072161
906.000000	51.051493
905.000000	51.036864
904.000000	51.019331
903.000000	51.022118
902.000000	51.011784
901.000000	51.016080
900.000000	50.996458
899.000000	50.968940
898.000000	50.961741
897.000000	50.967547
896.000000	50.977300
895.000000	50.958839
894.000000	50.910073
893.000000	50.888012
892.000000	50.876517
891.000000	50.837621
890.000000	50.767143
889.000000	50.716519
888.000000	50.644764
887.000000	50.592747
886.000000	50.522965
885.000000	50.458873
884.000000	50.389208
883.000000	50.294463
882.000000	50.209007
881.000000	50.131330
880.000000	50.031708
879.000000	49.898880
878.000000	49.766864
877.000000	49.660972
876.000000	49.497375
875.000000	49.297087
874.000000	49.079731
873.000000	48.863071
872.000000	48.700054
871.000000	48.630737
870.000000	48.648734
869.000000	48.684147
868.000000	48.739067
867.000000	48.772158
866.000000	48.811867
865.000000	48.848093
864.000000	48.893608
863.000000	48.926119
862.000000	48.975233
861.000000	49.006466
860.000000	49.067888
859.000000	49.131399
858.000000	49.152067
857.000000	48.298400
856.000000	49.179200
855.000000	49.978600
854.000000	49.462800
853.000000	49.593600
852.000000	49.700100
851.000000	49.895700
850.000000	49.542900
849.000000	49.944900
848.000000	49.826000
847.000000	50.157600
846.000000	50.167100
845.000000	49.507400
844.000000	49.640100
843.000000	50.247400
842.000000	50.092400
841.000000	49.813000
840.000000	50.182300
839.000000	50.146700
838.000000	50.285400
837.000000	50.031900
836.000000	50.290900
835.000000	50.356100
834.000000	50.363300
833.000000	50.200000
832.000000	50.533800
831.000000	50.445700
830.000000	50.278400
829.000000	50.314500
828.000000	50.216900
827.000000	50.129100
826.000000	50.211100
825.000000	50.312200
824.000000	50.236600
823.000000	50.256100
822.000000	50.290000
821.000000	50.131500
820.000000	50.378800
819.000000	50.247500
818.000000	50.319700
817.000000	50.009600
816.000000	50.005700
815.000000	49.994200
814.000000	49.992500
813.000000	50.001000
812.000000	50.096700
811.000000	50.002700
810.000000	49.951100
809.000000	50.095600
808.000000	50.026200
807.000000	49.933000
806.000000	49.887400
805.000000	49.901100
804.000000	49.709900
803.000000	49.723400
802.000000	49.663200
801.000000	49.748100
800.000000	49.710700
799.000000	49.599100
798.000000	49.679100
797.000000	49.744300
796.000000	49.494200
795.000000	49.485700
794.000000	49.487400
793.000000	49.458000
792.000000	49.354500
791.000000	49.473900
790.000000	49.353000
789.000000	49.278900
788.000000	49.256800
787.000000	49.263600
786.000000	49.303300
785.000000	49.242200
784.000000	49.092100
783.000000	49.077000
782.000000	49.188500
781.000000	48.857600
780.000000	48.977300
779.000000	48.966600
778.000000	48.895200
777.000000	48.879500
776.000000	48.768200
775.000000	48.800600
774.000000	48.809400
773.000000	48.619900
772.000000	48.626100
771.000000	48.530800
770.000000	48.564600
769.000000	48.538600
768.000000	48.522900
767.000000	48.414000
766.000000	48.372400
765.000000	48.329600
764.000000	48.370300
763.000000	48.246000
762.000000	48.172000
761.000000	48.095200
760.000000	48.025500
759.000000	48.025500
758.000000	47.954000
757.000000	47.880300
756.000000	47.788000
755.000000	47.816200
754.000000	47.641900
753.000000	47.721000
752.000000	47.654000
751.000000	47.524600
750.000000	47.532500
749.000000	47.522700
748.000000	47.431900
747.000000	47.326800
746.000000	47.292800
745.000000	47.211500
744.000000	47.075800
743.000000	46.938200
742.000000	46.908800
741.000000	46.897700
740.000000	46.809400
739.000000	46.642800
738.000000	46.600800
737.000000	46.519600
736.000000	46.480700
735.000000	46.436400
734.000000	46.314200
733.000000	46.248000
732.000000	46.070700
731.000000	46.057100
730.000000	45.924500
729.000000	45.828000
728.000000	45.738400
727.000000	45.587700
726.000000	45.473800
725.000000	45.388400
724.000000	45.327800
723.000000	45.194000
722.000000	45.095900
721.000000	44.982000
720.000000	44.843000
719.000000	44.755400
718.000000	44.655600
717.000000	44.503600
716.000000	44.385100
715.000000	44.298800
714.000000	44.145900
713.000000	43.981100
712.000000	43.855800
711.000000	43.642100
710.000000	43.515800
709.000000	43.350300
708.000000	43.192400
707.000000	43.079300
706.000000	42.924300
705.000000	42.734500
704.000000	42.569500
703.000000	42.394800
702.000000	42.271200
701.000000	42.061900
700.000000	41.873900
699.000000	41.699100
698.000000	41.545200
697.000000	41.355500
696.000000	41.167400
695.000000	40.952200
694.000000	40.757800
693.000000	40.611500
692.000000	40.453300
691.000000	40.222200
690.000000	39.970200
689.000000	39.777200
688.000000	39.571300
687.000000	39.319100
686.000000	39.101500
685.000000	38.838200
684.000000	38.594000
683.000000	38.390800
682.000000	38.135000
681.000000	37.888000
680.000000	37.658100
679.000000	37.412300
678.000000	37.188100
677.000000	36.955400
676.000000	36.726500
675.000000	36.502500
674.000000	36.288200
673.000000	36.075300
672.000000	35.833300
671.000000	35.592500
670.000000	35.381900
669.000000	35.162000
668.000000	34.934100
667.000000	34.736800
666.000000	34.568900
665.000000	34.403500
664.000000	34.220300
663.000000	34.025900
662.000000	33.867700
661.000000	33.686800
660.000000	33.502700
659.000000	33.308100
658.000000	33.129400
657.000000	32.960100
656.000000	32.788300
655.000000	32.624500
654.000000	32.447700
653.000000	32.293200
652.000000	32.144100
651.000000	32.016500
650.000000	31.917600
649.000000	31.770700
648.000000	31.599000
647.000000	31.459800
646.000000	31.340900
645.000000	31.211800
644.000000	31.086900
643.000000	30.958200
642.000000	30.820300
641.000000	30.728100
640.000000	30.632000
639.000000	30.547300
638.000000	30.481700
637.000000	30.421500
636.000000	30.359600
635.000000	30.290400
634.000000	30.218400
633.000000	30.148600
632.000000	30.104400
631.000000	30.072900
630.000000	30.004200
629.000000	29.916800
628.000000	29.873900
627.000000	29.859800
626.000000	29.831500
625.000000	29.787200
624.000000	29.749700
623.000000	29.713100
622.000000	29.658100
621.000000	29.613000
620.000000	29.582000
619.000000	29.543400
618.000000	29.504500
617.000000	29.451100
616.000000	29.411700
615.000000	29.393700
614.000000	29.378300
613.000000	29.340200
612.000000	29.306100
611.000000	29.276600
610.000000	29.282500
609.000000	29.293100
608.000000	29.298300
607.000000	29.323600
606.000000	29.358200
605.000000	29.402300
604.000000	29.471100
603.000000	29.563400
602.000000	29.647900
601.000000	29.745400
600.000000	29.831200
599.000000	29.940100
598.000000	30.046800
597.000000	30.183300
596.000000	30.308600
595.000000	30.452400
594.000000	30.596400
593.000000	30.746500
592.000000	30.883000
591.000000	31.016200
590.000000	31.160100
589.000000	31.309100
588.000000	31.445400
587.000000	31.569000
586.000000	31.689500
585.000000	31.847100
584.000000	31.996300
583.000000	32.101900
582.000000	32.251400
581.000000	32.358100
580.000000	32.456300
579.000000	32.559400
578.000000	32.651000
577.000000	32.763400
576.000000	32.834800
575.000000	32.924600
574.000000	33.000700
573.000000	33.064100
572.000000	33.112800
571.000000	33.147200
570.000000	33.179400
569.000000	33.210100
568.000000	33.225100
567.000000	33.249300
566.000000	33.266700
565.000000	33.262300
564.000000	33.251800
563.000000	33.233400
562.000000	33.189900
561.000000	33.156200
560.000000	33.108500
559.000000	33.010000
558.000000	32.933000
557.000000	32.854800
556.000000	32.762400
555.000000	32.693100
554.000000	32.594700
553.000000	32.455500
552.000000	32.313900
551.000000	32.157300
550.000000	32.019300
549.000000	31.836800
548.000000	31.678100
547.000000	31.514200
546.000000	31.313000
545.000000	31.137700
544.000000	30.913700
543.000000	30.673200
542.000000	30.452700
541.000000	30.230000
540.000000	29.978500
539.000000	29.726700
538.000000	29.481700
537.000000	29.215500
536.000000	28.929900
535.000000	28.643200
534.000000	28.351800
533.000000	28.045100
532.000000	27.714100
531.000000	27.389900
530.000000	27.047200
529.000000	26.693800
528.000000	26.337300
527.000000	25.966000
526.000000	25.556200
525.000000	25.142800
524.000000	24.736600
523.000000	24.297400
522.000000	23.848800
521.000000	23.396600
520.000000	22.946400
519.000000	22.494500
518.000000	22.002600
517.000000	21.503400
516.000000	21.051900
515.000000	20.592500
514.000000	20.103700
513.000000	19.624100
512.000000	19.150200
511.000000	18.703500
510.000000	18.264300
509.000000	17.841600
508.000000	17.403100
507.000000	16.979700
506.000000	16.595000
505.000000	16.201400
504.000000	15.815600
503.000000	15.433800
502.000000	15.109400
501.000000	14.757200
500.000000	14.420100
499.000000	14.105300
498.000000	13.804600
497.000000	13.517500
496.000000	13.245900
495.000000	12.988500
494.000000	12.722600
493.000000	12.466400
492.000000	12.244800
491.000000	12.028800
490.000000	11.795100
489.000000	11.598700
488.000000	11.409500
487.000000	11.210600
486.000000	11.022200
485.000000	10.846700
484.000000	10.671500
483.000000	10.511000
482.000000	10.344200
481.000000	10.179000
480.000000	10.019200
479.000000	9.850200
478.000000	9.685700
477.000000	9.540400
476.000000	9.393000
475.000000	9.253100
474.000000	9.108000
473.000000	8.969900
472.000000	8.833700
471.000000	8.698900
470.000000	8.572700
469.000000	8.458900
468.000000	8.334100
467.000000	8.238500
466.000000	8.121700
465.000000	8.015300
464.000000	7.900100
463.000000	7.800800
462.000000	7.701900
461.000000	7.610600
460.000000	7.520500
459.000000	7.438200
458.000000	7.341700
457.000000	7.239200
456.000000	7.180500
455.000000	7.107800
454.000000	7.007400
453.000000	6.943000
452.000000	6.859800
451.000000	6.783700
450.000000	6.721400
449.000000	6.642100
448.000000	6.562000
447.000000	6.499900
446.000000	6.444100
445.000000	6.387700
444.000000	6.321100
443.000000	6.258100
442.000000	6.205100
441.000000	6.129100
440.000000	6.087200
439.000000	6.027300
438.000000	5.979200
437.000000	5.923500
436.000000	5.877000
435.000000	5.826900
434.000000	5.780000
433.000000	5.735300
432.000000	5.714300
431.000000	5.647600
430.000000	5.594400
429.000000	5.574200
428.000000	5.515800
427.000000	5.486600
426.000000	5.469900
425.000000	5.456900
424.000000	5.418000
423.000000	5.359900
422.000000	5.341300
421.000000	5.308400
420.000000	5.287700
419.000000	5.276600
418.000000	5.232900
417.000000	5.211000
416.000000	5.197100
415.000000	5.172200
414.000000	5.150400
413.000000	5.118600
412.000000	5.100900
411.000000	5.086900
410.000000	5.074600
409.000000	5.058100
408.000000	5.031400
407.000000	5.027300
406.000000	5.003700
405.000000	5.006100
404.000000	4.985100
403.000000	4.966500
402.000000	4.951600
401.000000	4.950900
400.000000	4.917700
399.000000	4.915600
398.000000	4.920400
397.000000	4.914400
396.000000	4.884300
395.000000	4.881300
394.000000	4.881000
393.000000	4.887500
392.000000	4.877800
391.000000	4.848400
390.000000	4.846100
389.000000	4.834100
388.000000	4.839300
387.000000	4.823800
386.000000	4.806500
385.000000	4.809500
384.000000	4.787000
383.000000	4.788700
382.000000	4.799800
381.000000	4.809200
380.000000	4.775900
379.000000	4.775100
378.000000	4.773100
377.000000	4.770900
376.000000	4.783500
375.000000	4.552000
374.000000	4.157900
373.000000	4.312600
372.000000	4.364600
371.000000	4.333200
370.000000	4.395800
369.000000	4.510300
368.000000	4.615400
367.000000	4.642000
366.000000	4.582600
365.000000	4.616100
364.000000	4.605900
363.000000	4.609700
362.000000	4.616100
361.000000	4.713900
360.000000	4.739300
359.000000	4.748100
358.000000	4.737800
357.000000	4.686200
356.000000	4.676100
355.000000	4.532600
354.000000	4.565000
353.000000	4.776700
352.000000	4.724300
351.000000	4.697900
350.000000	4.751600
349.000000	4.681000
348.000000	4.694300
347.000000	5.026600
346.000000	5.090600
345.000000	5.076500
344.000000	5.027700
343.000000	4.842400
342.000000	4.714300
341.000000	4.781300
340.000000	5.056100
339.000000	5.000800
338.000000	4.694700
337.000000	4.891100
336.000000	5.052200
335.000000	4.834500
334.000000	4.699200
333.000000	4.916500
332.000000	5.149300
331.000000	5.130900
330.000000	5.087700
329.000000	4.705300
328.000000	4.596500
327.000000	4.794700
326.000000	4.800700
325.000000	4.869400
324.000000	4.889600
323.000000	4.920700
322.000000	5.126100
321.000000	5.478700
320.000000	5.508600
319.000000	5.329700
318.000000	5.199700
317.000000	5.267100
316.000000	4.993400
315.000000	4.638700
314.000000	4.619800
313.000000	4.662200
312.000000	4.631300
311.000000	4.612200
310.000000	4.670600
309.000000	4.687200
308.000000	4.657600
307.000000	4.653100
306.000000	4.678800
305.000000	4.657500
304.000000	4.639900
303.000000	4.703200
302.000000	4.717600
301.000000	4.720000
300.000000	4.709700
299.000000	4.695100
298.000000	4.670700
297.000000	4.653700
296.000000	4.673100
295.000000	4.696800
294.000000	4.709200
293.000000	4.699900
292.000000	4.711800
291.000000	4.730500
290.000000	4.735100
289.000000	4.746800
288.000000	4.697900
287.000000	4.715500
286.000000	4.737300
285.000000	4.735400
284.000000	4.727300
283.000000	4.763600
282.000000	4.775300
281.000000	4.752600
280.000000	4.783700
279.000000	4.782000
278.000000	4.784100
277.000000	4.765400
276.000000	4.777000
275.000000	4.793400
274.000000	4.798400
273.000000	4.843300
272.000000	4.834900
271.000000	4.858300
270.000000	4.856300
269.000000	4.845800
268.000000	4.851100
267.000000	4.895500
266.000000	4.944100
265.000000	4.908300
264.000000	4.941000
263.000000	4.973800
262.000000	4.998400
261.000000	5.014600
260.000000	5.049000
259.000000	5.061900
258.000000	5.030500
257.000000	5.047500
256.000000	5.077500
255.000000	5.114800
254.000000	5.076200
253.000000	5.119300
252.000000	5.130700
251.000000	5.101200
250.000000	5.101900
