PE UV       SUBTECH     SPECTRUM    ASCII       PEDS        4.00        
   -1
CICIMAUCR0236-1.ASC
24/06/17
17:11:16.00
24/06/17
17:11:16.00
Vinicio Soto Monge
C. resplendens. Sex M. Dorsal.
250,000000
1
Lambda 1050
1050L1511233
PerkinElmer UV WinLab 6.3.2.0749 / 2.02.05 Lambda 900 UV/VIS/NIR, Aug  7 2015 09:38:08

0
0
3350/servo 860,8/2
0
0
UV/VIS
1
1
1
DoubleDePol,CommonBeamDepol,RBeamAtt,SBeamAtt,60mm sphere, WB InGaAs Detector
0
0
0
0
Program
Program
3350/servo 860,8/2
3350/0,2 860,8/0,2
3350/0,2 860,8/0,2
0
15.00
 
 
 
0
 
860,8
319,2
860,8
Front
100
on
S:100 R:100
0
0
0
0
 
0
 
 
 
0
 
 
0
0
0
0
0
 
 
 
 
0
0


0
0
#HDR
-1
-1
#GR
nm
%R
1.0
0.0
2500,000000
-1,000000
2251
8
90,811700
5,409700
#DATA
2482.000000	9.473385
2481.000000	9.423950
2480.000000	9.446152
2479.000000	9.446808
2478.000000	9.483338
2477.000000	9.462558
2476.000000	9.488260
2475.000000	9.508056
2474.000000	9.518446
2473.000000	9.547320
2472.000000	9.580241
2471.000000	9.536164
2470.000000	9.550929
2469.000000	9.584178
2468.000000	9.570288
2467.000000	9.608677
2466.000000	9.630551
2465.000000	9.670144
2464.000000	9.682503
2463.000000	9.757094
2462.000000	9.785530
2461.000000	9.815170
2460.000000	9.841200
2459.000000	9.852574
2458.000000	9.926181
2457.000000	10.008756
2456.000000	10.062020
2455.000000	10.113971
2454.000000	10.174672
2453.000000	10.251778
2452.000000	10.330088
2451.000000	10.386633
2450.000000	10.425460
2449.000000	10.528487
2448.000000	10.582297
2447.000000	10.658529
2446.000000	10.756744
2445.000000	10.814164
2444.000000	10.909645
2443.000000	10.987408
2442.000000	11.047343
2441.000000	11.106950
2440.000000	11.188869
2439.000000	11.286428
2438.000000	11.364191
2437.000000	11.439985
2436.000000	11.523982
2435.000000	11.576698
2434.000000	11.642868
2433.000000	11.712646
2432.000000	11.789425
2431.000000	11.858219
2430.000000	11.922529
2429.000000	11.970762
2428.000000	12.059134
2427.000000	12.112179
2426.000000	12.147724
2425.000000	12.212691
2424.000000	12.271423
2423.000000	12.299750
2422.000000	12.366685
2421.000000	12.431104
2420.000000	12.473322
2419.000000	12.526257
2418.000000	12.567818
2417.000000	12.616488
2416.000000	12.661986
2415.000000	12.689548
2414.000000	12.725968
2413.000000	12.775076
2412.000000	12.819371
2411.000000	12.865745
2410.000000	12.905337
2409.000000	12.936070
2408.000000	12.973147
2407.000000	13.008146
2406.000000	13.028379
2405.000000	13.065128
2404.000000	13.114673
2403.000000	13.150984
2402.000000	13.184780
2401.000000	13.244824
2400.000000	13.290323
2399.000000	13.345664
2398.000000	13.387335
2397.000000	13.439395
2396.000000	13.486644
2395.000000	13.522955
2394.000000	13.559375
2393.000000	13.606842
2392.000000	13.629701
2391.000000	13.662950
2390.000000	13.710635
2389.000000	13.744868
2388.000000	13.773305
2387.000000	13.801085
2386.000000	13.823506
2385.000000	13.845271
2384.000000	13.851177
2383.000000	13.871957
2382.000000	13.911550
2381.000000	13.925331
2380.000000	13.952783
2379.000000	13.959564
2378.000000	13.961970
2377.000000	13.963610
2376.000000	13.960548
2375.000000	13.971813
2374.000000	13.972907
2373.000000	13.962298
2372.000000	13.951142
2371.000000	13.953329
2370.000000	13.948408
2369.000000	13.935721
2368.000000	13.926752
2367.000000	13.921393
2366.000000	13.912972
2365.000000	13.893394
2364.000000	13.861786
2363.000000	13.829850
2362.000000	13.810163
2361.000000	13.782930
2360.000000	13.739181
2359.000000	13.701229
2358.000000	13.662184
2357.000000	13.628060
2356.000000	13.597327
2355.000000	13.576218
2354.000000	13.565500
2353.000000	13.547673
2352.000000	13.528533
2351.000000	13.519674
2350.000000	13.521752
2349.000000	13.539360
2348.000000	13.566266
2347.000000	13.580484
2346.000000	13.611764
2345.000000	13.661309
2344.000000	13.692370
2343.000000	13.742462
2342.000000	13.795945
2341.000000	13.848990
2340.000000	13.889785
2339.000000	13.944252
2338.000000	13.980563
2337.000000	14.015233
2336.000000	14.048592
2335.000000	14.045748
2334.000000	14.080309
2333.000000	14.097590
2332.000000	14.102293
2331.000000	14.100871
2330.000000	14.088731
2329.000000	14.079325
2328.000000	14.062044
2327.000000	14.035030
2326.000000	13.980453
2325.000000	13.937471
2324.000000	13.908597
2323.000000	13.867583
2322.000000	13.811803
2321.000000	13.730213
2320.000000	13.677605
2319.000000	13.574468
2318.000000	13.478659
2317.000000	13.393678
2316.000000	13.309353
2315.000000	13.190358
2314.000000	13.087768
2313.000000	12.994474
2312.000000	12.887619
2311.000000	12.793232
2310.000000	12.705735
2309.000000	12.623597
2308.000000	12.537522
2307.000000	12.490493
2306.000000	12.463150
2305.000000	12.426730
2304.000000	12.414917
2303.000000	12.408246
2302.000000	12.434714
2301.000000	12.481634
2300.000000	12.554803
2299.000000	12.608067
2298.000000	12.687689
2297.000000	12.779998
2296.000000	12.864323
2295.000000	12.982225
2294.000000	13.067643
2293.000000	13.141688
2292.000000	13.252808
2291.000000	13.334290
2290.000000	13.404943
2289.000000	13.428677
2288.000000	13.505783
2287.000000	13.522189
2286.000000	13.549204
2285.000000	13.576547
2284.000000	13.577093
2283.000000	13.558828
2282.000000	13.525580
2281.000000	13.483691
2280.000000	13.448473
2279.000000	13.402209
2278.000000	13.350149
2277.000000	13.308041
2276.000000	13.248652
2275.000000	13.181608
2274.000000	13.148140
2273.000000	13.092799
2272.000000	13.066440
2271.000000	13.041285
2270.000000	13.033192
2269.000000	13.040301
2268.000000	13.072784
2267.000000	13.086565
2266.000000	13.159406
2265.000000	13.269542
2264.000000	13.380116
2263.000000	13.504143
2262.000000	13.652231
2261.000000	13.843740
2260.000000	14.049029
2259.000000	14.251584
2258.000000	14.489029
2257.000000	14.742988
2256.000000	14.983057
2255.000000	15.218423
2254.000000	15.482117
2253.000000	15.731264
2252.000000	16.000863
2251.000000	16.241261
2250.000000	16.459784
2249.000000	16.684104
2248.000000	16.889503
2247.000000	17.109119
2246.000000	17.274598
2245.000000	17.435264
2244.000000	17.621522
2243.000000	17.755174
2242.000000	17.900418
2241.000000	18.009571
2240.000000	18.106036
2239.000000	18.220766
2238.000000	18.293060
2237.000000	18.400791
2236.000000	18.465757
2235.000000	18.541004
2234.000000	18.601924
2233.000000	18.640750
2232.000000	18.703967
2231.000000	18.740825
2230.000000	18.748700
2229.000000	18.787526
2228.000000	18.811588
2227.000000	18.806010
2226.000000	18.811150
2225.000000	18.833900
2224.000000	18.817603
2223.000000	18.754496
2222.000000	18.773527
2221.000000	18.729669
2220.000000	18.688217
2219.000000	18.675530
2218.000000	18.656828
2217.000000	18.595143
2216.000000	18.559597
2215.000000	18.505787
2214.000000	18.485444
2213.000000	18.470679
2212.000000	18.436992
2211.000000	18.384604
2210.000000	18.358027
2209.000000	18.312091
2208.000000	18.284967
2207.000000	18.247671
2206.000000	18.252155
2205.000000	18.198236
2204.000000	18.173736
2203.000000	18.158862
2202.000000	18.121129
2201.000000	18.109973
2200.000000	18.112707
2199.000000	18.091161
2198.000000	18.070928
2197.000000	18.044679
2196.000000	18.027398
2195.000000	18.026086
2194.000000	18.028492
2193.000000	18.011758
2192.000000	17.987150
2191.000000	17.985618
2190.000000	17.976103
2189.000000	17.935308
2188.000000	17.926230
2187.000000	17.907746
2186.000000	17.900747
2185.000000	17.871216
2184.000000	17.857545
2183.000000	17.846061
2182.000000	17.826156
2181.000000	17.821890
2180.000000	17.788641
2179.000000	17.782298
2178.000000	17.778032
2177.000000	17.732753
2176.000000	17.725097
2175.000000	17.700816
2174.000000	17.717878
2173.000000	17.698738
2172.000000	17.686270
2171.000000	17.693270
2170.000000	17.718644
2169.000000	17.700488
2168.000000	17.696442
2167.000000	17.714597
2166.000000	17.715035
2165.000000	17.728159
2164.000000	17.744346
2163.000000	17.771470
2162.000000	17.769829
2161.000000	17.806469
2160.000000	17.824187
2159.000000	17.843655
2158.000000	17.886747
2157.000000	17.921199
2156.000000	17.951057
2155.000000	17.986712
2154.000000	18.025101
2153.000000	18.069397
2152.000000	18.113254
2151.000000	18.140597
2150.000000	18.217594
2149.000000	18.262546
2148.000000	18.288357
2147.000000	18.345230
2146.000000	18.398166
2145.000000	18.440164
2144.000000	18.467944
2143.000000	18.493537
2142.000000	18.531489
2141.000000	18.583987
2140.000000	18.635282
2139.000000	18.645344
2138.000000	18.668421
2137.000000	18.708889
2136.000000	18.745637
2135.000000	18.774074
2134.000000	18.789167
2133.000000	18.814869
2132.000000	18.837181
2131.000000	18.864852
2130.000000	18.867477
2129.000000	18.876226
2128.000000	18.896132
2127.000000	18.906522
2126.000000	18.907725
2125.000000	18.913959
2124.000000	18.901600
2123.000000	18.900178
2122.000000	18.893944
2121.000000	18.878742
2120.000000	18.871851
2119.000000	18.857633
2118.000000	18.851946
2117.000000	18.834446
2116.000000	18.808635
2115.000000	18.790479
2114.000000	18.771011
2113.000000	18.752746
2112.000000	18.736778
2111.000000	18.700139
2110.000000	18.666781
2109.000000	18.639876
2108.000000	18.611439
2107.000000	18.596346
2106.000000	18.572066
2105.000000	18.544176
2104.000000	18.513880
2103.000000	18.484131
2102.000000	18.452961
2101.000000	18.418618
2100.000000	18.391713
2099.000000	18.361745
2098.000000	18.313294
2097.000000	18.282232
2096.000000	18.263968
2095.000000	18.245812
2094.000000	18.226672
2093.000000	18.212563
2092.000000	18.191892
2091.000000	18.165643
2090.000000	18.132285
2089.000000	18.107130
2088.000000	18.089958
2087.000000	18.064147
2086.000000	18.036585
2085.000000	18.013727
2084.000000	17.977197
2083.000000	17.933120
2082.000000	17.918355
2081.000000	17.892981
2080.000000	17.842342
2079.000000	17.793672
2078.000000	17.751565
2077.000000	17.715144
2076.000000	17.665052
2075.000000	17.613976
2074.000000	17.565853
2073.000000	17.527135
2072.000000	17.469387
2071.000000	17.397968
2070.000000	17.344158
2069.000000	17.297347
2068.000000	17.244849
2067.000000	17.174523
2066.000000	17.104963
2065.000000	17.049184
2064.000000	17.009264
2063.000000	16.945391
2062.000000	16.865113
2061.000000	16.810537
2060.000000	16.776304
2059.000000	16.746664
2058.000000	16.709587
2057.000000	16.670651
2056.000000	16.643090
2055.000000	16.629200
2054.000000	16.633465
2053.000000	16.637184
2052.000000	16.646590
2051.000000	16.669229
2050.000000	16.687604
2049.000000	16.726102
2048.000000	16.772804
2047.000000	16.822677
2046.000000	16.882722
2045.000000	16.934563
2044.000000	16.990233
2043.000000	17.051372
2042.000000	17.120932
2041.000000	17.195304
2040.000000	17.251083
2039.000000	17.301831
2038.000000	17.359251
2037.000000	17.427061
2036.000000	17.484152
2035.000000	17.546713
2034.000000	17.588821
2033.000000	17.611023
2032.000000	17.653677
2031.000000	17.687692
2030.000000	17.697098
2029.000000	17.707488
2028.000000	17.719300
2027.000000	17.729143
2026.000000	17.768189
2025.000000	17.773220
2024.000000	17.755611
2023.000000	17.762830
2022.000000	17.779017
2021.000000	17.771798
2020.000000	17.765783
2019.000000	17.751893
2018.000000	17.735268
2017.000000	17.716456
2016.000000	17.693051
2015.000000	17.686270
2014.000000	17.664177
2013.000000	17.641975
2012.000000	17.601070
2011.000000	17.579415
2010.000000	17.546056
2009.000000	17.495418
2008.000000	17.445435
2007.000000	17.396546
2006.000000	17.358813
2005.000000	17.297347
2004.000000	17.234459
2003.000000	17.177148
2002.000000	17.110760
2001.000000	17.053996
2000.000000	16.978640
1999.000000	16.921329
1998.000000	16.841817
1997.000000	16.777944
1996.000000	16.669667
1995.000000	16.607435
1994.000000	16.524969
1993.000000	16.440972
1992.000000	16.355335
1991.000000	16.270572
1990.000000	16.178482
1989.000000	16.082673
1988.000000	16.013441
1987.000000	15.901117
1986.000000	15.783653
1985.000000	15.677782
1984.000000	15.587551
1983.000000	15.495351
1982.000000	15.419119
1981.000000	15.319154
1980.000000	15.206502
1979.000000	15.128739
1978.000000	15.010400
1977.000000	14.911857
1976.000000	14.828297
1975.000000	14.720129
1974.000000	14.610212
1973.000000	14.517465
1972.000000	14.416625
1971.000000	14.323878
1970.000000	14.228944
1969.000000	14.137948
1968.000000	14.027046
1967.000000	13.925768
1966.000000	13.849318
1965.000000	13.755477
1964.000000	13.676840
1963.000000	13.580265
1962.000000	13.483800
1961.000000	13.397287
1960.000000	13.293276
1959.000000	13.215732
1958.000000	13.136219
1957.000000	13.038769
1956.000000	12.991631
1955.000000	12.896259
1954.000000	12.804934
1953.000000	12.730015
1952.000000	12.663408
1951.000000	12.549116
1950.000000	12.511820
1949.000000	12.420058
1948.000000	12.366575
1947.000000	12.299094
1946.000000	12.232924
1945.000000	12.164895
1944.000000	12.135037
1943.000000	12.059134
1942.000000	12.015823
1941.000000	11.990121
1940.000000	11.966606
1939.000000	11.968137
1938.000000	11.923404
1937.000000	11.929310
1936.000000	11.884468
1935.000000	11.890265
1934.000000	11.918701
1933.000000	11.940904
1932.000000	11.970543
1931.000000	12.025229
1930.000000	12.032666
1929.000000	12.089758
1928.000000	12.114147
1927.000000	12.235002
1926.000000	12.270438
1925.000000	12.360560
1924.000000	12.443791
1923.000000	12.555022
1922.000000	12.647878
1921.000000	12.777701
1920.000000	12.923164
1919.000000	13.060097
1918.000000	13.191233
1917.000000	13.343914
1916.000000	13.524814
1915.000000	13.688870
1914.000000	13.867473
1913.000000	14.083153
1912.000000	14.297848
1911.000000	14.508934
1910.000000	14.719583
1909.000000	14.940184
1908.000000	15.158816
1907.000000	15.419557
1906.000000	15.673844
1905.000000	15.948912
1904.000000	16.258432
1903.000000	16.556030
1902.000000	16.854394
1901.000000	17.179226
1900.000000	17.500011
1899.000000	17.879747
1898.000000	18.285404
1897.000000	18.665140
1896.000000	19.023658
1895.000000	19.402301
1894.000000	19.789693
1893.000000	20.199068
1892.000000	20.628021
1891.000000	21.104660
1890.000000	21.604922
1889.000000	22.097420
1888.000000	22.547153
1887.000000	23.057150
1886.000000	23.561897
1885.000000	24.091034
1884.000000	24.622686
1883.000000	25.226523
1882.000000	25.773269
1881.000000	26.287531
1880.000000	26.824215
1879.000000	27.323055
1878.000000	27.821568
1877.000000	28.299191
1876.000000	28.754503
1875.000000	29.207955
1874.000000	29.662282
1873.000000	30.084454
1872.000000	30.508813
1871.000000	30.916767
1870.000000	31.281628
1869.000000	31.605585
1868.000000	31.955244
1867.000000	32.231953
1866.000000	32.467757
1865.000000	32.662765
1864.000000	32.874070
1863.000000	33.042720
1862.000000	33.188839
1861.000000	33.374114
1860.000000	33.572513
1859.000000	33.732085
1858.000000	33.871424
1857.000000	34.000153
1856.000000	34.098587
1855.000000	34.159507
1854.000000	34.253456
1853.000000	34.357468
1852.000000	34.382077
1851.000000	34.425716
1850.000000	34.481167
1849.000000	34.517915
1848.000000	34.567132
1847.000000	34.613068
1846.000000	34.650254
1845.000000	34.643254
1844.000000	34.601803
1843.000000	34.579929
1842.000000	34.596444
1841.000000	34.644129
1840.000000	34.676394
1839.000000	34.680003
1838.000000	34.657473
1837.000000	34.643036
1836.000000	34.614927
1835.000000	34.610771
1834.000000	34.582554
1833.000000	34.535633
1832.000000	34.478870
1831.000000	34.439278
1830.000000	34.413685
1829.000000	34.383717
1828.000000	34.341062
1827.000000	34.277190
1826.000000	34.220973
1825.000000	34.188818
1824.000000	34.143101
1823.000000	34.096072
1822.000000	34.078900
1821.000000	34.072666
1820.000000	34.085463
1819.000000	34.070697
1818.000000	34.014809
1817.000000	33.960670
1816.000000	33.932124
1815.000000	33.929390
1814.000000	33.918344
1813.000000	33.896032
1812.000000	33.877111
1811.000000	33.837409
1810.000000	33.810395
1809.000000	33.778677
1808.000000	33.741491
1807.000000	33.722460
1806.000000	33.692602
1805.000000	33.638463
1804.000000	33.579512
1803.000000	33.537405
1802.000000	33.502843
1801.000000	33.467079
1800.000000	33.432737
1799.000000	33.400910
1798.000000	33.349396
1797.000000	33.288804
1796.000000	33.247025
1795.000000	33.210823
1794.000000	33.172652
1793.000000	33.115561
1792.000000	33.061750
1791.000000	33.030798
1790.000000	33.004221
1789.000000	32.968457
1788.000000	32.923833
1787.000000	32.886210
1786.000000	32.837430
1785.000000	32.796198
1784.000000	32.756824
1783.000000	32.712857
1782.000000	32.669983
1781.000000	32.615189
1780.000000	32.568925
1779.000000	32.529223
1778.000000	32.481756
1777.000000	32.422039
1776.000000	32.354886
1775.000000	32.313215
1774.000000	32.259733
1773.000000	32.193782
1772.000000	32.125425
1771.000000	32.056959
1770.000000	31.979306
1769.000000	31.910730
1768.000000	31.850139
1767.000000	31.767782
1766.000000	31.704894
1765.000000	31.659614
1764.000000	31.622319
1763.000000	31.593664
1762.000000	31.573102
1761.000000	31.584914
1760.000000	31.603179
1759.000000	31.626256
1758.000000	31.688270
1757.000000	31.750392
1756.000000	31.804422
1755.000000	31.861513
1754.000000	31.931948
1753.000000	31.980509
1752.000000	32.002930
1751.000000	32.027429
1750.000000	32.047335
1749.000000	32.043725
1748.000000	32.050178
1747.000000	32.037491
1746.000000	32.016820
1745.000000	31.979743
1744.000000	31.927136
1743.000000	31.848170
1742.000000	31.766032
1741.000000	31.661364
1740.000000	31.553743
1739.000000	31.420858
1738.000000	31.288628
1737.000000	31.164383
1736.000000	31.038715
1735.000000	30.929673
1734.000000	30.848738
1733.000000	30.779725
1732.000000	30.754898
1731.000000	30.738601
1730.000000	30.756538
1729.000000	30.810458
1728.000000	30.884065
1727.000000	30.958984
1726.000000	31.040575
1725.000000	31.114400
1724.000000	31.175101
1723.000000	31.249801
1722.000000	31.312471
1721.000000	31.372406
1720.000000	31.435295
1719.000000	31.508792
1718.000000	31.560087
1717.000000	31.632709
1716.000000	31.718675
1715.000000	31.784079
1714.000000	31.859107
1713.000000	31.967166
1712.000000	32.043507
1711.000000	32.108473
1710.000000	32.178689
1709.000000	32.231187
1708.000000	32.257874
1707.000000	32.260061
1706.000000	32.258092
1705.000000	32.243218
1704.000000	32.234468
1703.000000	32.186673
1702.000000	32.115910
1701.000000	32.049084
1700.000000	31.956119
1699.000000	31.859982
1698.000000	31.775438
1697.000000	31.651958
1696.000000	31.553415
1695.000000	31.480684
1694.000000	31.450825
1693.000000	31.422279
1692.000000	31.448091
1691.000000	31.520057
1690.000000	31.654911
1689.000000	31.712659
1688.000000	31.804312
1687.000000	31.899027
1686.000000	31.978868
1685.000000	32.030163
1684.000000	32.076208
1683.000000	32.182517
1682.000000	32.297575
1681.000000	32.487443
1680.000000	32.730356
1679.000000	33.048407
1678.000000	33.377176
1677.000000	33.728476
1676.000000	34.085900
1675.000000	34.419700
1674.000000	34.715111
1673.000000	34.957259
1672.000000	35.195140
1671.000000	35.393977
1670.000000	35.572580
1669.000000	35.759823
1668.000000	35.876412
1667.000000	35.997705
1666.000000	36.093623
1665.000000	36.172589
1664.000000	36.266648
1663.000000	36.319583
1662.000000	36.377331
1661.000000	36.429064
1660.000000	36.479702
1659.000000	36.506280
1658.000000	36.542044
1657.000000	36.562387
1656.000000	36.564793
1655.000000	36.592136
1654.000000	36.596620
1653.000000	36.576714
1652.000000	36.565559
1651.000000	36.560856
1650.000000	36.530232
1649.000000	36.504092
1648.000000	36.488780
1647.000000	36.440548
1646.000000	36.407846
1645.000000	36.394393
1644.000000	36.347145
1643.000000	36.273976
1642.000000	36.245320
1641.000000	36.190197
1640.000000	36.164277
1639.000000	36.120200
1638.000000	36.072405
1637.000000	36.017938
1636.000000	35.984471
1635.000000	35.914254
1634.000000	35.852132
1633.000000	35.817680
1632.000000	35.762885
1631.000000	35.680419
1630.000000	35.623765
1629.000000	35.555408
1628.000000	35.498098
1627.000000	35.423726
1626.000000	35.369259
1625.000000	35.291824
1624.000000	35.231123
1623.000000	35.197218
1622.000000	35.136080
1621.000000	35.063567
1620.000000	35.001663
1619.000000	34.944571
1618.000000	34.887808
1617.000000	34.817264
1616.000000	34.769469
1615.000000	34.723861
1614.000000	34.669722
1613.000000	34.617552
1612.000000	34.568335
1611.000000	34.510478
1610.000000	34.435012
1609.000000	34.379124
1608.000000	34.339750
1607.000000	34.289767
1606.000000	34.249300
1605.000000	34.167709
1604.000000	34.111712
1603.000000	34.073213
1602.000000	34.005622
1601.000000	33.945249
1600.000000	33.878095
1599.000000	33.821441
1598.000000	33.779880
1597.000000	33.724976
1596.000000	33.673353
1595.000000	33.616808
1594.000000	33.559060
1593.000000	33.499015
1592.000000	33.457892
1591.000000	33.403206
1590.000000	33.355958
1589.000000	33.302804
1588.000000	33.254024
1587.000000	33.234447
1586.000000	33.171449
1585.000000	33.122342
1584.000000	33.060000
1583.000000	33.020299
1582.000000	32.996893
1581.000000	32.955004
1580.000000	32.919459
1579.000000	32.874726
1578.000000	32.825618
1577.000000	32.796635
1576.000000	32.763496
1575.000000	32.719200
1574.000000	32.706185
1573.000000	32.671843
1572.000000	32.653031
1571.000000	32.637282
1570.000000	32.617923
1569.000000	32.606330
1568.000000	32.583143
1567.000000	32.566847
1566.000000	32.552300
1565.000000	32.538410
1564.000000	32.513255
1563.000000	32.502099
1562.000000	32.486459
1561.000000	32.466772
1560.000000	32.455944
1559.000000	32.421055
1558.000000	32.383978
1557.000000	32.343730
1556.000000	32.321637
1555.000000	32.292216
1554.000000	32.248358
1553.000000	32.205813
1552.000000	32.150362
1551.000000	32.109895
1550.000000	32.067349
1549.000000	32.014086
1548.000000	31.958635
1547.000000	31.904824
1546.000000	31.861076
1545.000000	31.809890
1544.000000	31.760892
1543.000000	31.716706
1542.000000	31.660818
1541.000000	31.621772
1540.000000	31.585133
1539.000000	31.544884
1538.000000	31.514042
1537.000000	31.468215
1536.000000	31.412327
1535.000000	31.357204
1534.000000	31.313674
1533.000000	31.267957
1532.000000	31.230661
1531.000000	31.186694
1530.000000	31.122165
1529.000000	31.067917
1528.000000	31.013341
1527.000000	30.956906
1526.000000	30.895986
1525.000000	30.833864
1524.000000	30.788037
1523.000000	30.714431
1522.000000	30.648152
1521.000000	30.601232
1520.000000	30.526203
1519.000000	30.462112
1518.000000	30.404801
1517.000000	30.339069
1516.000000	30.267213
1515.000000	30.195575
1514.000000	30.132577
1513.000000	30.066079
1512.000000	29.994551
1511.000000	29.918647
1510.000000	29.856525
1509.000000	29.786418
1508.000000	29.706796
1507.000000	29.634720
1506.000000	29.564504
1505.000000	29.490351
1504.000000	29.420463
1503.000000	29.355934
1502.000000	29.284186
1501.000000	29.213095
1500.000000	29.153379
1499.000000	29.095303
1498.000000	29.031539
1497.000000	28.974667
1496.000000	28.920856
1495.000000	28.861468
1494.000000	28.815094
1493.000000	28.760737
1492.000000	28.701895
1491.000000	28.658803
1490.000000	28.624461
1489.000000	28.575134
1488.000000	28.535433
1487.000000	28.499012
1486.000000	28.467076
1485.000000	28.422999
1484.000000	28.363064
1483.000000	28.331565
1482.000000	28.307066
1481.000000	28.271630
1480.000000	28.234663
1479.000000	28.196273
1478.000000	28.179430
1477.000000	28.160837
1476.000000	28.122448
1475.000000	28.096855
1474.000000	28.080668
1473.000000	28.067981
1472.000000	28.080121
1471.000000	28.087887
1470.000000	28.083184
1469.000000	28.057372
1468.000000	28.034842
1467.000000	28.029592
1466.000000	28.041732
1465.000000	28.049279
1464.000000	28.046982
1463.000000	28.046654
1462.000000	28.074215
1461.000000	28.085699
1460.000000	28.097183
1459.000000	28.131635
1458.000000	28.167509
1457.000000	28.212570
1456.000000	28.251943
1455.000000	28.290442
1454.000000	28.329597
1453.000000	28.393141
1452.000000	28.454826
1451.000000	28.531167
1450.000000	28.582025
1449.000000	28.642944
1448.000000	28.690302
1447.000000	28.764346
1446.000000	28.848562
1445.000000	28.937043
1444.000000	29.015134
1443.000000	29.063694
1442.000000	29.145504
1441.000000	29.241750
1440.000000	29.328263
1439.000000	29.419259
1438.000000	29.543396
1437.000000	29.623674
1436.000000	29.717952
1435.000000	29.832791
1434.000000	29.959552
1433.000000	30.081282
1432.000000	30.234948
1431.000000	30.353506
1430.000000	30.485626
1429.000000	30.611294
1428.000000	30.762444
1427.000000	30.943891
1426.000000	31.097666
1425.000000	31.248926
1424.000000	31.457934
1423.000000	31.650865
1422.000000	31.856920
1421.000000	32.056740
1420.000000	32.277232
1419.000000	32.534035
1418.000000	32.789963
1417.000000	33.023689
1416.000000	33.226463
1415.000000	33.499125
1414.000000	33.814113
1413.000000	34.118821
1412.000000	34.372889
1411.000000	34.638223
1410.000000	34.959555
1409.000000	35.336338
1408.000000	35.674841
1407.000000	36.040031
1406.000000	36.398221
1405.000000	36.760786
1404.000000	37.163927
1403.000000	37.541804
1402.000000	37.927118
1401.000000	38.295698
1400.000000	38.777149
1399.000000	39.219117
1398.000000	39.561886
1397.000000	39.838813
1396.000000	40.192300
1395.000000	40.660626
1394.000000	41.094392
1393.000000	41.402380
1392.000000	41.705010
1391.000000	42.111651
1390.000000	42.518292
1389.000000	42.865764
1388.000000	43.291545
1387.000000	43.807995
1386.000000	44.244713
1385.000000	44.706040
1384.000000	45.203350
1383.000000	45.679551
1382.000000	46.215140
1381.000000	46.688826
1380.000000	47.117451
1379.000000	47.416362
1378.000000	47.658400
1377.000000	47.866970
1376.000000	48.082759
1375.000000	48.257643
1374.000000	48.471245
1373.000000	48.656847
1372.000000	48.927650
1371.000000	49.168266
1370.000000	49.460505
1369.000000	49.699371
1368.000000	49.938675
1367.000000	50.170542
1366.000000	50.371456
1365.000000	50.546668
1364.000000	50.748567
1363.000000	50.892281
1362.000000	51.051197
1361.000000	51.184848
1360.000000	51.324405
1359.000000	51.426011
1358.000000	51.452807
1357.000000	51.544460
1356.000000	51.628457
1355.000000	51.786935
1354.000000	51.985225
1353.000000	52.239293
1352.000000	52.463066
1351.000000	52.784070
1350.000000	53.127604
1349.000000	53.445983
1348.000000	53.728489
1347.000000	54.032430
1346.000000	54.325217
1345.000000	54.538052
1344.000000	54.801855
1343.000000	55.090157
1342.000000	55.340507
1341.000000	55.570733
1340.000000	55.840989
1339.000000	56.096917
1338.000000	56.328127
1337.000000	56.585586
1336.000000	56.840968
1335.000000	57.101489
1334.000000	57.339480
1333.000000	57.565113
1332.000000	57.807916
1331.000000	58.019659
1330.000000	58.249556
1329.000000	58.487548
1328.000000	58.713508
1327.000000	58.932797
1326.000000	59.131524
1325.000000	59.335063
1324.000000	59.541227
1323.000000	59.743126
1322.000000	59.913854
1321.000000	60.073864
1320.000000	60.265591
1319.000000	60.435116
1318.000000	60.594361
1317.000000	60.753386
1316.000000	60.925536
1315.000000	61.072202
1314.000000	61.232650
1313.000000	61.365426
1312.000000	61.482453
1311.000000	61.620916
1310.000000	61.752162
1309.000000	61.854642
1308.000000	61.975716
1307.000000	62.082353
1306.000000	62.159350
1305.000000	62.245643
1304.000000	62.324609
1303.000000	62.419434
1302.000000	62.482541
1301.000000	62.533070
1300.000000	62.595412
1299.000000	62.648785
1298.000000	62.691658
1297.000000	62.731469
1296.000000	62.772702
1295.000000	62.829356
1294.000000	62.855715
1293.000000	62.866214
1292.000000	62.868511
1291.000000	62.899463
1290.000000	62.898479
1289.000000	62.911713
1288.000000	62.911822
1287.000000	62.887760
1286.000000	62.880542
1285.000000	62.864027
1284.000000	62.835919
1283.000000	62.821482
1282.000000	62.773030
1281.000000	62.740328
1280.000000	62.701283
1279.000000	62.644957
1278.000000	62.615427
1277.000000	62.578022
1276.000000	62.524321
1275.000000	62.500915
1274.000000	62.470948
1273.000000	62.430808
1272.000000	62.383013
1271.000000	62.365842
1270.000000	62.340468
1269.000000	62.312688
1268.000000	62.281517
1267.000000	62.231863
1266.000000	62.204957
1265.000000	62.160006
1264.000000	62.108055
1263.000000	62.071306
1262.000000	62.045823
1261.000000	61.998903
1260.000000	61.954279
1259.000000	61.927265
1258.000000	61.891500
1257.000000	61.838565
1256.000000	61.796566
1255.000000	61.744834
1254.000000	61.699335
1253.000000	61.637869
1252.000000	61.574871
1251.000000	61.527076
1250.000000	61.462657
1249.000000	61.397253
1248.000000	61.322881
1247.000000	61.254086
1246.000000	61.184308
1245.000000	61.109935
1244.000000	61.026485
1243.000000	60.928926
1242.000000	60.838695
1241.000000	60.747699
1240.000000	60.656593
1239.000000	60.569205
1238.000000	60.476787
1237.000000	60.370588
1236.000000	60.275763
1235.000000	60.177985
1234.000000	60.067849
1233.000000	59.961868
1232.000000	59.856544
1231.000000	59.747282
1230.000000	59.638568
1229.000000	59.516947
1228.000000	59.401233
1227.000000	59.291424
1226.000000	59.165319
1225.000000	59.029699
1224.000000	58.908626
1223.000000	58.790396
1222.000000	58.662760
1221.000000	58.529765
1220.000000	58.398191
1219.000000	58.265306
1218.000000	58.138545
1217.000000	58.015831
1216.000000	57.907444
1215.000000	57.802557
1214.000000	57.679952
1213.000000	57.563144
1212.000000	57.465585
1211.000000	57.362120
1210.000000	57.271342
1209.000000	57.175752
1208.000000	57.078631
1207.000000	57.000649
1206.000000	56.923543
1205.000000	56.851467
1204.000000	56.786501
1203.000000	56.729628
1202.000000	56.692332
1201.000000	56.648584
1200.000000	56.627257
1199.000000	56.590617
1198.000000	56.532213
1197.000000	56.462872
1196.000000	56.386531
1195.000000	56.285035
1194.000000	56.162649
1193.000000	56.001217
1192.000000	55.789694
1191.000000	55.568983
1190.000000	55.314040
1189.000000	55.048815
1188.000000	54.794965
1187.000000	54.595253
1186.000000	54.463243
1185.000000	54.388542
1184.000000	54.395980
1183.000000	54.479758
1182.000000	54.638893
1181.000000	54.879837
1180.000000	55.173717
1179.000000	55.484658
1178.000000	55.802162
1177.000000	56.109276
1176.000000	56.401953
1175.000000	56.654162
1174.000000	56.885372
1173.000000	57.106630
1172.000000	57.314216
1171.000000	57.521255
1170.000000	57.745684
1169.000000	57.966395
1168.000000	58.180653
1167.000000	58.434393
1166.000000	58.678619
1165.000000	58.914860
1164.000000	59.158538
1163.000000	59.426169
1162.000000	59.677504
1161.000000	59.939228
1160.000000	60.224468
1159.000000	60.493739
1158.000000	60.749886
1157.000000	60.989846
1156.000000	61.229587
1155.000000	61.465172
1154.000000	61.686102
1153.000000	61.875313
1152.000000	62.051510
1151.000000	62.178599
1150.000000	62.288517
1149.000000	62.399419
1148.000000	62.494353
1147.000000	62.618380
1146.000000	62.735407
1145.000000	62.898916
1144.000000	63.067457
1143.000000	63.272527
1142.000000	63.524737
1141.000000	63.795430
1140.000000	64.067764
1139.000000	64.386580
1138.000000	64.688772
1137.000000	65.019072
1136.000000	65.359216
1135.000000	65.720250
1134.000000	66.106548
1133.000000	66.461129
1132.000000	66.734994
1131.000000	67.008202
1130.000000	67.268286
1129.000000	67.524105
1128.000000	67.716707
1127.000000	67.898044
1126.000000	68.040445
1125.000000	68.158238
1124.000000	68.258531
1123.000000	68.354231
1122.000000	68.422260
1121.000000	68.490616
1120.000000	68.534474
1119.000000	68.590581
1118.000000	68.629627
1117.000000	68.670422
1116.000000	68.703562
1115.000000	68.715046
1114.000000	68.748951
1113.000000	68.766778
1112.000000	68.780340
1111.000000	68.797402
1110.000000	68.827916
1109.000000	68.858540
1108.000000	68.895508
1107.000000	68.938600
1106.000000	68.969224
1105.000000	69.022487
1104.000000	69.044471
1103.000000	69.104516
1102.000000	69.121578
1101.000000	69.146186
1100.000000	69.224824
1099.000000	69.233355
1098.000000	69.276337
1097.000000	69.308164
1096.000000	69.308274
1095.000000	69.384724
1094.000000	69.386583
1093.000000	69.422238
1092.000000	69.469377
1091.000000	69.462596
1090.000000	69.480096
1089.000000	69.489939
1088.000000	69.495736
1087.000000	69.497376
1086.000000	69.477799
1085.000000	69.469268
1084.000000	69.451440
1083.000000	69.435253
1082.000000	69.414035
1081.000000	69.381880
1080.000000	69.340101
1079.000000	69.321508
1078.000000	69.294930
1077.000000	69.251182
1076.000000	69.205903
1075.000000	69.131202
1074.000000	69.080563
1073.000000	69.014503
1072.000000	68.973599
1071.000000	68.912023
1070.000000	68.841369
1069.000000	68.773997
1068.000000	68.713843
1067.000000	68.631377
1066.000000	68.585660
1065.000000	68.514131
1064.000000	68.435493
1063.000000	68.360684
1062.000000	68.322185
1061.000000	68.254594
1060.000000	68.197940
1059.000000	68.158675
1058.000000	68.112302
1057.000000	68.082006
1056.000000	68.048101
1055.000000	68.008290
1054.000000	67.962026
1053.000000	67.977885
1052.000000	67.977557
1051.000000	67.975151
1050.000000	67.975151
1049.000000	67.980729
1048.000000	68.002275
1047.000000	68.036946
1046.000000	68.060460
1045.000000	68.084631
1044.000000	68.127833
1043.000000	68.200783
1042.000000	68.234251
1041.000000	68.307529
1040.000000	68.334435
1039.000000	68.408260
1038.000000	68.474101
1037.000000	68.543880
1036.000000	68.593644
1035.000000	68.656532
1034.000000	68.714280
1033.000000	68.765575
1032.000000	68.823213
1031.000000	68.892883
1030.000000	68.931928
1029.000000	68.990989
1028.000000	69.037034
1027.000000	69.085376
1026.000000	69.145202
1025.000000	69.206996
1024.000000	69.202512
1023.000000	69.248120
1022.000000	69.275025
1021.000000	69.287931
1020.000000	69.323695
1019.000000	69.343601
1018.000000	69.378162
1017.000000	69.406380
1016.000000	69.434925
1015.000000	69.447612
1014.000000	69.490376
1013.000000	69.524391
1012.000000	69.554358
1011.000000	69.582139
1010.000000	69.610356
1009.000000	69.679807
1008.000000	69.719290
1007.000000	69.776600
1006.000000	69.826036
1005.000000	69.870987
1004.000000	69.930704
1003.000000	69.989327
1002.000000	70.040622
1001.000000	70.083495
1000.000000	70.117181
999.000000	70.188163
998.000000	70.219334
997.000000	70.270410
996.000000	70.328377
995.000000	70.387218
994.000000	70.470122
993.000000	70.521745
992.000000	70.602460
991.000000	70.691270
990.000000	70.784344
989.000000	70.857732
988.000000	70.954744
987.000000	71.069037
986.000000	71.149643
985.000000	71.276186
984.000000	71.410931
983.000000	71.535723
982.000000	71.658656
981.000000	71.806854
980.000000	71.938536
979.000000	72.089577
978.000000	72.247619
977.000000	72.421956
976.000000	72.595637
975.000000	72.778068
974.000000	72.955030
973.000000	73.154085
972.000000	73.359156
971.000000	73.562367
970.000000	73.755954
969.000000	73.973711
968.000000	74.189281
967.000000	74.410867
966.000000	74.656624
965.000000	74.880615
964.000000	75.115872
963.000000	75.379019
962.000000	75.612745
961.000000	75.828862
960.000000	76.065759
959.000000	76.307360
958.000000	76.539007
957.000000	76.769343
956.000000	76.972554
955.000000	77.180249
954.000000	77.407850
953.000000	77.624077
952.000000	77.811976
951.000000	78.024265
950.000000	78.207243
949.000000	78.364081
948.000000	78.579432
947.000000	78.770503
946.000000	78.921544
945.000000	79.110100
944.000000	79.261579
943.000000	79.393699
942.000000	79.522538
941.000000	79.676751
940.000000	79.818605
939.000000	79.916492
938.000000	80.036144
937.000000	80.191560
936.000000	80.321165
935.000000	80.438410
934.000000	80.578733
933.000000	80.700573
932.000000	80.843739
931.000000	80.975750
930.000000	81.079652
929.000000	81.195258
928.000000	81.351002
927.000000	81.477872
926.000000	81.594243
925.000000	81.730410
924.000000	81.856514
923.000000	82.025493
922.000000	82.188018
921.000000	82.342450
920.000000	82.496772
919.000000	82.643220
918.000000	82.801370
917.000000	82.965974
916.000000	83.141733
915.000000	83.313664
914.000000	83.476845
913.000000	83.734742
912.000000	83.953593
911.000000	84.132415
910.000000	84.285206
909.000000	84.455715
908.000000	84.661661
907.000000	84.856560
906.000000	85.071912
905.000000	85.294263
904.000000	85.505567
903.000000	85.713263
902.000000	85.930692
901.000000	86.160262
900.000000	86.382613
899.000000	86.593043
898.000000	86.808176
897.000000	86.960201
896.000000	87.144054
895.000000	87.363233
894.000000	87.585475
893.000000	87.769656
892.000000	87.889308
891.000000	88.054895
890.000000	88.215124
889.000000	88.291246
888.000000	88.431569
887.000000	88.566205
886.000000	88.682028
885.000000	88.752573
884.000000	88.823883
883.000000	88.854944
882.000000	88.911051
881.000000	88.914989
880.000000	88.925051
879.000000	88.909629
878.000000	88.903067
877.000000	88.851553
876.000000	88.706309
875.000000	88.626906
874.000000	88.444912
873.000000	88.184719
872.000000	87.894667
871.000000	87.572241
870.000000	87.399216
869.000000	87.451714
868.000000	87.599147
867.000000	87.785296
866.000000	87.934478
865.000000	88.074035
864.000000	88.224639
863.000000	88.350525
862.000000	88.477614
861.000000	88.594860
860.000000	88.751370
859.000000	88.878240
858.000000	89.002267
857.000000	87.872600
856.000000	89.679600
855.000000	89.454600
854.000000	89.978100
853.000000	89.842800
852.000000	90.469100
851.000000	89.930300
850.000000	90.295000
849.000000	90.196900
848.000000	89.394800
847.000000	89.954600
846.000000	90.053900
845.000000	90.328900
844.000000	90.137600
843.000000	90.579900
842.000000	90.494000
841.000000	90.545500
840.000000	90.071100
839.000000	90.430500
838.000000	90.145200
837.000000	90.396700
836.000000	90.394100
835.000000	90.565000
834.000000	90.271200
833.000000	90.300700
832.000000	90.242300
831.000000	90.219100
830.000000	90.526800
829.000000	90.694000
828.000000	90.330600
827.000000	90.267100
826.000000	90.245300
825.000000	90.659100
824.000000	90.437100
823.000000	90.561100
822.000000	90.436500
821.000000	90.503400
820.000000	90.683800
819.000000	90.472400
818.000000	90.494500
817.000000	90.625100
816.000000	90.583400
815.000000	90.615800
814.000000	90.294800
813.000000	90.389100
812.000000	90.368400
811.000000	90.257300
810.000000	90.420800
809.000000	90.292500
808.000000	90.162300
807.000000	89.958100
806.000000	89.935200
805.000000	89.849400
804.000000	89.849700
803.000000	89.745000
802.000000	89.404900
801.000000	89.312900
800.000000	89.015300
799.000000	88.787100
798.000000	88.785100
797.000000	88.660600
796.000000	88.346600
795.000000	88.148600
794.000000	87.825100
793.000000	87.753200
792.000000	87.205000
791.000000	87.230200
790.000000	86.782800
789.000000	86.675200
788.000000	86.389700
787.000000	85.997200
786.000000	85.531800
785.000000	84.979100
784.000000	84.762900
783.000000	84.291200
782.000000	83.736600
781.000000	83.433400
780.000000	83.146200
779.000000	82.604300
778.000000	82.083100
777.000000	81.781600
776.000000	81.291300
775.000000	80.855600
774.000000	80.386600
773.000000	79.832400
772.000000	79.298900
771.000000	78.875100
770.000000	78.491100
769.000000	77.945100
768.000000	77.523100
767.000000	77.039000
766.000000	76.715600
765.000000	76.202400
764.000000	75.783500
763.000000	75.300000
762.000000	74.886400
761.000000	74.500900
760.000000	74.244800
759.000000	73.959800
758.000000	73.643100
757.000000	73.416800
756.000000	73.225900
755.000000	72.978600
754.000000	72.872700
753.000000	72.794800
752.000000	72.623000
751.000000	72.555300
750.000000	72.392500
749.000000	72.393200
748.000000	72.339000
747.000000	72.362900
746.000000	72.429400
745.000000	72.508300
744.000000	72.555100
743.000000	72.672600
742.000000	72.721000
741.000000	72.799800
740.000000	72.905600
739.000000	73.022300
738.000000	73.112100
737.000000	73.349000
736.000000	73.537800
735.000000	73.722600
734.000000	73.826300
733.000000	74.066400
732.000000	74.182600
731.000000	74.382900
730.000000	74.546800
729.000000	74.637000
728.000000	74.726900
727.000000	74.909500
726.000000	75.012300
725.000000	75.034700
724.000000	75.087400
723.000000	75.204900
722.000000	75.330600
721.000000	75.361600
720.000000	75.352000
719.000000	75.320100
718.000000	75.436000
717.000000	75.438400
716.000000	75.279700
715.000000	75.150300
714.000000	75.097800
713.000000	75.031700
712.000000	74.956700
711.000000	74.731300
710.000000	74.473100
709.000000	74.252000
708.000000	73.901300
707.000000	73.560700
706.000000	73.201700
705.000000	72.839800
704.000000	72.318500
703.000000	71.881000
702.000000	71.378300
701.000000	70.842000
700.000000	70.267400
699.000000	69.651800
698.000000	69.095900
697.000000	68.486000
696.000000	67.829200
695.000000	67.178200
694.000000	66.538200
693.000000	65.858100
692.000000	65.143800
691.000000	64.511400
690.000000	63.775000
689.000000	63.110500
688.000000	62.409000
687.000000	61.727000
686.000000	61.088100
685.000000	60.407700
684.000000	59.743600
683.000000	59.064500
682.000000	58.427500
681.000000	57.823800
680.000000	57.223500
679.000000	56.701200
678.000000	56.235000
677.000000	55.847200
676.000000	55.540200
675.000000	55.327500
674.000000	55.193200
673.000000	55.152600
672.000000	55.232100
671.000000	55.390000
670.000000	55.680500
669.000000	56.019900
668.000000	56.443600
667.000000	56.977100
666.000000	57.509600
665.000000	58.082600
664.000000	58.759400
663.000000	59.454700
662.000000	60.172400
661.000000	60.908000
660.000000	61.664500
659.000000	62.422500
658.000000	63.214400
657.000000	64.025600
656.000000	64.824700
655.000000	65.639000
654.000000	66.573500
653.000000	67.477900
652.000000	68.431600
651.000000	69.433700
650.000000	70.374200
649.000000	71.337800
648.000000	72.314700
647.000000	73.283700
646.000000	74.239600
645.000000	75.148900
644.000000	76.032100
643.000000	76.925800
642.000000	77.754600
641.000000	78.488000
640.000000	79.178200
639.000000	79.838400
638.000000	80.379600
637.000000	80.872400
636.000000	81.390300
635.000000	81.863000
634.000000	82.332900
633.000000	82.778900
632.000000	83.249100
631.000000	83.723200
630.000000	84.169200
629.000000	84.579000
628.000000	85.068400
627.000000	85.550500
626.000000	85.936400
625.000000	86.339800
624.000000	86.708000
623.000000	87.141300
622.000000	87.509100
621.000000	87.846000
620.000000	88.144400
619.000000	88.373600
618.000000	88.584800
617.000000	88.756000
616.000000	88.873400
615.000000	89.010600
614.000000	89.126800
613.000000	89.230500
612.000000	89.319800
611.000000	89.419100
610.000000	89.493600
609.000000	89.585000
608.000000	89.720200
607.000000	89.847100
606.000000	89.996100
605.000000	90.128500
604.000000	90.261500
603.000000	90.412500
602.000000	90.528900
601.000000	90.630100
600.000000	90.686300
599.000000	90.766900
598.000000	90.811700
597.000000	90.799000
596.000000	90.779700
595.000000	90.695900
594.000000	90.597300
593.000000	90.492100
592.000000	90.386000
591.000000	90.243300
590.000000	90.099200
589.000000	89.915700
588.000000	89.730100
587.000000	89.524700
586.000000	89.337100
585.000000	89.142100
584.000000	88.939400
583.000000	88.707300
582.000000	88.461900
581.000000	88.187600
580.000000	87.938400
579.000000	87.688800
578.000000	87.340200
577.000000	87.004900
576.000000	86.702900
575.000000	86.343300
574.000000	85.979400
573.000000	85.553800
572.000000	85.084700
571.000000	84.562700
570.000000	84.081400
569.000000	83.546100
568.000000	83.022800
567.000000	82.445500
566.000000	81.827600
565.000000	81.221400
564.000000	80.535500
563.000000	79.849300
562.000000	79.093500
561.000000	78.282300
560.000000	77.465800
559.000000	76.435700
558.000000	75.488800
557.000000	74.605300
556.000000	73.643500
555.000000	72.688700
554.000000	71.631500
553.000000	70.639800
552.000000	69.607500
551.000000	68.611700
550.000000	67.604300
549.000000	66.605500
548.000000	65.660800
547.000000	64.670600
546.000000	63.685400
545.000000	62.766300
544.000000	61.859700
543.000000	60.897200
542.000000	59.978600
541.000000	59.010000
540.000000	58.113000
539.000000	57.223000
538.000000	56.345900
537.000000	55.487600
536.000000	54.645700
535.000000	53.793000
534.000000	52.946800
533.000000	52.156600
532.000000	51.346100
531.000000	50.561200
530.000000	49.778100
529.000000	49.036200
528.000000	48.287900
527.000000	47.561300
526.000000	46.836500
525.000000	46.159400
524.000000	45.407000
523.000000	44.659100
522.000000	43.914800
521.000000	43.153200
520.000000	42.443600
519.000000	41.722300
518.000000	41.049200
517.000000	40.400200
516.000000	39.767300
515.000000	39.194500
514.000000	38.660700
513.000000	38.188100
512.000000	37.777500
511.000000	37.411200
510.000000	37.136100
509.000000	36.863200
508.000000	36.697300
507.000000	36.494300
506.000000	36.370200
505.000000	36.312900
504.000000	36.230200
503.000000	36.123000
502.000000	36.102600
501.000000	36.066400
500.000000	35.998300
499.000000	35.956600
498.000000	35.859700
497.000000	35.798000
496.000000	35.744500
495.000000	35.599100
494.000000	35.472000
493.000000	35.375900
492.000000	35.274100
491.000000	35.131400
490.000000	34.976600
489.000000	34.809400
488.000000	34.685800
487.000000	34.549400
486.000000	34.375100
485.000000	34.228700
484.000000	34.067200
483.000000	33.931500
482.000000	33.723900
481.000000	33.566400
480.000000	33.400300
479.000000	33.188000
478.000000	33.055300
477.000000	32.872200
476.000000	32.698600
475.000000	32.536800
474.000000	32.341900
473.000000	32.165200
472.000000	31.963000
471.000000	31.778000
470.000000	31.577600
469.000000	31.319200
468.000000	31.107100
467.000000	30.896900
466.000000	30.663700
465.000000	30.442000
464.000000	30.194200
463.000000	29.951600
462.000000	29.700200
461.000000	29.410100
460.000000	29.125400
459.000000	28.836000
458.000000	28.544600
457.000000	28.200800
456.000000	27.875100
455.000000	27.509900
454.000000	27.186800
453.000000	26.777600
452.000000	26.371600
451.000000	25.897800
450.000000	25.457900
449.000000	24.997300
448.000000	24.510800
447.000000	24.056600
446.000000	23.484300
445.000000	22.952600
444.000000	22.367400
443.000000	21.766800
442.000000	21.156700
441.000000	20.573500
440.000000	19.960900
439.000000	19.389900
438.000000	18.767300
437.000000	18.160000
436.000000	17.556800
435.000000	16.963300
434.000000	16.377000
433.000000	15.774500
432.000000	15.231700
431.000000	14.681700
430.000000	14.164200
429.000000	13.618800
428.000000	13.177200
427.000000	12.719300
426.000000	12.272100
425.000000	11.889500
424.000000	11.495300
423.000000	11.092900
422.000000	10.746700
421.000000	10.392300
420.000000	10.113700
419.000000	9.848900
418.000000	9.584800
417.000000	9.325200
416.000000	9.139800
415.000000	8.930300
414.000000	8.729200
413.000000	8.535400
412.000000	8.405500
411.000000	8.242300
410.000000	8.126200
409.000000	8.006000
408.000000	7.875500
407.000000	7.772100
406.000000	7.668400
405.000000	7.600700
404.000000	7.547700
403.000000	7.460000
402.000000	7.399800
401.000000	7.313100
400.000000	7.238700
399.000000	7.218800
398.000000	7.162900
397.000000	7.118300
396.000000	7.070900
395.000000	7.035900
394.000000	6.997700
393.000000	6.949000
392.000000	6.936200
391.000000	6.881200
390.000000	6.845900
389.000000	6.790400
388.000000	6.755700
387.000000	6.746400
386.000000	6.724100
385.000000	6.659900
384.000000	6.650800
383.000000	6.620100
382.000000	6.582600
381.000000	6.544400
380.000000	6.495100
379.000000	6.475300
378.000000	6.459900
377.000000	6.417100
376.000000	6.300700
375.000000	5.997100
374.000000	5.782100
373.000000	5.935200
372.000000	6.066300
371.000000	6.112700
370.000000	6.045000
369.000000	5.906600
368.000000	5.970400
367.000000	6.071200
366.000000	6.210400
365.000000	6.149500
364.000000	5.992600
363.000000	6.004000
362.000000	6.113200
361.000000	6.028600
360.000000	6.027500
359.000000	5.966000
358.000000	5.851500
357.000000	5.867500
356.000000	5.868000
355.000000	5.809500
354.000000	5.893200
353.000000	5.812700
352.000000	5.806000
351.000000	5.862800
350.000000	5.791200
349.000000	5.861700
348.000000	5.761800
347.000000	5.661100
346.000000	5.736700
345.000000	5.714100
344.000000	5.760800
343.000000	5.794000
342.000000	5.932100
341.000000	6.031200
340.000000	5.849200
339.000000	5.698500
338.000000	5.651700
337.000000	5.740700
336.000000	5.821900
335.000000	5.832900
334.000000	5.792200
333.000000	5.798200
332.000000	5.910600
331.000000	5.653000
330.000000	5.480100
329.000000	5.934400
328.000000	5.935200
327.000000	5.707700
326.000000	5.811600
325.000000	6.254300
324.000000	6.060000
323.000000	5.835900
322.000000	5.992500
321.000000	6.146700
320.000000	6.289000
319.000000	6.430600
318.000000	6.713900
317.000000	6.875600
316.000000	6.097200
315.000000	5.470000
314.000000	5.475600
313.000000	5.449500
312.000000	5.409700
311.000000	5.445100
310.000000	5.502600
309.000000	5.504800
308.000000	5.457200
307.000000	5.472900
306.000000	5.475000
305.000000	5.439400
304.000000	5.466800
303.000000	5.499000
302.000000	5.480300
301.000000	5.486600
300.000000	5.489100
299.000000	5.477700
298.000000	5.528600
297.000000	5.529600
296.000000	5.528500
295.000000	5.541800
294.000000	5.503700
293.000000	5.506400
292.000000	5.507600
291.000000	5.544900
290.000000	5.583200
289.000000	5.552000
288.000000	5.542700
287.000000	5.540300
286.000000	5.553800
285.000000	5.555400
284.000000	5.568300
283.000000	5.613100
282.000000	5.571600
281.000000	5.603800
280.000000	5.681700
279.000000	5.651500
278.000000	5.640700
277.000000	5.642000
276.000000	5.661200
275.000000	5.700200
274.000000	5.704700
273.000000	5.668300
272.000000	5.711200
271.000000	5.755700
270.000000	5.706700
269.000000	5.790000
268.000000	5.849300
267.000000	5.814300
266.000000	5.822900
265.000000	5.797500
264.000000	5.857600
263.000000	5.880400
262.000000	5.911500
261.000000	5.941400
260.000000	5.949200
259.000000	6.008700
258.000000	6.011000
257.000000	6.018400
256.000000	6.016600
255.000000	6.027900
254.000000	6.046400
253.000000	6.056400
252.000000	6.018200
251.000000	6.036600
250.000000	6.082100
