PE UV       SUBTECH     SPECTRUM    ASCII       PEDS        4.00        
   -1
CICIMAUCR0223-3.ASC
24/06/14
13:45:17.00
24/06/14
13:45:17.00
Vinicio Soto Monge
C. resplendens. Sex M. Ventral 
250,000000
1
Lambda 1050
1050L1511233
PerkinElmer UV WinLab 6.3.2.0749 / 2.02.05 Lambda 900 UV/VIS/NIR, Aug  7 2015 09:38:08

0
0
3350/servo 860,8/2
0
0
UV/VIS
1
1
1
DoubleDePol,CommonBeamDepol,RBeamAtt,SBeamAtt,60mm sphere, WB InGaAs Detector
0
0
0
0
Program
Program
3350/servo 860,8/2
3350/0,2 860,8/0,2
3350/0,2 860,8/0,2
0
15.00
 
 
 
0
 
860,8
319,2
860,8
Front
100
on
S:100 R:100
0
0
0
0
 
0
 
 
 
0
 
 
0
0
0
0
0
 
 
 
 
0
0


0
0
#HDR
-1
-1
#GR
nm
%R
1.0
0.0
2500,000000
-1,000000
2251
8
57,566900
4,209700
#DATA
2482.000000	6.043067
2481.000000	5.990997
2480.000000	6.058474
2479.000000	6.072756
2478.000000	6.036207
2477.000000	6.043516
2476.000000	6.013714
2475.000000	5.998757
2474.000000	5.990997
2473.000000	6.053750
2472.000000	6.004718
2471.000000	6.013490
2470.000000	6.011690
2469.000000	6.012477
2468.000000	6.032270
2467.000000	6.029909
2466.000000	6.039468
2465.000000	6.031708
2464.000000	6.071519
2463.000000	6.062522
2462.000000	6.048240
2461.000000	6.085914
2460.000000	6.101546
2459.000000	6.099184
2458.000000	6.142707
2457.000000	6.164749
2456.000000	6.187803
2455.000000	6.185891
2454.000000	6.210520
2453.000000	6.238748
2452.000000	6.252243
2451.000000	6.272036
2450.000000	6.325118
2449.000000	6.342886
2448.000000	6.359193
2447.000000	6.399567
2446.000000	6.430493
2445.000000	6.465356
2444.000000	6.492346
2443.000000	6.513152
2442.000000	6.559373
2441.000000	6.567920
2440.000000	6.618865
2439.000000	6.652153
2438.000000	6.678806
2437.000000	6.710182
2436.000000	6.726827
2435.000000	6.778558
2434.000000	6.795765
2433.000000	6.780808
2432.000000	6.841986
2431.000000	6.888320
2430.000000	6.897992
2429.000000	6.931392
2428.000000	6.948711
2427.000000	6.976152
2426.000000	6.983574
2425.000000	6.997407
2424.000000	7.042391
2423.000000	7.041041
2422.000000	7.066907
2421.000000	7.106268
2420.000000	7.111667
2419.000000	7.118977
2418.000000	7.153277
2417.000000	7.162949
2416.000000	7.164186
2415.000000	7.191851
2414.000000	7.201523
2413.000000	7.203209
2412.000000	7.245495
2411.000000	7.269336
2410.000000	7.264500
2409.000000	7.275072
2408.000000	7.283281
2407.000000	7.306336
2406.000000	7.321068
2405.000000	7.324105
2404.000000	7.342211
2403.000000	7.364028
2402.000000	7.381234
2401.000000	7.401028
2400.000000	7.431054
2399.000000	7.445674
2398.000000	7.464793
2397.000000	7.472215
2396.000000	7.503029
2395.000000	7.518549
2394.000000	7.511014
2393.000000	7.531257
2392.000000	7.560384
2391.000000	7.581077
2390.000000	7.595134
2389.000000	7.602894
2388.000000	7.606268
2387.000000	7.620213
2386.000000	7.630335
2385.000000	7.637082
2384.000000	7.647204
2383.000000	7.652939
2382.000000	7.653501
2381.000000	7.655076
2380.000000	7.655976
2379.000000	7.644617
2378.000000	7.643043
2377.000000	7.657438
2376.000000	7.652602
2375.000000	7.649228
2374.000000	7.627860
2373.000000	7.621563
2372.000000	7.631459
2371.000000	7.630559
2370.000000	7.626398
2369.000000	7.614703
2368.000000	7.606156
2367.000000	7.581189
2366.000000	7.550263
2365.000000	7.525859
2364.000000	7.517312
2363.000000	7.502130
2362.000000	7.470641
2361.000000	7.458045
2360.000000	7.450623
2359.000000	7.421945
2358.000000	7.399790
2357.000000	7.376399
2356.000000	7.353007
2355.000000	7.323880
2354.000000	7.328828
2353.000000	7.324779
2352.000000	7.316682
2351.000000	7.316795
2350.000000	7.305099
2349.000000	7.320056
2348.000000	7.336925
2347.000000	7.355706
2346.000000	7.362341
2345.000000	7.374262
2344.000000	7.394617
2343.000000	7.406201
2342.000000	7.431842
2341.000000	7.448711
2340.000000	7.460969
2339.000000	7.482224
2338.000000	7.484361
2337.000000	7.498081
2336.000000	7.497631
2335.000000	7.499768
2334.000000	7.498531
2333.000000	7.492121
2332.000000	7.483236
2331.000000	7.464118
2330.000000	7.447136
2329.000000	7.433641
2328.000000	7.430267
2327.000000	7.403277
2326.000000	7.363691
2325.000000	7.340974
2324.000000	7.311059
2323.000000	7.269561
2322.000000	7.241109
2321.000000	7.222553
2320.000000	7.191738
2319.000000	7.136858
2318.000000	7.088387
2317.000000	7.050263
2316.000000	7.021248
2315.000000	6.958383
2314.000000	6.917222
2313.000000	6.877861
2312.000000	6.830965
2311.000000	6.785868
2310.000000	6.759440
2309.000000	6.732450
2308.000000	6.714344
2307.000000	6.681955
2306.000000	6.667897
2305.000000	6.661937
2304.000000	6.663961
2303.000000	6.675657
2302.000000	6.686228
2301.000000	6.703547
2300.000000	6.736386
2299.000000	6.753817
2298.000000	6.787443
2297.000000	6.832427
2296.000000	6.859080
2295.000000	6.885059
2294.000000	6.926444
2293.000000	6.962431
2292.000000	6.979413
2291.000000	7.012476
2290.000000	7.035418
2289.000000	7.043740
2288.000000	7.028446
2287.000000	7.049813
2286.000000	7.043516
2285.000000	7.048689
2284.000000	7.047002
2283.000000	7.030583
2282.000000	7.024285
2281.000000	6.986048
2280.000000	6.966030
2279.000000	6.958270
2278.000000	6.942751
2277.000000	6.930943
2276.000000	6.894393
2275.000000	6.876849
2274.000000	6.868190
2273.000000	6.846934
2272.000000	6.858743
2271.000000	6.862004
2270.000000	6.851320
2269.000000	6.845135
2268.000000	6.871001
2267.000000	6.892931
2266.000000	6.909013
2265.000000	6.954334
2264.000000	7.019224
2263.000000	7.078491
2262.000000	7.142031
2261.000000	7.209845
2260.000000	7.300600
2259.000000	7.385733
2258.000000	7.502017
2257.000000	7.623474
2256.000000	7.711194
2255.000000	7.842098
2254.000000	7.971090
2253.000000	8.101094
2252.000000	8.225026
2251.000000	8.334337
2250.000000	8.438026
2249.000000	8.543627
2248.000000	8.664409
2247.000000	8.779456
2246.000000	8.861328
2245.000000	8.960855
2244.000000	9.017310
2243.000000	9.131233
2242.000000	9.195898
2241.000000	9.266973
2240.000000	9.305996
2239.000000	9.405524
2238.000000	9.436901
2237.000000	9.501678
2236.000000	9.548012
2235.000000	9.610315
2234.000000	9.618749
2233.000000	9.662496
2232.000000	9.725024
2231.000000	9.717714
2230.000000	9.736608
2229.000000	9.748079
2228.000000	9.761124
2227.000000	9.785078
2226.000000	9.789352
2225.000000	9.775857
2224.000000	9.780580
2223.000000	9.802622
2222.000000	9.775744
2221.000000	9.779343
2220.000000	9.740094
2219.000000	9.721201
2218.000000	9.697247
2217.000000	9.704219
2216.000000	9.685438
2215.000000	9.666882
2214.000000	9.680153
2213.000000	9.611889
2212.000000	9.586136
2211.000000	9.596819
2210.000000	9.601093
2209.000000	9.566905
2208.000000	9.546999
2207.000000	9.559595
2206.000000	9.533729
2205.000000	9.543176
2204.000000	9.519447
2203.000000	9.503927
2202.000000	9.473788
2201.000000	9.489757
2200.000000	9.445448
2199.000000	9.450508
2198.000000	9.452195
2197.000000	9.456694
2196.000000	9.418907
2195.000000	9.415196
2194.000000	9.421606
2193.000000	9.393491
2192.000000	9.405187
2191.000000	9.387643
2190.000000	9.392479
2189.000000	9.400351
2188.000000	9.363351
2187.000000	9.373248
2186.000000	9.384157
2185.000000	9.358178
2184.000000	9.349294
2183.000000	9.340972
2182.000000	9.326352
2181.000000	9.319942
2180.000000	9.335124
2179.000000	9.305659
2178.000000	9.295313
2177.000000	9.280805
2176.000000	9.301498
2175.000000	9.287778
2174.000000	9.283729
2173.000000	9.293401
2172.000000	9.278106
2171.000000	9.289690
2170.000000	9.302173
2169.000000	9.304534
2168.000000	9.284629
2167.000000	9.313531
2166.000000	9.299586
2165.000000	9.341759
2164.000000	9.355592
2163.000000	9.344458
2162.000000	9.354130
2161.000000	9.366050
2160.000000	9.390904
2159.000000	9.410810
2158.000000	9.421718
2157.000000	9.446010
2156.000000	9.459730
2155.000000	9.492456
2154.000000	9.514948
2153.000000	9.524845
2152.000000	9.546999
2151.000000	9.580738
2150.000000	9.592658
2149.000000	9.620773
2148.000000	9.658110
2147.000000	9.685326
2146.000000	9.711642
2145.000000	9.732447
2144.000000	9.773045
2143.000000	9.791039
2142.000000	9.815443
2141.000000	9.831412
2140.000000	9.830737
2139.000000	9.855928
2138.000000	9.871560
2137.000000	9.893715
2136.000000	9.913733
2135.000000	9.926329
2134.000000	9.936450
2133.000000	9.936675
2132.000000	9.950058
2131.000000	9.963553
2130.000000	9.968389
2129.000000	9.978173
2128.000000	9.980535
2127.000000	9.986495
2126.000000	9.984246
2125.000000	9.969514
2124.000000	9.979635
2123.000000	9.979298
2122.000000	9.976149
2121.000000	9.968614
2120.000000	9.964115
2119.000000	9.956356
2118.000000	9.943535
2117.000000	9.944435
2116.000000	9.924867
2115.000000	9.890791
2114.000000	9.880107
2113.000000	9.868074
2112.000000	9.865263
2111.000000	9.845357
2110.000000	9.828376
2109.000000	9.818142
2108.000000	9.797786
2107.000000	9.770121
2106.000000	9.761349
2105.000000	9.757638
2104.000000	9.742118
2103.000000	9.715240
2102.000000	9.683414
2101.000000	9.669132
2100.000000	9.662834
2099.000000	9.645627
2098.000000	9.622460
2097.000000	9.593895
2096.000000	9.574440
2095.000000	9.579613
2094.000000	9.580175
2093.000000	9.552173
2092.000000	9.529793
2091.000000	9.527206
2090.000000	9.512811
2089.000000	9.496505
2088.000000	9.498529
2087.000000	9.493356
2086.000000	9.477274
2085.000000	9.469964
2084.000000	9.452308
2083.000000	9.431390
2082.000000	9.413734
2081.000000	9.407886
2080.000000	9.393041
2079.000000	9.361552
2078.000000	9.348844
2077.000000	9.330063
2076.000000	9.308471
2075.000000	9.292951
2074.000000	9.260113
2073.000000	9.232897
2072.000000	9.206469
2071.000000	9.168120
2070.000000	9.155074
2069.000000	9.119874
2068.000000	9.076240
2067.000000	9.054760
2066.000000	9.038678
2065.000000	9.018322
2064.000000	8.997180
2063.000000	8.967490
2062.000000	8.931053
2061.000000	8.920482
2060.000000	8.909348
2059.000000	8.877184
2058.000000	8.871224
2057.000000	8.872236
2056.000000	8.868750
2055.000000	8.854467
2054.000000	8.859416
2053.000000	8.885731
2052.000000	8.895628
2051.000000	8.897427
2050.000000	8.916883
2049.000000	8.959618
2048.000000	8.990095
2047.000000	9.011350
2046.000000	9.061620
2045.000000	9.112564
2044.000000	9.161935
2043.000000	9.199946
2042.000000	9.247292
2041.000000	9.297337
2040.000000	9.347045
2039.000000	9.391354
2038.000000	9.419582
2037.000000	9.466253
2036.000000	9.533729
2035.000000	9.582762
2034.000000	9.597382
2033.000000	9.634606
2032.000000	9.672055
2031.000000	9.688587
2030.000000	9.719064
2029.000000	9.746167
2028.000000	9.774395
2027.000000	9.807683
2026.000000	9.816005
2025.000000	9.835910
2024.000000	9.862676
2023.000000	9.879545
2022.000000	9.878196
2021.000000	9.894952
2020.000000	9.899563
2019.000000	9.898101
2018.000000	9.910697
2017.000000	9.931165
2016.000000	9.926216
2015.000000	9.916657
2014.000000	9.911484
2013.000000	9.927004
2012.000000	9.919694
2011.000000	9.902824
2010.000000	9.896752
2009.000000	9.894502
2008.000000	9.877971
2007.000000	9.858740
2006.000000	9.846032
2005.000000	9.822190
2004.000000	9.809370
2003.000000	9.779455
2002.000000	9.750103
2001.000000	9.727274
2000.000000	9.692973
1999.000000	9.659910
1998.000000	9.632020
1997.000000	9.615038
1996.000000	9.557796
1995.000000	9.532829
1994.000000	9.491444
1993.000000	9.466253
1992.000000	9.405861
1991.000000	9.383707
1990.000000	9.327027
1989.000000	9.284404
1988.000000	9.245380
1987.000000	9.210068
1986.000000	9.171831
1985.000000	9.122123
1984.000000	9.088160
1983.000000	9.034629
1982.000000	8.983909
1981.000000	8.932627
1980.000000	8.882920
1979.000000	8.856829
1978.000000	8.802961
1977.000000	8.754153
1976.000000	8.703320
1975.000000	8.655975
1974.000000	8.620325
1973.000000	8.582763
1972.000000	8.568030
1971.000000	8.515736
1970.000000	8.485260
1969.000000	8.432965
1968.000000	8.394504
1967.000000	8.356605
1966.000000	8.316906
1965.000000	8.278670
1964.000000	8.264612
1963.000000	8.216029
1962.000000	8.187576
1961.000000	8.170482
1960.000000	8.111891
1959.000000	8.067244
1958.000000	8.049250
1957.000000	8.024396
1956.000000	7.966367
1955.000000	7.958944
1954.000000	7.900915
1953.000000	7.883596
1952.000000	7.856043
1951.000000	7.824554
1950.000000	7.786767
1949.000000	7.761464
1948.000000	7.753929
1947.000000	7.753929
1946.000000	7.700622
1945.000000	7.687802
1944.000000	7.683978
1943.000000	7.639556
1942.000000	7.643268
1941.000000	7.629097
1940.000000	7.625611
1939.000000	7.612791
1938.000000	7.614253
1937.000000	7.600870
1936.000000	7.617964
1935.000000	7.603456
1934.000000	7.598058
1933.000000	7.605931
1932.000000	7.611329
1931.000000	7.653614
1930.000000	7.694662
1929.000000	7.720303
1928.000000	7.754828
1927.000000	7.776421
1926.000000	7.801837
1925.000000	7.857730
1924.000000	7.873812
1923.000000	7.953209
1922.000000	7.977163
1921.000000	8.048350
1920.000000	8.107842
1919.000000	8.174868
1918.000000	8.208494
1917.000000	8.310946
1916.000000	8.376398
1915.000000	8.451409
1914.000000	8.543402
1913.000000	8.615601
1912.000000	8.710293
1911.000000	8.826802
1910.000000	8.910248
1909.000000	9.014049
1908.000000	9.115376
1907.000000	9.210068
1906.000000	9.343671
1905.000000	9.489420
1904.000000	9.657436
1903.000000	9.811394
1902.000000	9.943423
1901.000000	10.096706
1900.000000	10.275969
1899.000000	10.457592
1898.000000	10.644052
1897.000000	10.816679
1896.000000	11.023156
1895.000000	11.206467
1894.000000	11.429251
1893.000000	11.634042
1892.000000	11.868072
1891.000000	12.118634
1890.000000	12.418229
1889.000000	12.735143
1888.000000	13.001225
1887.000000	13.292385
1886.000000	13.626730
1885.000000	13.990877
1884.000000	14.363122
1883.000000	14.792383
1882.000000	15.250773
1881.000000	15.689481
1880.000000	16.139211
1879.000000	16.594226
1878.000000	17.046992
1877.000000	17.484913
1876.000000	17.914963
1875.000000	18.343212
1874.000000	18.775398
1873.000000	19.204435
1872.000000	19.609518
1871.000000	20.008190
1870.000000	20.364016
1869.000000	20.690264
1868.000000	21.019773
1867.000000	21.260776
1866.000000	21.495481
1865.000000	21.690825
1864.000000	21.837136
1863.000000	21.984122
1862.000000	22.149776
1861.000000	22.301598
1860.000000	22.444310
1859.000000	22.589497
1858.000000	22.732209
1857.000000	22.817904
1856.000000	22.900225
1855.000000	22.967252
1854.000000	23.012011
1853.000000	23.032254
1852.000000	23.058570
1851.000000	23.073190
1850.000000	23.084661
1849.000000	23.094332
1848.000000	23.111201
1847.000000	23.114800
1846.000000	23.111539
1845.000000	23.062281
1844.000000	22.990081
1843.000000	22.959155
1842.000000	22.939812
1841.000000	22.962529
1840.000000	22.943185
1839.000000	22.943073
1838.000000	22.919006
1837.000000	22.884256
1836.000000	22.857603
1835.000000	22.797886
1834.000000	22.751778
1833.000000	22.674742
1832.000000	22.605466
1831.000000	22.563968
1830.000000	22.492444
1829.000000	22.430928
1828.000000	22.372336
1827.000000	22.305309
1826.000000	22.247842
1825.000000	22.183402
1824.000000	22.113002
1823.000000	22.055647
1822.000000	22.011562
1821.000000	21.998067
1820.000000	21.996155
1819.000000	21.975125
1818.000000	21.937901
1817.000000	21.893029
1816.000000	21.863339
1815.000000	21.847707
1814.000000	21.846583
1813.000000	21.828701
1812.000000	21.812170
1811.000000	21.784842
1810.000000	21.750654
1809.000000	21.705107
1808.000000	21.656862
1807.000000	21.620200
1806.000000	21.582188
1805.000000	21.539116
1804.000000	21.485472
1803.000000	21.435764
1802.000000	21.392355
1801.000000	21.347258
1800.000000	21.297775
1799.000000	21.249980
1798.000000	21.187564
1797.000000	21.125598
1796.000000	21.078702
1795.000000	21.019773
1794.000000	20.975688
1793.000000	20.933291
1792.000000	20.872899
1791.000000	20.826566
1790.000000	20.783156
1789.000000	20.727263
1788.000000	20.660349
1787.000000	20.593210
1786.000000	20.541703
1785.000000	20.492558
1784.000000	20.440151
1783.000000	20.367052
1782.000000	20.294965
1781.000000	20.224340
1780.000000	20.153602
1779.000000	20.091861
1778.000000	20.023485
1777.000000	19.959832
1776.000000	19.875150
1775.000000	19.771686
1774.000000	19.664736
1773.000000	19.580166
1772.000000	19.490422
1771.000000	19.359293
1770.000000	19.237836
1769.000000	19.151016
1768.000000	19.057899
1767.000000	18.953985
1766.000000	18.868740
1765.000000	18.795416
1764.000000	18.722092
1763.000000	18.675983
1762.000000	18.661026
1761.000000	18.653941
1760.000000	18.687229
1759.000000	18.755380
1758.000000	18.805875
1757.000000	18.855807
1756.000000	18.914287
1755.000000	18.969842
1754.000000	19.027647
1753.000000	19.062172
1752.000000	19.082190
1751.000000	19.093212
1750.000000	19.079716
1749.000000	19.064984
1748.000000	19.030009
1747.000000	18.980189
1746.000000	18.914287
1745.000000	18.844449
1744.000000	18.747620
1743.000000	18.625376
1742.000000	18.486037
1741.000000	18.321170
1740.000000	18.142920
1739.000000	17.968719
1738.000000	17.769101
1737.000000	17.586915
1736.000000	17.425309
1735.000000	17.290469
1734.000000	17.190379
1733.000000	17.121554
1732.000000	17.094563
1731.000000	17.104235
1730.000000	17.163839
1729.000000	17.236038
1728.000000	17.302165
1727.000000	17.388985
1726.000000	17.482664
1725.000000	17.563411
1724.000000	17.630325
1723.000000	17.686668
1722.000000	17.734463
1721.000000	17.773262
1720.000000	17.825219
1719.000000	17.862556
1718.000000	17.911364
1717.000000	17.971418
1716.000000	18.029447
1715.000000	18.094337
1714.000000	18.191166
1713.000000	18.277873
1712.000000	18.334778
1711.000000	18.422834
1710.000000	18.470518
1709.000000	18.485362
1708.000000	18.514602
1707.000000	18.522587
1706.000000	18.495709
1705.000000	18.459159
1704.000000	18.428232
1703.000000	18.353334
1702.000000	18.274949
1701.000000	18.204661
1700.000000	18.075219
1699.000000	17.941728
1698.000000	17.805538
1697.000000	17.677896
1696.000000	17.556663
1695.000000	17.491774
1694.000000	17.452525
1693.000000	17.497284
1692.000000	17.558688
1691.000000	17.664850
1690.000000	17.798453
1689.000000	17.915412
1688.000000	18.026636
1687.000000	18.101647
1686.000000	18.181044
1685.000000	18.202524
1684.000000	18.277985
1683.000000	18.391458
1682.000000	18.553963
1681.000000	18.845573
1680.000000	19.185317
1679.000000	19.613341
1678.000000	20.073755
1677.000000	20.590286
1676.000000	21.075103
1675.000000	21.494019
1674.000000	21.877284
1673.000000	22.234684
1672.000000	22.557896
1671.000000	22.812956
1670.000000	23.053847
1669.000000	23.266172
1668.000000	23.429127
1667.000000	23.611088
1666.000000	23.737269
1665.000000	23.868736
1664.000000	23.992555
1663.000000	24.097030
1662.000000	24.177215
1661.000000	24.265721
1660.000000	24.342982
1659.000000	24.392127
1658.000000	24.425190
1657.000000	24.474673
1656.000000	24.492217
1655.000000	24.533377
1654.000000	24.530791
1653.000000	24.515721
1652.000000	24.508411
1651.000000	24.496940
1650.000000	24.480521
1649.000000	24.455667
1648.000000	24.414731
1647.000000	24.368285
1646.000000	24.335784
1645.000000	24.278767
1644.000000	24.245366
1643.000000	24.168555
1642.000000	24.121097
1641.000000	24.058569
1640.000000	24.003688
1639.000000	23.968488
1638.000000	23.874696
1637.000000	23.818691
1636.000000	23.742330
1635.000000	23.692847
1634.000000	23.602092
1633.000000	23.532591
1632.000000	23.446671
1631.000000	23.359852
1630.000000	23.286415
1629.000000	23.217477
1628.000000	23.144152
1627.000000	23.032816
1626.000000	22.963766
1625.000000	22.863451
1624.000000	22.788552
1623.000000	22.691161
1622.000000	22.614913
1621.000000	22.540689
1620.000000	22.443523
1619.000000	22.382795
1618.000000	22.319592
1617.000000	22.235921
1616.000000	22.154275
1615.000000	22.058121
1614.000000	21.995480
1613.000000	21.913497
1612.000000	21.841859
1611.000000	21.789453
1610.000000	21.716691
1609.000000	21.622899
1608.000000	21.559471
1607.000000	21.489183
1606.000000	21.413610
1605.000000	21.338823
1604.000000	21.255265
1603.000000	21.180479
1602.000000	21.097820
1601.000000	21.021572
1600.000000	20.952297
1599.000000	20.861878
1598.000000	20.790128
1597.000000	20.724901
1596.000000	20.653264
1595.000000	20.568694
1594.000000	20.527646
1593.000000	20.464668
1592.000000	20.388644
1591.000000	20.328028
1590.000000	20.280795
1589.000000	20.201960
1588.000000	20.163948
1587.000000	20.101870
1586.000000	20.063746
1585.000000	20.004142
1584.000000	19.955896
1583.000000	19.888083
1582.000000	19.851420
1581.000000	19.822068
1580.000000	19.773148
1579.000000	19.745932
1578.000000	19.701173
1577.000000	19.666423
1576.000000	19.641906
1575.000000	19.611879
1574.000000	19.592649
1573.000000	19.586576
1572.000000	19.575780
1571.000000	19.569144
1570.000000	19.567683
1569.000000	19.556324
1568.000000	19.544628
1567.000000	19.551601
1566.000000	19.558911
1565.000000	19.540804
1564.000000	19.542716
1563.000000	19.555537
1562.000000	19.540692
1561.000000	19.549127
1560.000000	19.551038
1559.000000	19.543503
1558.000000	19.544403
1557.000000	19.521011
1556.000000	19.498857
1555.000000	19.489298
1554.000000	19.457359
1553.000000	19.433292
1552.000000	19.396405
1551.000000	19.368402
1550.000000	19.338825
1549.000000	19.299577
1548.000000	19.280796
1547.000000	19.243796
1546.000000	19.209271
1545.000000	19.171372
1544.000000	19.146518
1543.000000	19.119302
1542.000000	19.095686
1541.000000	19.072856
1540.000000	19.049464
1539.000000	19.024723
1538.000000	18.999195
1537.000000	18.967593
1536.000000	18.953311
1535.000000	18.924858
1534.000000	18.894831
1533.000000	18.857494
1532.000000	18.815884
1531.000000	18.786419
1530.000000	18.770337
1529.000000	18.734350
1528.000000	18.690715
1527.000000	18.643707
1526.000000	18.612555
1525.000000	18.580729
1524.000000	18.516964
1523.000000	18.455785
1522.000000	18.412151
1521.000000	18.365255
1520.000000	18.316222
1519.000000	18.269663
1518.000000	18.216019
1517.000000	18.157540
1516.000000	18.111881
1515.000000	18.064198
1514.000000	18.014265
1513.000000	17.962421
1512.000000	17.895844
1511.000000	17.837702
1510.000000	17.792830
1509.000000	17.735476
1508.000000	17.670473
1507.000000	17.618517
1506.000000	17.567010
1505.000000	17.506843
1504.000000	17.444990
1503.000000	17.384036
1502.000000	17.322071
1501.000000	17.270676
1500.000000	17.224792
1499.000000	17.176997
1498.000000	17.130775
1497.000000	17.091414
1496.000000	17.046542
1495.000000	16.998072
1494.000000	16.943191
1493.000000	16.905404
1492.000000	16.875827
1491.000000	16.835679
1490.000000	16.810488
1489.000000	16.783610
1488.000000	16.752571
1487.000000	16.718945
1486.000000	16.693304
1485.000000	16.682620
1484.000000	16.646183
1483.000000	16.618405
1482.000000	16.588940
1481.000000	16.581406
1480.000000	16.589615
1479.000000	16.558464
1478.000000	16.532485
1477.000000	16.531923
1476.000000	16.528099
1475.000000	16.520789
1474.000000	16.516516
1473.000000	16.519215
1472.000000	16.529449
1471.000000	16.529674
1470.000000	16.536646
1469.000000	16.532373
1468.000000	16.522364
1467.000000	16.550366
1466.000000	16.537771
1465.000000	16.549579
1464.000000	16.572746
1463.000000	16.581743
1462.000000	16.606372
1461.000000	16.627177
1460.000000	16.664177
1459.000000	16.705225
1458.000000	16.740425
1457.000000	16.800366
1456.000000	16.843439
1455.000000	16.891122
1454.000000	16.959498
1453.000000	17.003357
1452.000000	17.069259
1451.000000	17.132462
1450.000000	17.211859
1449.000000	17.281585
1448.000000	17.365368
1447.000000	17.438017
1446.000000	17.518539
1445.000000	17.599623
1444.000000	17.685768
1443.000000	17.766627
1442.000000	17.857045
1441.000000	17.955111
1440.000000	18.042380
1439.000000	18.156978
1438.000000	18.231314
1437.000000	18.342425
1436.000000	18.437004
1435.000000	18.552389
1434.000000	18.674409
1433.000000	18.791480
1432.000000	18.923958
1431.000000	19.046428
1430.000000	19.166198
1429.000000	19.298340
1428.000000	19.454547
1427.000000	19.600971
1426.000000	19.762689
1425.000000	19.950498
1424.000000	20.135383
1423.000000	20.352882
1422.000000	20.549913
1421.000000	20.748518
1420.000000	20.964105
1419.000000	21.211068
1418.000000	21.461068
1417.000000	21.724113
1416.000000	21.953308
1415.000000	22.240082
1414.000000	22.506051
1413.000000	22.833649
1412.000000	23.114125
1411.000000	23.384480
1410.000000	23.732546
1409.000000	24.091970
1408.000000	24.508861
1407.000000	24.925415
1406.000000	25.342981
1405.000000	25.785625
1404.000000	26.247950
1403.000000	26.692282
1402.000000	27.118283
1401.000000	27.540572
1400.000000	28.084431
1399.000000	28.582631
1398.000000	28.989063
1397.000000	29.297880
1396.000000	29.665851
1395.000000	30.171136
1394.000000	30.611194
1393.000000	30.910564
1392.000000	31.280109
1391.000000	31.711171
1390.000000	32.128174
1389.000000	32.510990
1388.000000	32.993108
1387.000000	33.598596
1386.000000	34.153701
1385.000000	34.740520
1384.000000	35.331950
1383.000000	36.015597
1382.000000	36.697221
1381.000000	37.351741
1380.000000	37.883679
1379.000000	38.259410
1378.000000	38.579922
1377.000000	38.814740
1376.000000	39.054506
1375.000000	39.292247
1374.000000	39.564852
1373.000000	39.875130
1372.000000	40.252098
1371.000000	40.663929
1370.000000	41.084081
1369.000000	41.462398
1368.000000	41.816986
1367.000000	42.175173
1366.000000	42.510643
1365.000000	42.717233
1364.000000	43.002658
1363.000000	43.223755
1362.000000	43.465658
1361.000000	43.702612
1360.000000	43.891546
1359.000000	44.010417
1358.000000	44.089701
1357.000000	44.196764
1356.000000	44.372877
1355.000000	44.622877
1354.000000	45.017051
1353.000000	45.491184
1352.000000	45.925619
1351.000000	46.470378
1350.000000	47.034930
1349.000000	47.551911
1348.000000	48.033692
1347.000000	48.498042
1346.000000	48.965203
1345.000000	49.319791
1344.000000	49.754001
1343.000000	50.152786
1342.000000	50.521431
1341.000000	50.897949
1340.000000	51.254337
1339.000000	51.629730
1338.000000	51.975546
1337.000000	52.317201
1336.000000	52.648847
1335.000000	52.982518
1334.000000	53.311915
1333.000000	53.623993
1332.000000	53.937083
1331.000000	54.253097
1330.000000	54.530987
1329.000000	54.799880
1328.000000	55.081369
1327.000000	55.341602
1326.000000	55.586879
1325.000000	55.813936
1324.000000	56.053927
1323.000000	56.269064
1322.000000	56.493873
1321.000000	56.669986
1320.000000	56.866680
1319.000000	57.049765
1318.000000	57.225654
1317.000000	57.399742
1316.000000	57.580916
1315.000000	57.732513
1314.000000	57.874663
1313.000000	58.040318
1312.000000	58.182018
1311.000000	58.316408
1310.000000	58.423471
1309.000000	58.535594
1308.000000	58.631523
1307.000000	58.727451
1306.000000	58.819332
1305.000000	58.902103
1304.000000	58.981162
1303.000000	59.045040
1302.000000	59.094410
1301.000000	59.147604
1300.000000	59.190339
1299.000000	59.225202
1298.000000	59.255679
1297.000000	59.274684
1296.000000	59.289192
1295.000000	59.308085
1294.000000	59.320906
1293.000000	59.337437
1292.000000	59.325292
1291.000000	59.317982
1290.000000	59.307635
1289.000000	59.303474
1288.000000	59.258715
1287.000000	59.215418
1286.000000	59.174819
1285.000000	59.126686
1284.000000	59.080128
1283.000000	59.025584
1282.000000	58.959345
1281.000000	58.894230
1280.000000	58.837213
1279.000000	58.745670
1278.000000	58.693376
1277.000000	58.629611
1276.000000	58.569782
1275.000000	58.509390
1274.000000	58.465194
1273.000000	58.424370
1272.000000	58.361505
1271.000000	58.321244
1270.000000	58.289080
1269.000000	58.245446
1268.000000	58.193264
1267.000000	58.146593
1266.000000	58.105095
1265.000000	58.060561
1264.000000	58.003993
1263.000000	57.943377
1262.000000	57.891082
1261.000000	57.838001
1260.000000	57.785932
1259.000000	57.725428
1258.000000	57.666836
1257.000000	57.596323
1256.000000	57.524349
1255.000000	57.447538
1254.000000	57.371965
1253.000000	57.308874
1252.000000	57.228915
1251.000000	57.123989
1250.000000	57.027835
1249.000000	56.918861
1248.000000	56.794255
1247.000000	56.691129
1246.000000	56.578443
1245.000000	56.437080
1244.000000	56.294030
1243.000000	56.159190
1242.000000	56.015016
1241.000000	55.858583
1240.000000	55.706762
1239.000000	55.553141
1238.000000	55.386811
1237.000000	55.218121
1236.000000	55.046506
1235.000000	54.886362
1234.000000	54.717784
1233.000000	54.532561
1232.000000	54.336318
1231.000000	54.148958
1230.000000	53.959575
1229.000000	53.763106
1228.000000	53.567650
1227.000000	53.350376
1226.000000	53.135014
1225.000000	52.933485
1224.000000	52.737016
1223.000000	52.517718
1222.000000	52.289873
1221.000000	52.084295
1220.000000	51.873095
1219.000000	51.655708
1218.000000	51.450243
1217.000000	51.243653
1216.000000	51.045498
1215.000000	50.862074
1214.000000	50.678089
1213.000000	50.506474
1212.000000	50.327774
1211.000000	50.156497
1210.000000	49.986232
1209.000000	49.816754
1208.000000	49.660209
1207.000000	49.519408
1206.000000	49.397501
1205.000000	49.283916
1204.000000	49.184613
1203.000000	49.085086
1202.000000	49.011649
1201.000000	48.949683
1200.000000	48.871298
1199.000000	48.797412
1198.000000	48.686076
1197.000000	48.558995
1196.000000	48.412234
1195.000000	48.212954
1194.000000	47.940575
1193.000000	47.619163
1192.000000	47.245681
1191.000000	46.797638
1190.000000	46.324180
1189.000000	45.875574
1188.000000	45.449012
1187.000000	45.106682
1186.000000	44.875463
1185.000000	44.766376
1184.000000	44.805400
1183.000000	44.977690
1182.000000	45.290442
1181.000000	45.699124
1180.000000	46.173257
1179.000000	46.708232
1178.000000	47.257152
1177.000000	47.710818
1176.000000	48.129059
1175.000000	48.519522
1174.000000	48.845432
1173.000000	49.172692
1172.000000	49.508050
1171.000000	49.847006
1170.000000	50.196308
1169.000000	50.558319
1168.000000	50.916955
1167.000000	51.295947
1166.000000	51.648848
1165.000000	52.026491
1164.000000	52.420552
1163.000000	52.832383
1162.000000	53.243651
1161.000000	53.644573
1160.000000	54.040884
1159.000000	54.434945
1158.000000	54.811688
1157.000000	55.190005
1156.000000	55.545493
1155.000000	55.866793
1154.000000	56.137148
1153.000000	56.361394
1152.000000	56.525474
1151.000000	56.671223
1150.000000	56.766477
1149.000000	56.857908
1148.000000	56.961821
1147.000000	57.052464
1146.000000	57.178982
1145.000000	57.370053
1144.000000	57.595086
1143.000000	57.865104
1142.000000	58.204847
1141.000000	58.582715
1140.000000	58.952710
1139.000000	59.359367
1138.000000	59.758377
1137.000000	60.174931
1136.000000	60.630958
1135.000000	61.118475
1134.000000	61.606554
1133.000000	62.080912
1132.000000	62.460241
1131.000000	62.846093
1130.000000	63.197195
1129.000000	63.503763
1128.000000	63.757699
1127.000000	63.966088
1126.000000	64.159970
1125.000000	64.293798
1124.000000	64.393438
1123.000000	64.509047
1122.000000	64.584621
1121.000000	64.649511
1120.000000	64.682012
1119.000000	64.689322
1118.000000	64.729695
1117.000000	64.740041
1116.000000	64.725759
1115.000000	64.710577
1114.000000	64.672902
1113.000000	64.662668
1112.000000	64.643663
1111.000000	64.606888
1110.000000	64.581135
1109.000000	64.539637
1108.000000	64.510622
1107.000000	64.502300
1106.000000	64.465300
1105.000000	64.425264
1104.000000	64.389952
1103.000000	64.356776
1102.000000	64.312916
1101.000000	64.281427
1100.000000	64.267257
1099.000000	64.212264
1098.000000	64.170429
1097.000000	64.116448
1096.000000	64.068427
1095.000000	64.014221
1094.000000	63.961027
1093.000000	63.887703
1092.000000	63.807856
1091.000000	63.763434
1090.000000	63.688085
1089.000000	63.636241
1088.000000	63.538513
1087.000000	63.502301
1086.000000	63.402661
1085.000000	63.312805
1084.000000	63.245553
1083.000000	63.146363
1082.000000	63.074276
1081.000000	62.966539
1080.000000	62.892315
1079.000000	62.803808
1078.000000	62.734870
1077.000000	62.645576
1076.000000	62.555945
1075.000000	62.459004
1074.000000	62.363413
1073.000000	62.289076
1072.000000	62.193035
1071.000000	62.083611
1070.000000	62.005788
1069.000000	61.899851
1068.000000	61.828326
1067.000000	61.726661
1066.000000	61.613076
1065.000000	61.526144
1064.000000	61.430103
1063.000000	61.314606
1062.000000	61.222501
1061.000000	61.123873
1060.000000	61.017373
1059.000000	60.902776
1058.000000	60.797737
1057.000000	60.697647
1056.000000	60.597220
1055.000000	60.473289
1054.000000	60.374773
1053.000000	60.248143
1052.000000	60.153339
1051.000000	60.042003
1050.000000	59.956420
1049.000000	59.839799
1048.000000	59.746231
1047.000000	59.619601
1046.000000	59.534918
1045.000000	59.454284
1044.000000	59.342386
1043.000000	59.261751
1042.000000	59.150640
1041.000000	59.049426
1040.000000	58.965305
1039.000000	58.892656
1038.000000	58.779521
1037.000000	58.665373
1036.000000	58.583390
1035.000000	58.479476
1034.000000	58.362742
1033.000000	58.267938
1032.000000	58.166723
1031.000000	58.042792
1030.000000	57.919310
1029.000000	57.818883
1028.000000	57.710021
1027.000000	57.561348
1026.000000	57.443939
1025.000000	57.326081
1024.000000	57.197313
1023.000000	57.072032
1022.000000	56.959010
1021.000000	56.847224
1020.000000	56.734763
1019.000000	56.597337
1018.000000	56.475654
1017.000000	56.356896
1016.000000	56.262204
1015.000000	56.157391
1014.000000	56.058651
1013.000000	55.970706
1012.000000	55.871066
1011.000000	55.792794
1010.000000	55.727005
1009.000000	55.666613
1008.000000	55.588678
1007.000000	55.537284
1006.000000	55.484315
1005.000000	55.428309
1004.000000	55.360833
1003.000000	55.309551
1002.000000	55.252534
1001.000000	55.188206
1000.000000	55.144459
999.000000	55.085530
998.000000	55.026488
997.000000	54.974644
996.000000	54.932133
995.000000	54.891648
994.000000	54.827208
993.000000	54.775813
992.000000	54.732516
991.000000	54.695854
990.000000	54.657167
989.000000	54.591378
988.000000	54.550442
987.000000	54.535823
986.000000	54.500735
985.000000	54.446529
984.000000	54.413241
983.000000	54.381077
982.000000	54.372867
981.000000	54.346327
980.000000	54.302467
979.000000	54.277051
978.000000	54.234203
977.000000	54.222283
976.000000	54.209462
975.000000	54.163128
974.000000	54.132764
973.000000	54.117020
972.000000	54.084406
971.000000	54.068212
970.000000	54.040434
969.000000	54.010519
968.000000	53.999611
967.000000	53.969921
966.000000	53.946304
965.000000	53.936858
964.000000	53.919539
963.000000	53.904582
962.000000	53.900308
961.000000	53.900645
960.000000	53.898059
959.000000	53.889512
958.000000	53.886700
957.000000	53.866457
956.000000	53.861959
955.000000	53.855774
954.000000	53.851163
953.000000	53.848801
952.000000	53.817650
951.000000	53.799993
950.000000	53.800893
949.000000	53.781550
948.000000	53.753997
947.000000	53.751298
946.000000	53.736228
945.000000	53.709912
944.000000	53.697879
943.000000	53.669314
942.000000	53.631640
941.000000	53.600151
940.000000	53.562139
939.000000	53.535261
938.000000	53.506359
937.000000	53.468235
936.000000	53.434047
935.000000	53.425950
934.000000	53.404919
933.000000	53.350376
932.000000	53.316638
931.000000	53.292909
930.000000	53.276377
929.000000	53.230043
928.000000	53.181573
927.000000	53.147385
926.000000	53.130628
925.000000	53.079571
924.000000	53.022666
923.000000	52.984205
922.000000	52.938771
921.000000	52.900759
920.000000	52.873656
919.000000	52.828109
918.000000	52.775365
917.000000	52.733867
916.000000	52.676288
915.000000	52.620507
914.000000	52.569450
913.000000	52.520755
912.000000	52.471047
911.000000	52.416616
910.000000	52.350265
909.000000	52.298420
908.000000	52.268956
907.000000	52.235105
906.000000	52.199005
905.000000	52.165379
904.000000	52.142662
903.000000	52.138501
902.000000	52.105326
901.000000	52.086770
900.000000	52.073499
899.000000	52.066752
898.000000	52.061354
897.000000	52.069226
896.000000	52.043022
895.000000	52.006923
894.000000	51.991178
893.000000	51.986005
892.000000	51.963175
891.000000	51.922915
890.000000	51.856788
889.000000	51.813041
888.000000	51.756923
887.000000	51.685061
886.000000	51.597229
885.000000	51.547184
884.000000	51.493203
883.000000	51.402672
882.000000	51.323275
881.000000	51.216662
880.000000	51.126357
879.000000	51.007598
878.000000	50.919092
877.000000	50.766595
876.000000	50.609151
875.000000	50.437086
874.000000	50.310905
873.000000	50.120172
872.000000	49.901661
871.000000	49.718013
870.000000	49.647613
869.000000	49.663920
868.000000	49.690798
867.000000	49.729597
866.000000	49.753663
865.000000	49.777280
864.000000	49.790663
863.000000	49.802246
862.000000	49.832273
861.000000	49.842957
860.000000	49.844082
859.000000	49.868598
858.000000	49.922467
857.000000	49.107300
856.000000	50.086900
855.000000	50.573200
854.000000	50.530900
853.000000	50.342900
852.000000	50.488800
851.000000	50.681100
850.000000	50.781600
849.000000	50.598700
848.000000	51.141700
847.000000	51.070800
846.000000	50.996000
845.000000	51.013600
844.000000	50.884300
843.000000	50.871200
842.000000	51.053400
841.000000	51.263400
840.000000	50.892300
839.000000	51.047600
838.000000	51.011500
837.000000	51.269100
836.000000	51.313600
835.000000	51.112100
834.000000	51.131000
833.000000	51.160500
832.000000	51.148200
831.000000	51.289700
830.000000	51.223300
829.000000	51.145300
828.000000	51.218200
827.000000	51.077300
826.000000	51.310000
825.000000	51.176400
824.000000	51.036000
823.000000	51.087300
822.000000	51.160400
821.000000	51.008400
820.000000	51.059200
819.000000	50.910100
818.000000	50.792600
817.000000	51.078000
816.000000	51.107400
815.000000	50.987700
814.000000	50.828500
813.000000	50.963200
812.000000	50.794900
811.000000	50.623900
810.000000	50.932500
809.000000	50.796400
808.000000	50.657800
807.000000	50.801300
806.000000	50.609600
805.000000	50.404800
804.000000	50.539200
803.000000	50.393400
802.000000	50.411900
801.000000	50.258900
800.000000	50.395500
799.000000	50.326100
798.000000	50.253700
797.000000	50.268800
796.000000	50.257900
795.000000	50.172300
794.000000	50.130300
793.000000	50.160300
792.000000	50.101300
791.000000	50.002000
790.000000	49.818700
789.000000	49.839600
788.000000	49.756200
787.000000	49.607800
786.000000	49.649900
785.000000	49.655600
784.000000	49.567100
783.000000	49.554400
782.000000	49.455500
781.000000	49.364300
780.000000	49.307000
779.000000	49.307300
778.000000	49.161100
777.000000	49.108000
776.000000	49.138500
775.000000	49.170800
774.000000	48.973000
773.000000	48.962100
772.000000	48.962000
771.000000	48.754700
770.000000	48.863300
769.000000	48.753500
768.000000	48.657300
767.000000	48.595400
766.000000	48.450000
765.000000	48.515200
764.000000	48.403000
763.000000	48.374600
762.000000	48.231100
761.000000	48.176600
760.000000	48.073000
759.000000	48.007100
758.000000	47.959500
757.000000	47.782200
756.000000	47.716600
755.000000	47.688000
754.000000	47.622400
753.000000	47.504100
752.000000	47.475700
751.000000	47.362500
750.000000	47.285600
749.000000	47.217000
748.000000	47.135400
747.000000	47.095200
746.000000	46.873500
745.000000	46.772800
744.000000	46.794600
743.000000	46.668400
742.000000	46.482300
741.000000	46.495000
740.000000	46.387700
739.000000	46.266600
738.000000	46.161300
737.000000	46.044800
736.000000	45.997800
735.000000	45.920100
734.000000	45.785000
733.000000	45.727800
732.000000	45.646700
731.000000	45.483400
730.000000	45.312900
729.000000	45.218800
728.000000	45.100000
727.000000	44.978000
726.000000	44.809100
725.000000	44.764600
724.000000	44.636400
723.000000	44.525600
722.000000	44.374100
721.000000	44.251000
720.000000	44.013900
719.000000	43.933900
718.000000	43.761900
717.000000	43.557400
716.000000	43.431800
715.000000	43.279900
714.000000	43.097500
713.000000	42.959800
712.000000	42.778300
711.000000	42.590800
710.000000	42.445600
709.000000	42.262800
708.000000	42.134300
707.000000	41.932600
706.000000	41.728200
705.000000	41.573400
704.000000	41.391700
703.000000	41.165200
702.000000	41.025000
701.000000	40.818200
700.000000	40.618200
699.000000	40.433000
698.000000	40.184300
697.000000	39.997700
696.000000	39.830900
695.000000	39.615300
694.000000	39.429300
693.000000	39.188600
692.000000	38.964600
691.000000	38.713100
690.000000	38.476600
689.000000	38.257400
688.000000	38.005400
687.000000	37.746900
686.000000	37.515000
685.000000	37.246900
684.000000	37.006300
683.000000	36.765300
682.000000	36.544000
681.000000	36.303100
680.000000	36.023500
679.000000	35.795400
678.000000	35.587200
677.000000	35.343900
676.000000	35.114600
675.000000	34.887100
674.000000	34.675900
673.000000	34.447600
672.000000	34.221400
671.000000	34.028500
670.000000	33.787700
669.000000	33.599300
668.000000	33.417500
667.000000	33.206000
666.000000	33.014600
665.000000	32.824200
664.000000	32.644100
663.000000	32.452700
662.000000	32.290500
661.000000	32.115900
660.000000	31.926700
659.000000	31.763000
658.000000	31.586100
657.000000	31.402700
656.000000	31.236900
655.000000	31.084300
654.000000	30.939800
653.000000	30.775500
652.000000	30.628500
651.000000	30.488200
650.000000	30.354000
649.000000	30.226900
648.000000	30.065700
647.000000	29.920100
646.000000	29.792900
645.000000	29.668000
644.000000	29.558900
643.000000	29.446500
642.000000	29.335600
641.000000	29.232500
640.000000	29.144700
639.000000	29.061300
638.000000	28.966500
637.000000	28.912600
636.000000	28.852900
635.000000	28.769200
634.000000	28.701600
633.000000	28.648700
632.000000	28.582800
631.000000	28.531100
630.000000	28.507300
629.000000	28.456200
628.000000	28.402800
627.000000	28.374100
626.000000	28.321300
625.000000	28.277000
624.000000	28.247600
623.000000	28.204100
622.000000	28.161800
621.000000	28.110800
620.000000	28.069100
619.000000	28.026500
618.000000	28.006200
617.000000	27.993800
616.000000	27.936800
615.000000	27.889000
614.000000	27.882600
613.000000	27.843500
612.000000	27.816600
611.000000	27.810000
610.000000	27.810100
609.000000	27.795100
608.000000	27.823300
607.000000	27.842900
606.000000	27.893700
605.000000	27.950100
604.000000	27.994600
603.000000	28.073000
602.000000	28.161600
601.000000	28.261800
600.000000	28.355300
599.000000	28.457500
598.000000	28.590900
597.000000	28.704200
596.000000	28.827300
595.000000	28.965600
594.000000	29.064500
593.000000	29.199000
592.000000	29.361500
591.000000	29.507700
590.000000	29.648000
589.000000	29.782200
588.000000	29.936600
587.000000	30.058900
586.000000	30.200500
585.000000	30.344600
584.000000	30.485500
583.000000	30.610500
582.000000	30.719600
581.000000	30.836700
580.000000	30.955900
579.000000	31.064300
578.000000	31.166800
577.000000	31.292200
576.000000	31.381400
575.000000	31.453700
574.000000	31.543200
573.000000	31.631100
572.000000	31.685100
571.000000	31.755100
570.000000	31.802200
569.000000	31.828700
568.000000	31.885300
567.000000	31.920300
566.000000	31.931400
565.000000	31.937900
564.000000	31.949000
563.000000	31.944600
562.000000	31.915200
561.000000	31.882000
560.000000	31.828700
559.000000	31.771000
558.000000	31.721100
557.000000	31.649500
556.000000	31.587200
555.000000	31.506500
554.000000	31.398700
553.000000	31.289500
552.000000	31.156800
551.000000	31.029200
550.000000	30.907000
549.000000	30.741500
548.000000	30.572800
547.000000	30.394900
546.000000	30.220600
545.000000	30.024400
544.000000	29.813100
543.000000	29.595900
542.000000	29.357100
541.000000	29.137200
540.000000	28.892800
539.000000	28.630100
538.000000	28.360400
537.000000	28.093800
536.000000	27.825600
535.000000	27.543200
534.000000	27.207600
533.000000	26.910900
532.000000	26.587800
531.000000	26.241300
530.000000	25.881100
529.000000	25.522000
528.000000	25.168900
527.000000	24.810600
526.000000	24.420900
525.000000	23.999800
524.000000	23.579200
523.000000	23.137200
522.000000	22.700100
521.000000	22.258500
520.000000	21.798100
519.000000	21.334000
518.000000	20.889600
517.000000	20.428800
516.000000	19.961400
515.000000	19.504100
514.000000	19.061800
513.000000	18.600900
512.000000	18.153600
511.000000	17.737900
510.000000	17.327200
509.000000	16.929600
508.000000	16.516400
507.000000	16.133000
506.000000	15.742500
505.000000	15.389100
504.000000	15.033300
503.000000	14.718000
502.000000	14.378600
501.000000	14.070000
500.000000	13.772800
499.000000	13.495100
498.000000	13.202400
497.000000	12.940100
496.000000	12.678700
495.000000	12.430200
494.000000	12.202400
493.000000	11.985500
492.000000	11.736600
491.000000	11.532800
490.000000	11.327600
489.000000	11.144800
488.000000	10.957800
487.000000	10.782800
486.000000	10.612300
485.000000	10.461500
484.000000	10.284300
483.000000	10.122400
482.000000	9.971300
481.000000	9.816600
480.000000	9.669800
479.000000	9.512600
478.000000	9.357100
477.000000	9.199500
476.000000	9.075500
475.000000	8.930800
474.000000	8.805900
473.000000	8.680300
472.000000	8.555000
471.000000	8.429800
470.000000	8.294800
469.000000	8.182800
468.000000	8.080600
467.000000	7.962100
466.000000	7.855300
465.000000	7.755900
464.000000	7.665900
463.000000	7.582000
462.000000	7.458000
461.000000	7.355800
460.000000	7.282100
459.000000	7.197700
458.000000	7.122100
457.000000	7.049800
456.000000	6.971700
455.000000	6.869900
454.000000	6.801700
453.000000	6.738500
452.000000	6.659600
451.000000	6.570300
450.000000	6.519000
449.000000	6.449400
448.000000	6.383700
447.000000	6.300100
446.000000	6.252600
445.000000	6.180300
444.000000	6.115800
443.000000	6.051100
442.000000	6.010700
441.000000	5.964000
440.000000	5.882300
439.000000	5.846700
438.000000	5.792100
437.000000	5.720700
436.000000	5.676500
435.000000	5.650900
434.000000	5.593000
433.000000	5.560100
432.000000	5.507500
431.000000	5.462500
430.000000	5.428100
429.000000	5.385000
428.000000	5.344200
427.000000	5.324700
426.000000	5.290800
425.000000	5.248600
424.000000	5.213500
423.000000	5.186800
422.000000	5.162100
421.000000	5.129200
420.000000	5.124400
419.000000	5.079600
418.000000	5.048200
417.000000	5.030200
416.000000	5.005700
415.000000	4.972800
414.000000	4.970400
413.000000	4.944200
412.000000	4.931200
411.000000	4.904600
410.000000	4.901400
409.000000	4.881900
408.000000	4.864300
407.000000	4.853600
406.000000	4.825800
405.000000	4.807500
404.000000	4.794300
403.000000	4.800200
402.000000	4.786100
401.000000	4.760400
400.000000	4.751100
399.000000	4.734300
398.000000	4.721800
397.000000	4.727600
396.000000	4.723200
395.000000	4.711100
394.000000	4.716700
393.000000	4.690000
392.000000	4.666000
391.000000	4.688600
390.000000	4.690000
389.000000	4.670700
388.000000	4.638300
387.000000	4.635000
386.000000	4.653200
385.000000	4.650200
384.000000	4.629200
383.000000	4.627900
382.000000	4.622400
381.000000	4.593900
380.000000	4.582200
379.000000	4.587000
378.000000	4.586800
377.000000	4.574800
376.000000	4.562300
375.000000	4.390800
374.000000	4.209700
373.000000	4.345700
372.000000	4.330100
371.000000	4.338700
370.000000	4.417700
369.000000	4.448400
368.000000	4.512300
367.000000	4.546500
366.000000	4.522700
365.000000	4.564000
364.000000	4.575700
363.000000	4.547600
362.000000	4.528700
361.000000	4.519700
360.000000	4.455700
359.000000	4.402200
358.000000	4.448800
357.000000	4.551600
356.000000	4.512200
355.000000	4.473000
354.000000	4.551500
353.000000	4.580400
352.000000	4.496100
351.000000	4.468300
350.000000	4.552700
349.000000	4.550500
348.000000	4.619000
347.000000	4.715200
346.000000	4.574800
345.000000	4.502900
344.000000	4.547700
343.000000	4.656400
342.000000	4.596700
341.000000	4.564700
340.000000	4.692300
339.000000	4.674800
338.000000	4.668600
337.000000	4.677100
336.000000	4.598200
335.000000	4.648400
334.000000	4.758000
333.000000	4.767400
332.000000	4.559600
331.000000	4.474600
330.000000	4.577300
329.000000	4.892000
328.000000	4.990000
327.000000	4.836300
326.000000	4.947400
325.000000	4.777200
324.000000	4.764700
323.000000	5.207300
322.000000	5.538000
321.000000	5.733300
320.000000	5.713500
319.000000	5.460500
318.000000	5.391900
317.000000	4.790200
316.000000	4.355600
315.000000	4.407200
314.000000	4.430400
313.000000	4.435900
312.000000	4.419900
311.000000	4.433100
310.000000	4.450600
309.000000	4.434600
308.000000	4.432900
307.000000	4.440500
306.000000	4.427100
305.000000	4.420400
304.000000	4.428200
303.000000	4.439000
302.000000	4.421700
301.000000	4.405700
300.000000	4.416100
299.000000	4.474400
298.000000	4.493600
297.000000	4.487400
296.000000	4.460300
295.000000	4.454400
294.000000	4.451400
293.000000	4.492300
292.000000	4.518600
291.000000	4.493500
290.000000	4.472000
289.000000	4.452700
288.000000	4.476900
287.000000	4.469700
286.000000	4.500000
285.000000	4.508000
284.000000	4.492200
283.000000	4.473900
282.000000	4.514400
281.000000	4.534800
280.000000	4.548700
279.000000	4.557800
278.000000	4.542200
277.000000	4.543200
276.000000	4.567900
275.000000	4.562500
274.000000	4.531200
273.000000	4.560800
272.000000	4.586700
271.000000	4.627500
270.000000	4.638100
269.000000	4.653800
268.000000	4.647500
267.000000	4.648800
266.000000	4.676700
265.000000	4.687600
264.000000	4.733600
263.000000	4.786600
262.000000	4.822600
261.000000	4.787200
260.000000	4.803600
259.000000	4.797700
258.000000	4.826500
257.000000	4.840900
256.000000	4.861400
255.000000	4.871500
254.000000	4.870200
253.000000	4.872100
252.000000	4.903600
251.000000	4.903400
250.000000	4.874500
