PE UV       SUBTECH     SPECTRUM    ASCII       PEDS        4.00        
   -1
CICIMAUCR0003-3.Sample.ASC
24/05/03
16:05:21.00
24/05/03
16:05:21.00
Vinicio Soto Monge
C. kalinini
250,000000
1
Lambda 1050
1050L1511233
PerkinElmer UV WinLab 6.3.2.0749 / 2.02.05 Lambda 900 UV/VIS/NIR, Aug  7 2015 09:38:08

0
0
3350/servo 860,8/2
0
0
UV/VIS
1
1
1
DoubleDePol,CommonBeamDepol,RBeamAtt,SBeamAtt,60mm sphere, WB InGaAs Detector
0
0
0
0
Program
Program
3350/servo 860,8/2
3350/0,2 860,8/0,2
3350/0,2 860,8/0,2
0
15.00
 
 
 
0
 
860,8
319,2
860,8
Front
100
on
S:100 R:100
0
0
0
0
 
0
 
 
 
0
 
 
0
0
0
0
0
 
 
 
 
0
0


0
0
#HDR
-1
-1
#GR
nm
%R
1.0
0.0
2500,000000
-1,000000
2251
8
101,669700
5,424300
#DATA
250.000000	6.264300
251.000000	6.269200
252.000000	6.246400
253.000000	6.215900
254.000000	6.196933
255.000000	6.181333
256.000000	6.170567
257.000000	6.199500
258.000000	6.162233
259.000000	6.162433
260.000000	6.130233
261.000000	6.106467
262.000000	6.072500
263.000000	6.050767
264.000000	6.015700
265.000000	5.976667
266.000000	5.977433
267.000000	5.931233
268.000000	5.948800
269.000000	5.919433
270.000000	5.898600
271.000000	5.856600
272.000000	5.886600
273.000000	5.854900
274.000000	5.823867
275.000000	5.806000
276.000000	5.846800
277.000000	5.829800
278.000000	5.795600
279.000000	5.793700
280.000000	5.779200
281.000000	5.763233
282.000000	5.759833
283.000000	5.745467
284.000000	5.735700
285.000000	5.717000
286.000000	5.714433
287.000000	5.684867
288.000000	5.683867
289.000000	5.689033
290.000000	5.703967
291.000000	5.696633
292.000000	5.686167
293.000000	5.669900
294.000000	5.659933
295.000000	5.611233
296.000000	5.597633
297.000000	5.613100
298.000000	5.654300
299.000000	5.628467
300.000000	5.625000
301.000000	5.600567
302.000000	5.576967
303.000000	5.594267
304.000000	5.603033
305.000000	5.566600
306.000000	5.592433
307.000000	5.590933
308.000000	5.556000
309.000000	5.567333
310.000000	5.561633
311.000000	5.566267
312.000000	5.538100
313.000000	5.546300
314.000000	5.538267
315.000000	5.550233
316.000000	5.584433
317.000000	5.923933
318.000000	6.064100
319.000000	5.965733
320.000000	5.927900
321.000000	5.891467
322.000000	5.865433
323.000000	5.562200
324.000000	5.767300
325.000000	5.805600
326.000000	5.707700
327.000000	5.703967
328.000000	5.700000
329.000000	5.590600
330.000000	5.731833
331.000000	5.554233
332.000000	5.788133
333.000000	5.663033
334.000000	5.743667
335.000000	5.640067
336.000000	5.622033
337.000000	5.698167
338.000000	5.546467
339.000000	5.715867
340.000000	5.647433
341.000000	5.611367
342.000000	5.738700
343.000000	5.601833
344.000000	5.645200
345.000000	5.759867
346.000000	5.746467
347.000000	5.673200
348.000000	5.627067
349.000000	5.730700
350.000000	5.808433
351.000000	5.794333
352.000000	5.801967
353.000000	5.694967
354.000000	5.808533
355.000000	5.808600
356.000000	5.830767
357.000000	5.874700
358.000000	5.892667
359.000000	5.929467
360.000000	5.932467
361.000000	5.931233
362.000000	5.987500
363.000000	6.016733
364.000000	6.031967
365.000000	6.177067
366.000000	6.193133
367.000000	6.185633
368.000000	6.263400
369.000000	6.279500
370.000000	6.348600
371.000000	6.419433
372.000000	6.396200
373.000000	6.459300
374.000000	6.493667
375.000000	6.640233
376.000000	6.869400
377.000000	7.085200
378.000000	7.212700
379.000000	7.343267
380.000000	7.482867
381.000000	7.654300
382.000000	7.842667
383.000000	8.049067
384.000000	8.244367
385.000000	8.468233
386.000000	8.686267
387.000000	8.919767
388.000000	9.193500
389.000000	9.470300
390.000000	9.753933
391.000000	10.054667
392.000000	10.367500
393.000000	10.694500
394.000000	11.020333
395.000000	11.358333
396.000000	11.715533
397.000000	12.070467
398.000000	12.431500
399.000000	12.808000
400.000000	13.188267
401.000000	13.556733
402.000000	13.957267
403.000000	14.352033
404.000000	14.744733
405.000000	15.131833
406.000000	15.523633
407.000000	15.929100
408.000000	16.318567
409.000000	16.689800
410.000000	17.078567
411.000000	17.453100
412.000000	17.832833
413.000000	18.214400
414.000000	18.575033
415.000000	18.935133
416.000000	19.279600
417.000000	19.590600
418.000000	19.931033
419.000000	20.251467
420.000000	20.547867
421.000000	20.857833
422.000000	21.140533
423.000000	21.415200
424.000000	21.692867
425.000000	21.960933
426.000000	22.217167
427.000000	22.436700
428.000000	22.650033
429.000000	22.855333
430.000000	23.044733
431.000000	23.226400
432.000000	23.395067
433.000000	23.561833
434.000000	23.718167
435.000000	23.854567
436.000000	23.970667
437.000000	24.075833
438.000000	24.182933
439.000000	24.265100
440.000000	24.327467
441.000000	24.407333
442.000000	24.473933
443.000000	24.526867
444.000000	24.550633
445.000000	24.554533
446.000000	24.569800
447.000000	24.581433
448.000000	24.600033
449.000000	24.617700
450.000000	24.612400
451.000000	24.621200
452.000000	24.648300
453.000000	24.669967
454.000000	24.704200
455.000000	24.764400
456.000000	24.830100
457.000000	24.917100
458.000000	25.016867
459.000000	25.141467
460.000000	25.293433
461.000000	25.459333
462.000000	25.648200
463.000000	25.857033
464.000000	26.087267
465.000000	26.338233
466.000000	26.609433
467.000000	26.907233
468.000000	27.215567
469.000000	27.537333
470.000000	27.872233
471.000000	28.221500
472.000000	28.584700
473.000000	28.940200
474.000000	29.308633
475.000000	29.692333
476.000000	30.079833
477.000000	30.469167
478.000000	30.858767
479.000000	31.249400
480.000000	31.642833
481.000000	32.027967
482.000000	32.398500
483.000000	32.776833
484.000000	33.157433
485.000000	33.526800
486.000000	33.884033
487.000000	34.239667
488.000000	34.585067
489.000000	34.931100
490.000000	35.287733
491.000000	35.627533
492.000000	35.977800
493.000000	36.332333
494.000000	36.682900
495.000000	37.053033
496.000000	37.437467
497.000000	37.804067
498.000000	38.218100
499.000000	38.635200
500.000000	39.043900
501.000000	39.493000
502.000000	39.965933
503.000000	40.449667
504.000000	40.943200
505.000000	41.463467
506.000000	42.023433
507.000000	42.583500
508.000000	43.154867
509.000000	43.754767
510.000000	44.375967
511.000000	45.036167
512.000000	45.694367
513.000000	46.371467
514.000000	47.092467
515.000000	47.821400
516.000000	48.551467
517.000000	49.279200
518.000000	50.055333
519.000000	50.827733
520.000000	51.625200
521.000000	52.423067
522.000000	53.249133
523.000000	54.083667
524.000000	54.919167
525.000000	55.759467
526.000000	56.594533
527.000000	57.433667
528.000000	58.289400
529.000000	59.124733
530.000000	59.962967
531.000000	60.818067
532.000000	61.667167
533.000000	62.518700
534.000000	63.338300
535.000000	64.169600
536.000000	64.959433
537.000000	65.769267
538.000000	66.548800
539.000000	67.307767
540.000000	68.066767
541.000000	68.802467
542.000000	69.528300
543.000000	70.250667
544.000000	70.926267
545.000000	71.584767
546.000000	72.215633
547.000000	72.847333
548.000000	73.413433
549.000000	73.990967
550.000000	74.542367
551.000000	75.036433
552.000000	75.507667
553.000000	75.996400
554.000000	76.435567
555.000000	76.854400
556.000000	77.211233
557.000000	77.571767
558.000000	77.892133
559.000000	78.222500
560.000000	78.546700
561.000000	78.825433
562.000000	79.053500
563.000000	79.320100
564.000000	79.542633
565.000000	79.766500
566.000000	79.955567
567.000000	80.104233
568.000000	80.274667
569.000000	80.413700
570.000000	80.533700
571.000000	80.650867
572.000000	80.753667
573.000000	80.845700
574.000000	80.888900
575.000000	80.925233
576.000000	80.929300
577.000000	80.922367
578.000000	80.906100
579.000000	80.830167
580.000000	80.781833
581.000000	80.701867
582.000000	80.570200
583.000000	80.435767
584.000000	80.309667
585.000000	80.153800
586.000000	79.966700
587.000000	79.781167
588.000000	79.602200
589.000000	79.367733
590.000000	79.147033
591.000000	78.903567
592.000000	78.655133
593.000000	78.390367
594.000000	78.085133
595.000000	77.807167
596.000000	77.454333
597.000000	77.100233
598.000000	76.734900
599.000000	76.316867
600.000000	75.890233
601.000000	75.412833
602.000000	74.906500
603.000000	74.412233
604.000000	73.878200
605.000000	73.314433
606.000000	72.802933
607.000000	72.240533
608.000000	71.638333
609.000000	71.082767
610.000000	70.537867
611.000000	69.918667
612.000000	69.358700
613.000000	68.802333
614.000000	68.210567
615.000000	67.627067
616.000000	67.045233
617.000000	66.489267
618.000000	65.952067
619.000000	65.435633
620.000000	64.878400
621.000000	64.390567
622.000000	63.908867
623.000000	63.466200
624.000000	63.052233
625.000000	62.691367
626.000000	62.387067
627.000000	62.118433
628.000000	61.920967
629.000000	61.755500
630.000000	61.599500
631.000000	61.577667
632.000000	61.532367
633.000000	61.557633
634.000000	61.611733
635.000000	61.728400
636.000000	61.824333
637.000000	61.974633
638.000000	62.154867
639.000000	62.351133
640.000000	62.540167
641.000000	62.772600
642.000000	63.034900
643.000000	63.247633
644.000000	63.485767
645.000000	63.770567
646.000000	64.014300
647.000000	64.317033
648.000000	64.630167
649.000000	64.899633
650.000000	65.209833
651.000000	65.497767
652.000000	65.771400
653.000000	66.055300
654.000000	66.325500
655.000000	66.580833
656.000000	66.864233
657.000000	67.109700
658.000000	67.358367
659.000000	67.593133
660.000000	67.815367
661.000000	68.070367
662.000000	68.327033
663.000000	68.551200
664.000000	68.809667
665.000000	69.039800
666.000000	69.291200
667.000000	69.560067
668.000000	69.876333
669.000000	70.163500
670.000000	70.456100
671.000000	70.774467
672.000000	71.089133
673.000000	71.422833
674.000000	71.737467
675.000000	72.097533
676.000000	72.472300
677.000000	72.860900
678.000000	73.225900
679.000000	73.584200
680.000000	73.917567
681.000000	74.282733
682.000000	74.691433
683.000000	75.109833
684.000000	75.492767
685.000000	75.842933
686.000000	76.243067
687.000000	76.606133
688.000000	76.961267
689.000000	77.344233
690.000000	77.698500
691.000000	78.065533
692.000000	78.443900
693.000000	78.838500
694.000000	79.207133
695.000000	79.592733
696.000000	79.950267
697.000000	80.318133
698.000000	80.705033
699.000000	81.047400
700.000000	81.371767
701.000000	81.702733
702.000000	82.086633
703.000000	82.425200
704.000000	82.822467
705.000000	83.234800
706.000000	83.541167
707.000000	83.872700
708.000000	84.209500
709.000000	84.610667
710.000000	85.058933
711.000000	85.448333
712.000000	85.827200
713.000000	86.196733
714.000000	86.553100
715.000000	86.963800
716.000000	87.349300
717.000000	87.736400
718.000000	88.168200
719.000000	88.539867
720.000000	88.895667
721.000000	89.271000
722.000000	89.614267
723.000000	89.976867
724.000000	90.356600
725.000000	90.749667
726.000000	91.094533
727.000000	91.379933
728.000000	91.691900
729.000000	92.075167
730.000000	92.428633
731.000000	92.682033
732.000000	92.961200
733.000000	93.289200
734.000000	93.561133
735.000000	93.809233
736.000000	94.030233
737.000000	94.283400
738.000000	94.590500
739.000000	94.823100
740.000000	95.007233
741.000000	95.248733
742.000000	95.458033
743.000000	95.682933
744.000000	95.910200
745.000000	96.093367
746.000000	96.279700
747.000000	96.473867
748.000000	96.600600
749.000000	96.747533
750.000000	96.933733
751.000000	97.110000
752.000000	97.271767
753.000000	97.350600
754.000000	97.417967
755.000000	97.524333
756.000000	97.639400
757.000000	97.824533
758.000000	97.917267
759.000000	97.981867
760.000000	98.156367
761.000000	98.232400
762.000000	98.330467
763.000000	98.421867
764.000000	98.453733
765.000000	98.545067
766.000000	98.626300
767.000000	98.682867
768.000000	98.738567
769.000000	98.809333
770.000000	98.849200
771.000000	98.921000
772.000000	98.921333
773.000000	98.951067
774.000000	99.049000
775.000000	99.070067
776.000000	99.003100
777.000000	99.061067
778.000000	99.103767
779.000000	99.150667
780.000000	99.143167
781.000000	99.078600
782.000000	99.017333
783.000000	99.009033
784.000000	99.000733
785.000000	98.913667
786.000000	98.780467
787.000000	98.725833
788.000000	98.660200
789.000000	98.631433
790.000000	98.602267
791.000000	98.354233
792.000000	98.252567
793.000000	98.124533
794.000000	97.950933
795.000000	97.802133
796.000000	97.596867
797.000000	97.418067
798.000000	97.251767
799.000000	97.011867
800.000000	96.844900
801.000000	96.611333
802.000000	96.348133
803.000000	96.243633
804.000000	95.940767
805.000000	95.647467
806.000000	95.216533
807.000000	94.971100
808.000000	94.740167
809.000000	94.382133
810.000000	94.138867
811.000000	93.873433
812.000000	93.522733
813.000000	93.188933
814.000000	92.933100
815.000000	92.666700
816.000000	92.423000
817.000000	91.971533
818.000000	91.559833
819.000000	91.312533
820.000000	90.976700
821.000000	90.518033
822.000000	90.286033
823.000000	89.847833
824.000000	89.531833
825.000000	88.960667
826.000000	88.734833
827.000000	88.284600
828.000000	87.908267
829.000000	87.624333
830.000000	87.382867
831.000000	86.909800
832.000000	86.605800
833.000000	86.120567
834.000000	85.682333
835.000000	85.335067
836.000000	85.018100
837.000000	84.801167
838.000000	84.337100
839.000000	84.067200
840.000000	83.594733
841.000000	83.146533
842.000000	82.941733
843.000000	82.472167
844.000000	82.012900
845.000000	81.737833
846.000000	81.742900
847.000000	81.281400
848.000000	80.858533
849.000000	80.539267
850.000000	80.404000
851.000000	80.051300
852.000000	79.859100
853.000000	79.593133
854.000000	79.427067
855.000000	79.152600
856.000000	79.031700
857.000000	78.499100
858.000000	78.894467
859.000000	77.369344
860.000000	77.118260
861.000000	76.882607
862.000000	76.619061
863.000000	76.387337
864.000000	76.146132
865.000000	75.911710
866.000000	75.680349
867.000000	75.456193
868.000000	75.216971
869.000000	74.983566
870.000000	74.744452
871.000000	74.529810
872.000000	74.389074
873.000000	74.507579
874.000000	74.815521
875.000000	75.132784
876.000000	75.341287
877.000000	75.567404
878.000000	75.828508
879.000000	75.999278
880.000000	76.116969
881.000000	76.215659
882.000000	76.310250
883.000000	76.409470
884.000000	76.496237
885.000000	76.563205
886.000000	76.615757
887.000000	76.676164
888.000000	76.711305
889.000000	76.672616
890.000000	76.615859
891.000000	76.668157
892.000000	76.640456
893.000000	76.606559
894.000000	76.591213
895.000000	76.530583
896.000000	76.431141
897.000000	76.327707
898.000000	76.271356
899.000000	76.220183
900.000000	76.117067
901.000000	76.020234
902.000000	75.921821
903.000000	75.800734
904.000000	75.686554
905.000000	75.577705
906.000000	75.528382
907.000000	75.436456
908.000000	75.333542
909.000000	75.173781
910.000000	75.081901
911.000000	75.009968
912.000000	74.919738
913.000000	74.837587
914.000000	74.754554
915.000000	74.629270
916.000000	74.525232
917.000000	74.469459
918.000000	74.384253
919.000000	74.298968
920.000000	74.166117
921.000000	74.068186
922.000000	73.972460
923.000000	73.846473
924.000000	73.752047
925.000000	73.657485
926.000000	73.546295
927.000000	73.430810
928.000000	73.320135
929.000000	73.194379
930.000000	73.092192
931.000000	72.973587
932.000000	72.840806
933.000000	72.721481
934.000000	72.594700
935.000000	72.495535
936.000000	72.357343
937.000000	72.218805
938.000000	72.088512
939.000000	71.980697
940.000000	71.898019
941.000000	71.763030
942.000000	71.652188
943.000000	71.552886
944.000000	71.439654
945.000000	71.325376
946.000000	71.207275
947.000000	71.125038
948.000000	71.039858
949.000000	70.922725
950.000000	70.844642
951.000000	70.748229
952.000000	70.638585
953.000000	70.556449
954.000000	70.469908
955.000000	70.365874
956.000000	70.260587
957.000000	70.161220
958.000000	70.052781
959.000000	69.945186
960.000000	69.841561
961.000000	69.732309
962.000000	69.628008
963.000000	69.515874
964.000000	69.419240
965.000000	69.332461
966.000000	69.240677
967.000000	69.149658
968.000000	69.048107
969.000000	68.964273
970.000000	68.894098
971.000000	68.796233
972.000000	68.711387
973.000000	68.622018
974.000000	68.546456
975.000000	68.454423
976.000000	68.366318
977.000000	68.274433
978.000000	68.189082
979.000000	68.110611
980.000000	68.010196
981.000000	67.926214
982.000000	67.851767
983.000000	67.761631
984.000000	67.690755
985.000000	67.624348
986.000000	67.541399
987.000000	67.455251
988.000000	67.392068
989.000000	67.332859
990.000000	67.262420
991.000000	67.194284
992.000000	67.134750
993.000000	67.074775
994.000000	67.033066
995.000000	66.987254
996.000000	66.922755
997.000000	66.873245
998.000000	66.816627
999.000000	66.783516
1000.000000	66.759947
1001.000000	66.716101
1002.000000	66.684190
1003.000000	66.655001
1004.000000	66.612836
1005.000000	66.584960
1006.000000	66.558164
1007.000000	66.531387
1008.000000	66.504223
1009.000000	66.478554
1010.000000	66.456786
1011.000000	66.439967
1012.000000	66.428644
1013.000000	66.420287
1014.000000	66.433794
1015.000000	66.453031
1016.000000	66.479611
1017.000000	66.504427
1018.000000	66.542826
1019.000000	66.593321
1020.000000	66.642008
1021.000000	66.697385
1022.000000	66.748574
1023.000000	66.806854
1024.000000	66.870495
1025.000000	66.932264
1026.000000	66.996651
1027.000000	67.068340
1028.000000	67.133916
1029.000000	67.193383
1030.000000	67.261798
1031.000000	67.332774
1032.000000	67.393973
1033.000000	67.454345
1034.000000	67.525331
1035.000000	67.589661
1036.000000	67.642853
1037.000000	67.708153
1038.000000	67.766454
1039.000000	67.819905
1040.000000	67.873989
1041.000000	67.929789
1042.000000	67.997034
1043.000000	68.052593
1044.000000	68.112660
1045.000000	68.179290
1046.000000	68.243272
1047.000000	68.310640
1048.000000	68.370327
1049.000000	68.438472
1050.000000	68.513265
1051.000000	68.586098
1052.000000	68.665367
1053.000000	68.748258
1054.000000	68.834948
1055.000000	68.913277
1056.000000	69.004234
1057.000000	69.103418
1058.000000	69.188415
1059.000000	69.274011
1060.000000	69.369247
1061.000000	69.460250
1062.000000	69.550200
1063.000000	69.640593
1064.000000	69.727959
1065.000000	69.808685
1066.000000	69.893836
1067.000000	69.984382
1068.000000	70.079839
1069.000000	70.160440
1070.000000	70.233786
1071.000000	70.312967
1072.000000	70.393888
1073.000000	70.492149
1074.000000	70.578294
1075.000000	70.656813
1076.000000	70.732048
1077.000000	70.817497
1078.000000	70.900534
1079.000000	70.989809
1080.000000	71.068851
1081.000000	71.143634
1082.000000	71.235008
1083.000000	71.325623
1084.000000	71.417669
1085.000000	71.502589
1086.000000	71.597320
1087.000000	71.688148
1088.000000	71.778690
1089.000000	71.870694
1090.000000	71.965669
1091.000000	72.038207
1092.000000	72.134944
1093.000000	72.221420
1094.000000	72.300104
1095.000000	72.364072
1096.000000	72.439954
1097.000000	72.525918
1098.000000	72.588803
1099.000000	72.649668
1100.000000	72.721346
1101.000000	72.782946
1102.000000	72.846901
1103.000000	72.895144
1104.000000	72.948231
1105.000000	73.000499
1106.000000	73.062603
1107.000000	73.100652
1108.000000	73.144636
1109.000000	73.191726
1110.000000	73.230485
1111.000000	73.272498
1112.000000	73.311652
1113.000000	73.345412
1114.000000	73.377704
1115.000000	73.418187
1116.000000	73.464632
1117.000000	73.492678
1118.000000	73.511803
1119.000000	73.521370
1120.000000	73.514139
1121.000000	73.498313
1122.000000	73.485611
1123.000000	73.436166
1124.000000	73.384762
1125.000000	73.311975
1126.000000	73.244055
1127.000000	73.144062
1128.000000	73.023029
1129.000000	72.870557
1130.000000	72.674403
1131.000000	72.430854
1132.000000	72.135749
1133.000000	71.824590
1134.000000	71.533495
1135.000000	71.181110
1136.000000	70.756873
1137.000000	70.320200
1138.000000	69.897343
1139.000000	69.496107
1140.000000	69.088316
1141.000000	68.707953
1142.000000	68.338268
1143.000000	67.978006
1144.000000	67.641350
1145.000000	67.352777
1146.000000	67.134048
1147.000000	66.975369
1148.000000	66.913193
1149.000000	66.918458
1150.000000	66.954007
1151.000000	66.988134
1152.000000	67.027975
1153.000000	67.008766
1154.000000	66.946382
1155.000000	66.851781
1156.000000	66.671763
1157.000000	66.428217
1158.000000	66.127953
1159.000000	65.771329
1160.000000	65.397785
1161.000000	65.007070
1162.000000	64.614967
1163.000000	64.184960
1164.000000	63.753965
1165.000000	63.348044
1166.000000	62.897032
1167.000000	62.483564
1168.000000	62.072148
1169.000000	61.665446
1170.000000	61.271730
1171.000000	60.869322
1172.000000	60.471322
1173.000000	60.103266
1174.000000	59.723525
1175.000000	59.377802
1176.000000	59.044561
1177.000000	58.676083
1178.000000	58.270462
1179.000000	57.814877
1180.000000	57.272990
1181.000000	56.710661
1182.000000	56.139869
1183.000000	55.594328
1184.000000	55.143867
1185.000000	54.821565
1186.000000	54.646781
1187.000000	54.624753
1188.000000	54.754292
1189.000000	55.026762
1190.000000	55.427700
1191.000000	55.906563
1192.000000	56.428031
1193.000000	56.949667
1194.000000	57.427577
1195.000000	57.837648
1196.000000	58.175334
1197.000000	58.430744
1198.000000	58.624360
1199.000000	58.788637
1200.000000	58.904908
1201.000000	58.963213
1202.000000	59.029312
1203.000000	59.059071
1204.000000	59.098257
1205.000000	59.137497
1206.000000	59.188297
1207.000000	59.231553
1208.000000	59.312004
1209.000000	59.413728
1210.000000	59.519612
1211.000000	59.633055
1212.000000	59.779788
1213.000000	59.924263
1214.000000	60.064309
1215.000000	60.219829
1216.000000	60.367545
1217.000000	60.519740
1218.000000	60.701392
1219.000000	60.885075
1220.000000	61.074636
1221.000000	61.271296
1222.000000	61.473127
1223.000000	61.698529
1224.000000	61.920537
1225.000000	62.144475
1226.000000	62.375767
1227.000000	62.599125
1228.000000	62.824365
1229.000000	63.056787
1230.000000	63.294970
1231.000000	63.528127
1232.000000	63.753994
1233.000000	63.974852
1234.000000	64.197970
1235.000000	64.418191
1236.000000	64.633791
1237.000000	64.850054
1238.000000	65.050640
1239.000000	65.263059
1240.000000	65.463017
1241.000000	65.655845
1242.000000	65.847702
1243.000000	66.028060
1244.000000	66.213634
1245.000000	66.379861
1246.000000	66.547428
1247.000000	66.699837
1248.000000	66.837288
1249.000000	66.967872
1250.000000	67.084864
1251.000000	67.196246
1252.000000	67.302385
1253.000000	67.401324
1254.000000	67.488611
1255.000000	67.585467
1256.000000	67.668080
1257.000000	67.744284
1258.000000	67.820992
1259.000000	67.892529
1260.000000	67.958006
1261.000000	68.025472
1262.000000	68.099943
1263.000000	68.162092
1264.000000	68.226329
1265.000000	68.292729
1266.000000	68.362476
1267.000000	68.433734
1268.000000	68.505531
1269.000000	68.565573
1270.000000	68.634638
1271.000000	68.705717
1272.000000	68.773898
1273.000000	68.842683
1274.000000	68.915089
1275.000000	68.991042
1276.000000	69.068597
1277.000000	69.152289
1278.000000	69.240225
1279.000000	69.331940
1280.000000	69.436173
1281.000000	69.532854
1282.000000	69.629975
1283.000000	69.732552
1284.000000	69.829768
1285.000000	69.928886
1286.000000	70.032494
1287.000000	70.126742
1288.000000	70.207002
1289.000000	70.280281
1290.000000	70.362568
1291.000000	70.429727
1292.000000	70.482446
1293.000000	70.523838
1294.000000	70.556644
1295.000000	70.595841
1296.000000	70.631559
1297.000000	70.654339
1298.000000	70.678820
1299.000000	70.695759
1300.000000	70.710725
1301.000000	70.728363
1302.000000	70.745240
1303.000000	70.752943
1304.000000	70.749679
1305.000000	70.743387
1306.000000	70.724053
1307.000000	70.699833
1308.000000	70.674941
1309.000000	70.633513
1310.000000	70.585817
1311.000000	70.533267
1312.000000	70.469226
1313.000000	70.403445
1314.000000	70.336641
1315.000000	70.255391
1316.000000	70.168193
1317.000000	70.085943
1318.000000	69.991509
1319.000000	69.889375
1320.000000	69.789546
1321.000000	69.679614
1322.000000	69.562724
1323.000000	69.443140
1324.000000	69.314180
1325.000000	69.171991
1326.000000	69.027527
1327.000000	68.878554
1328.000000	68.723703
1329.000000	68.550566
1330.000000	68.370719
1331.000000	68.172095
1332.000000	67.970948
1333.000000	67.758398
1334.000000	67.530253
1335.000000	67.286190
1336.000000	67.028973
1337.000000	66.768826
1338.000000	66.490762
1339.000000	66.201543
1340.000000	65.898383
1341.000000	65.576151
1342.000000	65.237202
1343.000000	64.891089
1344.000000	64.529645
1345.000000	64.140147
1346.000000	63.705080
1347.000000	63.284714
1348.000000	62.842423
1349.000000	62.334972
1350.000000	61.814127
1351.000000	61.239314
1352.000000	60.591195
1353.000000	59.900209
1354.000000	59.292042
1355.000000	58.688928
1356.000000	58.146279
1357.000000	57.739886
1358.000000	57.498541
1359.000000	57.352464
1360.000000	57.236926
1361.000000	57.223155
1362.000000	57.145284
1363.000000	56.989636
1364.000000	56.790226
1365.000000	56.599874
1366.000000	56.367793
1367.000000	56.134196
1368.000000	55.873982
1369.000000	55.558283
1370.000000	55.198074
1371.000000	54.839431
1372.000000	54.427161
1373.000000	54.006399
1374.000000	53.605688
1375.000000	53.277800
1376.000000	53.032218
1377.000000	52.859220
1378.000000	52.733174
1379.000000	52.665587
1380.000000	52.571599
1381.000000	52.467870
1382.000000	52.271907
1383.000000	51.950281
1384.000000	51.526854
1385.000000	51.102277
1386.000000	50.644366
1387.000000	50.250124
1388.000000	49.933856
1389.000000	49.620298
1390.000000	49.306971
1391.000000	49.107226
1392.000000	48.926254
1393.000000	48.733558
1394.000000	48.575387
1395.000000	48.459654
1396.000000	48.311778
1397.000000	48.042525
1398.000000	47.738353
1399.000000	47.500553
1400.000000	47.271828
1401.000000	46.941379
1402.000000	46.464180
1403.000000	46.018052
1404.000000	45.607696
1405.000000	45.167767
1406.000000	44.737627
1407.000000	44.286022
1408.000000	43.885302
1409.000000	43.478646
1410.000000	43.104813
1411.000000	42.724475
1412.000000	42.383534
1413.000000	42.121708
1414.000000	41.896052
1415.000000	41.641334
1416.000000	41.341686
1417.000000	41.056396
1418.000000	40.807815
1419.000000	40.581321
1420.000000	40.322115
1421.000000	40.026989
1422.000000	39.746421
1423.000000	39.508804
1424.000000	39.253478
1425.000000	38.983247
1426.000000	38.729917
1427.000000	38.464948
1428.000000	38.246097
1429.000000	38.017016
1430.000000	37.812982
1431.000000	37.636164
1432.000000	37.480094
1433.000000	37.323541
1434.000000	37.152593
1435.000000	36.993385
1436.000000	36.841054
1437.000000	36.672005
1438.000000	36.542763
1439.000000	36.389131
1440.000000	36.248248
1441.000000	36.076233
1442.000000	35.924942
1443.000000	35.769255
1444.000000	35.616214
1445.000000	35.486560
1446.000000	35.337925
1447.000000	35.184374
1448.000000	35.014069
1449.000000	34.853027
1450.000000	34.728532
1451.000000	34.610000
1452.000000	34.474444
1453.000000	34.329714
1454.000000	34.195057
1455.000000	34.066010
1456.000000	33.958260
1457.000000	33.831009
1458.000000	33.712495
1459.000000	33.606531
1460.000000	33.482127
1461.000000	33.395749
1462.000000	33.304113
1463.000000	33.198288
1464.000000	33.115555
1465.000000	33.041650
1466.000000	32.961365
1467.000000	32.893812
1468.000000	32.814361
1469.000000	32.753855
1470.000000	32.695649
1471.000000	32.651314
1472.000000	32.592084
1473.000000	32.522699
1474.000000	32.458831
1475.000000	32.389181
1476.000000	32.322642
1477.000000	32.257738
1478.000000	32.209399
1479.000000	32.165696
1480.000000	32.116395
1481.000000	32.083459
1482.000000	32.040626
1483.000000	31.992840
1484.000000	31.958428
1485.000000	31.933053
1486.000000	31.907970
1487.000000	31.891535
1488.000000	31.879783
1489.000000	31.845763
1490.000000	31.827315
1491.000000	31.816088
1492.000000	31.795793
1493.000000	31.785611
1494.000000	31.775220
1495.000000	31.758139
1496.000000	31.768126
1497.000000	31.767471
1498.000000	31.769171
1499.000000	31.780220
1500.000000	31.784999
1501.000000	31.795847
1502.000000	31.817713
1503.000000	31.846781
1504.000000	31.869599
1505.000000	31.899227
1506.000000	31.928267
1507.000000	31.957965
1508.000000	31.999514
1509.000000	32.035188
1510.000000	32.062557
1511.000000	32.100610
1512.000000	32.143626
1513.000000	32.175432
1514.000000	32.202412
1515.000000	32.239381
1516.000000	32.279319
1517.000000	32.306143
1518.000000	32.337656
1519.000000	32.364477
1520.000000	32.391277
1521.000000	32.412722
1522.000000	32.450482
1523.000000	32.484426
1524.000000	32.506159
1525.000000	32.528124
1526.000000	32.556797
1527.000000	32.579482
1528.000000	32.597850
1529.000000	32.614448
1530.000000	32.633804
1531.000000	32.652243
1532.000000	32.658958
1533.000000	32.668366
1534.000000	32.683709
1535.000000	32.695361
1536.000000	32.700499
1537.000000	32.700613
1538.000000	32.697835
1539.000000	32.695892
1540.000000	32.692939
1541.000000	32.694113
1542.000000	32.699234
1543.000000	32.700428
1544.000000	32.711841
1545.000000	32.716000
1546.000000	32.722585
1547.000000	32.731934
1548.000000	32.742847
1549.000000	32.767554
1550.000000	32.779857
1551.000000	32.785087
1552.000000	32.805150
1553.000000	32.824117
1554.000000	32.826285
1555.000000	32.821817
1556.000000	32.828674
1557.000000	32.823158
1558.000000	32.806339
1559.000000	32.788196
1560.000000	32.769479
1561.000000	32.746744
1562.000000	32.718727
1563.000000	32.689236
1564.000000	32.658881
1565.000000	32.618498
1566.000000	32.582105
1567.000000	32.541318
1568.000000	32.499111
1569.000000	32.465228
1570.000000	32.431132
1571.000000	32.390580
1572.000000	32.357341
1573.000000	32.341327
1574.000000	32.325315
1575.000000	32.311244
1576.000000	32.299271
1577.000000	32.294273
1578.000000	32.290512
1579.000000	32.292837
1580.000000	32.301491
1581.000000	32.310238
1582.000000	32.330128
1583.000000	32.347238
1584.000000	32.370959
1585.000000	32.404079
1586.000000	32.440509
1587.000000	32.483003
1588.000000	32.520691
1589.000000	32.560996
1590.000000	32.606236
1591.000000	32.651239
1592.000000	32.701755
1593.000000	32.752939
1594.000000	32.805696
1595.000000	32.861200
1596.000000	32.922007
1597.000000	32.981703
1598.000000	33.054482
1599.000000	33.129417
1600.000000	33.204069
1601.000000	33.282521
1602.000000	33.365112
1603.000000	33.447265
1604.000000	33.520964
1605.000000	33.597241
1606.000000	33.671941
1607.000000	33.763632
1608.000000	33.847777
1609.000000	33.925522
1610.000000	34.006219
1611.000000	34.082732
1612.000000	34.159671
1613.000000	34.238103
1614.000000	34.336689
1615.000000	34.418030
1616.000000	34.501416
1617.000000	34.587831
1618.000000	34.670647
1619.000000	34.752344
1620.000000	34.839742
1621.000000	34.934903
1622.000000	35.027968
1623.000000	35.115862
1624.000000	35.214539
1625.000000	35.304696
1626.000000	35.404617
1627.000000	35.495704
1628.000000	35.592558
1629.000000	35.686601
1630.000000	35.777299
1631.000000	35.876174
1632.000000	35.956689
1633.000000	36.053251
1634.000000	36.152779
1635.000000	36.233151
1636.000000	36.307753
1637.000000	36.391819
1638.000000	36.470794
1639.000000	36.552598
1640.000000	36.618023
1641.000000	36.680888
1642.000000	36.755258
1643.000000	36.823365
1644.000000	36.879138
1645.000000	36.944093
1646.000000	36.996222
1647.000000	37.053721
1648.000000	37.110485
1649.000000	37.159397
1650.000000	37.202013
1651.000000	37.238927
1652.000000	37.265649
1653.000000	37.274965
1654.000000	37.302221
1655.000000	37.289257
1656.000000	37.292806
1657.000000	37.270650
1658.000000	37.254097
1659.000000	37.223234
1660.000000	37.177567
1661.000000	37.127005
1662.000000	37.050011
1663.000000	36.970014
1664.000000	36.882550
1665.000000	36.781407
1666.000000	36.667543
1667.000000	36.540203
1668.000000	36.394785
1669.000000	36.231538
1670.000000	36.013607
1671.000000	35.794826
1672.000000	35.522262
1673.000000	35.228335
1674.000000	34.890777
1675.000000	34.499176
1676.000000	34.045759
1677.000000	33.524735
1678.000000	32.968287
1679.000000	32.310686
1680.000000	31.665239
1681.000000	31.008508
1682.000000	30.426890
1683.000000	29.975581
1684.000000	29.657006
1685.000000	29.497741
1686.000000	29.416886
1687.000000	29.376644
1688.000000	29.348258
1689.000000	29.310215
1690.000000	29.185710
1691.000000	29.034796
1692.000000	28.846397
1693.000000	28.668739
1694.000000	28.509913
1695.000000	28.450859
1696.000000	28.436145
1697.000000	28.477378
1698.000000	28.603297
1699.000000	28.751811
1700.000000	28.933671
1701.000000	29.104357
1702.000000	29.282925
1703.000000	29.416971
1704.000000	29.534609
1705.000000	29.603428
1706.000000	29.657017
1707.000000	29.690001
1708.000000	29.715486
1709.000000	29.718559
1710.000000	29.732547
1711.000000	29.692886
1712.000000	29.657615
1713.000000	29.594801
1714.000000	29.494517
1715.000000	29.421848
1716.000000	29.317399
1717.000000	29.219643
1718.000000	29.145342
1719.000000	29.071154
1720.000000	29.020058
1721.000000	28.973412
1722.000000	28.959140
1723.000000	28.923931
1724.000000	28.876771
1725.000000	28.828151
1726.000000	28.751033
1727.000000	28.642405
1728.000000	28.533170
1729.000000	28.401283
1730.000000	28.263647
1731.000000	28.140230
1732.000000	28.050178
1733.000000	27.984156
1734.000000	27.970102
1735.000000	28.010252
1736.000000	28.107409
1737.000000	28.262571
1738.000000	28.470332
1739.000000	28.725374
1740.000000	29.011620
1741.000000	29.308859
1742.000000	29.597633
1743.000000	29.871714
1744.000000	30.107201
1745.000000	30.326100
1746.000000	30.507819
1747.000000	30.676552
1748.000000	30.802298
1749.000000	30.914973
1750.000000	31.007687
1751.000000	31.068427
1752.000000	31.118842
1753.000000	31.146940
1754.000000	31.155120
1755.000000	31.136554
1756.000000	31.117119
1757.000000	31.053310
1758.000000	30.996619
1759.000000	30.915163
1760.000000	30.842569
1761.000000	30.767271
1762.000000	30.713655
1763.000000	30.681998
1764.000000	30.700603
1765.000000	30.744820
1766.000000	30.823956
1767.000000	30.930248
1768.000000	31.055611
1769.000000	31.212938
1770.000000	31.372575
1771.000000	31.529434
1772.000000	31.698954
1773.000000	31.863482
1774.000000	32.044182
1775.000000	32.213118
1776.000000	32.361256
1777.000000	32.506853
1778.000000	32.646104
1779.000000	32.763913
1780.000000	32.876785
1781.000000	32.982404
1782.000000	33.080334
1783.000000	33.181825
1784.000000	33.277233
1785.000000	33.377980
1786.000000	33.475386
1787.000000	33.563371
1788.000000	33.647342
1789.000000	33.720332
1790.000000	33.798830
1791.000000	33.866215
1792.000000	33.937194
1793.000000	34.002206
1794.000000	34.081204
1795.000000	34.140393
1796.000000	34.203734
1797.000000	34.263504
1798.000000	34.309147
1799.000000	34.368332
1800.000000	34.442983
1801.000000	34.517514
1802.000000	34.583444
1803.000000	34.638850
1804.000000	34.692553
1805.000000	34.752415
1806.000000	34.824785
1807.000000	34.890742
1808.000000	34.936427
1809.000000	34.977802
1810.000000	35.027742
1811.000000	35.079552
1812.000000	35.127351
1813.000000	35.166233
1814.000000	35.185225
1815.000000	35.199084
1816.000000	35.222045
1817.000000	35.221346
1818.000000	35.223823
1819.000000	35.246556
1820.000000	35.295410
1821.000000	35.345467
1822.000000	35.379125
1823.000000	35.395135
1824.000000	35.408010
1825.000000	35.450955
1826.000000	35.524152
1827.000000	35.608415
1828.000000	35.696342
1829.000000	35.799723
1830.000000	35.903438
1831.000000	36.003905
1832.000000	36.083091
1833.000000	36.162916
1834.000000	36.258160
1835.000000	36.362242
1836.000000	36.462851
1837.000000	36.542254
1838.000000	36.612507
1839.000000	36.675634
1840.000000	36.740842
1841.000000	36.809662
1842.000000	36.857557
1843.000000	36.871850
1844.000000	36.887510
1845.000000	36.940745
1846.000000	37.013824
1847.000000	37.120108
1848.000000	37.229932
1849.000000	37.301817
1850.000000	37.361099
1851.000000	37.414211
1852.000000	37.452773
1853.000000	37.514974
1854.000000	37.603834
1855.000000	37.648659
1856.000000	37.687664
1857.000000	37.726028
1858.000000	37.746108
1859.000000	37.760269
1860.000000	37.749069
1861.000000	37.719166
1862.000000	37.681382
1863.000000	37.611897
1864.000000	37.551131
1865.000000	37.491869
1866.000000	37.423209
1867.000000	37.359915
1868.000000	37.266724
1869.000000	37.137474
1870.000000	36.933284
1871.000000	36.714465
1872.000000	36.466530
1873.000000	36.179685
1874.000000	35.849470
1875.000000	35.494914
1876.000000	35.110314
1877.000000	34.705743
1878.000000	34.280737
1879.000000	33.801094
1880.000000	33.297635
1881.000000	32.827552
1882.000000	32.309071
1883.000000	31.776266
1884.000000	31.259864
1885.000000	30.740392
1886.000000	30.257947
1887.000000	29.833166
1888.000000	29.451665
1889.000000	29.094984
1890.000000	28.724641
1891.000000	28.373541
1892.000000	28.021602
1893.000000	27.629692
1894.000000	27.272100
1895.000000	26.947186
1896.000000	26.619773
1897.000000	26.323432
1898.000000	25.994817
1899.000000	25.628206
1900.000000	25.260350
1901.000000	24.886574
1902.000000	24.543057
1903.000000	24.207005
1904.000000	23.882690
1905.000000	23.539982
1906.000000	23.198167
1907.000000	22.855221
1908.000000	22.518927
1909.000000	22.238304
1910.000000	21.972686
1911.000000	21.706521
1912.000000	21.456179
1913.000000	21.181732
1914.000000	20.877951
1915.000000	20.595501
1916.000000	20.359607
1917.000000	20.139267
1918.000000	19.913510
1919.000000	19.712683
1920.000000	19.508213
1921.000000	19.296996
1922.000000	19.093163
1923.000000	18.901834
1924.000000	18.736970
1925.000000	18.581357
1926.000000	18.439300
1927.000000	18.310037
1928.000000	18.182935
1929.000000	18.072403
1930.000000	17.964318
1931.000000	17.862038
1932.000000	17.786608
1933.000000	17.712772
1934.000000	17.652209
1935.000000	17.597315
1936.000000	17.568404
1937.000000	17.540535
1938.000000	17.514523
1939.000000	17.510458
1940.000000	17.514075
1941.000000	17.530165
1942.000000	17.539808
1943.000000	17.556440
1944.000000	17.584168
1945.000000	17.631189
1946.000000	17.674947
1947.000000	17.725783
1948.000000	17.778945
1949.000000	17.834006
1950.000000	17.908252
1951.000000	17.971816
1952.000000	18.044734
1953.000000	18.127085
1954.000000	18.202282
1955.000000	18.271595
1956.000000	18.361006
1957.000000	18.463479
1958.000000	18.536132
1959.000000	18.604777
1960.000000	18.674171
1961.000000	18.772666
1962.000000	18.852809
1963.000000	18.943089
1964.000000	19.028626
1965.000000	19.121491
1966.000000	19.195285
1967.000000	19.269392
1968.000000	19.364755
1969.000000	19.427524
1970.000000	19.525210
1971.000000	19.605363
1972.000000	19.706203
1973.000000	19.781239
1974.000000	19.864363
1975.000000	19.962384
1976.000000	20.044128
1977.000000	20.135255
1978.000000	20.236542
1979.000000	20.316533
1980.000000	20.420456
1981.000000	20.506967
1982.000000	20.591223
1983.000000	20.682946
1984.000000	20.760047
1985.000000	20.847400
1986.000000	20.941253
1987.000000	21.008393
1988.000000	21.090096
1989.000000	21.178586
1990.000000	21.246678
1991.000000	21.313840
1992.000000	21.377454
1993.000000	21.449630
1994.000000	21.496164
1995.000000	21.554323
1996.000000	21.613598
1997.000000	21.652972
1998.000000	21.694313
1999.000000	21.724248
2000.000000	21.756627
2001.000000	21.776295
2002.000000	21.796740
2003.000000	21.817009
2004.000000	21.837674
2005.000000	21.823627
2006.000000	21.824584
2007.000000	21.822147
2008.000000	21.799300
2009.000000	21.780581
2010.000000	21.768590
2011.000000	21.733763
2012.000000	21.690708
2013.000000	21.655818
2014.000000	21.606565
2015.000000	21.562883
2016.000000	21.491876
2017.000000	21.428276
2018.000000	21.373064
2019.000000	21.298090
2020.000000	21.235040
2021.000000	21.143262
2022.000000	21.063520
2023.000000	20.979501
2024.000000	20.892261
2025.000000	20.789503
2026.000000	20.689406
2027.000000	20.589834
2028.000000	20.479555
2029.000000	20.367466
2030.000000	20.257752
2031.000000	20.136512
2032.000000	20.006418
2033.000000	19.872586
2034.000000	19.732436
2035.000000	19.596033
2036.000000	19.449654
2037.000000	19.273354
2038.000000	19.118814
2039.000000	18.966139
2040.000000	18.788368
2041.000000	18.621147
2042.000000	18.426106
2043.000000	18.255312
2044.000000	18.087593
2045.000000	17.911506
2046.000000	17.738478
2047.000000	17.572078
2048.000000	17.424221
2049.000000	17.274956
2050.000000	17.143477
2051.000000	17.024344
2052.000000	16.920419
2053.000000	16.834580
2054.000000	16.767596
2055.000000	16.723399
2056.000000	16.672031
2057.000000	16.627480
2058.000000	16.611649
2059.000000	16.607386
2060.000000	16.612164
2061.000000	16.620987
2062.000000	16.636042
2063.000000	16.663833
2064.000000	16.693049
2065.000000	16.716362
2066.000000	16.746874
2067.000000	16.795438
2068.000000	16.843212
2069.000000	16.878322
2070.000000	16.921767
2071.000000	16.958781
2072.000000	16.989327
2073.000000	17.027041
2074.000000	17.070700
2075.000000	17.097745
2076.000000	17.135718
2077.000000	17.179237
2078.000000	17.212610
2079.000000	17.242041
2080.000000	17.259458
2081.000000	17.285244
2082.000000	17.317018
2083.000000	17.333663
2084.000000	17.354406
2085.000000	17.374974
2086.000000	17.390130
2087.000000	17.406145
2088.000000	17.428849
2089.000000	17.449253
2090.000000	17.462126
2091.000000	17.463327
2092.000000	17.464104
2093.000000	17.495282
2094.000000	17.514624
2095.000000	17.528186
2096.000000	17.546592
2097.000000	17.562312
2098.000000	17.585937
2099.000000	17.610635
2100.000000	17.643642
2101.000000	17.672170
2102.000000	17.691285
2103.000000	17.716150
2104.000000	17.747747
2105.000000	17.783770
2106.000000	17.813710
2107.000000	17.842523
2108.000000	17.869919
2109.000000	17.904327
2110.000000	17.944944
2111.000000	17.972918
2112.000000	18.000214
2113.000000	18.024762
2114.000000	18.044338
2115.000000	18.076442
2116.000000	18.101314
2117.000000	18.125006
2118.000000	18.157053
2119.000000	18.169028
2120.000000	18.189826
2121.000000	18.202549
2122.000000	18.215177
2123.000000	18.226571
2124.000000	18.224747
2125.000000	18.228330
2126.000000	18.232047
2127.000000	18.224252
2128.000000	18.221479
2129.000000	18.225004
2130.000000	18.204353
2131.000000	18.169184
2132.000000	18.155950
2133.000000	18.148400
2134.000000	18.118480
2135.000000	18.081978
2136.000000	18.058714
2137.000000	18.033343
2138.000000	17.993603
2139.000000	17.953319
2140.000000	17.909468
2141.000000	17.858319
2142.000000	17.815520
2143.000000	17.771284
2144.000000	17.730656
2145.000000	17.675914
2146.000000	17.629152
2147.000000	17.578301
2148.000000	17.532771
2149.000000	17.478342
2150.000000	17.418200
2151.000000	17.365300
2152.000000	17.309516
2153.000000	17.249808
2154.000000	17.202982
2155.000000	17.147484
2156.000000	17.093203
2157.000000	17.046990
2158.000000	17.003109
2159.000000	16.963413
2160.000000	16.916509
2161.000000	16.871121
2162.000000	16.836244
2163.000000	16.814827
2164.000000	16.784430
2165.000000	16.753758
2166.000000	16.729571
2167.000000	16.703611
2168.000000	16.679773
2169.000000	16.657065
2170.000000	16.638462
2171.000000	16.624510
2172.000000	16.610899
2173.000000	16.606999
2174.000000	16.599631
2175.000000	16.604934
2176.000000	16.602777
2177.000000	16.600477
2178.000000	16.600752
2179.000000	16.602644
2180.000000	16.623184
2181.000000	16.618870
2182.000000	16.640471
2183.000000	16.659165
2184.000000	16.665290
2185.000000	16.685852
2186.000000	16.694721
2187.000000	16.703452
2188.000000	16.716925
2189.000000	16.723690
2190.000000	16.739730
2191.000000	16.756075
2192.000000	16.759440
2193.000000	16.767794
2194.000000	16.770598
2195.000000	16.782313
2196.000000	16.796619
2197.000000	16.803152
2198.000000	16.813096
2199.000000	16.806799
2200.000000	16.819447
2201.000000	16.830598
2202.000000	16.838007
2203.000000	16.837023
2204.000000	16.859431
2205.000000	16.876242
2206.000000	16.885238
2207.000000	16.905664
2208.000000	16.937701
2209.000000	16.954852
2210.000000	16.987365
2211.000000	17.003121
2212.000000	17.027152
2213.000000	17.058034
2214.000000	17.078346
2215.000000	17.115580
2216.000000	17.153842
2217.000000	17.183097
2218.000000	17.215065
2219.000000	17.238910
2220.000000	17.275057
2221.000000	17.307275
2222.000000	17.322318
2223.000000	17.342294
2224.000000	17.367534
2225.000000	17.365527
2226.000000	17.380933
2227.000000	17.364715
2228.000000	17.347770
2229.000000	17.315114
2230.000000	17.310119
2231.000000	17.271542
2232.000000	17.229874
2233.000000	17.174866
2234.000000	17.097816
2235.000000	17.026657
2236.000000	16.944626
2237.000000	16.863484
2238.000000	16.768752
2239.000000	16.655161
2240.000000	16.519049
2241.000000	16.404740
2242.000000	16.267472
2243.000000	16.125010
2244.000000	15.943951
2245.000000	15.772785
2246.000000	15.591698
2247.000000	15.394314
2248.000000	15.166132
2249.000000	14.928654
2250.000000	14.699859
2251.000000	14.459408
2252.000000	14.193564
2253.000000	13.895947
2254.000000	13.602750
2255.000000	13.303569
2256.000000	13.003204
2257.000000	12.712965
2258.000000	12.406534
2259.000000	12.105161
2260.000000	11.833550
2261.000000	11.577858
2262.000000	11.296885
2263.000000	11.071896
2264.000000	10.870398
2265.000000	10.696647
2266.000000	10.530507
2267.000000	10.397758
2268.000000	10.302093
2269.000000	10.205818
2270.000000	10.141699
2271.000000	10.088258
2272.000000	10.063349
2273.000000	10.057979
2274.000000	10.066760
2275.000000	10.054199
2276.000000	10.086783
2277.000000	10.129420
2278.000000	10.158696
2279.000000	10.208858
2280.000000	10.247120
2281.000000	10.298342
2282.000000	10.353356
2283.000000	10.390299
2284.000000	10.454020
2285.000000	10.489362
2286.000000	10.509245
2287.000000	10.522561
2288.000000	10.548907
2289.000000	10.544094
2290.000000	10.524376
2291.000000	10.488548
2292.000000	10.449506
2293.000000	10.391302
2294.000000	10.326365
2295.000000	10.238411
2296.000000	10.132152
2297.000000	10.044039
2298.000000	9.951895
2299.000000	9.866935
2300.000000	9.753535
2301.000000	9.653127
2302.000000	9.563218
2303.000000	9.484221
2304.000000	9.420294
2305.000000	9.382582
2306.000000	9.350622
2307.000000	9.354148
2308.000000	9.375454
2309.000000	9.410790
2310.000000	9.451241
2311.000000	9.519528
2312.000000	9.615551
2313.000000	9.709342
2314.000000	9.824613
2315.000000	9.955138
2316.000000	10.089498
2317.000000	10.206075
2318.000000	10.335537
2319.000000	10.474112
2320.000000	10.598639
2321.000000	10.729947
2322.000000	10.858850
2323.000000	10.964590
2324.000000	11.063832
2325.000000	11.176546
2326.000000	11.275385
2327.000000	11.353479
2328.000000	11.440490
2329.000000	11.507311
2330.000000	11.581384
2331.000000	11.647835
2332.000000	11.691746
2333.000000	11.722279
2334.000000	11.761864
2335.000000	11.795742
2336.000000	11.812074
2337.000000	11.810519
2338.000000	11.800724
2339.000000	11.793582
2340.000000	11.768142
2341.000000	11.737627
2342.000000	11.705095
2343.000000	11.657418
2344.000000	11.596095
2345.000000	11.539267
2346.000000	11.488158
2347.000000	11.450474
2348.000000	11.403867
2349.000000	11.356870
2350.000000	11.319814
2351.000000	11.285323
2352.000000	11.276935
2353.000000	11.279801
2354.000000	11.293633
2355.000000	11.309617
2356.000000	11.327180
2357.000000	11.374680
2358.000000	11.433252
2359.000000	11.494771
2360.000000	11.569805
2361.000000	11.630287
2362.000000	11.699669
2363.000000	11.778783
2364.000000	11.839716
2365.000000	11.904079
2366.000000	11.980082
2367.000000	12.047006
2368.000000	12.103103
2369.000000	12.155093
2370.000000	12.215398
2371.000000	12.252913
2372.000000	12.280042
2373.000000	12.329814
2374.000000	12.357401
2375.000000	12.381011
2376.000000	12.414221
2377.000000	12.424550
2378.000000	12.435592
2379.000000	12.460358
2380.000000	12.475006
2381.000000	12.483460
2382.000000	12.500073
2383.000000	12.498873
2384.000000	12.496664
2385.000000	12.509577
2386.000000	12.503069
2387.000000	12.483509
2388.000000	12.476525
2389.000000	12.466232
2390.000000	12.445849
2391.000000	12.420109
2392.000000	12.389121
2393.000000	12.362801
2394.000000	12.340102
2395.000000	12.326295
2396.000000	12.305851
2397.000000	12.261249
2398.000000	12.196543
2399.000000	12.138447
2400.000000	12.096880
2401.000000	12.074611
2402.000000	12.051586
2403.000000	12.011119
2404.000000	11.986787
2405.000000	11.963076
2406.000000	11.937726
2407.000000	11.906826
2408.000000	11.879288
2409.000000	11.851030
2410.000000	11.820262
2411.000000	11.800199
2412.000000	11.778247
2413.000000	11.745093
2414.000000	11.719554
2415.000000	11.694205
2416.000000	11.662629
2417.000000	11.629188
2418.000000	11.607633
2419.000000	11.562051
2420.000000	11.534322
2421.000000	11.500510
2422.000000	11.471622
2423.000000	11.448261
2424.000000	11.412717
2425.000000	11.372284
2426.000000	11.328505
2427.000000	11.286854
2428.000000	11.241656
2429.000000	11.184436
2430.000000	11.139041
2431.000000	11.093420
2432.000000	11.031160
2433.000000	10.964267
2434.000000	10.893136
2435.000000	10.843052
2436.000000	10.766093
2437.000000	10.694007
2438.000000	10.618813
2439.000000	10.548981
2440.000000	10.458937
2441.000000	10.387303
2442.000000	10.307072
2443.000000	10.233255
2444.000000	10.161037
2445.000000	10.061157
2446.000000	9.981144
2447.000000	9.889742
2448.000000	9.800444
2449.000000	9.715289
2450.000000	9.629169
2451.000000	9.566506
2452.000000	9.474745
2453.000000	9.396236
2454.000000	9.314340
2455.000000	9.233984
2456.000000	9.168449
2457.000000	9.097493
2458.000000	9.040454
2459.000000	8.979167
2460.000000	8.922619
2461.000000	8.881504
2462.000000	8.839447
2463.000000	8.815477
2464.000000	8.766840
2465.000000	8.731332
2466.000000	8.738335
2467.000000	8.697714
2468.000000	8.680897
2469.000000	8.661042
2470.000000	8.683666
2471.000000	8.661459
2472.000000	8.664160
2473.000000	8.642349
2474.000000	8.641452
2475.000000	8.650908
2476.000000	8.676311
2477.000000	8.654109
2478.000000	8.663942
2479.000000	8.644801
2480.000000	8.638582
2481.000000	8.665654
2482.000000	8.649836
2483.000000	8.645135
2484.000000	8.623932
2485.000000	8.719842
2486.000000	8.690404
2487.000000	8.683148
2488.000000	8.727737
2489.000000	8.711777
2490.000000	8.732538
2491.000000	8.783586
2492.000000	8.765654
2493.000000	8.823905
2494.000000	8.793399
2495.000000	8.917923
2496.000000	8.903548
2497.000000	8.911827
2498.000000	8.892713
2499.000000	9.035687
2500.000000	9.094760
