PE UV       SUBTECH     SPECTRUM    ASCII       PEDS        4.00        
   -1
CICIMAUCR0004-3.Sample.ASC
24/05/03
16:17:29.00
24/05/03
16:17:29.00
Vinicio Soto Monge
C. kalinini
250,000000
1
Lambda 1050
1050L1511233
PerkinElmer UV WinLab 6.3.2.0749 / 2.02.05 Lambda 900 UV/VIS/NIR, Aug  7 2015 09:38:08

0
0
3350/servo 860,8/2
0
0
UV/VIS
1
1
1
DoubleDePol,CommonBeamDepol,RBeamAtt,SBeamAtt,60mm sphere, WB InGaAs Detector
0
0
0
0
Program
Program
3350/servo 860,8/2
3350/0,2 860,8/0,2
3350/0,2 860,8/0,2
0
15.00
 
 
 
0
 
860,8
319,2
860,8
Front
100
on
S:100 R:100
0
0
0
0
 
0
 
 
 
0
 
 
0
0
0
0
0
 
 
 
 
0
0


0
0
#HDR
-1
-1
#GR
nm
%R
1.0
0.0
2500,000000
-1,000000
2251
8
98,738200
4,896700
#DATA
250.000000	6.194200
251.000000	6.197733
252.000000	6.177767
253.000000	6.188833
254.000000	6.157033
255.000000	6.149500
256.000000	6.158533
257.000000	6.130900
258.000000	6.108567
259.000000	6.081333
260.000000	6.084533
261.000000	6.063833
262.000000	6.059933
263.000000	6.027033
264.000000	5.984100
265.000000	5.956067
266.000000	5.901700
267.000000	5.924700
268.000000	5.900033
269.000000	5.867433
270.000000	5.866500
271.000000	5.834600
272.000000	5.798867
273.000000	5.806900
274.000000	5.820267
275.000000	5.792800
276.000000	5.772567
277.000000	5.795267
278.000000	5.767133
279.000000	5.727300
280.000000	5.757600
281.000000	5.731433
282.000000	5.732200
283.000000	5.744700
284.000000	5.695467
285.000000	5.728367
286.000000	5.666600
287.000000	5.694133
288.000000	5.683000
289.000000	5.635100
290.000000	5.664833
291.000000	5.650800
292.000000	5.647000
293.000000	5.651200
294.000000	5.616433
295.000000	5.651767
296.000000	5.629033
297.000000	5.608433
298.000000	5.597533
299.000000	5.613633
300.000000	5.631367
301.000000	5.610867
302.000000	5.616867
303.000000	5.623533
304.000000	5.593400
305.000000	5.582800
306.000000	5.588100
307.000000	5.599000
308.000000	5.554133
309.000000	5.591467
310.000000	5.537867
311.000000	5.572667
312.000000	5.578233
313.000000	5.570467
314.000000	5.585033
315.000000	5.544033
316.000000	5.621867
317.000000	6.145233
318.000000	6.006700
319.000000	5.609867
320.000000	5.958767
321.000000	5.905300
322.000000	5.753933
323.000000	5.738667
324.000000	5.763400
325.000000	5.616367
326.000000	5.749667
327.000000	5.725567
328.000000	5.655167
329.000000	5.769133
330.000000	5.650200
331.000000	5.675633
332.000000	5.643367
333.000000	5.563900
334.000000	5.769033
335.000000	5.844033
336.000000	5.800100
337.000000	5.687500
338.000000	5.628033
339.000000	5.636167
340.000000	5.807933
341.000000	5.716667
342.000000	5.784533
343.000000	5.547000
344.000000	5.649700
345.000000	5.705300
346.000000	5.611367
347.000000	5.732367
348.000000	5.812200
349.000000	5.946500
350.000000	5.864367
351.000000	5.710700
352.000000	5.802900
353.000000	5.847933
354.000000	5.874367
355.000000	5.884867
356.000000	5.889733
357.000000	6.091433
358.000000	5.987600
359.000000	6.065467
360.000000	6.067433
361.000000	6.145133
362.000000	6.170767
363.000000	6.084500
364.000000	6.197567
365.000000	6.280367
366.000000	6.296633
367.000000	6.316633
368.000000	6.283100
369.000000	6.341967
370.000000	6.406333
371.000000	6.429667
372.000000	6.391233
373.000000	6.494000
374.000000	6.550300
375.000000	6.737767
376.000000	7.038867
377.000000	7.164167
378.000000	7.275333
379.000000	7.403067
380.000000	7.527767
381.000000	7.683800
382.000000	7.836933
383.000000	8.010967
384.000000	8.187433
385.000000	8.378200
386.000000	8.575267
387.000000	8.771900
388.000000	8.976233
389.000000	9.212700
390.000000	9.459700
391.000000	9.710433
392.000000	9.977267
393.000000	10.258567
394.000000	10.542100
395.000000	10.831367
396.000000	11.132767
397.000000	11.439333
398.000000	11.750400
399.000000	12.071700
400.000000	12.411967
401.000000	12.757500
402.000000	13.105233
403.000000	13.459633
404.000000	13.809167
405.000000	14.161567
406.000000	14.513633
407.000000	14.872167
408.000000	15.246633
409.000000	15.614967
410.000000	15.983600
411.000000	16.366400
412.000000	16.732867
413.000000	17.104700
414.000000	17.485500
415.000000	17.852667
416.000000	18.202433
417.000000	18.560500
418.000000	18.915433
419.000000	19.264567
420.000000	19.602767
421.000000	19.955133
422.000000	20.306967
423.000000	20.628400
424.000000	20.943433
425.000000	21.253700
426.000000	21.539000
427.000000	21.830700
428.000000	22.102500
429.000000	22.351267
430.000000	22.616200
431.000000	22.869433
432.000000	23.098467
433.000000	23.315000
434.000000	23.522300
435.000000	23.713033
436.000000	23.908467
437.000000	24.087267
438.000000	24.236933
439.000000	24.364600
440.000000	24.499000
441.000000	24.637567
442.000000	24.739300
443.000000	24.842767
444.000000	24.936967
445.000000	25.017467
446.000000	25.078167
447.000000	25.120767
448.000000	25.172800
449.000000	25.236433
450.000000	25.299033
451.000000	25.351133
452.000000	25.411467
453.000000	25.461167
454.000000	25.517867
455.000000	25.583600
456.000000	25.659833
457.000000	25.737400
458.000000	25.824700
459.000000	25.922400
460.000000	26.027900
461.000000	26.156533
462.000000	26.298933
463.000000	26.439167
464.000000	26.582433
465.000000	26.727967
466.000000	26.871633
467.000000	27.036800
468.000000	27.208333
469.000000	27.382533
470.000000	27.567033
471.000000	27.753133
472.000000	27.932467
473.000000	28.120000
474.000000	28.323133
475.000000	28.523833
476.000000	28.725800
477.000000	28.932433
478.000000	29.141900
479.000000	29.362767
480.000000	29.577233
481.000000	29.806333
482.000000	30.037400
483.000000	30.273767
484.000000	30.519767
485.000000	30.759233
486.000000	31.007833
487.000000	31.268833
488.000000	31.521733
489.000000	31.780967
490.000000	32.066400
491.000000	32.362000
492.000000	32.659733
493.000000	32.965767
494.000000	33.290800
495.000000	33.611167
496.000000	33.953300
497.000000	34.299567
498.000000	34.664433
499.000000	35.060433
500.000000	35.468033
501.000000	35.876667
502.000000	36.292667
503.000000	36.740933
504.000000	37.203833
505.000000	37.699800
506.000000	38.205900
507.000000	38.738700
508.000000	39.289233
509.000000	39.845267
510.000000	40.429967
511.000000	41.063400
512.000000	41.701567
513.000000	42.374933
514.000000	43.080167
515.000000	43.809900
516.000000	44.547867
517.000000	45.297633
518.000000	46.055200
519.000000	46.843367
520.000000	47.659133
521.000000	48.500000
522.000000	49.348667
523.000000	50.186567
524.000000	51.054833
525.000000	51.896900
526.000000	52.753933
527.000000	53.627433
528.000000	54.471333
529.000000	55.333267
530.000000	56.198967
531.000000	57.055900
532.000000	57.916633
533.000000	58.746500
534.000000	59.605600
535.000000	60.451300
536.000000	61.262300
537.000000	62.048167
538.000000	62.818433
539.000000	63.609233
540.000000	64.356500
541.000000	65.086133
542.000000	65.826567
543.000000	66.531600
544.000000	67.200500
545.000000	67.868200
546.000000	68.518567
547.000000	69.144000
548.000000	69.724967
549.000000	70.313833
550.000000	70.876233
551.000000	71.438267
552.000000	71.978167
553.000000	72.509167
554.000000	73.013600
555.000000	73.486333
556.000000	73.925667
557.000000	74.344067
558.000000	74.759900
559.000000	75.162633
560.000000	75.614400
561.000000	75.962467
562.000000	76.280233
563.000000	76.619267
564.000000	76.904733
565.000000	77.153033
566.000000	77.416933
567.000000	77.653400
568.000000	77.872933
569.000000	78.077967
570.000000	78.298533
571.000000	78.453900
572.000000	78.625833
573.000000	78.761600
574.000000	78.875367
575.000000	78.983000
576.000000	79.076733
577.000000	79.143667
578.000000	79.269933
579.000000	79.287500
580.000000	79.311300
581.000000	79.309533
582.000000	79.316367
583.000000	79.276467
584.000000	79.233200
585.000000	79.176167
586.000000	79.024333
587.000000	78.946567
588.000000	78.799533
589.000000	78.589667
590.000000	78.446600
591.000000	78.231333
592.000000	77.935567
593.000000	77.680200
594.000000	77.356733
595.000000	77.013133
596.000000	76.641933
597.000000	76.315167
598.000000	75.916633
599.000000	75.512367
600.000000	75.084267
601.000000	74.678667
602.000000	74.200100
603.000000	73.751133
604.000000	73.224767
605.000000	72.703967
606.000000	72.239533
607.000000	71.715933
608.000000	71.166500
609.000000	70.652300
610.000000	70.102100
611.000000	69.586100
612.000000	69.001867
613.000000	68.484233
614.000000	67.945167
615.000000	67.405767
616.000000	66.928567
617.000000	66.455533
618.000000	65.980167
619.000000	65.592133
620.000000	65.190200
621.000000	64.809467
622.000000	64.522667
623.000000	64.205367
624.000000	63.955667
625.000000	63.760200
626.000000	63.603333
627.000000	63.445067
628.000000	63.343667
629.000000	63.286733
630.000000	63.221733
631.000000	63.225100
632.000000	63.257367
633.000000	63.266567
634.000000	63.371267
635.000000	63.453067
636.000000	63.529500
637.000000	63.689800
638.000000	63.852233
639.000000	64.001300
640.000000	64.191300
641.000000	64.373833
642.000000	64.592433
643.000000	64.787500
644.000000	65.006667
645.000000	65.195600
646.000000	65.427533
647.000000	65.608567
648.000000	65.832700
649.000000	66.006767
650.000000	66.196000
651.000000	66.368433
652.000000	66.529467
653.000000	66.699300
654.000000	66.865500
655.000000	67.017400
656.000000	67.197567
657.000000	67.372400
658.000000	67.525367
659.000000	67.706567
660.000000	67.875900
661.000000	68.058100
662.000000	68.243067
663.000000	68.438400
664.000000	68.598133
665.000000	68.785733
666.000000	69.017700
667.000000	69.218933
668.000000	69.458867
669.000000	69.641467
670.000000	69.874433
671.000000	70.127600
672.000000	70.364967
673.000000	70.601800
674.000000	70.866800
675.000000	71.149333
676.000000	71.431633
677.000000	71.711200
678.000000	71.984633
679.000000	72.267000
680.000000	72.566667
681.000000	72.852433
682.000000	73.155667
683.000000	73.475767
684.000000	73.763633
685.000000	74.066367
686.000000	74.338900
687.000000	74.639233
688.000000	74.949533
689.000000	75.240167
690.000000	75.507100
691.000000	75.775233
692.000000	76.072633
693.000000	76.369733
694.000000	76.665333
695.000000	76.930267
696.000000	77.172467
697.000000	77.427167
698.000000	77.675633
699.000000	77.948300
700.000000	78.238067
701.000000	78.538533
702.000000	78.807200
703.000000	79.088967
704.000000	79.374700
705.000000	79.700267
706.000000	80.030700
707.000000	80.354800
708.000000	80.715333
709.000000	81.058267
710.000000	81.416033
711.000000	81.790867
712.000000	82.177600
713.000000	82.586000
714.000000	82.998633
715.000000	83.431567
716.000000	83.866400
717.000000	84.315600
718.000000	84.781300
719.000000	85.261600
720.000000	85.699800
721.000000	86.196933
722.000000	86.653133
723.000000	87.076567
724.000000	87.556400
725.000000	88.070633
726.000000	88.503533
727.000000	88.956333
728.000000	89.363900
729.000000	89.728667
730.000000	90.163033
731.000000	90.562800
732.000000	90.927233
733.000000	91.263533
734.000000	91.585900
735.000000	91.903067
736.000000	92.201567
737.000000	92.483733
738.000000	92.772500
739.000000	92.991567
740.000000	93.240633
741.000000	93.490100
742.000000	93.659433
743.000000	93.888567
744.000000	94.108433
745.000000	94.299767
746.000000	94.498067
747.000000	94.686367
748.000000	94.871600
749.000000	94.995433
750.000000	95.143167
751.000000	95.251133
752.000000	95.347100
753.000000	95.403167
754.000000	95.472200
755.000000	95.660400
756.000000	95.751133
757.000000	95.841167
758.000000	95.944967
759.000000	96.009133
760.000000	96.114233
761.000000	96.165433
762.000000	96.198267
763.000000	96.272267
764.000000	96.333200
765.000000	96.344567
766.000000	96.400367
767.000000	96.519633
768.000000	96.538800
769.000000	96.485433
770.000000	96.554667
771.000000	96.600100
772.000000	96.624367
773.000000	96.598933
774.000000	96.586767
775.000000	96.650967
776.000000	96.655833
777.000000	96.562967
778.000000	96.595733
779.000000	96.601133
780.000000	96.604433
781.000000	96.591467
782.000000	96.511367
783.000000	96.470667
784.000000	96.514400
785.000000	96.509667
786.000000	96.403300
787.000000	96.325867
788.000000	96.232700
789.000000	96.211300
790.000000	96.073467
791.000000	96.034467
792.000000	95.907967
793.000000	95.785267
794.000000	95.643500
795.000000	95.551000
796.000000	95.388933
797.000000	95.255933
798.000000	95.095300
799.000000	94.841900
800.000000	94.594667
801.000000	94.407200
802.000000	94.162033
803.000000	93.949767
804.000000	93.731967
805.000000	93.400700
806.000000	93.108767
807.000000	92.857333
808.000000	92.517033
809.000000	92.190567
810.000000	91.857067
811.000000	91.552867
812.000000	91.211300
813.000000	90.868767
814.000000	90.554133
815.000000	90.046767
816.000000	89.714700
817.000000	89.306700
818.000000	88.857067
819.000000	88.361800
820.000000	88.111100
821.000000	87.697033
822.000000	87.247000
823.000000	86.891833
824.000000	86.340467
825.000000	86.006800
826.000000	85.541300
827.000000	85.114267
828.000000	84.656067
829.000000	84.085033
830.000000	83.828467
831.000000	83.385600
832.000000	82.999967
833.000000	82.588400
834.000000	82.202667
835.000000	81.872567
836.000000	81.580433
837.000000	81.076233
838.000000	80.913900
839.000000	80.395067
840.000000	79.865167
841.000000	79.571300
842.000000	79.136767
843.000000	78.807967
844.000000	78.644767
845.000000	78.357133
846.000000	77.873667
847.000000	77.539000
848.000000	77.222133
849.000000	76.659967
850.000000	76.452367
851.000000	76.157433
852.000000	76.166133
853.000000	75.734233
854.000000	75.295800
855.000000	74.942967
856.000000	74.516867
857.000000	74.752067
858.000000	74.737300
859.000000	73.349493
860.000000	73.050174
861.000000	72.767321
862.000000	72.503392
863.000000	72.225079
864.000000	71.967913
865.000000	71.697106
866.000000	71.438486
867.000000	71.186967
868.000000	70.925107
869.000000	70.674289
870.000000	70.411899
871.000000	70.184585
872.000000	70.008642
873.000000	70.070196
874.000000	70.270359
875.000000	70.502032
876.000000	70.633631
877.000000	70.781712
878.000000	70.930481
879.000000	71.001158
880.000000	71.049598
881.000000	71.093717
882.000000	71.106129
883.000000	71.136403
884.000000	71.126199
885.000000	71.128784
886.000000	71.114384
887.000000	71.114315
888.000000	71.104386
889.000000	71.053765
890.000000	71.035107
891.000000	71.006604
892.000000	70.941698
893.000000	70.884311
894.000000	70.870390
895.000000	70.797790
896.000000	70.727695
897.000000	70.625043
898.000000	70.625103
899.000000	70.564144
900.000000	70.465187
901.000000	70.368021
902.000000	70.276240
903.000000	70.197315
904.000000	70.098753
905.000000	70.029918
906.000000	69.948309
907.000000	69.907377
908.000000	69.821101
909.000000	69.751724
910.000000	69.689026
911.000000	69.622628
912.000000	69.553723
913.000000	69.494186
914.000000	69.434008
915.000000	69.397796
916.000000	69.320634
917.000000	69.266258
918.000000	69.218839
919.000000	69.157750
920.000000	69.043994
921.000000	68.949358
922.000000	68.871783
923.000000	68.803904
924.000000	68.723862
925.000000	68.642174
926.000000	68.582755
927.000000	68.519611
928.000000	68.378636
929.000000	68.305438
930.000000	68.230260
931.000000	68.115951
932.000000	68.010756
933.000000	67.921567
934.000000	67.831933
935.000000	67.750085
936.000000	67.604271
937.000000	67.530795
938.000000	67.435390
939.000000	67.359234
940.000000	67.275496
941.000000	67.161621
942.000000	67.087612
943.000000	67.015360
944.000000	66.945331
945.000000	66.841449
946.000000	66.779513
947.000000	66.715005
948.000000	66.617196
949.000000	66.561580
950.000000	66.497687
951.000000	66.438896
952.000000	66.389813
953.000000	66.329014
954.000000	66.238931
955.000000	66.179859
956.000000	66.113719
957.000000	66.061894
958.000000	66.001894
959.000000	65.920200
960.000000	65.842414
961.000000	65.785434
962.000000	65.717323
963.000000	65.647750
964.000000	65.602331
965.000000	65.542075
966.000000	65.489499
967.000000	65.447190
968.000000	65.403087
969.000000	65.358373
970.000000	65.323036
971.000000	65.293249
972.000000	65.262485
973.000000	65.221898
974.000000	65.184163
975.000000	65.146857
976.000000	65.123456
977.000000	65.086439
978.000000	65.050411
979.000000	65.005577
980.000000	64.990171
981.000000	64.950513
982.000000	64.911672
983.000000	64.888426
984.000000	64.850671
985.000000	64.806880
986.000000	64.771275
987.000000	64.745492
988.000000	64.723412
989.000000	64.692869
990.000000	64.672698
991.000000	64.647788
992.000000	64.637228
993.000000	64.617251
994.000000	64.609598
995.000000	64.593508
996.000000	64.586102
997.000000	64.593970
998.000000	64.593051
999.000000	64.599089
1000.000000	64.597047
1001.000000	64.591409
1002.000000	64.613034
1003.000000	64.631710
1004.000000	64.637795
1005.000000	64.644504
1006.000000	64.649437
1007.000000	64.663128
1008.000000	64.681811
1009.000000	64.694035
1010.000000	64.716028
1011.000000	64.745647
1012.000000	64.768571
1013.000000	64.801483
1014.000000	64.845390
1015.000000	64.898307
1016.000000	64.964512
1017.000000	65.027051
1018.000000	65.085895
1019.000000	65.166762
1020.000000	65.260977
1021.000000	65.348048
1022.000000	65.431284
1023.000000	65.520377
1024.000000	65.616196
1025.000000	65.707787
1026.000000	65.803992
1027.000000	65.906061
1028.000000	66.004819
1029.000000	66.082227
1030.000000	66.171251
1031.000000	66.272746
1032.000000	66.349672
1033.000000	66.440846
1034.000000	66.536070
1035.000000	66.610914
1036.000000	66.694264
1037.000000	66.777125
1038.000000	66.855349
1039.000000	66.933226
1040.000000	67.000175
1041.000000	67.064283
1042.000000	67.137430
1043.000000	67.222126
1044.000000	67.288145
1045.000000	67.358754
1046.000000	67.444335
1047.000000	67.519313
1048.000000	67.588599
1049.000000	67.663856
1050.000000	67.748249
1051.000000	67.831279
1052.000000	67.910575
1053.000000	68.005421
1054.000000	68.103352
1055.000000	68.186157
1056.000000	68.281441
1057.000000	68.387436
1058.000000	68.479202
1059.000000	68.570589
1060.000000	68.668952
1061.000000	68.760648
1062.000000	68.858905
1063.000000	68.951509
1064.000000	69.040637
1065.000000	69.138506
1066.000000	69.230667
1067.000000	69.319262
1068.000000	69.415511
1069.000000	69.512314
1070.000000	69.601263
1071.000000	69.697431
1072.000000	69.783485
1073.000000	69.882351
1074.000000	69.984946
1075.000000	70.078686
1076.000000	70.174028
1077.000000	70.263481
1078.000000	70.359862
1079.000000	70.459556
1080.000000	70.558214
1081.000000	70.655685
1082.000000	70.744913
1083.000000	70.849807
1084.000000	70.953841
1085.000000	71.062103
1086.000000	71.153038
1087.000000	71.263259
1088.000000	71.367887
1089.000000	71.462960
1090.000000	71.556949
1091.000000	71.648320
1092.000000	71.746845
1093.000000	71.840996
1094.000000	71.930281
1095.000000	72.008903
1096.000000	72.094568
1097.000000	72.180098
1098.000000	72.250251
1099.000000	72.322968
1100.000000	72.385753
1101.000000	72.461910
1102.000000	72.532577
1103.000000	72.590396
1104.000000	72.644245
1105.000000	72.686771
1106.000000	72.742727
1107.000000	72.807380
1108.000000	72.849672
1109.000000	72.898897
1110.000000	72.949686
1111.000000	72.989671
1112.000000	73.028376
1113.000000	73.072263
1114.000000	73.118581
1115.000000	73.153305
1116.000000	73.195280
1117.000000	73.237200
1118.000000	73.263371
1119.000000	73.268394
1120.000000	73.275181
1121.000000	73.266392
1122.000000	73.255013
1123.000000	73.219134
1124.000000	73.169183
1125.000000	73.106909
1126.000000	73.042746
1127.000000	72.953863
1128.000000	72.858108
1129.000000	72.707564
1130.000000	72.529671
1131.000000	72.289402
1132.000000	72.016402
1133.000000	71.740063
1134.000000	71.470137
1135.000000	71.109514
1136.000000	70.714182
1137.000000	70.296149
1138.000000	69.886416
1139.000000	69.491778
1140.000000	69.105241
1141.000000	68.728948
1142.000000	68.358773
1143.000000	68.034316
1144.000000	67.698553
1145.000000	67.410660
1146.000000	67.210780
1147.000000	67.082305
1148.000000	67.031833
1149.000000	67.046570
1150.000000	67.089717
1151.000000	67.132125
1152.000000	67.181111
1153.000000	67.186587
1154.000000	67.138991
1155.000000	67.055917
1156.000000	66.887699
1157.000000	66.650969
1158.000000	66.365361
1159.000000	66.027900
1160.000000	65.667175
1161.000000	65.277235
1162.000000	64.891387
1163.000000	64.485235
1164.000000	64.086070
1165.000000	63.660398
1166.000000	63.245454
1167.000000	62.835009
1168.000000	62.434883
1169.000000	62.047207
1170.000000	61.676232
1171.000000	61.280884
1172.000000	60.906131
1173.000000	60.541117
1174.000000	60.206279
1175.000000	59.881232
1176.000000	59.563912
1177.000000	59.225193
1178.000000	58.845717
1179.000000	58.412528
1180.000000	57.934597
1181.000000	57.390117
1182.000000	56.854319
1183.000000	56.335896
1184.000000	55.920103
1185.000000	55.611674
1186.000000	55.453356
1187.000000	55.431283
1188.000000	55.552620
1189.000000	55.816638
1190.000000	56.196348
1191.000000	56.655691
1192.000000	57.173310
1193.000000	57.690983
1194.000000	58.143609
1195.000000	58.541585
1196.000000	58.870191
1197.000000	59.119033
1198.000000	59.327958
1199.000000	59.463347
1200.000000	59.581215
1201.000000	59.651190
1202.000000	59.706725
1203.000000	59.740364
1204.000000	59.770556
1205.000000	59.797949
1206.000000	59.832418
1207.000000	59.879660
1208.000000	59.947243
1209.000000	60.026928
1210.000000	60.135783
1211.000000	60.229130
1212.000000	60.361231
1213.000000	60.490923
1214.000000	60.621385
1215.000000	60.754109
1216.000000	60.890171
1217.000000	61.035962
1218.000000	61.195590
1219.000000	61.351217
1220.000000	61.537516
1221.000000	61.721641
1222.000000	61.921126
1223.000000	62.122773
1224.000000	62.342770
1225.000000	62.549700
1226.000000	62.771515
1227.000000	62.993402
1228.000000	63.215183
1229.000000	63.442271
1230.000000	63.682220
1231.000000	63.906477
1232.000000	64.124932
1233.000000	64.342004
1234.000000	64.578150
1235.000000	64.800569
1236.000000	65.025715
1237.000000	65.241844
1238.000000	65.453717
1239.000000	65.660076
1240.000000	65.855947
1241.000000	66.060213
1242.000000	66.258075
1243.000000	66.445761
1244.000000	66.620861
1245.000000	66.814784
1246.000000	66.986341
1247.000000	67.136798
1248.000000	67.265667
1249.000000	67.398973
1250.000000	67.536373
1251.000000	67.644533
1252.000000	67.759788
1253.000000	67.851801
1254.000000	67.943663
1255.000000	68.040027
1256.000000	68.117541
1257.000000	68.189882
1258.000000	68.273902
1259.000000	68.353608
1260.000000	68.420848
1261.000000	68.487032
1262.000000	68.552174
1263.000000	68.608365
1264.000000	68.672661
1265.000000	68.737927
1266.000000	68.818485
1267.000000	68.893901
1268.000000	68.966465
1269.000000	69.032294
1270.000000	69.092268
1271.000000	69.157106
1272.000000	69.220946
1273.000000	69.289134
1274.000000	69.356976
1275.000000	69.431855
1276.000000	69.510889
1277.000000	69.597411
1278.000000	69.681263
1279.000000	69.779698
1280.000000	69.888112
1281.000000	69.988408
1282.000000	70.092655
1283.000000	70.198240
1284.000000	70.293702
1285.000000	70.398523
1286.000000	70.504661
1287.000000	70.601357
1288.000000	70.681506
1289.000000	70.762545
1290.000000	70.842559
1291.000000	70.909974
1292.000000	70.978985
1293.000000	71.026417
1294.000000	71.063731
1295.000000	71.106478
1296.000000	71.140234
1297.000000	71.171678
1298.000000	71.208584
1299.000000	71.241034
1300.000000	71.269421
1301.000000	71.291540
1302.000000	71.314870
1303.000000	71.327100
1304.000000	71.337751
1305.000000	71.344220
1306.000000	71.340167
1307.000000	71.330971
1308.000000	71.316223
1309.000000	71.290806
1310.000000	71.254615
1311.000000	71.213266
1312.000000	71.159380
1313.000000	71.101746
1314.000000	71.053239
1315.000000	70.994755
1316.000000	70.918178
1317.000000	70.843257
1318.000000	70.758090
1319.000000	70.671322
1320.000000	70.590951
1321.000000	70.502584
1322.000000	70.398937
1323.000000	70.289977
1324.000000	70.174451
1325.000000	70.054862
1326.000000	69.923937
1327.000000	69.775571
1328.000000	69.623316
1329.000000	69.470480
1330.000000	69.310700
1331.000000	69.129636
1332.000000	68.927378
1333.000000	68.722715
1334.000000	68.511457
1335.000000	68.279243
1336.000000	68.042927
1337.000000	67.787706
1338.000000	67.510883
1339.000000	67.219034
1340.000000	66.913631
1341.000000	66.601610
1342.000000	66.264423
1343.000000	65.917631
1344.000000	65.552835
1345.000000	65.145909
1346.000000	64.713026
1347.000000	64.297309
1348.000000	63.839932
1349.000000	63.326592
1350.000000	62.780077
1351.000000	62.187563
1352.000000	61.516107
1353.000000	60.796896
1354.000000	60.198286
1355.000000	59.598092
1356.000000	59.031635
1357.000000	58.608947
1358.000000	58.364297
1359.000000	58.230637
1360.000000	58.137855
1361.000000	58.122763
1362.000000	58.035046
1363.000000	57.873218
1364.000000	57.687284
1365.000000	57.516561
1366.000000	57.284042
1367.000000	57.065802
1368.000000	56.814379
1369.000000	56.489939
1370.000000	56.152691
1371.000000	55.804218
1372.000000	55.396939
1373.000000	54.998556
1374.000000	54.624926
1375.000000	54.308104
1376.000000	54.084490
1377.000000	53.946688
1378.000000	53.841438
1379.000000	53.811262
1380.000000	53.760769
1381.000000	53.695509
1382.000000	53.541517
1383.000000	53.283574
1384.000000	52.910458
1385.000000	52.553905
1386.000000	52.150007
1387.000000	51.805953
1388.000000	51.515851
1389.000000	51.241345
1390.000000	50.962313
1391.000000	50.793226
1392.000000	50.626920
1393.000000	50.455223
1394.000000	50.316230
1395.000000	50.245041
1396.000000	50.107593
1397.000000	49.844921
1398.000000	49.590176
1399.000000	49.394316
1400.000000	49.183103
1401.000000	48.835260
1402.000000	48.391114
1403.000000	47.965956
1404.000000	47.534191
1405.000000	47.124474
1406.000000	46.707309
1407.000000	46.281369
1408.000000	45.889127
1409.000000	45.491911
1410.000000	45.118434
1411.000000	44.737546
1412.000000	44.412402
1413.000000	44.184923
1414.000000	43.969407
1415.000000	43.721492
1416.000000	43.418332
1417.000000	43.130716
1418.000000	42.880107
1419.000000	42.654537
1420.000000	42.393249
1421.000000	42.090731
1422.000000	41.803293
1423.000000	41.550330
1424.000000	41.284938
1425.000000	40.992621
1426.000000	40.731133
1427.000000	40.446034
1428.000000	40.218872
1429.000000	39.992346
1430.000000	39.768920
1431.000000	39.561929
1432.000000	39.393707
1433.000000	39.217533
1434.000000	39.035509
1435.000000	38.872377
1436.000000	38.694808
1437.000000	38.528549
1438.000000	38.395478
1439.000000	38.217860
1440.000000	38.047830
1441.000000	37.867579
1442.000000	37.723254
1443.000000	37.535587
1444.000000	37.363908
1445.000000	37.222021
1446.000000	37.062347
1447.000000	36.871447
1448.000000	36.695518
1449.000000	36.528810
1450.000000	36.394769
1451.000000	36.264286
1452.000000	36.114104
1453.000000	35.957155
1454.000000	35.803778
1455.000000	35.666010
1456.000000	35.538284
1457.000000	35.402304
1458.000000	35.270974
1459.000000	35.142380
1460.000000	35.022424
1461.000000	34.914489
1462.000000	34.816648
1463.000000	34.695550
1464.000000	34.603418
1465.000000	34.514092
1466.000000	34.420960
1467.000000	34.356994
1468.000000	34.270572
1469.000000	34.190739
1470.000000	34.127562
1471.000000	34.069807
1472.000000	33.998810
1473.000000	33.913564
1474.000000	33.833747
1475.000000	33.766446
1476.000000	33.680731
1477.000000	33.613870
1478.000000	33.567697
1479.000000	33.510286
1480.000000	33.462688
1481.000000	33.407765
1482.000000	33.350033
1483.000000	33.306959
1484.000000	33.264747
1485.000000	33.237509
1486.000000	33.212280
1487.000000	33.198418
1488.000000	33.165794
1489.000000	33.147099
1490.000000	33.115367
1491.000000	33.108625
1492.000000	33.079143
1493.000000	33.060645
1494.000000	33.042969
1495.000000	33.031893
1496.000000	33.019886
1497.000000	33.009032
1498.000000	33.010057
1499.000000	33.027199
1500.000000	33.037392
1501.000000	33.043507
1502.000000	33.059768
1503.000000	33.079535
1504.000000	33.102262
1505.000000	33.129779
1506.000000	33.161403
1507.000000	33.193992
1508.000000	33.222421
1509.000000	33.260881
1510.000000	33.291192
1511.000000	33.326251
1512.000000	33.351173
1513.000000	33.375664
1514.000000	33.419114
1515.000000	33.457344
1516.000000	33.482355
1517.000000	33.508006
1518.000000	33.520312
1519.000000	33.548694
1520.000000	33.575421
1521.000000	33.606363
1522.000000	33.627339
1523.000000	33.643520
1524.000000	33.660865
1525.000000	33.695967
1526.000000	33.710541
1527.000000	33.734423
1528.000000	33.743307
1529.000000	33.751248
1530.000000	33.770495
1531.000000	33.778899
1532.000000	33.788730
1533.000000	33.795635
1534.000000	33.798087
1535.000000	33.805078
1536.000000	33.805410
1537.000000	33.797461
1538.000000	33.792984
1539.000000	33.788324
1540.000000	33.782197
1541.000000	33.773833
1542.000000	33.768740
1543.000000	33.769055
1544.000000	33.776808
1545.000000	33.776344
1546.000000	33.773643
1547.000000	33.786184
1548.000000	33.804477
1549.000000	33.821766
1550.000000	33.842413
1551.000000	33.861728
1552.000000	33.875449
1553.000000	33.900083
1554.000000	33.915380
1555.000000	33.911130
1556.000000	33.911194
1557.000000	33.912462
1558.000000	33.901267
1559.000000	33.877952
1560.000000	33.854561
1561.000000	33.835489
1562.000000	33.806524
1563.000000	33.768049
1564.000000	33.735136
1565.000000	33.695676
1566.000000	33.645347
1567.000000	33.606525
1568.000000	33.572629
1569.000000	33.525242
1570.000000	33.480513
1571.000000	33.452651
1572.000000	33.420100
1573.000000	33.390963
1574.000000	33.375285
1575.000000	33.352394
1576.000000	33.338564
1577.000000	33.333187
1578.000000	33.328522
1579.000000	33.330609
1580.000000	33.335757
1581.000000	33.350086
1582.000000	33.375961
1583.000000	33.402590
1584.000000	33.430427
1585.000000	33.458377
1586.000000	33.494193
1587.000000	33.529830
1588.000000	33.565807
1589.000000	33.616073
1590.000000	33.666318
1591.000000	33.710522
1592.000000	33.755666
1593.000000	33.809451
1594.000000	33.867151
1595.000000	33.924784
1596.000000	33.989364
1597.000000	34.055305
1598.000000	34.123030
1599.000000	34.196715
1600.000000	34.281095
1601.000000	34.356079
1602.000000	34.441117
1603.000000	34.518905
1604.000000	34.597335
1605.000000	34.690882
1606.000000	34.773428
1607.000000	34.851930
1608.000000	34.934802
1609.000000	35.019115
1610.000000	35.099974
1611.000000	35.167285
1612.000000	35.250521
1613.000000	35.327999
1614.000000	35.411883
1615.000000	35.494724
1616.000000	35.573872
1617.000000	35.656887
1618.000000	35.751683
1619.000000	35.838301
1620.000000	35.918890
1621.000000	36.000376
1622.000000	36.092912
1623.000000	36.184242
1624.000000	36.269838
1625.000000	36.362419
1626.000000	36.457832
1627.000000	36.548089
1628.000000	36.638466
1629.000000	36.742771
1630.000000	36.831054
1631.000000	36.915736
1632.000000	37.008834
1633.000000	37.092418
1634.000000	37.176288
1635.000000	37.258421
1636.000000	37.325468
1637.000000	37.402681
1638.000000	37.487628
1639.000000	37.553203
1640.000000	37.623986
1641.000000	37.684032
1642.000000	37.748582
1643.000000	37.808488
1644.000000	37.859525
1645.000000	37.918016
1646.000000	37.970548
1647.000000	38.032205
1648.000000	38.080450
1649.000000	38.129107
1650.000000	38.168045
1651.000000	38.198656
1652.000000	38.217655
1653.000000	38.219950
1654.000000	38.231527
1655.000000	38.232837
1656.000000	38.233073
1657.000000	38.206696
1658.000000	38.182201
1659.000000	38.138323
1660.000000	38.086312
1661.000000	38.018869
1662.000000	37.940261
1663.000000	37.848109
1664.000000	37.747787
1665.000000	37.629526
1666.000000	37.511346
1667.000000	37.374784
1668.000000	37.225522
1669.000000	37.038501
1670.000000	36.827949
1671.000000	36.591444
1672.000000	36.317683
1673.000000	36.021933
1674.000000	35.691433
1675.000000	35.298680
1676.000000	34.842060
1677.000000	34.333146
1678.000000	33.766177
1679.000000	33.133842
1680.000000	32.497001
1681.000000	31.817276
1682.000000	31.230923
1683.000000	30.754057
1684.000000	30.432169
1685.000000	30.228346
1686.000000	30.151300
1687.000000	30.128667
1688.000000	30.094887
1689.000000	30.048589
1690.000000	29.964509
1691.000000	29.823092
1692.000000	29.654772
1693.000000	29.489145
1694.000000	29.367690
1695.000000	29.301928
1696.000000	29.276570
1697.000000	29.331940
1698.000000	29.448255
1699.000000	29.600018
1700.000000	29.791940
1701.000000	29.990120
1702.000000	30.164760
1703.000000	30.300676
1704.000000	30.406676
1705.000000	30.481517
1706.000000	30.537478
1707.000000	30.574437
1708.000000	30.600876
1709.000000	30.599851
1710.000000	30.583743
1711.000000	30.567365
1712.000000	30.500437
1713.000000	30.432944
1714.000000	30.337094
1715.000000	30.239563
1716.000000	30.136403
1717.000000	30.019337
1718.000000	29.928554
1719.000000	29.833362
1720.000000	29.779463
1721.000000	29.722292
1722.000000	29.684861
1723.000000	29.643814
1724.000000	29.600566
1725.000000	29.553795
1726.000000	29.476762
1727.000000	29.397728
1728.000000	29.299975
1729.000000	29.159017
1730.000000	29.033705
1731.000000	28.912277
1732.000000	28.826136
1733.000000	28.764369
1734.000000	28.748552
1735.000000	28.792314
1736.000000	28.892296
1737.000000	29.032825
1738.000000	29.242438
1739.000000	29.491949
1740.000000	29.784516
1741.000000	30.084483
1742.000000	30.388998
1743.000000	30.652353
1744.000000	30.915247
1745.000000	31.136031
1746.000000	31.331880
1747.000000	31.504009
1748.000000	31.647377
1749.000000	31.765413
1750.000000	31.856958
1751.000000	31.937380
1752.000000	31.991896
1753.000000	32.022994
1754.000000	32.038605
1755.000000	32.028257
1756.000000	31.999708
1757.000000	31.948427
1758.000000	31.886533
1759.000000	31.816847
1760.000000	31.735573
1761.000000	31.668104
1762.000000	31.607171
1763.000000	31.571876
1764.000000	31.588244
1765.000000	31.628403
1766.000000	31.704547
1767.000000	31.810564
1768.000000	31.933843
1769.000000	32.085345
1770.000000	32.233134
1771.000000	32.397243
1772.000000	32.572119
1773.000000	32.737565
1774.000000	32.905862
1775.000000	33.067920
1776.000000	33.232166
1777.000000	33.370201
1778.000000	33.504902
1779.000000	33.643930
1780.000000	33.766246
1781.000000	33.867478
1782.000000	33.965802
1783.000000	34.061662
1784.000000	34.163985
1785.000000	34.269627
1786.000000	34.358336
1787.000000	34.434051
1788.000000	34.517969
1789.000000	34.597587
1790.000000	34.668897
1791.000000	34.738495
1792.000000	34.810002
1793.000000	34.881470
1794.000000	34.946282
1795.000000	35.011085
1796.000000	35.074771
1797.000000	35.134798
1798.000000	35.193781
1799.000000	35.257551
1800.000000	35.316991
1801.000000	35.389421
1802.000000	35.458056
1803.000000	35.511531
1804.000000	35.569136
1805.000000	35.620543
1806.000000	35.689296
1807.000000	35.762284
1808.000000	35.805319
1809.000000	35.853218
1810.000000	35.909435
1811.000000	35.965132
1812.000000	36.012908
1813.000000	36.038525
1814.000000	36.059274
1815.000000	36.089116
1816.000000	36.105862
1817.000000	36.100138
1818.000000	36.107023
1819.000000	36.134510
1820.000000	36.183727
1821.000000	36.219992
1822.000000	36.230082
1823.000000	36.240434
1824.000000	36.263036
1825.000000	36.308725
1826.000000	36.378017
1827.000000	36.443292
1828.000000	36.525190
1829.000000	36.638406
1830.000000	36.740177
1831.000000	36.832517
1832.000000	36.918479
1833.000000	37.000381
1834.000000	37.095711
1835.000000	37.206683
1836.000000	37.309696
1837.000000	37.381316
1838.000000	37.452351
1839.000000	37.531689
1840.000000	37.601617
1841.000000	37.661758
1842.000000	37.710109
1843.000000	37.727032
1844.000000	37.753815
1845.000000	37.825759
1846.000000	37.905654
1847.000000	38.010756
1848.000000	38.110372
1849.000000	38.179172
1850.000000	38.243510
1851.000000	38.310036
1852.000000	38.368975
1853.000000	38.438867
1854.000000	38.528638
1855.000000	38.586837
1856.000000	38.628016
1857.000000	38.688676
1858.000000	38.726839
1859.000000	38.737815
1860.000000	38.740653
1861.000000	38.728370
1862.000000	38.704722
1863.000000	38.661244
1864.000000	38.629346
1865.000000	38.600996
1866.000000	38.559155
1867.000000	38.513797
1868.000000	38.434327
1869.000000	38.320304
1870.000000	38.152720
1871.000000	37.982715
1872.000000	37.767892
1873.000000	37.515039
1874.000000	37.232917
1875.000000	36.917048
1876.000000	36.578316
1877.000000	36.223071
1878.000000	35.844542
1879.000000	35.419282
1880.000000	34.990011
1881.000000	34.550622
1882.000000	34.055931
1883.000000	33.587041
1884.000000	33.106551
1885.000000	32.613354
1886.000000	32.162498
1887.000000	31.748326
1888.000000	31.378892
1889.000000	31.007654
1890.000000	30.653602
1891.000000	30.315541
1892.000000	29.942561
1893.000000	29.558410
1894.000000	29.205885
1895.000000	28.855591
1896.000000	28.542876
1897.000000	28.221193
1898.000000	27.845230
1899.000000	27.486221
1900.000000	27.099435
1901.000000	26.707484
1902.000000	26.322972
1903.000000	25.981574
1904.000000	25.635288
1905.000000	25.294051
1906.000000	24.915143
1907.000000	24.553049
1908.000000	24.190260
1909.000000	23.885808
1910.000000	23.604856
1911.000000	23.315814
1912.000000	23.028813
1913.000000	22.720548
1914.000000	22.422235
1915.000000	22.129335
1916.000000	21.860649
1917.000000	21.626204
1918.000000	21.394104
1919.000000	21.167603
1920.000000	20.961299
1921.000000	20.745253
1922.000000	20.508143
1923.000000	20.310052
1924.000000	20.143248
1925.000000	19.970525
1926.000000	19.808031
1927.000000	19.665219
1928.000000	19.527164
1929.000000	19.404530
1930.000000	19.280670
1931.000000	19.170399
1932.000000	19.092596
1933.000000	19.006041
1934.000000	18.939836
1935.000000	18.868887
1936.000000	18.834267
1937.000000	18.809257
1938.000000	18.793908
1939.000000	18.774500
1940.000000	18.780659
1941.000000	18.781000
1942.000000	18.782334
1943.000000	18.799426
1944.000000	18.821006
1945.000000	18.872713
1946.000000	18.915918
1947.000000	18.976910
1948.000000	19.035296
1949.000000	19.092599
1950.000000	19.155077
1951.000000	19.213021
1952.000000	19.295839
1953.000000	19.369949
1954.000000	19.452627
1955.000000	19.534564
1956.000000	19.607279
1957.000000	19.690275
1958.000000	19.783025
1959.000000	19.854934
1960.000000	19.944930
1961.000000	20.031152
1962.000000	20.111202
1963.000000	20.193629
1964.000000	20.266555
1965.000000	20.359989
1966.000000	20.434508
1967.000000	20.508899
1968.000000	20.599944
1969.000000	20.687813
1970.000000	20.744307
1971.000000	20.845903
1972.000000	20.922878
1973.000000	21.009598
1974.000000	21.096168
1975.000000	21.169453
1976.000000	21.255247
1977.000000	21.351587
1978.000000	21.433004
1979.000000	21.531056
1980.000000	21.625686
1981.000000	21.709983
1982.000000	21.801578
1983.000000	21.895647
1984.000000	21.962554
1985.000000	22.046337
1986.000000	22.124678
1987.000000	22.202949
1988.000000	22.278887
1989.000000	22.357904
1990.000000	22.435278
1991.000000	22.494199
1992.000000	22.552996
1993.000000	22.615477
1994.000000	22.674778
1995.000000	22.713185
1996.000000	22.758276
1997.000000	22.786411
1998.000000	22.830100
1999.000000	22.854833
2000.000000	22.865584
2001.000000	22.880657
2002.000000	22.890075
2003.000000	22.891532
2004.000000	22.897421
2005.000000	22.893564
2006.000000	22.871499
2007.000000	22.856266
2008.000000	22.841235
2009.000000	22.798649
2010.000000	22.768154
2011.000000	22.713901
2012.000000	22.663270
2013.000000	22.600499
2014.000000	22.541656
2015.000000	22.467592
2016.000000	22.405269
2017.000000	22.309812
2018.000000	22.230813
2019.000000	22.142233
2020.000000	22.051709
2021.000000	21.950236
2022.000000	21.837362
2023.000000	21.735415
2024.000000	21.631644
2025.000000	21.509350
2026.000000	21.401012
2027.000000	21.283865
2028.000000	21.155782
2029.000000	21.006419
2030.000000	20.870958
2031.000000	20.732546
2032.000000	20.597292
2033.000000	20.445015
2034.000000	20.270726
2035.000000	20.105227
2036.000000	19.939257
2037.000000	19.755933
2038.000000	19.571360
2039.000000	19.385080
2040.000000	19.200429
2041.000000	18.995367
2042.000000	18.785147
2043.000000	18.587014
2044.000000	18.390267
2045.000000	18.176475
2046.000000	17.993725
2047.000000	17.822130
2048.000000	17.649918
2049.000000	17.480617
2050.000000	17.336173
2051.000000	17.207269
2052.000000	17.094256
2053.000000	16.992619
2054.000000	16.909939
2055.000000	16.843913
2056.000000	16.799026
2057.000000	16.762199
2058.000000	16.740904
2059.000000	16.736631
2060.000000	16.738772
2061.000000	16.751630
2062.000000	16.778316
2063.000000	16.798023
2064.000000	16.842149
2065.000000	16.875487
2066.000000	16.906021
2067.000000	16.954643
2068.000000	16.999770
2069.000000	17.052355
2070.000000	17.101997
2071.000000	17.147322
2072.000000	17.201163
2073.000000	17.238633
2074.000000	17.275627
2075.000000	17.317027
2076.000000	17.349701
2077.000000	17.385112
2078.000000	17.421554
2079.000000	17.449438
2080.000000	17.479588
2081.000000	17.518147
2082.000000	17.547957
2083.000000	17.563840
2084.000000	17.579553
2085.000000	17.597857
2086.000000	17.620789
2087.000000	17.632750
2088.000000	17.634140
2089.000000	17.654143
2090.000000	17.671760
2091.000000	17.678452
2092.000000	17.687121
2093.000000	17.697895
2094.000000	17.712933
2095.000000	17.721583
2096.000000	17.740647
2097.000000	17.771203
2098.000000	17.782947
2099.000000	17.809023
2100.000000	17.847692
2101.000000	17.869856
2102.000000	17.892943
2103.000000	17.923541
2104.000000	17.951704
2105.000000	17.980842
2106.000000	18.009084
2107.000000	18.040017
2108.000000	18.076148
2109.000000	18.111829
2110.000000	18.141683
2111.000000	18.165276
2112.000000	18.189777
2113.000000	18.210242
2114.000000	18.240964
2115.000000	18.273871
2116.000000	18.294107
2117.000000	18.323589
2118.000000	18.347759
2119.000000	18.362379
2120.000000	18.374406
2121.000000	18.385775
2122.000000	18.397021
2123.000000	18.407834
2124.000000	18.412336
2125.000000	18.410571
2126.000000	18.398840
2127.000000	18.388339
2128.000000	18.385640
2129.000000	18.375980
2130.000000	18.353132
2131.000000	18.335633
2132.000000	18.306852
2133.000000	18.275182
2134.000000	18.242784
2135.000000	18.206889
2136.000000	18.171926
2137.000000	18.135346
2138.000000	18.090258
2139.000000	18.048976
2140.000000	17.993255
2141.000000	17.934390
2142.000000	17.887225
2143.000000	17.836847
2144.000000	17.779178
2145.000000	17.718856
2146.000000	17.656188
2147.000000	17.603542
2148.000000	17.544572
2149.000000	17.482770
2150.000000	17.420005
2151.000000	17.359865
2152.000000	17.295032
2153.000000	17.233672
2154.000000	17.167158
2155.000000	17.107789
2156.000000	17.050099
2157.000000	16.990889
2158.000000	16.938470
2159.000000	16.889872
2160.000000	16.844799
2161.000000	16.812758
2162.000000	16.768423
2163.000000	16.733745
2164.000000	16.698020
2165.000000	16.669901
2166.000000	16.648363
2167.000000	16.611075
2168.000000	16.589642
2169.000000	16.570759
2170.000000	16.557158
2171.000000	16.537136
2172.000000	16.513417
2173.000000	16.506641
2174.000000	16.502639
2175.000000	16.502866
2176.000000	16.508806
2177.000000	16.508832
2178.000000	16.506222
2179.000000	16.523285
2180.000000	16.524616
2181.000000	16.537435
2182.000000	16.549442
2183.000000	16.559092
2184.000000	16.582427
2185.000000	16.595235
2186.000000	16.608614
2187.000000	16.621147
2188.000000	16.640668
2189.000000	16.645921
2190.000000	16.669319
2191.000000	16.663943
2192.000000	16.676073
2193.000000	16.683427
2194.000000	16.696012
2195.000000	16.698734
2196.000000	16.704587
2197.000000	16.715460
2198.000000	16.731236
2199.000000	16.741473
2200.000000	16.740031
2201.000000	16.758092
2202.000000	16.757439
2203.000000	16.792101
2204.000000	16.808612
2205.000000	16.831512
2206.000000	16.846177
2207.000000	16.871044
2208.000000	16.902910
2209.000000	16.927019
2210.000000	16.944512
2211.000000	16.985157
2212.000000	17.025867
2213.000000	17.050196
2214.000000	17.082229
2215.000000	17.138839
2216.000000	17.167899
2217.000000	17.212812
2218.000000	17.251454
2219.000000	17.287687
2220.000000	17.327372
2221.000000	17.367149
2222.000000	17.403272
2223.000000	17.432644
2224.000000	17.447719
2225.000000	17.459523
2226.000000	17.472475
2227.000000	17.472024
2228.000000	17.468250
2229.000000	17.448327
2230.000000	17.433484
2231.000000	17.397539
2232.000000	17.358010
2233.000000	17.327244
2234.000000	17.246753
2235.000000	17.181967
2236.000000	17.116998
2237.000000	17.028905
2238.000000	16.914558
2239.000000	16.802586
2240.000000	16.701060
2241.000000	16.555183
2242.000000	16.404755
2243.000000	16.280373
2244.000000	16.095479
2245.000000	15.928220
2246.000000	15.739324
2247.000000	15.550615
2248.000000	15.316430
2249.000000	15.080586
2250.000000	14.840031
2251.000000	14.587484
2252.000000	14.329019
2253.000000	14.021350
2254.000000	13.731123
2255.000000	13.438700
2256.000000	13.157315
2257.000000	12.831580
2258.000000	12.533934
2259.000000	12.245006
2260.000000	11.980193
2261.000000	11.703561
2262.000000	11.448307
2263.000000	11.215056
2264.000000	11.013217
2265.000000	10.836766
2266.000000	10.678016
2267.000000	10.548446
2268.000000	10.433862
2269.000000	10.349214
2270.000000	10.278426
2271.000000	10.233762
2272.000000	10.221286
2273.000000	10.200670
2274.000000	10.202947
2275.000000	10.231980
2276.000000	10.253714
2277.000000	10.278132
2278.000000	10.325131
2279.000000	10.370702
2280.000000	10.421045
2281.000000	10.466617
2282.000000	10.506566
2283.000000	10.559905
2284.000000	10.588887
2285.000000	10.634572
2286.000000	10.669302
2287.000000	10.686744
2288.000000	10.694002
2289.000000	10.703405
2290.000000	10.676080
2291.000000	10.653498
2292.000000	10.611456
2293.000000	10.569186
2294.000000	10.499741
2295.000000	10.424298
2296.000000	10.331384
2297.000000	10.233649
2298.000000	10.145964
2299.000000	10.043999
2300.000000	9.942485
2301.000000	9.862599
2302.000000	9.781744
2303.000000	9.704388
2304.000000	9.637018
2305.000000	9.596308
2306.000000	9.590176
2307.000000	9.582972
2308.000000	9.599747
2309.000000	9.636177
2310.000000	9.698805
2311.000000	9.779135
2312.000000	9.864034
2313.000000	9.966535
2314.000000	10.078126
2315.000000	10.199106
2316.000000	10.314808
2317.000000	10.447040
2318.000000	10.586044
2319.000000	10.705112
2320.000000	10.838507
2321.000000	10.976545
2322.000000	11.093948
2323.000000	11.201947
2324.000000	11.311278
2325.000000	11.413226
2326.000000	11.508858
2327.000000	11.595009
2328.000000	11.670944
2329.000000	11.749089
2330.000000	11.820293
2331.000000	11.885334
2332.000000	11.936028
2333.000000	11.987994
2334.000000	12.021844
2335.000000	12.045750
2336.000000	12.071834
2337.000000	12.090605
2338.000000	12.102113
2339.000000	12.090811
2340.000000	12.078299
2341.000000	12.053503
2342.000000	12.024030
2343.000000	11.988829
2344.000000	11.941295
2345.000000	11.899019
2346.000000	11.860777
2347.000000	11.818183
2348.000000	11.784821
2349.000000	11.748378
2350.000000	11.716041
2351.000000	11.698825
2352.000000	11.691142
2353.000000	11.694319
2354.000000	11.709565
2355.000000	11.733869
2356.000000	11.767564
2357.000000	11.811445
2358.000000	11.859831
2359.000000	11.923878
2360.000000	11.993622
2361.000000	12.066125
2362.000000	12.136998
2363.000000	12.214622
2364.000000	12.292799
2365.000000	12.361825
2366.000000	12.430809
2367.000000	12.491471
2368.000000	12.554639
2369.000000	12.623051
2370.000000	12.678757
2371.000000	12.717571
2372.000000	12.759571
2373.000000	12.807708
2374.000000	12.833039
2375.000000	12.867085
2376.000000	12.910181
2377.000000	12.934430
2378.000000	12.953512
2379.000000	12.978306
2380.000000	12.997282
2381.000000	13.012119
2382.000000	13.023633
2383.000000	13.029974
2384.000000	13.037071
2385.000000	13.038760
2386.000000	13.040079
2387.000000	13.032313
2388.000000	13.027154
2389.000000	13.020005
2390.000000	13.013282
2391.000000	12.989954
2392.000000	12.963249
2393.000000	12.944412
2394.000000	12.918507
2395.000000	12.897670
2396.000000	12.880130
2397.000000	12.832755
2398.000000	12.785811
2399.000000	12.740131
2400.000000	12.698798
2401.000000	12.670136
2402.000000	12.638273
2403.000000	12.614487
2404.000000	12.580340
2405.000000	12.549317
2406.000000	12.523162
2407.000000	12.495957
2408.000000	12.471177
2409.000000	12.450887
2410.000000	12.436705
2411.000000	12.410846
2412.000000	12.371160
2413.000000	12.332483
2414.000000	12.303750
2415.000000	12.286246
2416.000000	12.246977
2417.000000	12.220793
2418.000000	12.180253
2419.000000	12.154923
2420.000000	12.126089
2421.000000	12.093746
2422.000000	12.050947
2423.000000	12.010003
2424.000000	11.969534
2425.000000	11.935565
2426.000000	11.885139
2427.000000	11.838789
2428.000000	11.784882
2429.000000	11.727791
2430.000000	11.660243
2431.000000	11.601375
2432.000000	11.554618
2433.000000	11.494086
2434.000000	11.412737
2435.000000	11.337011
2436.000000	11.263668
2437.000000	11.186347
2438.000000	11.113500
2439.000000	11.019887
2440.000000	10.931027
2441.000000	10.860196
2442.000000	10.756399
2443.000000	10.671061
2444.000000	10.580138
2445.000000	10.494263
2446.000000	10.408083
2447.000000	10.325145
2448.000000	10.225011
2449.000000	10.126144
2450.000000	10.058898
2451.000000	9.961153
2452.000000	9.872128
2453.000000	9.776956
2454.000000	9.699060
2455.000000	9.622981
2456.000000	9.545363
2457.000000	9.486231
2458.000000	9.418319
2459.000000	9.361320
2460.000000	9.282539
2461.000000	9.239022
2462.000000	9.199912
2463.000000	9.130252
2464.000000	9.123409
2465.000000	9.090742
2466.000000	9.066414
2467.000000	9.047220
2468.000000	8.999226
2469.000000	9.005814
2470.000000	8.975898
2471.000000	8.971609
2472.000000	8.994147
2473.000000	8.971891
2474.000000	8.947721
2475.000000	8.921998
2476.000000	8.944064
2477.000000	8.925963
2478.000000	8.935360
2479.000000	8.945270
2480.000000	8.964945
2481.000000	8.965274
2482.000000	8.965414
2483.000000	8.958309
2484.000000	8.957774
2485.000000	8.987706
2486.000000	9.048623
2487.000000	9.032087
2488.000000	9.022721
2489.000000	9.029912
2490.000000	9.030564
2491.000000	9.066655
2492.000000	9.117839
2493.000000	9.161858
2494.000000	9.179401
2495.000000	9.181694
2496.000000	9.218146
2497.000000	9.295327
2498.000000	9.283975
2499.000000	9.248470
2500.000000	9.300284
