PE UV       SUBTECH     SPECTRUM    ASCII       PEDS        4.00        
   -1
CICIMAUCR0210-3.ASC
24/06/06
17:17:43.00
24/06/06
17:17:43.00
Vinicio Soto Monge
C. resplendens. Sex F. Dorsal
250,000000
1
Lambda 1050
1050L1511233
PerkinElmer UV WinLab 6.3.2.0749 / 2.02.05 Lambda 900 UV/VIS/NIR, Aug  7 2015 09:38:08

0
0
3350/servo 860,8/2
0
0
UV/VIS
1
1
1
DoubleDePol,CommonBeamDepol,RBeamAtt,SBeamAtt,60mm sphere, WB InGaAs Detector
0
0
0
0
Program
Program
3350/servo 860,8/2
3350/0,2 860,8/0,2
3350/0,2 860,8/0,2
0
15.00
 
 
 
0
 
860,8
319,2
860,8
Front
100
on
S:100 R:100
0
0
0
0
 
0
 
 
 
0
 
 
0
0
0
0
0
 
 
 
 
0
0


0
0
#HDR
-1
-1
#GR
nm
%R
1.0
0.0
2500,000000
-1,000000
2251
8
91,100500
5,644400
#DATA
250.000000	6.154633
251.000000	6.131200
252.000000	6.156667
253.000000	6.146367
254.000000	6.116033
255.000000	6.100867
256.000000	6.109267
257.000000	6.103567
258.000000	6.070467
259.000000	6.071033
260.000000	6.048633
261.000000	6.001267
262.000000	5.998800
263.000000	5.955900
264.000000	5.944667
265.000000	5.922067
266.000000	5.903667
267.000000	5.905067
268.000000	5.880500
269.000000	5.863133
270.000000	5.831933
271.000000	5.834467
272.000000	5.827233
273.000000	5.812167
274.000000	5.803867
275.000000	5.782967
276.000000	5.754567
277.000000	5.744900
278.000000	5.754500
279.000000	5.751333
280.000000	5.717033
281.000000	5.712800
282.000000	5.692000
283.000000	5.671633
284.000000	5.672067
285.000000	5.658767
286.000000	5.650667
287.000000	5.637033
288.000000	5.640133
289.000000	5.641133
290.000000	5.617633
291.000000	5.606333
292.000000	5.593733
293.000000	5.589367
294.000000	5.586433
295.000000	5.593433
296.000000	5.586500
297.000000	5.569933
298.000000	5.557567
299.000000	5.536367
300.000000	5.544500
301.000000	5.547433
302.000000	5.548367
303.000000	5.532367
304.000000	5.532233
305.000000	5.533333
306.000000	5.532400
307.000000	5.528833
308.000000	5.519133
309.000000	5.506967
310.000000	5.514433
311.000000	5.509867
312.000000	5.485600
313.000000	5.491567
314.000000	5.501867
315.000000	5.479233
316.000000	5.599767
317.000000	5.780033
318.000000	5.741700
319.000000	5.665667
320.000000	5.675067
321.000000	5.653933
322.000000	5.594000
323.000000	5.565233
324.000000	5.652133
325.000000	5.705667
326.000000	5.702133
327.000000	5.685700
328.000000	5.671233
329.000000	5.709867
330.000000	5.774833
331.000000	5.727400
332.000000	5.657133
333.000000	5.662633
334.000000	5.648900
335.000000	5.605567
336.000000	5.702200
337.000000	5.766067
338.000000	5.670833
339.000000	5.650400
340.000000	5.671033
341.000000	5.703400
342.000000	5.739700
343.000000	5.692433
344.000000	5.659200
345.000000	5.720933
346.000000	5.759833
347.000000	5.758433
348.000000	5.746367
349.000000	5.792833
350.000000	5.823100
351.000000	5.819333
352.000000	5.845700
353.000000	5.858167
354.000000	5.881333
355.000000	5.855767
356.000000	5.879733
357.000000	5.950300
358.000000	5.953633
359.000000	5.965500
360.000000	5.978033
361.000000	5.953767
362.000000	5.953667
363.000000	6.005300
364.000000	6.058867
365.000000	6.024567
366.000000	5.999267
367.000000	6.022200
368.000000	5.994000
369.000000	5.982633
370.000000	6.038567
371.000000	6.076967
372.000000	6.073833
373.000000	6.090633
374.000000	6.122933
375.000000	6.176900
376.000000	6.204333
377.000000	6.237467
378.000000	6.261033
379.000000	6.263033
380.000000	6.285733
381.000000	6.304700
382.000000	6.325533
383.000000	6.337367
384.000000	6.371733
385.000000	6.398000
386.000000	6.421300
387.000000	6.429033
388.000000	6.447533
389.000000	6.468300
390.000000	6.484000
391.000000	6.498300
392.000000	6.518633
393.000000	6.539800
394.000000	6.554833
395.000000	6.574267
396.000000	6.593700
397.000000	6.625333
398.000000	6.647633
399.000000	6.677967
400.000000	6.693967
401.000000	6.729033
402.000000	6.768867
403.000000	6.798667
404.000000	6.835667
405.000000	6.881900
406.000000	6.940167
407.000000	6.993567
408.000000	7.049433
409.000000	7.118400
410.000000	7.197067
411.000000	7.279233
412.000000	7.385933
413.000000	7.495833
414.000000	7.601367
415.000000	7.732033
416.000000	7.873833
417.000000	8.045833
418.000000	8.217633
419.000000	8.417633
420.000000	8.609200
421.000000	8.836200
422.000000	9.098467
423.000000	9.371900
424.000000	9.678000
425.000000	9.991000
426.000000	10.322733
427.000000	10.696200
428.000000	11.092500
429.000000	11.516700
430.000000	11.936500
431.000000	12.394367
432.000000	12.873767
433.000000	13.380133
434.000000	13.901767
435.000000	14.433800
436.000000	14.973633
437.000000	15.527733
438.000000	16.103967
439.000000	16.658733
440.000000	17.256933
441.000000	17.816000
442.000000	18.408167
443.000000	18.955600
444.000000	19.537200
445.000000	20.063333
446.000000	20.581233
447.000000	21.125433
448.000000	21.602233
449.000000	22.081867
450.000000	22.526733
451.000000	22.985733
452.000000	23.409467
453.000000	23.805967
454.000000	24.199900
455.000000	24.582767
456.000000	24.925067
457.000000	25.278633
458.000000	25.583267
459.000000	25.893700
460.000000	26.169233
461.000000	26.468633
462.000000	26.764667
463.000000	27.030433
464.000000	27.285800
465.000000	27.550200
466.000000	27.800867
467.000000	28.047600
468.000000	28.294000
469.000000	28.531100
470.000000	28.767367
471.000000	29.013867
472.000000	29.230267
473.000000	29.460167
474.000000	29.671900
475.000000	29.902900
476.000000	30.119500
477.000000	30.336233
478.000000	30.518367
479.000000	30.721100
480.000000	30.931300
481.000000	31.110767
482.000000	31.265900
483.000000	31.422200
484.000000	31.540633
485.000000	31.664767
486.000000	31.743467
487.000000	31.811400
488.000000	31.870233
489.000000	31.919933
490.000000	31.935567
491.000000	31.932700
492.000000	31.948367
493.000000	31.922900
494.000000	31.895233
495.000000	31.871167
496.000000	31.819700
497.000000	31.806433
498.000000	31.811767
499.000000	31.848833
500.000000	31.890733
501.000000	31.957433
502.000000	32.077033
503.000000	32.287167
504.000000	32.536833
505.000000	32.860833
506.000000	33.273300
507.000000	33.752667
508.000000	34.327033
509.000000	34.981767
510.000000	35.740833
511.000000	36.604533
512.000000	37.561867
513.000000	38.589600
514.000000	39.731633
515.000000	40.943433
516.000000	42.196067
517.000000	43.501667
518.000000	44.868533
519.000000	46.267233
520.000000	47.699967
521.000000	49.200800
522.000000	50.690400
523.000000	52.178700
524.000000	53.674667
525.000000	55.132467
526.000000	56.585900
527.000000	58.027433
528.000000	59.416000
529.000000	60.823800
530.000000	62.164933
531.000000	63.514867
532.000000	64.821200
533.000000	66.093100
534.000000	67.306900
535.000000	68.490733
536.000000	69.616900
537.000000	70.717833
538.000000	71.783567
539.000000	72.798300
540.000000	73.787900
541.000000	74.770100
542.000000	75.708267
543.000000	76.608133
544.000000	77.495733
545.000000	78.322933
546.000000	79.139800
547.000000	79.922267
548.000000	80.675933
549.000000	81.399300
550.000000	82.118267
551.000000	82.792233
552.000000	83.461567
553.000000	84.086167
554.000000	84.686333
555.000000	85.252533
556.000000	85.788600
557.000000	86.287767
558.000000	86.725000
559.000000	87.174867
560.000000	87.600700
561.000000	87.981000
562.000000	88.330600
563.000000	88.665033
564.000000	88.964900
565.000000	89.231900
566.000000	89.477067
567.000000	89.713467
568.000000	89.907467
569.000000	90.093600
570.000000	90.233000
571.000000	90.395533
572.000000	90.512300
573.000000	90.617233
574.000000	90.705133
575.000000	90.825600
576.000000	90.903867
577.000000	90.961200
578.000000	91.012267
579.000000	91.059667
580.000000	91.091067
581.000000	91.105833
582.000000	91.090400
583.000000	91.062667
584.000000	91.059500
585.000000	91.029400
586.000000	90.972167
587.000000	90.879267
588.000000	90.815267
589.000000	90.717400
590.000000	90.535567
591.000000	90.357467
592.000000	90.145767
593.000000	89.917233
594.000000	89.655733
595.000000	89.365100
596.000000	89.047067
597.000000	88.708000
598.000000	88.329400
599.000000	87.905233
600.000000	87.486367
601.000000	86.990467
602.000000	86.461933
603.000000	85.922167
604.000000	85.329633
605.000000	84.772600
606.000000	84.129200
607.000000	83.454600
608.000000	82.766567
609.000000	82.026200
610.000000	81.269767
611.000000	80.474900
612.000000	79.605300
613.000000	78.678967
614.000000	77.751567
615.000000	76.789900
616.000000	75.771000
617.000000	74.708933
618.000000	73.617233
619.000000	72.482200
620.000000	71.312167
621.000000	70.120833
622.000000	68.908033
623.000000	67.686367
624.000000	66.464767
625.000000	65.269667
626.000000	64.080633
627.000000	62.940033
628.000000	61.842767
629.000000	60.782333
630.000000	59.768000
631.000000	58.802200
632.000000	57.912533
633.000000	57.098467
634.000000	56.346700
635.000000	55.679733
636.000000	55.101933
637.000000	54.620367
638.000000	54.217667
639.000000	53.867833
640.000000	53.627167
641.000000	53.506667
642.000000	53.449833
643.000000	53.494067
644.000000	53.660067
645.000000	53.934900
646.000000	54.286067
647.000000	54.737133
648.000000	55.291867
649.000000	55.906900
650.000000	56.583800
651.000000	57.337667
652.000000	58.107067
653.000000	58.883633
654.000000	59.694400
655.000000	60.461267
656.000000	61.184667
657.000000	61.873167
658.000000	62.528667
659.000000	63.146867
660.000000	63.710267
661.000000	64.204733
662.000000	64.696833
663.000000	65.116800
664.000000	65.477200
665.000000	65.815567
666.000000	66.108867
667.000000	66.382933
668.000000	66.636933
669.000000	66.901967
670.000000	67.139233
671.000000	67.335833
672.000000	67.517633
673.000000	67.663833
674.000000	67.794933
675.000000	67.935900
676.000000	68.016533
677.000000	68.056133
678.000000	68.120900
679.000000	68.148033
680.000000	68.175333
681.000000	68.192500
682.000000	68.188667
683.000000	68.219200
684.000000	68.246167
685.000000	68.227200
686.000000	68.260467
687.000000	68.288200
688.000000	68.343000
689.000000	68.481267
690.000000	68.542933
691.000000	68.659167
692.000000	68.825567
693.000000	68.965167
694.000000	69.167533
695.000000	69.357900
696.000000	69.555667
697.000000	69.776500
698.000000	69.994133
699.000000	70.270800
700.000000	70.559633
701.000000	70.811433
702.000000	71.149300
703.000000	71.488133
704.000000	71.846867
705.000000	72.263933
706.000000	72.650800
707.000000	73.103933
708.000000	73.549967
709.000000	74.065833
710.000000	74.622067
711.000000	75.097033
712.000000	75.637133
713.000000	76.231267
714.000000	76.788400
715.000000	77.314233
716.000000	77.922033
717.000000	78.485067
718.000000	79.035767
719.000000	79.616267
720.000000	80.102900
721.000000	80.576533
722.000000	81.111200
723.000000	81.563900
724.000000	82.133967
725.000000	82.483367
726.000000	82.865100
727.000000	83.279400
728.000000	83.748867
729.000000	84.066033
730.000000	84.337133
731.000000	84.655100
732.000000	84.940033
733.000000	85.175300
734.000000	85.453900
735.000000	85.686533
736.000000	85.897767
737.000000	86.095633
738.000000	86.284933
739.000000	86.401800
740.000000	86.563600
741.000000	86.704300
742.000000	86.821833
743.000000	86.950100
744.000000	87.003767
745.000000	87.088400
746.000000	87.122333
747.000000	87.128567
748.000000	87.241000
749.000000	87.324167
750.000000	87.343767
751.000000	87.348400
752.000000	87.278267
753.000000	87.190133
754.000000	87.222633
755.000000	87.216100
756.000000	87.160133
757.000000	87.095267
758.000000	87.094867
759.000000	86.957600
760.000000	87.003800
761.000000	86.891900
762.000000	86.867300
763.000000	86.772833
764.000000	86.632667
765.000000	86.588933
766.000000	86.462867
767.000000	86.365933
768.000000	86.345633
769.000000	86.277500
770.000000	86.181400
771.000000	86.113833
772.000000	86.039600
773.000000	86.031267
774.000000	85.836433
775.000000	85.790933
776.000000	85.721033
777.000000	85.615400
778.000000	85.495933
779.000000	85.453600
780.000000	85.339133
781.000000	85.224867
782.000000	84.964000
783.000000	84.876167
784.000000	84.645300
785.000000	84.377933
786.000000	84.275800
787.000000	84.012933
788.000000	83.797467
789.000000	83.655067
790.000000	83.470933
791.000000	83.343067
792.000000	83.066500
793.000000	82.906600
794.000000	82.667433
795.000000	82.531033
796.000000	82.324067
797.000000	82.051800
798.000000	81.777300
799.000000	81.627533
800.000000	81.411500
801.000000	81.260733
802.000000	80.993667
803.000000	80.769800
804.000000	80.558467
805.000000	80.341500
806.000000	80.009867
807.000000	79.678433
808.000000	79.491967
809.000000	79.259033
810.000000	78.946833
811.000000	78.667667
812.000000	78.290300
813.000000	77.865033
814.000000	77.608567
815.000000	77.243900
816.000000	76.958100
817.000000	76.489533
818.000000	76.193200
819.000000	75.901433
820.000000	75.485267
821.000000	75.123967
822.000000	74.791500
823.000000	74.475033
824.000000	74.064900
825.000000	73.708033
826.000000	73.444867
827.000000	73.038133
828.000000	72.717700
829.000000	72.657600
830.000000	72.323467
831.000000	72.222033
832.000000	71.828633
833.000000	71.948533
834.000000	71.923533
835.000000	71.717767
836.000000	71.641900
837.000000	71.551000
838.000000	71.605467
839.000000	71.612167
840.000000	71.477467
841.000000	71.448567
842.000000	71.688300
843.000000	71.682333
844.000000	71.839067
845.000000	71.811000
846.000000	71.654833
847.000000	71.791067
848.000000	71.935533
849.000000	71.684400
850.000000	71.775933
851.000000	72.037033
852.000000	72.063367
853.000000	72.045367
854.000000	71.917100
855.000000	71.821667
856.000000	72.008167
857.000000	71.721567
858.000000	71.850467
859.000000	71.838188
860.000000	71.797328
861.000000	71.784444
862.000000	71.746214
863.000000	71.707852
864.000000	71.685311
865.000000	71.651236
866.000000	71.621398
867.000000	71.567517
868.000000	71.499741
869.000000	71.460717
870.000000	71.457779
871.000000	71.583404
872.000000	71.791849
873.000000	71.992102
874.000000	72.125075
875.000000	72.244630
876.000000	72.340086
877.000000	72.432631
878.000000	72.481499
879.000000	72.512822
880.000000	72.543519
881.000000	72.563614
882.000000	72.587048
883.000000	72.596245
884.000000	72.605442
885.000000	72.612270
886.000000	72.616567
887.000000	72.611559
888.000000	72.578125
889.000000	72.546315
890.000000	72.531159
891.000000	72.499007
892.000000	72.470202
893.000000	72.438419
894.000000	72.394104
895.000000	72.344089
896.000000	72.283660
897.000000	72.220871
898.000000	72.158439
899.000000	72.103156
900.000000	72.048945
901.000000	71.980497
902.000000	71.907612
903.000000	71.841875
904.000000	71.766748
905.000000	71.701778
906.000000	71.645194
907.000000	71.590111
908.000000	71.528577
909.000000	71.471031
910.000000	71.432726
911.000000	71.397383
912.000000	71.337634
913.000000	71.264252
914.000000	71.203685
915.000000	71.139737
916.000000	71.081836
917.000000	71.019673
918.000000	70.954892
919.000000	70.879139
920.000000	70.803146
921.000000	70.721763
922.000000	70.659783
923.000000	70.571212
924.000000	70.455968
925.000000	70.378915
926.000000	70.293656
927.000000	70.216641
928.000000	70.122117
929.000000	70.011311
930.000000	69.932259
931.000000	69.837080
932.000000	69.728918
933.000000	69.624590
934.000000	69.517204
935.000000	69.415807
936.000000	69.331299
937.000000	69.229432
938.000000	69.109359
939.000000	69.002376
940.000000	68.894890
941.000000	68.779469
942.000000	68.654746
943.000000	68.543090
944.000000	68.427170
945.000000	68.294790
946.000000	68.159227
947.000000	68.028091
948.000000	67.892571
949.000000	67.750504
950.000000	67.622564
951.000000	67.482427
952.000000	67.322386
953.000000	67.188786
954.000000	67.037974
955.000000	66.873991
956.000000	66.724878
957.000000	66.576113
958.000000	66.419703
959.000000	66.247344
960.000000	66.076911
961.000000	65.923649
962.000000	65.764141
963.000000	65.592933
964.000000	65.430487
965.000000	65.263423
966.000000	65.097348
967.000000	64.941220
968.000000	64.784557
969.000000	64.627933
970.000000	64.478136
971.000000	64.327867
972.000000	64.173792
973.000000	64.023658
974.000000	63.876996
975.000000	63.719463
976.000000	63.571178
977.000000	63.433220
978.000000	63.296058
979.000000	63.157120
980.000000	63.009682
981.000000	62.880249
982.000000	62.740737
983.000000	62.612263
984.000000	62.492160
985.000000	62.366391
986.000000	62.235965
987.000000	62.122090
988.000000	62.006671
989.000000	61.909460
990.000000	61.819379
991.000000	61.708765
992.000000	61.606777
993.000000	61.523378
994.000000	61.435117
995.000000	61.346181
996.000000	61.258485
997.000000	61.176390
998.000000	61.118008
999.000000	61.042539
1000.000000	60.974413
1001.000000	60.908731
1002.000000	60.845065
1003.000000	60.787315
1004.000000	60.727270
1005.000000	60.668686
1006.000000	60.619209
1007.000000	60.555276
1008.000000	60.503556
1009.000000	60.460561
1010.000000	60.423282
1011.000000	60.389732
1012.000000	60.352638
1013.000000	60.344109
1014.000000	60.328363
1015.000000	60.316792
1016.000000	60.321317
1017.000000	60.331730
1018.000000	60.331490
1019.000000	60.348010
1020.000000	60.363847
1021.000000	60.377035
1022.000000	60.403867
1023.000000	60.422645
1024.000000	60.445205
1025.000000	60.478219
1026.000000	60.504994
1027.000000	60.523830
1028.000000	60.543640
1029.000000	60.558785
1030.000000	60.566160
1031.000000	60.584185
1032.000000	60.610782
1033.000000	60.634652
1034.000000	60.651736
1035.000000	60.669660
1036.000000	60.690838
1037.000000	60.702157
1038.000000	60.702734
1039.000000	60.723168
1040.000000	60.736845
1041.000000	60.754243
1042.000000	60.759351
1043.000000	60.774689
1044.000000	60.797704
1045.000000	60.813918
1046.000000	60.825447
1047.000000	60.848210
1048.000000	60.871203
1049.000000	60.900412
1050.000000	60.921032
1051.000000	60.950239
1052.000000	60.984872
1053.000000	61.029335
1054.000000	61.074349
1055.000000	61.105636
1056.000000	61.150884
1057.000000	61.197418
1058.000000	61.227824
1059.000000	61.278489
1060.000000	61.317654
1061.000000	61.363154
1062.000000	61.401991
1063.000000	61.439176
1064.000000	61.475803
1065.000000	61.526292
1066.000000	61.566550
1067.000000	61.605760
1068.000000	61.657499
1069.000000	61.694185
1070.000000	61.740732
1071.000000	61.785144
1072.000000	61.818319
1073.000000	61.854883
1074.000000	61.894730
1075.000000	61.943451
1076.000000	61.981356
1077.000000	62.031270
1078.000000	62.065954
1079.000000	62.098904
1080.000000	62.137851
1081.000000	62.187494
1082.000000	62.228973
1083.000000	62.272192
1084.000000	62.306379
1085.000000	62.336029
1086.000000	62.381970
1087.000000	62.410391
1088.000000	62.436621
1089.000000	62.470330
1090.000000	62.498068
1091.000000	62.519956
1092.000000	62.533610
1093.000000	62.553584
1094.000000	62.577425
1095.000000	62.585396
1096.000000	62.600594
1097.000000	62.607998
1098.000000	62.608150
1099.000000	62.617571
1100.000000	62.618737
1101.000000	62.619083
1102.000000	62.617811
1103.000000	62.603260
1104.000000	62.603364
1105.000000	62.592882
1106.000000	62.594171
1107.000000	62.590267
1108.000000	62.587667
1109.000000	62.570390
1110.000000	62.565782
1111.000000	62.552550
1112.000000	62.554361
1113.000000	62.539008
1114.000000	62.532281
1115.000000	62.516820
1116.000000	62.493928
1117.000000	62.465316
1118.000000	62.433317
1119.000000	62.384741
1120.000000	62.331863
1121.000000	62.265153
1122.000000	62.181541
1123.000000	62.095342
1124.000000	61.990338
1125.000000	61.853760
1126.000000	61.713095
1127.000000	61.524906
1128.000000	61.301690
1129.000000	61.022288
1130.000000	60.715279
1131.000000	60.363372
1132.000000	60.003466
1133.000000	59.638836
1134.000000	59.198523
1135.000000	58.733626
1136.000000	58.279418
1137.000000	57.860860
1138.000000	57.455317
1139.000000	57.063805
1140.000000	56.678747
1141.000000	56.313670
1142.000000	55.963416
1143.000000	55.641831
1144.000000	55.376943
1145.000000	55.152717
1146.000000	54.996917
1147.000000	54.866826
1148.000000	54.785763
1149.000000	54.698619
1150.000000	54.587979
1151.000000	54.469837
1152.000000	54.329657
1153.000000	54.148695
1154.000000	53.921718
1155.000000	53.642896
1156.000000	53.342823
1157.000000	53.017408
1158.000000	52.672316
1159.000000	52.323674
1160.000000	51.963368
1161.000000	51.588120
1162.000000	51.220514
1163.000000	50.849193
1164.000000	50.502253
1165.000000	50.151286
1166.000000	49.806697
1167.000000	49.469947
1168.000000	49.135710
1169.000000	48.812311
1170.000000	48.495508
1171.000000	48.169487
1172.000000	47.858667
1173.000000	47.550661
1174.000000	47.239579
1175.000000	46.922436
1176.000000	46.560618
1177.000000	46.144017
1178.000000	45.680486
1179.000000	45.195341
1180.000000	44.714189
1181.000000	44.274062
1182.000000	43.901746
1183.000000	43.657812
1184.000000	43.521048
1185.000000	43.508822
1186.000000	43.627687
1187.000000	43.840517
1188.000000	44.162828
1189.000000	44.549001
1190.000000	44.957502
1191.000000	45.364995
1192.000000	45.728359
1193.000000	46.028210
1194.000000	46.284959
1195.000000	46.483889
1196.000000	46.628320
1197.000000	46.739647
1198.000000	46.821435
1199.000000	46.888753
1200.000000	46.944637
1201.000000	46.980124
1202.000000	47.013014
1203.000000	47.067765
1204.000000	47.130981
1205.000000	47.197800
1206.000000	47.281419
1207.000000	47.378502
1208.000000	47.494182
1209.000000	47.616690
1210.000000	47.740438
1211.000000	47.876339
1212.000000	48.016955
1213.000000	48.162184
1214.000000	48.302709
1215.000000	48.445262
1216.000000	48.599166
1217.000000	48.759577
1218.000000	48.927191
1219.000000	49.092727
1220.000000	49.261975
1221.000000	49.440480
1222.000000	49.625811
1223.000000	49.809324
1224.000000	49.992570
1225.000000	50.176664
1226.000000	50.342745
1227.000000	50.507047
1228.000000	50.683599
1229.000000	50.852904
1230.000000	51.013020
1231.000000	51.183115
1232.000000	51.342189
1233.000000	51.492671
1234.000000	51.649315
1235.000000	51.800463
1236.000000	51.939221
1237.000000	52.071759
1238.000000	52.205972
1239.000000	52.332824
1240.000000	52.461212
1241.000000	52.590958
1242.000000	52.710382
1243.000000	52.824664
1244.000000	52.936842
1245.000000	53.041883
1246.000000	53.138643
1247.000000	53.240532
1248.000000	53.324208
1249.000000	53.400252
1250.000000	53.478918
1251.000000	53.553832
1252.000000	53.619665
1253.000000	53.690248
1254.000000	53.759146
1255.000000	53.813564
1256.000000	53.872654
1257.000000	53.928172
1258.000000	53.982251
1259.000000	54.033627
1260.000000	54.074608
1261.000000	54.124762
1262.000000	54.168668
1263.000000	54.217474
1264.000000	54.268832
1265.000000	54.318027
1266.000000	54.360243
1267.000000	54.410924
1268.000000	54.461010
1269.000000	54.497751
1270.000000	54.536560
1271.000000	54.577472
1272.000000	54.611220
1273.000000	54.659280
1274.000000	54.702344
1275.000000	54.753557
1276.000000	54.797760
1277.000000	54.841846
1278.000000	54.899670
1279.000000	54.948883
1280.000000	54.990615
1281.000000	55.048022
1282.000000	55.092172
1283.000000	55.138939
1284.000000	55.187156
1285.000000	55.216266
1286.000000	55.246832
1287.000000	55.266868
1288.000000	55.284069
1289.000000	55.292394
1290.000000	55.305246
1291.000000	55.304878
1292.000000	55.286035
1293.000000	55.272151
1294.000000	55.248269
1295.000000	55.228887
1296.000000	55.195797
1297.000000	55.163683
1298.000000	55.124771
1299.000000	55.086504
1300.000000	55.041487
1301.000000	54.989735
1302.000000	54.932004
1303.000000	54.865643
1304.000000	54.787541
1305.000000	54.706610
1306.000000	54.624704
1307.000000	54.531341
1308.000000	54.422278
1309.000000	54.313306
1310.000000	54.191369
1311.000000	54.068302
1312.000000	53.943096
1313.000000	53.803510
1314.000000	53.657667
1315.000000	53.509424
1316.000000	53.347946
1317.000000	53.194350
1318.000000	53.024193
1319.000000	52.849626
1320.000000	52.673046
1321.000000	52.484457
1322.000000	52.291988
1323.000000	52.099706
1324.000000	51.885706
1325.000000	51.665567
1326.000000	51.452731
1327.000000	51.235208
1328.000000	50.978559
1329.000000	50.740719
1330.000000	50.482705
1331.000000	50.211840
1332.000000	49.948582
1333.000000	49.672521
1334.000000	49.402486
1335.000000	49.124999
1336.000000	48.820041
1337.000000	48.521274
1338.000000	48.227773
1339.000000	47.927256
1340.000000	47.617648
1341.000000	47.300899
1342.000000	46.977745
1343.000000	46.676105
1344.000000	46.323917
1345.000000	45.994524
1346.000000	45.664480
1347.000000	45.296495
1348.000000	44.921573
1349.000000	44.495536
1350.000000	44.050670
1351.000000	43.582074
1352.000000	43.102776
1353.000000	42.727269
1354.000000	42.362545
1355.000000	42.075857
1356.000000	41.886272
1357.000000	41.736491
1358.000000	41.626162
1359.000000	41.532397
1360.000000	41.455124
1361.000000	41.279058
1362.000000	41.101813
1363.000000	40.906238
1364.000000	40.714230
1365.000000	40.482893
1366.000000	40.259215
1367.000000	39.971734
1368.000000	39.655965
1369.000000	39.358224
1370.000000	39.020165
1371.000000	38.644126
1372.000000	38.300482
1373.000000	37.966774
1374.000000	37.715625
1375.000000	37.479716
1376.000000	37.279121
1377.000000	37.048316
1378.000000	36.815382
1379.000000	36.442011
1380.000000	36.167692
1381.000000	35.663369
1382.000000	35.101913
1383.000000	34.486445
1384.000000	33.900601
1385.000000	33.357082
1386.000000	32.842996
1387.000000	32.360032
1388.000000	31.859380
1389.000000	31.445167
1390.000000	31.092751
1391.000000	30.715843
1392.000000	30.329664
1393.000000	30.038362
1394.000000	29.722422
1395.000000	29.322581
1396.000000	28.892154
1397.000000	28.545723
1398.000000	28.272948
1399.000000	27.902968
1400.000000	27.442521
1401.000000	26.984314
1402.000000	26.609708
1403.000000	26.182894
1404.000000	25.792661
1405.000000	25.371343
1406.000000	24.999874
1407.000000	24.623571
1408.000000	24.258900
1409.000000	23.901786
1410.000000	23.566831
1411.000000	23.262037
1412.000000	23.016123
1413.000000	22.754410
1414.000000	22.469988
1415.000000	22.202884
1416.000000	21.963277
1417.000000	21.767705
1418.000000	21.534783
1419.000000	21.298018
1420.000000	21.074671
1421.000000	20.878139
1422.000000	20.692633
1423.000000	20.503743
1424.000000	20.310308
1425.000000	20.130186
1426.000000	19.977440
1427.000000	19.815563
1428.000000	19.670866
1429.000000	19.540780
1430.000000	19.418372
1431.000000	19.308715
1432.000000	19.191341
1433.000000	19.075453
1434.000000	18.956874
1435.000000	18.856759
1436.000000	18.753378
1437.000000	18.670774
1438.000000	18.566273
1439.000000	18.473965
1440.000000	18.386482
1441.000000	18.303410
1442.000000	18.213590
1443.000000	18.147793
1444.000000	18.074974
1445.000000	18.004130
1446.000000	17.917417
1447.000000	17.843914
1448.000000	17.772936
1449.000000	17.719658
1450.000000	17.667325
1451.000000	17.606654
1452.000000	17.544017
1453.000000	17.493006
1454.000000	17.436953
1455.000000	17.386458
1456.000000	17.343222
1457.000000	17.312480
1458.000000	17.284153
1459.000000	17.247806
1460.000000	17.224111
1461.000000	17.209225
1462.000000	17.192348
1463.000000	17.179750
1464.000000	17.173576
1465.000000	17.171975
1466.000000	17.174836
1467.000000	17.175591
1468.000000	17.172364
1469.000000	17.179076
1470.000000	17.184708
1471.000000	17.195443
1472.000000	17.201285
1473.000000	17.199938
1474.000000	17.201459
1475.000000	17.212306
1476.000000	17.232398
1477.000000	17.245449
1478.000000	17.264918
1479.000000	17.293313
1480.000000	17.315416
1481.000000	17.337659
1482.000000	17.354016
1483.000000	17.380463
1484.000000	17.409505
1485.000000	17.448119
1486.000000	17.484411
1487.000000	17.508519
1488.000000	17.540773
1489.000000	17.574058
1490.000000	17.612101
1491.000000	17.648333
1492.000000	17.683641
1493.000000	17.725701
1494.000000	17.769092
1495.000000	17.804707
1496.000000	17.848237
1497.000000	17.890432
1498.000000	17.939345
1499.000000	17.984501
1500.000000	18.030555
1501.000000	18.083698
1502.000000	18.130305
1503.000000	18.181153
1504.000000	18.242924
1505.000000	18.305268
1506.000000	18.360550
1507.000000	18.410464
1508.000000	18.457922
1509.000000	18.509616
1510.000000	18.561868
1511.000000	18.619365
1512.000000	18.679305
1513.000000	18.730156
1514.000000	18.775462
1515.000000	18.822990
1516.000000	18.874613
1517.000000	18.924814
1518.000000	18.973710
1519.000000	19.022870
1520.000000	19.073223
1521.000000	19.119714
1522.000000	19.161247
1523.000000	19.203174
1524.000000	19.246818
1525.000000	19.292605
1526.000000	19.337942
1527.000000	19.376830
1528.000000	19.413079
1529.000000	19.449678
1530.000000	19.484395
1531.000000	19.524488
1532.000000	19.560677
1533.000000	19.596913
1534.000000	19.628595
1535.000000	19.649939
1536.000000	19.677465
1537.000000	19.721254
1538.000000	19.744137
1539.000000	19.756527
1540.000000	19.777461
1541.000000	19.795875
1542.000000	19.823972
1543.000000	19.848663
1544.000000	19.877532
1545.000000	19.904045
1546.000000	19.934356
1547.000000	19.960465
1548.000000	19.983261
1549.000000	20.018699
1550.000000	20.048278
1551.000000	20.078254
1552.000000	20.097674
1553.000000	20.119517
1554.000000	20.137959
1555.000000	20.156975
1556.000000	20.188995
1557.000000	20.195078
1558.000000	20.208639
1559.000000	20.218936
1560.000000	20.227777
1561.000000	20.240608
1562.000000	20.253269
1563.000000	20.267556
1564.000000	20.273430
1565.000000	20.284097
1566.000000	20.292319
1567.000000	20.293136
1568.000000	20.306060
1569.000000	20.315747
1570.000000	20.327322
1571.000000	20.339373
1572.000000	20.369821
1573.000000	20.390884
1574.000000	20.413317
1575.000000	20.430678
1576.000000	20.453222
1577.000000	20.489112
1578.000000	20.513253
1579.000000	20.545853
1580.000000	20.586256
1581.000000	20.616382
1582.000000	20.655954
1583.000000	20.696852
1584.000000	20.745203
1585.000000	20.798387
1586.000000	20.840323
1587.000000	20.893021
1588.000000	20.940855
1589.000000	20.984750
1590.000000	21.033041
1591.000000	21.087659
1592.000000	21.142035
1593.000000	21.195267
1594.000000	21.248320
1595.000000	21.315820
1596.000000	21.372093
1597.000000	21.430546
1598.000000	21.488111
1599.000000	21.551723
1600.000000	21.620811
1601.000000	21.685128
1602.000000	21.754782
1603.000000	21.810254
1604.000000	21.878880
1605.000000	21.937215
1606.000000	22.001481
1607.000000	22.066249
1608.000000	22.135887
1609.000000	22.196668
1610.000000	22.260359
1611.000000	22.332032
1612.000000	22.395330
1613.000000	22.464927
1614.000000	22.530168
1615.000000	22.597269
1616.000000	22.664524
1617.000000	22.735881
1618.000000	22.803073
1619.000000	22.894756
1620.000000	22.953262
1621.000000	23.028077
1622.000000	23.117036
1623.000000	23.195490
1624.000000	23.269486
1625.000000	23.355213
1626.000000	23.434777
1627.000000	23.508741
1628.000000	23.591501
1629.000000	23.673397
1630.000000	23.749502
1631.000000	23.822476
1632.000000	23.903655
1633.000000	23.983286
1634.000000	24.043359
1635.000000	24.109151
1636.000000	24.191936
1637.000000	24.261459
1638.000000	24.313772
1639.000000	24.375751
1640.000000	24.449140
1641.000000	24.510026
1642.000000	24.566323
1643.000000	24.626817
1644.000000	24.666366
1645.000000	24.723117
1646.000000	24.781443
1647.000000	24.832770
1648.000000	24.868884
1649.000000	24.912106
1650.000000	24.934675
1651.000000	24.962016
1652.000000	24.989438
1653.000000	25.008704
1654.000000	25.033445
1655.000000	25.032578
1656.000000	25.023519
1657.000000	24.994465
1658.000000	24.995069
1659.000000	24.974312
1660.000000	24.935396
1661.000000	24.887529
1662.000000	24.837213
1663.000000	24.786013
1664.000000	24.702807
1665.000000	24.633626
1666.000000	24.535658
1667.000000	24.413850
1668.000000	24.303075
1669.000000	24.131938
1670.000000	23.940106
1671.000000	23.729931
1672.000000	23.472227
1673.000000	23.175518
1674.000000	22.835540
1675.000000	22.437880
1676.000000	22.000124
1677.000000	21.523485
1678.000000	21.029557
1679.000000	20.567697
1680.000000	20.171805
1681.000000	19.857011
1682.000000	19.647377
1683.000000	19.530375
1684.000000	19.458407
1685.000000	19.422430
1686.000000	19.396711
1687.000000	19.316946
1688.000000	19.214256
1689.000000	19.080637
1690.000000	18.920165
1691.000000	18.788942
1692.000000	18.669323
1693.000000	18.601410
1694.000000	18.579708
1695.000000	18.625053
1696.000000	18.714262
1697.000000	18.845125
1698.000000	18.991851
1699.000000	19.136642
1700.000000	19.265287
1701.000000	19.378814
1702.000000	19.474492
1703.000000	19.558863
1704.000000	19.629657
1705.000000	19.672404
1706.000000	19.708726
1707.000000	19.743300
1708.000000	19.754090
1709.000000	19.749132
1710.000000	19.728157
1711.000000	19.691971
1712.000000	19.646467
1713.000000	19.594045
1714.000000	19.529598
1715.000000	19.479540
1716.000000	19.434405
1717.000000	19.397939
1718.000000	19.378022
1719.000000	19.354339
1720.000000	19.327740
1721.000000	19.299425
1722.000000	19.266365
1723.000000	19.210062
1724.000000	19.130018
1725.000000	19.046242
1726.000000	18.939844
1727.000000	18.834514
1728.000000	18.729119
1729.000000	18.628448
1730.000000	18.547574
1731.000000	18.503666
1732.000000	18.495163
1733.000000	18.525301
1734.000000	18.599978
1735.000000	18.705866
1736.000000	18.854081
1737.000000	19.024215
1738.000000	19.210664
1739.000000	19.399340
1740.000000	19.582704
1741.000000	19.754103
1742.000000	19.902507
1743.000000	20.024976
1744.000000	20.125026
1745.000000	20.202103
1746.000000	20.262745
1747.000000	20.296656
1748.000000	20.335936
1749.000000	20.361389
1750.000000	20.364126
1751.000000	20.351817
1752.000000	20.332552
1753.000000	20.294373
1754.000000	20.245393
1755.000000	20.180414
1756.000000	20.105485
1757.000000	20.034893
1758.000000	19.970009
1759.000000	19.897990
1760.000000	19.841085
1761.000000	19.809890
1762.000000	19.805158
1763.000000	19.825038
1764.000000	19.867268
1765.000000	19.922090
1766.000000	19.998495
1767.000000	20.089765
1768.000000	20.177738
1769.000000	20.278336
1770.000000	20.385056
1771.000000	20.480117
1772.000000	20.580547
1773.000000	20.676491
1774.000000	20.765659
1775.000000	20.854198
1776.000000	20.929100
1777.000000	21.004783
1778.000000	21.084579
1779.000000	21.154654
1780.000000	21.214483
1781.000000	21.278111
1782.000000	21.354866
1783.000000	21.428382
1784.000000	21.493922
1785.000000	21.563563
1786.000000	21.625281
1787.000000	21.682732
1788.000000	21.743164
1789.000000	21.797361
1790.000000	21.848037
1791.000000	21.908817
1792.000000	21.964740
1793.000000	22.010455
1794.000000	22.056776
1795.000000	22.108275
1796.000000	22.164704
1797.000000	22.215290
1798.000000	22.268349
1799.000000	22.325015
1800.000000	22.378691
1801.000000	22.430207
1802.000000	22.478274
1803.000000	22.525012
1804.000000	22.576763
1805.000000	22.629054
1806.000000	22.675090
1807.000000	22.714079
1808.000000	22.756105
1809.000000	22.795547
1810.000000	22.824443
1811.000000	22.852183
1812.000000	22.882194
1813.000000	22.893193
1814.000000	22.913627
1815.000000	22.925711
1816.000000	22.941996
1817.000000	22.963883
1818.000000	23.002008
1819.000000	23.050995
1820.000000	23.071512
1821.000000	23.085268
1822.000000	23.117903
1823.000000	23.165682
1824.000000	23.223751
1825.000000	23.287764
1826.000000	23.336981
1827.000000	23.405762
1828.000000	23.482799
1829.000000	23.536282
1830.000000	23.591487
1831.000000	23.634793
1832.000000	23.691635
1833.000000	23.763607
1834.000000	23.825157
1835.000000	23.868579
1836.000000	23.886250
1837.000000	23.899746
1838.000000	23.926293
1839.000000	23.959124
1840.000000	23.965754
1841.000000	23.954524
1842.000000	23.932032
1843.000000	23.948233
1844.000000	23.988536
1845.000000	24.041395
1846.000000	24.058719
1847.000000	24.043087
1848.000000	24.018021
1849.000000	24.013136
1850.000000	24.011208
1851.000000	23.992842
1852.000000	23.971517
1853.000000	23.952339
1854.000000	23.886911
1855.000000	23.832279
1856.000000	23.772644
1857.000000	23.682212
1858.000000	23.557871
1859.000000	23.428841
1860.000000	23.278649
1861.000000	23.105841
1862.000000	22.941741
1863.000000	22.801727
1864.000000	22.631148
1865.000000	22.425790
1866.000000	22.232755
1867.000000	21.978104
1868.000000	21.680860
1869.000000	21.329185
1870.000000	20.958766
1871.000000	20.571269
1872.000000	20.167712
1873.000000	19.739410
1874.000000	19.303694
1875.000000	18.869514
1876.000000	18.425863
1877.000000	17.959075
1878.000000	17.480839
1879.000000	17.040685
1880.000000	16.596317
1881.000000	16.100279
1882.000000	15.634832
1883.000000	15.162220
1884.000000	14.719524
1885.000000	14.329059
1886.000000	13.959361
1887.000000	13.637027
1888.000000	13.321430
1889.000000	13.023485
1890.000000	12.730809
1891.000000	12.454235
1892.000000	12.164687
1893.000000	11.925323
1894.000000	11.725014
1895.000000	11.529501
1896.000000	11.350195
1897.000000	11.146831
1898.000000	10.925059
1899.000000	10.727647
1900.000000	10.540745
1901.000000	10.386506
1902.000000	10.238261
1903.000000	10.078079
1904.000000	9.933104
1905.000000	9.767408
1906.000000	9.621281
1907.000000	9.500613
1908.000000	9.396130
1909.000000	9.295168
1910.000000	9.173436
1911.000000	9.081695
1912.000000	8.964207
1913.000000	8.850018
1914.000000	8.758450
1915.000000	8.678807
1916.000000	8.604044
1917.000000	8.517613
1918.000000	8.459926
1919.000000	8.378182
1920.000000	8.304915
1921.000000	8.241826
1922.000000	8.180050
1923.000000	8.132045
1924.000000	8.083702
1925.000000	8.048056
1926.000000	8.009010
1927.000000	7.972695
1928.000000	7.929410
1929.000000	7.903920
1930.000000	7.886567
1931.000000	7.849905
1932.000000	7.831539
1933.000000	7.843250
1934.000000	7.827573
1935.000000	7.829175
1936.000000	7.811034
1937.000000	7.817860
1938.000000	7.834382
1939.000000	7.835309
1940.000000	7.836921
1941.000000	7.858543
1942.000000	7.869480
1943.000000	7.888988
1944.000000	7.906019
1945.000000	7.925776
1946.000000	7.948825
1947.000000	7.976866
1948.000000	7.994421
1949.000000	8.023065
1950.000000	8.054705
1951.000000	8.086063
1952.000000	8.128209
1953.000000	8.144802
1954.000000	8.176048
1955.000000	8.231947
1956.000000	8.247751
1957.000000	8.294915
1958.000000	8.329667
1959.000000	8.358022
1960.000000	8.389494
1961.000000	8.425400
1962.000000	8.474230
1963.000000	8.512955
1964.000000	8.557389
1965.000000	8.602006
1966.000000	8.633807
1967.000000	8.667588
1968.000000	8.710118
1969.000000	8.752195
1970.000000	8.813793
1971.000000	8.852237
1972.000000	8.886357
1973.000000	8.946766
1974.000000	8.984383
1975.000000	9.029306
1976.000000	9.086945
1977.000000	9.121774
1978.000000	9.169000
1979.000000	9.212047
1980.000000	9.255073
1981.000000	9.307930
1982.000000	9.369629
1983.000000	9.407771
1984.000000	9.460071
1985.000000	9.500658
1986.000000	9.552524
1987.000000	9.597900
1988.000000	9.645480
1989.000000	9.686380
1990.000000	9.732977
1991.000000	9.792711
1992.000000	9.829722
1993.000000	9.868152
1994.000000	9.914455
1995.000000	9.950788
1996.000000	9.985156
1997.000000	10.034165
1998.000000	10.067039
1999.000000	10.106814
2000.000000	10.133962
2001.000000	10.170377
2002.000000	10.207340
2003.000000	10.234796
2004.000000	10.265022
2005.000000	10.292990
2006.000000	10.314520
2007.000000	10.334945
2008.000000	10.351432
2009.000000	10.381184
2010.000000	10.398524
2011.000000	10.418836
2012.000000	10.424784
2013.000000	10.435340
2014.000000	10.464683
2015.000000	10.453400
2016.000000	10.467436
2017.000000	10.463901
2018.000000	10.479148
2019.000000	10.473981
2020.000000	10.469515
2021.000000	10.462710
2022.000000	10.462049
2023.000000	10.456278
2024.000000	10.464314
2025.000000	10.455602
2026.000000	10.438639
2027.000000	10.420711
2028.000000	10.413290
2029.000000	10.403045
2030.000000	10.371847
2031.000000	10.352722
2032.000000	10.333797
2033.000000	10.311610
2034.000000	10.285787
2035.000000	10.268286
2036.000000	10.230640
2037.000000	10.179898
2038.000000	10.144838
2039.000000	10.113027
2040.000000	10.077354
2041.000000	10.035413
2042.000000	9.993916
2043.000000	9.962049
2044.000000	9.917578
2045.000000	9.879321
2046.000000	9.834336
2047.000000	9.789642
2048.000000	9.756035
2049.000000	9.729754
2050.000000	9.705697
2051.000000	9.687683
2052.000000	9.664789
2053.000000	9.641886
2054.000000	9.619391
2055.000000	9.625885
2056.000000	9.631260
2057.000000	9.629299
2058.000000	9.638136
2059.000000	9.639858
2060.000000	9.653921
2061.000000	9.666483
2062.000000	9.683367
2063.000000	9.701767
2064.000000	9.713816
2065.000000	9.734839
2066.000000	9.756515
2067.000000	9.779400
2068.000000	9.802770
2069.000000	9.817573
2070.000000	9.836777
2071.000000	9.866370
2072.000000	9.895023
2073.000000	9.921532
2074.000000	9.935790
2075.000000	9.948460
2076.000000	9.970567
2077.000000	9.989694
2078.000000	10.006647
2079.000000	10.032948
2080.000000	10.057035
2081.000000	10.070266
2082.000000	10.085199
2083.000000	10.102834
2084.000000	10.119705
2085.000000	10.137682
2086.000000	10.149981
2087.000000	10.164999
2088.000000	10.184607
2089.000000	10.202882
2090.000000	10.217252
2091.000000	10.234324
2092.000000	10.246840
2093.000000	10.265099
2094.000000	10.279097
2095.000000	10.296426
2096.000000	10.325570
2097.000000	10.339103
2098.000000	10.358959
2099.000000	10.381258
2100.000000	10.395597
2101.000000	10.421302
2102.000000	10.445541
2103.000000	10.462701
2104.000000	10.480602
2105.000000	10.504325
2106.000000	10.534200
2107.000000	10.553808
2108.000000	10.567256
2109.000000	10.578141
2110.000000	10.602941
2111.000000	10.631306
2112.000000	10.648568
2113.000000	10.672602
2114.000000	10.690716
2115.000000	10.713960
2116.000000	10.738108
2117.000000	10.746108
2118.000000	10.760279
2119.000000	10.774166
2120.000000	10.787717
2121.000000	10.803145
2122.000000	10.820707
2123.000000	10.826595
2124.000000	10.830667
2125.000000	10.843649
2126.000000	10.848161
2127.000000	10.854459
2128.000000	10.856611
2129.000000	10.856492
2130.000000	10.851036
2131.000000	10.856987
2132.000000	10.858082
2133.000000	10.844627
2134.000000	10.840584
2135.000000	10.845289
2136.000000	10.839327
2137.000000	10.817998
2138.000000	10.815411
2139.000000	10.810994
2140.000000	10.804274
2141.000000	10.778991
2142.000000	10.765208
2143.000000	10.761099
2144.000000	10.741555
2145.000000	10.711620
2146.000000	10.708486
2147.000000	10.687472
2148.000000	10.668806
2149.000000	10.646744
2150.000000	10.628476
2151.000000	10.611965
2152.000000	10.600496
2153.000000	10.578993
2154.000000	10.563456
2155.000000	10.538576
2156.000000	10.521989
2157.000000	10.500923
2158.000000	10.496373
2159.000000	10.470628
2160.000000	10.448794
2161.000000	10.445496
2162.000000	10.448577
2163.000000	10.437764
2164.000000	10.435663
2165.000000	10.415383
2166.000000	10.406655
2167.000000	10.400631
2168.000000	10.402018
2169.000000	10.401931
2170.000000	10.401834
2171.000000	10.394355
2172.000000	10.402535
2173.000000	10.396535
2174.000000	10.408908
2175.000000	10.415182
2176.000000	10.419448
2177.000000	10.425438
2178.000000	10.432865
2179.000000	10.441245
2180.000000	10.454475
2181.000000	10.463067
2182.000000	10.481278
2183.000000	10.486152
2184.000000	10.495937
2185.000000	10.504307
2186.000000	10.510177
2187.000000	10.528933
2188.000000	10.539449
2189.000000	10.549740
2190.000000	10.565820
2191.000000	10.565271
2192.000000	10.572611
2193.000000	10.586346
2194.000000	10.589283
2195.000000	10.609542
2196.000000	10.602682
2197.000000	10.616038
2198.000000	10.621787
2199.000000	10.627903
2200.000000	10.635467
2201.000000	10.642375
2202.000000	10.654872
2203.000000	10.668754
2204.000000	10.676082
2205.000000	10.680001
2206.000000	10.697331
2207.000000	10.686460
2208.000000	10.707327
2209.000000	10.733117
2210.000000	10.727427
2211.000000	10.739672
2212.000000	10.765879
2213.000000	10.772649
2214.000000	10.788963
2215.000000	10.807256
2216.000000	10.815639
2217.000000	10.822537
2218.000000	10.831326
2219.000000	10.864523
2220.000000	10.858852
2221.000000	10.847563
2222.000000	10.865373
2223.000000	10.865517
2224.000000	10.852453
2225.000000	10.836640
2226.000000	10.827388
2227.000000	10.816134
2228.000000	10.786839
2229.000000	10.768965
2230.000000	10.736357
2231.000000	10.709937
2232.000000	10.662362
2233.000000	10.622375
2234.000000	10.576201
2235.000000	10.505083
2236.000000	10.469049
2237.000000	10.392637
2238.000000	10.320549
2239.000000	10.256996
2240.000000	10.186940
2241.000000	10.100945
2242.000000	10.016380
2243.000000	9.926351
2244.000000	9.836108
2245.000000	9.727976
2246.000000	9.619212
2247.000000	9.505657
2248.000000	9.377742
2249.000000	9.241834
2250.000000	9.112624
2251.000000	8.961348
2252.000000	8.810040
2253.000000	8.673045
2254.000000	8.533795
2255.000000	8.378220
2256.000000	8.231691
2257.000000	8.080970
2258.000000	7.948697
2259.000000	7.828180
2260.000000	7.706894
2261.000000	7.597101
2262.000000	7.499276
2263.000000	7.414445
2264.000000	7.330201
2265.000000	7.270771
2266.000000	7.216065
2267.000000	7.175733
2268.000000	7.157444
2269.000000	7.128024
2270.000000	7.126819
2271.000000	7.122072
2272.000000	7.127019
2273.000000	7.132582
2274.000000	7.152431
2275.000000	7.173935
2276.000000	7.192534
2277.000000	7.226354
2278.000000	7.258790
2279.000000	7.287403
2280.000000	7.309448
2281.000000	7.333323
2282.000000	7.356294
2283.000000	7.381151
2284.000000	7.397631
2285.000000	7.395002
2286.000000	7.410460
2287.000000	7.410636
2288.000000	7.409020
2289.000000	7.392397
2290.000000	7.367399
2291.000000	7.332371
2292.000000	7.308049
2293.000000	7.256741
2294.000000	7.206582
2295.000000	7.162238
2296.000000	7.119243
2297.000000	7.073956
2298.000000	7.018978
2299.000000	6.971400
2300.000000	6.935762
2301.000000	6.890433
2302.000000	6.860136
2303.000000	6.836768
2304.000000	6.821229
2305.000000	6.817492
2306.000000	6.814198
2307.000000	6.827696
2308.000000	6.853650
2309.000000	6.875487
2310.000000	6.906980
2311.000000	6.939274
2312.000000	6.990511
2313.000000	7.044959
2314.000000	7.090637
2315.000000	7.142642
2316.000000	7.192368
2317.000000	7.245734
2318.000000	7.305943
2319.000000	7.357846
2320.000000	7.404415
2321.000000	7.449853
2322.000000	7.503051
2323.000000	7.548959
2324.000000	7.586134
2325.000000	7.615431
2326.000000	7.649647
2327.000000	7.678439
2328.000000	7.712098
2329.000000	7.736078
2330.000000	7.747012
2331.000000	7.767050
2332.000000	7.786046
2333.000000	7.787274
2334.000000	7.792878
2335.000000	7.799518
2336.000000	7.783918
2337.000000	7.766983
2338.000000	7.755662
2339.000000	7.731666
2340.000000	7.707720
2341.000000	7.688990
2342.000000	7.664597
2343.000000	7.632109
2344.000000	7.602006
2345.000000	7.577359
2346.000000	7.553902
2347.000000	7.531417
2348.000000	7.503567
2349.000000	7.487169
2350.000000	7.477348
2351.000000	7.466990
2352.000000	7.466808
2353.000000	7.466707
2354.000000	7.472622
2355.000000	7.491741
2356.000000	7.501989
2357.000000	7.519716
2358.000000	7.550157
2359.000000	7.582423
2360.000000	7.605069
2361.000000	7.622066
2362.000000	7.647624
2363.000000	7.672635
2364.000000	7.696708
2365.000000	7.718922
2366.000000	7.744095
2367.000000	7.761160
2368.000000	7.771082
2369.000000	7.791721
2370.000000	7.802436
2371.000000	7.809807
2372.000000	7.819473
2373.000000	7.822691
2374.000000	7.815202
2375.000000	7.816567
2376.000000	7.828790
2377.000000	7.822290
2378.000000	7.826283
2379.000000	7.834348
2380.000000	7.820013
2381.000000	7.812998
2382.000000	7.814064
2383.000000	7.805635
2384.000000	7.802790
2385.000000	7.792005
2386.000000	7.776159
2387.000000	7.761024
2388.000000	7.757010
2389.000000	7.745558
2390.000000	7.723315
2391.000000	7.700829
2392.000000	7.679676
2393.000000	7.662926
2394.000000	7.657753
2395.000000	7.646561
2396.000000	7.627502
2397.000000	7.586773
2398.000000	7.550425
2399.000000	7.510717
2400.000000	7.482592
2401.000000	7.460987
2402.000000	7.444171
2403.000000	7.430774
2404.000000	7.419686
2405.000000	7.400509
2406.000000	7.389659
2407.000000	7.375891
2408.000000	7.354288
2409.000000	7.346207
2410.000000	7.331278
2411.000000	7.312149
2412.000000	7.300642
2413.000000	7.285096
2414.000000	7.271643
2415.000000	7.257082
2416.000000	7.249993
2417.000000	7.219283
2418.000000	7.209543
2419.000000	7.195580
2420.000000	7.181568
2421.000000	7.169139
2422.000000	7.146960
2423.000000	7.121663
2424.000000	7.096239
2425.000000	7.082447
2426.000000	7.069306
2427.000000	7.046806
2428.000000	7.017847
2429.000000	6.998280
2430.000000	6.973982
2431.000000	6.933997
2432.000000	6.929203
2433.000000	6.905361
2434.000000	6.872947
2435.000000	6.847457
2436.000000	6.810691
2437.000000	6.799708
2438.000000	6.763532
2439.000000	6.731401
2440.000000	6.709275
2441.000000	6.672060
2442.000000	6.626061
2443.000000	6.602457
2444.000000	6.568872
2445.000000	6.539025
2446.000000	6.516941
2447.000000	6.476043
2448.000000	6.454662
2449.000000	6.415543
2450.000000	6.392465
2451.000000	6.370136
2452.000000	6.324418
2453.000000	6.306359
2454.000000	6.273030
2455.000000	6.261922
2456.000000	6.223369
2457.000000	6.219847
2458.000000	6.181225
2459.000000	6.167755
2460.000000	6.153288
2461.000000	6.168753
2462.000000	6.148421
2463.000000	6.115730
2464.000000	6.135497
2465.000000	6.089542
2466.000000	6.074275
2467.000000	6.064822
2468.000000	6.061562
2469.000000	6.059974
2470.000000	6.069161
2471.000000	6.088927
2472.000000	6.092957
2473.000000	6.080130
2474.000000	6.064698
2475.000000	6.080847
2476.000000	6.072604
2477.000000	6.047739
2478.000000	6.085590
2479.000000	6.047428
2480.000000	6.051854
2481.000000	6.094756
2482.000000	6.060971
2483.000000	6.072329
2484.000000	6.139005
2485.000000	6.073609
2486.000000	6.131450
2487.000000	6.103952
2488.000000	6.124808
2489.000000	6.126271
2490.000000	6.136861
2491.000000	6.199823
2492.000000	6.196010
2493.000000	6.185415
2494.000000	6.183702
2495.000000	6.235079
2496.000000	6.200235
2497.000000	6.244931
2498.000000	6.261026
2499.000000	6.292695
2500.000000	6.230164
