PE UV       SUBTECH     SPECTRUM    ASCII       PEDS        4.00        
   -1
CICIMAUCR0013-1.Sample.ASC
24/04/11
15:20:09.00
24/04/11
15:20:09.00
Vinicio Soto Monge
C. resplendens
250,000000
1
Lambda 1050
1050L1511233
PerkinElmer UV WinLab 6.3.2.0749 / 2.02.05 Lambda 900 UV/VIS/NIR, Aug  7 2015 09:38:08

0
0
3350/2 860,8/2
0
0
UV/VIS
1
1
1
DoubleDePol,CommonBeamDepol,RBeamAtt,SBeamAtt,60mm sphere, WB InGaAs Detector
0
0
0
0
Program
Program
3350/2 860,8/2
3350/0,2 860,8/0,2
3350/0,2 860,8/0,2
0
15.00
 
 
 
0
 
860,8
319,2
860,8
Front
100
on
S:100 R:100
0
0
0
0
 
0
 
 
 
0
 
 
0
0
0
0
0
 
 
 
 
0
0


0
0
#HDR
-1
-1
#GR
nm
%R
1.0
0.0
2400,000000
-1,000000
2151
8
65,315600
4,166400
#DATA
2382.000000	11.018740
2381.000000	11.322487
2380.000000	11.092700
2379.000000	11.236116
2378.000000	10.164947
2377.000000	11.501332
2376.000000	10.887133
2375.000000	11.232413
2374.000000	11.615224
2373.000000	11.668767
2372.000000	10.585989
2371.000000	11.124426
2370.000000	10.587090
2369.000000	11.086095
2368.000000	10.780447
2367.000000	11.026647
2366.000000	11.179771
2365.000000	10.431864
2364.000000	10.206881
2363.000000	11.198786
2362.000000	10.101796
2361.000000	9.775331
2360.000000	10.512529
2359.000000	10.366011
2358.000000	10.381823
2357.000000	10.136124
2356.000000	10.142029
2355.000000	9.553351
2354.000000	9.772829
2353.000000	10.215889
2352.000000	9.953075
2351.000000	10.798662
2350.000000	10.250817
2349.000000	9.843487
2348.000000	9.767825
2347.000000	9.780736
2346.000000	10.492613
2345.000000	10.830187
2344.000000	10.716895
2343.000000	10.704885
2342.000000	10.510328
2341.000000	10.666554
2340.000000	10.236405
2339.000000	10.519935
2338.000000	9.897630
2337.000000	9.909540
2336.000000	10.082080
2335.000000	9.812962
2334.000000	9.667143
2333.000000	9.385415
2332.000000	9.701171
2331.000000	9.792946
2330.000000	9.492802
2329.000000	9.203267
2328.000000	9.774531
2327.000000	9.775932
2326.000000	9.403730
2325.000000	8.880705
2324.000000	9.317360
2323.000000	9.255209
2322.000000	8.926943
2321.000000	9.439959
2320.000000	9.746608
2319.000000	9.368801
2318.000000	8.727181
2317.000000	8.592371
2316.000000	8.810649
2315.000000	8.963473
2314.000000	8.738190
2313.000000	8.187043
2312.000000	8.231779
2311.000000	8.019507
2310.000000	7.604170
2309.000000	7.675127
2308.000000	7.892103
2307.000000	7.836858
2306.000000	7.843364
2305.000000	7.942744
2304.000000	8.037221
2303.000000	7.962460
2302.000000	8.438847
2301.000000	8.477778
2300.000000	8.085660
2299.000000	8.137502
2298.000000	8.430240
2297.000000	8.463467
2296.000000	8.523816
2295.000000	8.584965
2294.000000	8.702661
2293.000000	8.616091
2292.000000	8.568352
2291.000000	8.483483
2290.000000	8.670135
2289.000000	8.717773
2288.000000	8.422634
2287.000000	8.598276
2286.000000	8.933448
2285.000000	8.428338
2284.000000	8.195750
2283.000000	8.725880
2282.000000	8.443451
2281.000000	7.941243
2280.000000	7.860077
2279.000000	7.847267
2278.000000	7.858476
2277.000000	8.426637
2276.000000	8.500197
2275.000000	7.886399
2274.000000	8.029615
2273.000000	7.956856
2272.000000	7.832755
2271.000000	7.662517
2270.000000	7.649607
2269.000000	8.162523
2268.000000	7.989082
2267.000000	7.751089
2266.000000	7.746986
2265.000000	7.847167
2264.000000	8.036520
2263.000000	8.059939
2262.000000	8.198452
2261.000000	8.596074
2260.000000	8.876802
2259.000000	8.767814
2258.000000	9.125004
2257.000000	9.678653
2256.000000	9.542442
2255.000000	9.488198
2254.000000	9.709278
2253.000000	9.791444
2252.000000	10.107000
2251.000000	10.198975
2250.000000	10.143930
2249.000000	10.234204
2248.000000	10.378421
2247.000000	10.536849
2246.000000	10.697179
2245.000000	10.714493
2244.000000	10.697980
2243.000000	10.827985
2242.000000	10.848302
2241.000000	11.082892
2240.000000	11.362819
2239.000000	11.408656
2238.000000	11.261037
2237.000000	11.057371
2236.000000	11.112216
2235.000000	11.404853
2234.000000	11.572790
2233.000000	11.586301
2232.000000	11.639143
2231.000000	11.766947
2230.000000	12.031962
2229.000000	11.819790
2228.000000	11.658759
2227.000000	11.687483
2226.000000	11.747431
2225.000000	11.877837
2224.000000	11.949495
2223.000000	11.761543
2222.000000	11.554475
2221.000000	11.706098
2220.000000	11.624532
2219.000000	11.684780
2218.000000	11.542065
2217.000000	11.668267
2216.000000	11.950496
2215.000000	12.036666
2214.000000	12.009844
2213.000000	11.834402
2212.000000	12.089909
2211.000000	12.052979
2210.000000	11.823193
2209.000000	11.562081
2208.000000	11.809382
2207.000000	11.613423
2206.000000	11.946593
2205.000000	12.016049
2204.000000	12.270556
2203.000000	11.738524
2202.000000	11.373628
2201.000000	11.654056
2200.000000	11.753937
2199.000000	11.486119
2198.000000	11.848914
2197.000000	11.848213
2196.000000	11.947594
2195.000000	12.038768
2194.000000	12.088208
2193.000000	11.822993
2192.000000	11.487420
2191.000000	11.937586
2190.000000	11.826395
2189.000000	11.921773
2188.000000	11.655957
2187.000000	11.559779
2186.000000	11.644448
2185.000000	11.764946
2184.000000	11.761643
2183.000000	11.784862
2182.000000	11.639844
2181.000000	11.589503
2180.000000	11.593607
2179.000000	11.996033
2178.000000	11.733520
2177.000000	11.492625
2176.000000	11.512441
2175.000000	11.453193
2174.000000	11.475210
2173.000000	11.627534
2172.000000	11.378632
2171.000000	11.524851
2170.000000	11.988327
2169.000000	11.759041
2168.000000	11.988227
2167.000000	12.140150
2166.000000	12.041170
2165.000000	12.073996
2164.000000	11.716806
2163.000000	11.596209
2162.000000	11.967410
2161.000000	11.776955
2160.000000	11.715405
2159.000000	11.645749
2158.000000	11.530355
2157.000000	11.756839
2156.000000	12.077199
2155.000000	12.307486
2154.000000	11.801775
2153.000000	11.968511
2152.000000	11.713704
2151.000000	12.275059
2150.000000	12.091611
2149.000000	12.545979
2148.000000	11.783661
2147.000000	11.711102
2146.000000	12.108024
2145.000000	12.369436
2144.000000	11.934783
2143.000000	12.607929
2142.000000	12.295876
2141.000000	12.044372
2140.000000	11.884242
2139.000000	12.068892
2138.000000	12.158265
2137.000000	12.399560
2136.000000	11.970913
2135.000000	12.371237
2134.000000	12.223518
2133.000000	12.383948
2132.000000	12.126439
2131.000000	11.895451
2130.000000	12.167172
2129.000000	12.120734
2128.000000	12.529666
2127.000000	12.072895
2126.000000	12.006441
2125.000000	12.165971
2124.000000	11.924975
2123.000000	12.422179
2122.000000	12.303282
2121.000000	11.801675
2120.000000	11.773653
2119.000000	12.096214
2118.000000	11.985024
2117.000000	12.182885
2116.000000	12.101819
2115.000000	11.885543
2114.000000	11.847513
2113.000000	11.752435
2112.000000	11.919771
2111.000000	11.641245
2110.000000	11.814085
2109.000000	11.539363
2108.000000	11.547269
2107.000000	11.323187
2106.000000	11.185275
2105.000000	11.627234
2104.000000	11.577093
2103.000000	11.477212
2102.000000	11.357515
2101.000000	11.341602
2100.000000	11.770550
2099.000000	11.599511
2098.000000	11.483017
2097.000000	11.503934
2096.000000	11.136736
2095.000000	11.221705
2094.000000	11.136336
2093.000000	11.070982
2092.000000	11.192281
2091.000000	10.966998
2090.000000	11.409257
2089.000000	11.069882
2088.000000	11.117120
2087.000000	11.347807
2086.000000	11.446988
2085.000000	11.122024
2084.000000	11.129630
2083.000000	11.349508
2082.000000	11.319684
2081.000000	11.194182
2080.000000	11.368924
2079.000000	11.132432
2078.000000	11.109013
2077.000000	11.019741
2076.000000	10.925164
2075.000000	10.964496
2074.000000	10.964896
2073.000000	11.116019
2072.000000	11.152949
2071.000000	11.079489
2070.000000	10.875724
2069.000000	10.838694
2068.000000	10.958992
2067.000000	11.058973
2066.000000	10.931870
2065.000000	11.010133
2064.000000	11.121023
2063.000000	11.139538
2062.000000	11.148846
2061.000000	11.144842
2060.000000	11.224307
2059.000000	11.006530
2058.000000	11.152148
2057.000000	11.186276
2056.000000	10.981910
2055.000000	11.085694
2054.000000	11.158854
2053.000000	11.296165
2052.000000	11.337198
2051.000000	11.333596
2050.000000	11.450991
2049.000000	11.505435
2048.000000	11.552473
2047.000000	11.606317
2046.000000	11.581297
2045.000000	11.716406
2044.000000	11.907861
2043.000000	12.075197
2042.000000	12.300180
2041.000000	12.245235
2040.000000	12.281865
2039.000000	12.321197
2038.000000	12.285968
2037.000000	12.391954
2036.000000	12.575203
2035.000000	12.755049
2034.000000	12.886556
2033.000000	12.831711
2032.000000	12.907973
2031.000000	13.018963
2030.000000	13.085517
2029.000000	13.162780
2028.000000	13.219626
2027.000000	13.242244
2026.000000	13.269366
2025.000000	13.453215
2024.000000	13.463424
2023.000000	13.428896
2022.000000	13.538084
2021.000000	13.634362
2020.000000	13.682902
2019.000000	13.773575
2018.000000	13.786886
2017.000000	13.894373
2016.000000	13.928801
2015.000000	13.899177
2014.000000	13.951119
2013.000000	14.079423
2012.000000	14.134768
2011.000000	14.088130
2010.000000	14.099239
2009.000000	14.136570
2008.000000	14.089432
2007.000000	14.103843
2006.000000	14.180005
2005.000000	14.151282
2004.000000	14.221739
2003.000000	14.227243
2002.000000	14.130665
2001.000000	14.167395
2000.000000	14.125361
1999.000000	14.126862
1998.000000	14.117154
1997.000000	14.133167
1996.000000	14.082526
1995.000000	14.035488
1994.000000	14.073919
1993.000000	14.079724
1992.000000	14.022777
1991.000000	14.019175
1990.000000	14.048098
1989.000000	13.943813
1988.000000	13.894073
1987.000000	13.882664
1986.000000	13.809304
1985.000000	13.755160
1984.000000	13.727238
1983.000000	13.678999
1982.000000	13.635263
1981.000000	13.633261
1980.000000	13.577016
1979.000000	13.543188
1978.000000	13.500654
1977.000000	13.426894
1976.000000	13.374351
1975.000000	13.252152
1974.000000	13.246147
1973.000000	13.271168
1972.000000	13.245747
1971.000000	13.171687
1970.000000	13.137859
1969.000000	13.090121
1968.000000	13.073607
1967.000000	13.045985
1966.000000	13.023166
1965.000000	12.974227
1964.000000	12.939899
1963.000000	12.916280
1962.000000	12.821403
1961.000000	12.835914
1960.000000	12.782071
1959.000000	12.785874
1958.000000	12.718119
1957.000000	12.648763
1956.000000	12.587113
1955.000000	12.649163
1954.000000	12.692999
1953.000000	12.675484
1952.000000	12.548381
1951.000000	12.454205
1950.000000	12.391554
1949.000000	12.468216
1948.000000	12.405665
1947.000000	12.346918
1946.000000	12.329003
1945.000000	12.290972
1944.000000	12.332106
1943.000000	12.330404
1942.000000	12.308587
1941.000000	12.333507
1940.000000	12.375841
1939.000000	12.477524
1938.000000	12.479325
1937.000000	12.498841
1936.000000	12.462211
1935.000000	12.503945
1934.000000	12.575703
1933.000000	12.637053
1932.000000	12.704908
1931.000000	12.720721
1930.000000	12.817399
1929.000000	12.914578
1928.000000	12.920283
1927.000000	13.038279
1926.000000	13.169885
1925.000000	13.185999
1924.000000	13.387962
1923.000000	13.424692
1922.000000	13.428595
1921.000000	13.701517
1920.000000	14.044395
1919.000000	14.018274
1918.000000	14.049499
1917.000000	14.153784
1916.000000	14.329326
1915.000000	14.438214
1914.000000	14.581331
1913.000000	14.972848
1912.000000	15.109859
1911.000000	15.091645
1910.000000	15.343249
1909.000000	15.371272
1908.000000	15.449835
1907.000000	15.677020
1906.000000	16.103165
1905.000000	16.180328
1904.000000	16.308032
1903.000000	16.418421
1902.000000	16.641302
1901.000000	16.721467
1900.000000	17.032519
1899.000000	17.325857
1898.000000	17.460867
1897.000000	17.481784
1896.000000	17.609087
1895.000000	17.785130
1894.000000	17.998403
1893.000000	18.269123
1892.000000	18.519826
1891.000000	18.569667
1890.000000	18.702775
1889.000000	18.933562
1888.000000	19.052959
1887.000000	19.398039
1886.000000	19.497319
1885.000000	19.684571
1884.000000	20.021645
1883.000000	20.277752
1882.000000	20.495229
1881.000000	21.003341
1880.000000	21.251142
1879.000000	21.513355
1878.000000	21.737137
1877.000000	22.112341
1876.000000	22.432100
1875.000000	22.643672
1874.000000	22.682403
1873.000000	23.018576
1872.000000	23.331730
1871.000000	23.347443
1870.000000	23.524787
1869.000000	23.459234
1868.000000	23.591741
1867.000000	23.647086
1866.000000	23.558014
1865.000000	23.395882
1864.000000	23.609155
1863.000000	23.691122
1862.000000	23.528190
1861.000000	23.497265
1860.000000	23.613259
1859.000000	23.721547
1858.000000	23.474846
1857.000000	23.467040
1856.000000	23.585036
1855.000000	23.356951
1854.000000	23.285793
1853.000000	23.412696
1852.000000	23.235552
1851.000000	23.030986
1850.000000	23.008568
1849.000000	23.016274
1848.000000	23.111952
1847.000000	23.161392
1846.000000	22.937210
1845.000000	22.717832
1844.000000	22.561605
1843.000000	22.681603
1842.000000	22.710827
1841.000000	22.832525
1840.000000	22.622555
1839.000000	22.532982
1838.000000	22.537686
1837.000000	22.553499
1836.000000	22.482641
1835.000000	22.421592
1834.000000	22.284180
1833.000000	22.111340
1832.000000	22.048589
1831.000000	22.002852
1830.000000	21.915781
1829.000000	21.899268
1828.000000	21.875349
1827.000000	21.732833
1826.000000	21.685495
1825.000000	21.695603
1824.000000	21.515557
1823.000000	21.499344
1822.000000	21.512454
1821.000000	21.604929
1820.000000	21.596622
1819.000000	21.504648
1818.000000	21.412673
1817.000000	21.394559
1816.000000	21.387953
1815.000000	21.438694
1814.000000	21.461813
1813.000000	21.429987
1812.000000	21.447401
1811.000000	21.400864
1810.000000	21.344218
1809.000000	21.299381
1808.000000	21.282167
1807.000000	21.208408
1806.000000	21.229425
1805.000000	21.198099
1804.000000	21.167474
1803.000000	21.182687
1802.000000	21.076300
1801.000000	21.048278
1800.000000	20.994534
1799.000000	20.967012
1798.000000	20.915770
1797.000000	20.873536
1796.000000	20.839909
1795.000000	20.789968
1794.000000	20.763547
1793.000000	20.752337
1792.000000	20.712505
1791.000000	20.645151
1790.000000	20.585302
1789.000000	20.497130
1788.000000	20.467006
1787.000000	20.422370
1786.000000	20.332397
1785.000000	20.248228
1784.000000	20.204693
1783.000000	20.161858
1782.000000	20.081793
1781.000000	20.018242
1780.000000	19.949386
1779.000000	19.902548
1778.000000	19.848804
1777.000000	19.709491
1776.000000	19.618417
1775.000000	19.514934
1774.000000	19.406546
1773.000000	19.281244
1772.000000	19.153440
1771.000000	19.012126
1770.000000	18.870611
1769.000000	18.774633
1768.000000	18.677854
1767.000000	18.565463
1766.000000	18.475590
1765.000000	18.436859
1764.000000	18.373808
1763.000000	18.338379
1762.000000	18.351189
1761.000000	18.396526
1760.000000	18.445266
1759.000000	18.521327
1758.000000	18.571068
1757.000000	18.622409
1756.000000	18.688363
1755.000000	18.705677
1754.000000	18.689364
1753.000000	18.689864
1752.000000	18.683859
1751.000000	18.621809
1750.000000	18.597389
1749.000000	18.533237
1748.000000	18.442263
1747.000000	18.384717
1746.000000	18.300148
1745.000000	18.139818
1744.000000	17.981690
1743.000000	17.813553
1742.000000	17.634508
1741.000000	17.428741
1740.000000	17.178037
1739.000000	16.955957
1738.000000	16.778413
1737.000000	16.638900
1736.000000	16.517001
1735.000000	16.407412
1734.000000	16.350366
1733.000000	16.367580
1732.000000	16.416019
1731.000000	16.504891
1730.000000	16.599068
1729.000000	16.721167
1728.000000	16.837461
1727.000000	16.894407
1726.000000	16.996991
1725.000000	17.071251
1724.000000	17.106980
1723.000000	17.118789
1722.000000	17.107780
1721.000000	17.129298
1720.000000	17.149915
1719.000000	17.130899
1718.000000	17.132200
1717.000000	17.147313
1716.000000	17.163125
1715.000000	17.241489
1714.000000	17.304440
1713.000000	17.352979
1712.000000	17.367591
1711.000000	17.364188
1710.000000	17.396515
1709.000000	17.402319
1708.000000	17.381202
1707.000000	17.371995
1706.000000	17.329260
1705.000000	17.326458
1704.000000	17.308944
1703.000000	17.232882
1702.000000	17.163626
1701.000000	17.052536
1700.000000	16.909920
1699.000000	16.779614
1698.000000	16.659016
1697.000000	16.545524
1696.000000	16.464859
1695.000000	16.454450
1694.000000	16.519003
1693.000000	16.627291
1692.000000	16.763301
1691.000000	16.941646
1690.000000	17.083361
1689.000000	17.214167
1688.000000	17.286325
1687.000000	17.264007
1686.000000	17.243090
1685.000000	17.191248
1684.000000	17.240989
1683.000000	17.354481
1682.000000	17.646217
1681.000000	18.037435
1680.000000	18.526532
1679.000000	19.056061
1678.000000	19.582588
1677.000000	20.046064
1676.000000	20.458699
1675.000000	20.797474
1674.000000	21.100120
1673.000000	21.336011
1672.000000	21.609433
1671.000000	21.800388
1670.000000	21.968524
1669.000000	22.117745
1668.000000	22.227234
1667.000000	22.390767
1666.000000	22.496753
1665.000000	22.566710
1664.000000	22.640269
1663.000000	22.690210
1662.000000	22.772076
1661.000000	22.843234
1660.000000	22.863550
1659.000000	22.905284
1658.000000	22.956126
1657.000000	22.958227
1656.000000	22.978143
1655.000000	22.946818
1654.000000	22.960429
1653.000000	22.963532
1652.000000	22.972239
1651.000000	22.988252
1650.000000	22.956726
1649.000000	22.928503
1648.000000	22.888170
1647.000000	22.834527
1646.000000	22.810107
1645.000000	22.808606
1644.000000	22.752660
1643.000000	22.708625
1642.000000	22.665590
1641.000000	22.591430
1640.000000	22.562106
1639.000000	22.495452
1638.000000	22.466428
1637.000000	22.389766
1636.000000	22.370550
1635.000000	22.250453
1634.000000	22.205216
1633.000000	22.159379
1632.000000	22.108238
1631.000000	22.027172
1630.000000	21.960017
1629.000000	21.925790
1628.000000	21.810796
1627.000000	21.810996
1626.000000	21.716620
1625.000000	21.621242
1624.000000	21.523363
1623.000000	21.503347
1622.000000	21.408270
1621.000000	21.360131
1620.000000	21.297580
1619.000000	21.209608
1618.000000	21.156766
1617.000000	21.086308
1616.000000	21.031164
1615.000000	20.970815
1614.000000	20.926979
1613.000000	20.798575
1612.000000	20.777358
1611.000000	20.758342
1610.000000	20.660863
1609.000000	20.588705
1608.000000	20.544769
1607.000000	20.511942
1606.000000	20.474212
1605.000000	20.380736
1604.000000	20.311480
1603.000000	20.276451
1602.000000	20.221607
1601.000000	20.164360
1600.000000	20.106513
1599.000000	20.065480
1598.000000	20.010235
1597.000000	19.988017
1596.000000	19.890438
1595.000000	19.883032
1594.000000	19.849705
1593.000000	19.811374
1592.000000	19.800065
1591.000000	19.745220
1590.000000	19.725604
1589.000000	19.707690
1588.000000	19.688775
1587.000000	19.663054
1586.000000	19.600403
1585.000000	19.631728
1584.000000	19.633330
1583.000000	19.602505
1582.000000	19.553265
1581.000000	19.550863
1580.000000	19.576383
1579.000000	19.587192
1578.000000	19.601904
1577.000000	19.582188
1576.000000	19.535550
1575.000000	19.599302
1574.000000	19.617417
1573.000000	19.648042
1572.000000	19.648142
1571.000000	19.679067
1570.000000	19.677365
1569.000000	19.745320
1568.000000	19.748723
1567.000000	19.801666
1566.000000	19.831891
1565.000000	19.916459
1564.000000	19.920563
1563.000000	19.954390
1562.000000	19.965199
1561.000000	20.029951
1560.000000	20.050568
1559.000000	20.074788
1558.000000	20.084496
1557.000000	20.138840
1556.000000	20.120125
1555.000000	20.127831
1554.000000	20.126830
1553.000000	20.165061
1552.000000	20.204293
1551.000000	20.215902
1550.000000	20.192683
1549.000000	20.199589
1548.000000	20.224609
1547.000000	20.239421
1546.000000	20.246727
1545.000000	20.250130
1544.000000	20.263241
1543.000000	20.261339
1542.000000	20.294166
1541.000000	20.314382
1540.000000	20.318586
1539.000000	20.347909
1538.000000	20.355015
1537.000000	20.359319
1536.000000	20.345908
1535.000000	20.356817
1534.000000	20.394347
1533.000000	20.402754
1532.000000	20.390144
1531.000000	20.373130
1530.000000	20.398851
1529.000000	20.404455
1528.000000	20.418467
1527.000000	20.413162
1526.000000	20.402053
1525.000000	20.350411
1524.000000	20.366324
1523.000000	20.391845
1522.000000	20.384139
1521.000000	20.376032
1520.000000	20.377633
1519.000000	20.382037
1518.000000	20.377734
1517.000000	20.349310
1516.000000	20.323890
1515.000000	20.314582
1514.000000	20.342805
1513.000000	20.334899
1512.000000	20.301572
1511.000000	20.267944
1510.000000	20.253433
1509.000000	20.275350
1508.000000	20.271347
1507.000000	20.255935
1506.000000	20.259938
1505.000000	20.263141
1504.000000	20.269646
1503.000000	20.241623
1502.000000	20.237820
1501.000000	20.251431
1500.000000	20.241123
1499.000000	20.233717
1498.000000	20.241223
1497.000000	20.245026
1496.000000	20.273549
1495.000000	20.309678
1494.000000	20.306376
1493.000000	20.309478
1492.000000	20.340103
1491.000000	20.385340
1490.000000	20.414664
1489.000000	20.442786
1488.000000	20.455897
1487.000000	20.466906
1486.000000	20.482318
1485.000000	20.524252
1484.000000	20.559781
1483.000000	20.594209
1482.000000	20.642348
1481.000000	20.688586
1480.000000	20.723514
1479.000000	20.745132
1478.000000	20.774856
1477.000000	20.843612
1476.000000	20.885946
1475.000000	20.926179
1474.000000	20.977921
1473.000000	21.017953
1472.000000	21.065792
1471.000000	21.108426
1470.000000	21.164472
1469.000000	21.211410
1468.000000	21.230726
1467.000000	21.276863
1466.000000	21.331708
1465.000000	21.364034
1464.000000	21.413974
1463.000000	21.486833
1462.000000	21.565697
1461.000000	21.639057
1460.000000	21.716720
1459.000000	21.784575
1458.000000	21.852030
1457.000000	21.936698
1456.000000	22.037380
1455.000000	22.130155
1454.000000	22.209420
1453.000000	22.296991
1452.000000	22.410183
1451.000000	22.532782
1450.000000	22.653780
1449.000000	22.734346
1448.000000	22.840932
1447.000000	22.954624
1446.000000	23.076123
1445.000000	23.213434
1444.000000	23.320321
1443.000000	23.455431
1442.000000	23.568422
1441.000000	23.693924
1440.000000	23.825231
1439.000000	23.932418
1438.000000	24.055718
1437.000000	24.179618
1436.000000	24.268290
1435.000000	24.373375
1434.000000	24.500378
1433.000000	24.625580
1432.000000	24.739072
1431.000000	24.866476
1430.000000	24.985772
1429.000000	25.123984
1428.000000	25.282413
1427.000000	25.432635
1426.000000	25.607777
1425.000000	25.771510
1424.000000	25.971872
1423.000000	26.195053
1422.000000	26.358386
1421.000000	26.503203
1420.000000	26.702865
1419.000000	26.924645
1418.000000	27.131413
1417.000000	27.255214
1416.000000	27.372108
1415.000000	27.533239
1414.000000	27.761424
1413.000000	27.893832
1412.000000	28.015330
1411.000000	28.169555
1410.000000	28.342696
1409.000000	28.630429
1408.000000	28.854411
1407.000000	29.150752
1406.000000	29.443089
1405.000000	29.731423
1404.000000	30.075001
1403.000000	30.285772
1402.000000	30.508853
1401.000000	30.844426
1400.000000	31.235043
1399.000000	31.413187
1398.000000	31.500058
1397.000000	31.642073
1396.000000	31.862352
1395.000000	32.049003
1394.000000	32.055909
1393.000000	32.024884
1392.000000	32.222144
1391.000000	32.306712
1390.000000	32.335335
1389.000000	32.462839
1388.000000	32.719947
1387.000000	32.939325
1386.000000	33.074135
1385.000000	33.386188
1384.000000	33.647800
1383.000000	33.921622
1382.000000	34.256594
1381.000000	34.400811
1380.000000	34.472169
1379.000000	34.407417
1378.000000	34.404514
1377.000000	34.466164
1376.000000	34.538323
1375.000000	34.637403
1374.000000	34.842269
1373.000000	35.101280
1372.000000	35.464674
1371.000000	35.821564
1370.000000	36.127412
1369.000000	36.324072
1368.000000	36.658143
1367.000000	36.982005
1366.000000	37.053263
1365.000000	37.269038
1364.000000	37.503328
1363.000000	37.504930
1362.000000	37.726009
1361.000000	37.963302
1360.000000	37.881135
1359.000000	37.873629
1358.000000	37.936380
1357.000000	38.069188
1356.000000	38.277056
1355.000000	38.660968
1354.000000	39.214517
1353.000000	39.694106
1352.000000	40.185805
1351.000000	40.752365
1350.000000	41.233355
1349.000000	41.606658
1348.000000	42.013288
1347.000000	42.383288
1346.000000	42.715658
1345.000000	43.007594
1344.000000	43.333659
1343.000000	43.588165
1342.000000	43.836467
1341.000000	44.115393
1340.000000	44.343178
1339.000000	44.579970
1338.000000	44.830373
1337.000000	45.013222
1336.000000	45.253617
1335.000000	45.425156
1334.000000	45.611207
1333.000000	45.774239
1332.000000	45.891734
1331.000000	46.063874
1330.000000	46.207391
1329.000000	46.331091
1328.000000	46.433874
1327.000000	46.592903
1326.000000	46.688681
1325.000000	46.827794
1324.000000	46.900053
1323.000000	46.998132
1322.000000	47.087204
1321.000000	47.164867
1320.000000	47.265849
1319.000000	47.340210
1318.000000	47.433986
1317.000000	47.470115
1316.000000	47.531265
1315.000000	47.602322
1314.000000	47.669277
1313.000000	47.700402
1312.000000	47.767356
1311.000000	47.817297
1310.000000	47.843218
1309.000000	47.840816
1308.000000	47.867638
1307.000000	47.902666
1306.000000	47.940297
1305.000000	47.954708
1304.000000	47.959712
1303.000000	47.939996
1302.000000	47.888154
1301.000000	47.880848
1300.000000	47.889956
1299.000000	47.863034
1298.000000	47.858530
1297.000000	47.837913
1296.000000	47.842417
1295.000000	47.827105
1294.000000	47.827005
1293.000000	47.812593
1292.000000	47.806188
1291.000000	47.787172
1290.000000	47.750042
1289.000000	47.682087
1288.000000	47.647259
1287.000000	47.600621
1286.000000	47.552482
1285.000000	47.517754
1284.000000	47.466612
1283.000000	47.412969
1282.000000	47.361327
1281.000000	47.293572
1280.000000	47.199596
1279.000000	47.135343
1278.000000	47.070791
1277.000000	47.018248
1276.000000	46.981218
1275.000000	46.945990
1274.000000	46.913263
1273.000000	46.863923
1272.000000	46.808979
1271.000000	46.770047
1270.000000	46.704894
1269.000000	46.664361
1268.000000	46.593504
1267.000000	46.556174
1266.000000	46.503431
1265.000000	46.468202
1264.000000	46.414759
1263.000000	46.387036
1262.000000	46.347604
1261.000000	46.283953
1260.000000	46.249425
1259.000000	46.208792
1258.000000	46.166357
1257.000000	46.100804
1256.000000	46.050763
1255.000000	46.014534
1254.000000	45.966295
1253.000000	45.906847
1252.000000	45.848599
1251.000000	45.784848
1250.000000	45.690972
1249.000000	45.603200
1248.000000	45.531142
1247.000000	45.441970
1246.000000	45.356600
1245.000000	45.269229
1244.000000	45.187663
1243.000000	45.088983
1242.000000	44.967284
1241.000000	44.841482
1240.000000	44.698867
1239.000000	44.558653
1238.000000	44.431950
1237.000000	44.283830
1236.000000	44.109989
1235.000000	43.962669
1234.000000	43.811547
1233.000000	43.656421
1232.000000	43.488785
1231.000000	43.325753
1230.000000	43.179834
1229.000000	43.014900
1228.000000	42.838257
1227.000000	42.690637
1226.000000	42.534010
1225.000000	42.361870
1224.000000	42.201640
1223.000000	42.009685
1222.000000	41.861264
1221.000000	41.747872
1220.000000	41.582638
1219.000000	41.419706
1218.000000	41.284096
1217.000000	41.164499
1216.000000	41.045703
1215.000000	40.925805
1214.000000	40.816216
1213.000000	40.707528
1212.000000	40.620257
1211.000000	40.543095
1210.000000	40.454423
1209.000000	40.393573
1208.000000	40.333425
1207.000000	40.281382
1206.000000	40.244953
1205.000000	40.229340
1204.000000	40.220633
1203.000000	40.205821
1202.000000	40.193611
1201.000000	40.185705
1200.000000	40.171293
1199.000000	40.132161
1198.000000	40.051896
1197.000000	39.927695
1196.000000	39.766365
1195.000000	39.543284
1194.000000	39.243741
1193.000000	38.880346
1192.000000	38.459304
1191.000000	38.017346
1190.000000	37.585895
1189.000000	37.204086
1188.000000	36.908045
1187.000000	36.739809
1186.000000	36.703780
1185.000000	36.776138
1184.000000	36.955484
1183.000000	37.267337
1182.000000	37.709696
1181.000000	38.191987
1180.000000	38.668974
1179.000000	39.114936
1178.000000	39.510057
1177.000000	39.835220
1176.000000	40.119651
1175.000000	40.412789
1174.000000	40.679606
1173.000000	40.974945
1172.000000	41.291002
1171.000000	41.609860
1170.000000	41.929219
1169.000000	42.261389
1168.000000	42.588354
1167.000000	42.913518
1166.000000	43.242885
1165.000000	43.603978
1164.000000	43.943153
1163.000000	44.250203
1162.000000	44.594882
1161.000000	44.920647
1160.000000	45.227395
1159.000000	45.534845
1158.000000	45.823979
1157.000000	46.086593
1156.000000	46.316579
1155.000000	46.466801
1154.000000	46.587099
1153.000000	46.662260
1152.000000	46.640542
1151.000000	46.596706
1150.000000	46.589501
1149.000000	46.567683
1148.000000	46.520445
1147.000000	46.533855
1146.000000	46.619025
1145.000000	46.772049
1144.000000	47.001635
1143.000000	47.255541
1142.000000	47.505043
1141.000000	47.796580
1140.000000	48.106732
1139.000000	48.346926
1138.000000	48.633259
1137.000000	48.954119
1136.000000	49.254363
1135.000000	49.615856
1134.000000	49.871363
1133.000000	50.083235
1132.000000	50.302613
1131.000000	50.516287
1130.000000	50.692229
1129.000000	50.855061
1128.000000	50.983065
1127.000000	51.087150
1126.000000	51.145297
1125.000000	51.211751
1124.000000	51.259089
1123.000000	51.312733
1122.000000	51.326244
1121.000000	51.362974
1120.000000	51.404507
1119.000000	51.435532
1118.000000	51.404807
1117.000000	51.403907
1116.000000	51.399803
1115.000000	51.380588
1114.000000	51.371681
1113.000000	51.321840
1112.000000	51.325643
1111.000000	51.314434
1110.000000	51.287312
1109.000000	51.291015
1108.000000	51.273301
1107.000000	51.247180
1106.000000	51.224761
1105.000000	51.208949
1104.000000	51.145197
1103.000000	51.163111
1102.000000	51.183328
1101.000000	51.122178
1100.000000	51.106065
1099.000000	51.042313
1098.000000	51.011288
1097.000000	50.959746
1096.000000	50.939430
1095.000000	50.910807
1094.000000	50.861066
1093.000000	50.826839
1092.000000	50.769092
1091.000000	50.747174
1090.000000	50.706741
1089.000000	50.689827
1088.000000	50.588545
1087.000000	50.527095
1086.000000	50.511383
1085.000000	50.461742
1084.000000	50.397090
1083.000000	50.319627
1082.000000	50.235359
1081.000000	50.204033
1080.000000	50.147688
1079.000000	50.117863
1078.000000	50.086838
1077.000000	50.041501
1076.000000	50.002470
1075.000000	49.970944
1074.000000	49.888477
1073.000000	49.873765
1072.000000	49.803608
1071.000000	49.753267
1070.000000	49.719340
1069.000000	49.686313
1068.000000	49.642277
1067.000000	49.560711
1066.000000	49.522881
1065.000000	49.463432
1064.000000	49.419096
1063.000000	49.353643
1062.000000	49.341834
1061.000000	49.246556
1060.000000	49.204923
1059.000000	49.136967
1058.000000	49.103941
1057.000000	49.003259
1056.000000	48.972334
1055.000000	48.876756
1054.000000	48.883462
1053.000000	48.782880
1052.000000	48.747451
1051.000000	48.716026
1050.000000	48.645068
1049.000000	48.580716
1048.000000	48.559899
1047.000000	48.503754
1046.000000	48.475130
1045.000000	48.473729
1044.000000	48.430594
1043.000000	48.348328
1042.000000	48.318003
1041.000000	48.288179
1040.000000	48.234435
1039.000000	48.198206
1038.000000	48.133353
1037.000000	48.138858
1036.000000	48.086615
1035.000000	48.030670
1034.000000	47.954108
1033.000000	47.867137
1032.000000	47.826804
1031.000000	47.810591
1030.000000	47.802084
1029.000000	47.707107
1028.000000	47.683388
1027.000000	47.587410
1026.000000	47.572098
1025.000000	47.497938
1024.000000	47.376539
1023.000000	47.319793
1022.000000	47.259744
1021.000000	47.196393
1020.000000	47.109623
1019.000000	47.069790
1018.000000	47.045270
1017.000000	46.993028
1016.000000	46.929076
1015.000000	46.950393
1014.000000	46.911462
1013.000000	46.843507
1012.000000	46.856217
1011.000000	46.794167
1010.000000	46.793966
1009.000000	46.811381
1008.000000	46.753934
1007.000000	46.779655
1006.000000	46.795768
1005.000000	46.818486
1004.000000	46.748430
1003.000000	46.773250
1002.000000	46.706495
1001.000000	46.698689
1000.000000	46.744927
999.000000	46.752233
998.000000	46.731716
997.000000	46.700391
996.000000	46.730115
995.000000	46.786961
994.000000	46.758938
993.000000	46.724210
992.000000	46.740623
991.000000	46.743926
990.000000	46.688681
989.000000	46.716704
988.000000	46.795067
987.000000	46.806977
986.000000	46.785860
985.000000	46.710899
984.000000	46.780556
983.000000	46.915065
982.000000	46.905957
981.000000	46.832298
980.000000	46.829595
979.000000	46.839103
978.000000	46.843707
977.000000	46.877334
976.000000	46.905557
975.000000	46.925073
974.000000	46.911762
973.000000	46.953396
972.000000	46.926274
971.000000	46.933780
970.000000	46.978016
969.000000	46.938784
968.000000	46.881437
967.000000	46.852614
966.000000	46.930777
965.000000	46.981018
964.000000	47.012544
963.000000	46.969209
962.000000	46.890044
961.000000	46.971010
960.000000	46.896850
959.000000	46.915465
958.000000	47.062384
957.000000	47.153558
956.000000	47.116028
955.000000	47.043569
954.000000	47.018248
953.000000	47.031559
952.000000	47.055579
951.000000	47.109022
950.000000	47.151957
949.000000	47.178579
948.000000	47.110623
947.000000	47.114126
946.000000	47.249636
945.000000	47.181181
944.000000	47.120131
943.000000	47.168070
942.000000	47.166969
941.000000	47.192290
940.000000	47.217010
939.000000	47.297475
938.000000	47.367932
937.000000	47.387048
936.000000	47.474619
935.000000	47.432384
934.000000	47.449498
933.000000	47.508146
932.000000	47.517854
931.000000	47.570496
930.000000	47.601021
929.000000	47.648760
928.000000	47.714513
927.000000	47.682487
926.000000	47.665474
925.000000	47.759450
924.000000	47.878747
923.000000	47.985133
922.000000	47.947002
921.000000	47.992139
920.000000	47.962815
919.000000	48.140559
918.000000	48.455815
917.000000	48.420586
916.000000	48.251149
915.000000	48.243442
914.000000	48.217121
913.000000	48.314100
912.000000	48.578514
911.000000	48.616845
910.000000	48.634760
909.000000	48.690705
908.000000	48.646770
907.000000	48.659680
906.000000	48.865147
905.000000	49.038988
904.000000	49.381066
903.000000	49.504966
902.000000	49.530787
901.000000	49.665797
900.000000	49.928910
899.000000	50.136078
898.000000	50.251672
897.000000	50.242164
896.000000	50.344147
895.000000	50.664207
894.000000	50.918713
893.000000	50.987069
892.000000	51.051121
891.000000	51.278505
890.000000	51.204445
889.000000	51.397602
888.000000	51.732273
887.000000	50.968253
886.000000	51.354667
885.000000	51.903912
884.000000	52.208860
883.000000	51.922528
882.000000	51.879993
881.000000	52.338065
880.000000	52.960570
879.000000	52.979385
878.000000	53.224884
877.000000	53.033729
876.000000	52.858087
875.000000	53.430351
874.000000	53.821869
873.000000	53.981598
872.000000	54.030138
871.000000	53.825872
870.000000	53.917446
869.000000	54.434466
868.000000	54.699581
867.000000	54.897141
866.000000	54.247114
865.000000	54.286245
864.000000	54.554763
863.000000	54.960693
862.000000	56.006841
861.000000	55.934383
860.000000	56.471518
859.000000	56.301480
858.000000	52.956767
857.000000	52.897000
856.000000	52.931500
855.000000	53.041800
854.000000	53.092000
853.000000	53.180300
852.000000	53.284600
851.000000	53.616100
850.000000	53.795700
849.000000	54.002900
848.000000	54.271000
847.000000	54.529600
846.000000	54.808200
845.000000	54.942500
844.000000	55.266100
843.000000	55.340500
842.000000	55.527900
841.000000	55.857100
840.000000	55.792200
839.000000	56.113200
838.000000	56.513500
837.000000	56.889600
836.000000	57.050800
835.000000	56.931100
834.000000	57.266300
833.000000	57.483100
832.000000	57.599200
831.000000	57.730600
830.000000	58.060400
829.000000	58.048800
828.000000	58.394800
827.000000	58.678300
826.000000	58.814900
825.000000	59.017000
824.000000	59.216700
823.000000	59.391900
822.000000	59.563000
821.000000	59.746500
820.000000	59.949800
819.000000	60.010000
818.000000	60.453800
817.000000	60.467200
816.000000	60.650400
815.000000	60.901500
814.000000	61.054500
813.000000	61.346500
812.000000	61.444700
811.000000	61.604600
810.000000	61.740500
809.000000	61.793400
808.000000	62.014300
807.000000	62.019500
806.000000	62.222700
805.000000	62.356700
804.000000	62.404800
803.000000	62.693600
802.000000	62.794000
801.000000	62.864800
800.000000	62.960100
799.000000	63.039300
798.000000	63.236100
797.000000	63.088000
796.000000	63.355700
795.000000	63.409600
794.000000	63.721500
793.000000	63.763400
792.000000	63.724700
791.000000	64.040500
790.000000	64.238800
789.000000	64.071800
788.000000	64.107000
787.000000	64.273300
786.000000	64.373700
785.000000	64.610500
784.000000	64.533100
783.000000	64.592300
782.000000	64.768900
781.000000	64.688700
780.000000	64.843600
779.000000	64.982600
778.000000	64.909300
777.000000	65.026800
776.000000	65.122200
775.000000	65.167900
774.000000	65.109200
773.000000	65.275600
772.000000	65.231300
771.000000	65.232300
770.000000	65.315000
769.000000	65.244900
768.000000	65.228400
767.000000	65.299700
766.000000	65.231900
765.000000	65.233400
764.000000	65.315600
763.000000	65.222600
762.000000	65.231800
761.000000	65.134400
760.000000	65.240700
759.000000	65.118700
758.000000	65.108900
757.000000	65.060500
756.000000	64.982800
755.000000	64.940000
754.000000	64.959500
753.000000	64.947200
752.000000	64.805200
751.000000	64.734000
750.000000	64.630700
749.000000	64.572700
748.000000	64.424600
747.000000	64.334500
746.000000	64.162700
745.000000	64.003100
744.000000	63.858000
743.000000	63.717900
742.000000	63.491500
741.000000	63.281300
740.000000	63.061200
739.000000	62.921100
738.000000	62.727200
737.000000	62.452600
736.000000	62.306900
735.000000	62.042600
734.000000	61.817600
733.000000	61.622700
732.000000	61.395900
731.000000	61.087200
730.000000	60.802600
729.000000	60.584600
728.000000	60.329800
727.000000	60.039200
726.000000	59.818300
725.000000	59.497900
724.000000	59.221000
723.000000	58.958000
722.000000	58.645900
721.000000	58.312600
720.000000	58.072400
719.000000	57.822600
718.000000	57.600400
717.000000	57.406500
716.000000	57.148700
715.000000	56.897100
714.000000	56.648600
713.000000	56.486800
712.000000	56.251700
711.000000	56.080400
710.000000	55.897700
709.000000	55.732000
708.000000	55.541100
707.000000	55.401900
706.000000	55.269700
705.000000	55.148300
704.000000	54.986800
703.000000	54.944000
702.000000	54.849800
701.000000	54.794900
700.000000	54.712200
699.000000	54.652300
698.000000	54.624600
697.000000	54.565100
696.000000	54.571200
695.000000	54.519800
694.000000	54.457500
693.000000	54.403500
692.000000	54.361600
691.000000	54.310200
690.000000	54.348600
689.000000	54.346800
688.000000	54.326400
687.000000	54.354700
686.000000	54.347300
685.000000	54.318100
684.000000	54.316400
683.000000	54.264200
682.000000	54.247900
681.000000	54.191600
680.000000	54.185500
679.000000	54.167000
678.000000	54.116500
677.000000	54.046900
676.000000	53.941100
675.000000	53.820600
674.000000	53.743800
673.000000	53.649700
672.000000	53.500900
671.000000	53.411400
670.000000	53.298100
669.000000	53.135600
668.000000	53.013300
667.000000	52.876100
666.000000	52.737000
665.000000	52.606100
664.000000	52.421000
663.000000	52.224800
662.000000	52.041800
661.000000	51.849700
660.000000	51.620400
659.000000	51.370200
658.000000	51.149400
657.000000	50.934100
656.000000	50.686000
655.000000	50.461300
654.000000	50.189000
653.000000	49.887700
652.000000	49.615800
651.000000	49.286700
650.000000	48.959000
649.000000	48.627100
648.000000	48.286500
647.000000	47.967800
646.000000	47.670200
645.000000	47.346000
644.000000	47.004200
643.000000	46.674900
642.000000	46.369900
641.000000	46.091800
640.000000	45.811700
639.000000	45.548900
638.000000	45.315800
637.000000	45.114300
636.000000	44.933800
635.000000	44.758200
634.000000	44.625800
633.000000	44.546700
632.000000	44.466600
631.000000	44.403200
630.000000	44.360700
629.000000	44.320000
628.000000	44.333700
627.000000	44.374600
626.000000	44.450200
625.000000	44.564400
624.000000	44.675000
623.000000	44.815800
622.000000	44.988500
621.000000	45.170300
620.000000	45.422500
619.000000	45.677500
618.000000	45.905700
617.000000	46.185000
616.000000	46.479100
615.000000	46.810900
614.000000	47.160200
613.000000	47.475000
612.000000	47.775900
611.000000	48.079900
610.000000	48.416500
609.000000	48.724500
608.000000	49.033500
607.000000	49.342400
606.000000	49.651500
605.000000	49.966100
604.000000	50.261600
603.000000	50.558800
602.000000	50.879800
601.000000	51.190900
600.000000	51.488700
599.000000	51.796900
598.000000	52.132200
597.000000	52.482900
596.000000	52.774200
595.000000	53.053200
594.000000	53.401100
593.000000	53.725300
592.000000	53.988900
591.000000	54.259300
590.000000	54.556600
589.000000	54.847700
588.000000	55.112500
587.000000	55.363400
586.000000	55.607300
585.000000	55.850800
584.000000	56.077400
583.000000	56.313400
582.000000	56.538600
581.000000	56.731200
580.000000	56.932500
579.000000	57.146500
578.000000	57.353700
577.000000	57.549300
576.000000	57.747100
575.000000	57.947600
574.000000	58.166400
573.000000	58.364700
572.000000	58.515600
571.000000	58.685000
570.000000	58.837000
569.000000	58.973300
568.000000	59.096700
567.000000	59.214500
566.000000	59.330200
565.000000	59.400600
564.000000	59.486700
563.000000	59.531500
562.000000	59.586400
561.000000	59.641000
560.000000	59.661700
559.000000	60.137500
558.000000	60.326200
557.000000	60.390200
556.000000	60.392000
555.000000	60.371900
554.000000	60.345800
553.000000	60.366400
552.000000	60.377100
551.000000	60.295100
550.000000	60.232800
549.000000	60.160700
548.000000	60.056100
547.000000	59.947900
546.000000	59.874500
545.000000	59.759300
544.000000	59.602900
543.000000	59.441000
542.000000	59.230800
541.000000	59.007700
540.000000	58.790100
539.000000	58.545000
538.000000	58.303700
537.000000	58.078300
536.000000	57.774200
535.000000	57.443400
534.000000	57.107600
533.000000	56.790900
532.000000	56.401000
531.000000	56.017300
530.000000	55.581700
529.000000	55.129400
528.000000	54.689200
527.000000	54.237000
526.000000	53.742000
525.000000	53.252900
524.000000	52.726200
523.000000	52.216000
522.000000	51.641600
521.000000	51.059400
520.000000	50.494700
519.000000	49.891000
518.000000	49.272700
517.000000	48.644500
516.000000	48.048900
515.000000	47.413800
514.000000	46.753800
513.000000	46.140700
512.000000	45.489500
511.000000	44.871400
510.000000	44.188700
509.000000	43.539500
508.000000	42.890700
507.000000	42.235800
506.000000	41.592100
505.000000	40.906000
504.000000	40.244300
503.000000	39.552100
502.000000	38.909100
501.000000	38.238400
500.000000	37.560100
499.000000	36.908400
498.000000	36.291500
497.000000	35.660900
496.000000	35.015200
495.000000	34.372100
494.000000	33.730200
493.000000	33.136100
492.000000	32.574800
491.000000	31.947600
490.000000	31.406200
489.000000	30.903300
488.000000	30.363700
487.000000	29.870700
486.000000	29.397400
485.000000	28.957200
484.000000	28.543100
483.000000	28.139200
482.000000	27.727400
481.000000	27.365200
480.000000	26.994600
479.000000	26.662900
478.000000	26.365900
477.000000	26.138000
476.000000	25.871100
475.000000	25.625000
474.000000	25.406800
473.000000	25.184200
472.000000	24.932500
471.000000	24.721900
470.000000	24.511000
469.000000	24.287600
468.000000	24.071700
467.000000	23.817000
466.000000	23.617900
465.000000	23.364700
464.000000	23.116200
463.000000	22.853200
462.000000	22.573600
461.000000	22.306600
460.000000	22.034300
459.000000	21.741600
458.000000	21.421700
457.000000	21.109200
456.000000	20.805000
455.000000	20.502400
454.000000	20.189700
453.000000	19.896700
452.000000	19.556100
451.000000	19.259600
450.000000	18.938300
449.000000	18.631700
448.000000	18.350600
447.000000	18.090300
446.000000	17.837400
445.000000	17.578700
444.000000	17.376800
443.000000	17.151500
442.000000	16.931500
441.000000	16.763800
440.000000	16.609000
439.000000	16.500200
438.000000	16.368800
437.000000	16.235400
436.000000	16.150800
435.000000	16.066400
434.000000	15.987500
433.000000	15.947500
432.000000	15.901700
431.000000	15.873200
430.000000	15.823800
429.000000	15.799800
428.000000	15.796000
427.000000	15.770700
426.000000	15.768400
425.000000	15.765100
424.000000	15.770300
423.000000	15.743800
422.000000	15.744000
421.000000	15.732800
420.000000	15.700000
419.000000	15.668500
418.000000	15.646200
417.000000	15.620800
416.000000	15.580900
415.000000	15.544600
414.000000	15.486600
413.000000	15.433500
412.000000	15.361000
411.000000	15.291100
410.000000	15.193200
409.000000	15.112500
408.000000	15.016300
407.000000	14.909200
406.000000	14.772000
405.000000	14.634200
404.000000	14.506900
403.000000	14.337000
402.000000	14.164500
401.000000	13.963900
400.000000	13.800200
399.000000	13.579800
398.000000	13.371900
397.000000	13.176900
396.000000	12.938800
395.000000	12.703300
394.000000	12.460700
393.000000	12.202900
392.000000	11.931500
391.000000	11.663800
390.000000	11.410300
389.000000	11.118200
388.000000	10.834000
387.000000	10.564700
386.000000	10.296600
385.000000	10.025700
384.000000	9.779400
383.000000	9.508400
382.000000	9.208500
381.000000	8.950200
380.000000	8.687900
379.000000	8.431100
378.000000	8.191900
377.000000	7.971800
376.000000	7.825200
375.000000	7.805800
374.000000	7.619200
373.000000	7.387900
372.000000	7.115100
371.000000	6.928600
370.000000	6.801800
369.000000	6.657400
368.000000	6.443000
367.000000	6.295300
366.000000	6.144700
365.000000	6.035400
364.000000	5.916200
363.000000	5.788100
362.000000	5.646000
361.000000	5.507700
360.000000	5.406000
359.000000	5.300300
358.000000	5.217100
357.000000	5.149000
356.000000	5.034900
355.000000	4.967400
354.000000	4.923400
353.000000	4.830300
352.000000	4.722200
351.000000	4.660100
350.000000	4.615500
349.000000	4.595200
348.000000	4.603700
347.000000	4.581500
346.000000	4.489500
345.000000	4.483200
344.000000	4.519600
343.000000	4.521000
342.000000	4.452500
341.000000	4.441500
340.000000	4.391200
339.000000	4.389700
338.000000	4.422800
337.000000	4.411100
336.000000	4.355600
335.000000	4.376000
334.000000	4.414200
333.000000	4.384400
332.000000	4.355100
331.000000	4.310500
330.000000	4.301300
329.000000	4.332100
328.000000	4.343600
327.000000	4.395300
326.000000	4.331100
325.000000	4.245100
324.000000	4.271900
323.000000	4.236700
322.000000	4.284200
321.000000	4.327400
320.000000	4.343000
319.000000	4.391900
318.000000	4.350500
317.000000	4.408000
316.000000	4.328100
315.000000	4.166400
314.000000	4.171400
313.000000	4.217400
312.000000	4.247100
311.000000	4.229400
310.000000	4.194100
309.000000	4.210500
308.000000	4.222300
307.000000	4.186300
306.000000	4.166800
305.000000	4.204800
304.000000	4.231800
303.000000	4.234900
302.000000	4.248300
301.000000	4.264800
300.000000	4.249900
299.000000	4.251900
298.000000	4.239300
297.000000	4.247800
296.000000	4.249700
295.000000	4.253000
294.000000	4.252600
293.000000	4.283700
292.000000	4.285300
291.000000	4.271500
290.000000	4.296000
289.000000	4.313000
288.000000	4.313200
287.000000	4.339700
286.000000	4.317100
285.000000	4.293200
284.000000	4.316400
283.000000	4.340100
282.000000	4.340600
281.000000	4.351300
280.000000	4.330200
279.000000	4.334600
278.000000	4.353400
277.000000	4.338400
276.000000	4.360200
275.000000	4.383500
274.000000	4.386700
273.000000	4.402000
272.000000	4.403400
271.000000	4.404700
270.000000	4.390600
269.000000	4.407400
268.000000	4.420500
267.000000	4.428000
266.000000	4.450900
265.000000	4.455000
264.000000	4.456000
263.000000	4.512900
262.000000	4.523800
261.000000	4.529600
260.000000	4.538000
259.000000	4.574300
258.000000	4.564900
257.000000	4.549100
256.000000	4.595500
255.000000	4.619600
254.000000	4.607500
253.000000	4.579300
252.000000	4.580800
251.000000	4.625600
250.000000	4.620700
