PE UV       SUBTECH     SPECTRUM    ASCII       PEDS        4.00        
   -1
CICIMAUCR0240-2.ASC
24/06/20
14:09:08.00
24/06/20
14:09:08.00
Vinicio Soto Monge
C. resplendens. Sex M. Ventral 
250,000000
1
Lambda 1050
1050L1511233
PerkinElmer UV WinLab 6.3.2.0749 / 2.02.05 Lambda 900 UV/VIS/NIR, Aug  7 2015 09:38:08

0
0
3350/servo 860,8/2
0
0
UV/VIS
1
1
1
DoubleDePol,CommonBeamDepol,RBeamAtt,SBeamAtt,60mm sphere, WB InGaAs Detector
0
0
0
0
Program
Program
3350/servo 860,8/2
3350/0,2 860,8/0,2
3350/0,2 860,8/0,2
0
15.00
 
 
 
0
 
860,8
319,2
860,8
Front
100
on
S:100 R:100
0
0
0
0
 
0
 
 
 
0
 
 
0
0
0
0
0
 
 
 
 
0
0


0
0
#HDR
-1
-1
#GR
nm
%R
1.0
0.0
2500,000000
-1,000000
2251
8
59,400000
4,430400
#DATA
2482.000000	6.373447
2481.000000	6.386269
2480.000000	6.300750
2479.000000	6.351482
2478.000000	6.309670
2477.000000	6.307886
2476.000000	6.229726
2475.000000	6.246785
2474.000000	6.340889
2473.000000	6.305099
2472.000000	6.274548
2471.000000	6.313461
2470.000000	6.347468
2469.000000	6.337545
2468.000000	6.315468
2467.000000	6.331635
2466.000000	6.338437
2465.000000	6.311900
2464.000000	6.304653
2463.000000	6.340778
2462.000000	6.309336
2461.000000	6.333865
2460.000000	6.383928
2459.000000	6.363635
2458.000000	6.387830
2457.000000	6.356499
2456.000000	6.373335
2455.000000	6.438339
2454.000000	6.471342
2453.000000	6.473461
2452.000000	6.487844
2451.000000	6.495314
2450.000000	6.540694
2449.000000	6.563885
2448.000000	6.558199
2447.000000	6.634352
2446.000000	6.672373
2445.000000	6.665349
2444.000000	6.703369
2443.000000	6.745516
2442.000000	6.758784
2441.000000	6.801042
2440.000000	6.800819
2439.000000	6.818435
2438.000000	6.860693
2437.000000	6.896484
2436.000000	6.916999
2435.000000	6.940972
2434.000000	6.975536
2433.000000	6.994491
2432.000000	6.996832
2431.000000	7.058936
2430.000000	7.083800
2429.000000	7.084023
2428.000000	7.105431
2427.000000	7.118365
2426.000000	7.133975
2425.000000	7.168650
2424.000000	7.188051
2423.000000	7.203215
2422.000000	7.237110
2421.000000	7.245250
2420.000000	7.268553
2419.000000	7.284720
2418.000000	7.318615
2417.000000	7.322629
2416.000000	7.326532
2415.000000	7.338573
2414.000000	7.378601
2413.000000	7.390420
2412.000000	7.393653
2411.000000	7.417291
2410.000000	7.432678
2409.000000	7.446615
2408.000000	7.451855
2407.000000	7.462782
2406.000000	7.483744
2405.000000	7.500468
2404.000000	7.503813
2403.000000	7.525555
2402.000000	7.530907
2401.000000	7.558001
2400.000000	7.552538
2399.000000	7.565360
2398.000000	7.599925
2397.000000	7.620217
2396.000000	7.647200
2395.000000	7.679200
2394.000000	7.705179
2393.000000	7.731158
2392.000000	7.753680
2391.000000	7.769178
2390.000000	7.775980
2389.000000	7.768398
2388.000000	7.783227
2387.000000	7.806084
2386.000000	7.824258
2385.000000	7.829387
2384.000000	7.831729
2383.000000	7.845555
2382.000000	7.850126
2381.000000	7.838642
2380.000000	7.841875
2379.000000	7.859380
2378.000000	7.858711
2377.000000	7.860384
2376.000000	7.879004
2375.000000	7.876551
2374.000000	7.867408
2373.000000	7.860049
2372.000000	7.858042
2371.000000	7.860049
2370.000000	7.864621
2369.000000	7.864955
2368.000000	7.862056
2367.000000	7.850795
2366.000000	7.835185
2365.000000	7.827269
2364.000000	7.812997
2363.000000	7.801847
2362.000000	7.801513
2361.000000	7.786126
2360.000000	7.775645
2359.000000	7.774865
2358.000000	7.760816
2357.000000	7.755241
2356.000000	7.741638
2355.000000	7.733611
2354.000000	7.727813
2353.000000	7.715994
2352.000000	7.710754
2351.000000	7.717220
2350.000000	7.730823
2349.000000	7.731938
2348.000000	7.735618
2347.000000	7.746433
2346.000000	7.751450
2345.000000	7.762935
2344.000000	7.780105
2343.000000	7.788245
2342.000000	7.795492
2341.000000	7.812217
2340.000000	7.824035
2339.000000	7.839534
2338.000000	7.858265
2337.000000	7.869192
2336.000000	7.881903
2335.000000	7.886809
2334.000000	7.887478
2333.000000	7.900523
2332.000000	7.901081
2331.000000	7.897513
2330.000000	7.884690
2329.000000	7.860049
2328.000000	7.858042
2327.000000	7.858711
2326.000000	7.843436
2325.000000	7.835074
2324.000000	7.826711
2323.000000	7.796272
2322.000000	7.774196
2321.000000	7.754349
2320.000000	7.729931
2319.000000	7.688342
2318.000000	7.657569
2317.000000	7.621778
2316.000000	7.598141
2315.000000	7.548301
2314.000000	7.496343
2313.000000	7.458545
2312.000000	7.439702
2311.000000	7.405472
2310.000000	7.361430
2309.000000	7.336566
2308.000000	7.315047
2307.000000	7.302782
2306.000000	7.279702
2305.000000	7.279925
2304.000000	7.262309
2303.000000	7.261751
2302.000000	7.280483
2301.000000	7.294978
2300.000000	7.312817
2299.000000	7.321068
2298.000000	7.342587
2297.000000	7.384622
2296.000000	7.407145
2295.000000	7.443604
2294.000000	7.463340
2293.000000	7.496454
2292.000000	7.533695
2291.000000	7.547186
2290.000000	7.585653
2289.000000	7.583869
2288.000000	7.605388
2287.000000	7.606168
2286.000000	7.621667
2285.000000	7.617541
2284.000000	7.603938
2283.000000	7.617764
2282.000000	7.603269
2281.000000	7.598252
2280.000000	7.595799
2279.000000	7.587883
2278.000000	7.555660
2277.000000	7.555214
2276.000000	7.533472
2275.000000	7.520092
2274.000000	7.491660
2273.000000	7.507827
2272.000000	7.506935
2271.000000	7.476608
2270.000000	7.479618
2269.000000	7.496566
2268.000000	7.519980
2267.000000	7.524217
2266.000000	7.556440
2265.000000	7.607395
2264.000000	7.646531
2263.000000	7.706517
2262.000000	7.761597
2261.000000	7.831060
2260.000000	7.905094
2259.000000	7.993178
2258.000000	8.054836
2257.000000	8.171798
2256.000000	8.260884
2255.000000	8.365358
2254.000000	8.481985
2253.000000	8.599950
2252.000000	8.714124
2251.000000	8.821050
2250.000000	8.892074
2249.000000	8.995210
2248.000000	9.096896
2247.000000	9.189217
2246.000000	9.287223
2245.000000	9.381997
2244.000000	9.443878
2243.000000	9.515460
2242.000000	9.560393
2241.000000	9.642567
2240.000000	9.695975
2239.000000	9.727863
2238.000000	9.776811
2237.000000	9.843710
2236.000000	9.866121
2235.000000	9.921201
2234.000000	9.923431
2233.000000	9.953089
2232.000000	9.971932
2231.000000	10.014859
2230.000000	10.038608
2229.000000	10.014971
2228.000000	10.020322
2227.000000	10.033479
2226.000000	10.036267
2225.000000	10.048643
2224.000000	10.041061
2223.000000	10.022441
2222.000000	9.980183
2221.000000	10.014859
2220.000000	9.965465
2219.000000	9.972267
2218.000000	9.937033
2217.000000	9.901020
2216.000000	9.910497
2215.000000	9.877940
2214.000000	9.862776
2213.000000	9.844602
2212.000000	9.801006
2211.000000	9.803124
2210.000000	9.771682
2209.000000	9.767445
2208.000000	9.724295
2207.000000	9.721508
2206.000000	9.720393
2205.000000	9.730428
2204.000000	9.702776
2203.000000	9.712365
2202.000000	9.677689
2201.000000	9.661299
2200.000000	9.655278
2199.000000	9.656728
2198.000000	9.643682
2197.000000	9.635766
2196.000000	9.624282
2195.000000	9.619599
2194.000000	9.619264
2193.000000	9.619710
2192.000000	9.629968
2191.000000	9.616365
2190.000000	9.592393
2189.000000	9.588379
2188.000000	9.593731
2187.000000	9.585257
2186.000000	9.585703
2185.000000	9.572324
2184.000000	9.550804
2183.000000	9.558721
2182.000000	9.541104
2181.000000	9.547906
2180.000000	9.521481
2179.000000	9.539878
2178.000000	9.518359
2177.000000	9.514233
2176.000000	9.512338
2175.000000	9.509885
2174.000000	9.502637
2173.000000	9.499961
2172.000000	9.511669
2171.000000	9.527501
2170.000000	9.513787
2169.000000	9.519362
2168.000000	9.519362
2167.000000	9.538428
2166.000000	9.528505
2165.000000	9.542777
2164.000000	9.566191
2163.000000	9.584588
2162.000000	9.584923
2161.000000	9.609898
2160.000000	9.614916
2159.000000	9.651264
2158.000000	9.655390
2157.000000	9.690065
2156.000000	9.709243
2155.000000	9.721619
2154.000000	9.752727
2153.000000	9.786400
2152.000000	9.791640
2151.000000	9.815947
2150.000000	9.844936
2149.000000	9.891765
2148.000000	9.915403
2147.000000	9.943500
2146.000000	9.963793
2145.000000	9.978065
2144.000000	10.004378
2143.000000	10.045967
2142.000000	10.068267
2141.000000	10.083988
2140.000000	10.121451
2139.000000	10.148322
2138.000000	10.164489
2137.000000	10.186343
2136.000000	10.205855
2135.000000	10.232280
2134.000000	10.239193
2133.000000	10.263611
2132.000000	10.271639
2131.000000	10.282454
2130.000000	10.307318
2129.000000	10.296726
2128.000000	10.320921
2127.000000	10.327499
2126.000000	10.332628
2125.000000	10.343332
2124.000000	10.347680
2123.000000	10.350914
2122.000000	10.345562
2121.000000	10.347234
2120.000000	10.340099
2119.000000	10.338203
2118.000000	10.341771
2117.000000	10.331402
2116.000000	10.326161
2115.000000	10.321924
2114.000000	10.307207
2113.000000	10.300405
2112.000000	10.295053
2111.000000	10.280670
2110.000000	10.254468
2109.000000	10.239527
2108.000000	10.249674
2107.000000	10.229827
2106.000000	10.207305
2105.000000	10.190580
2104.000000	10.196378
2103.000000	10.177981
2102.000000	10.165158
2101.000000	10.146315
2100.000000	10.135723
2099.000000	10.127137
2098.000000	10.106956
2097.000000	10.089228
2096.000000	10.098706
2095.000000	10.091681
2094.000000	10.081758
2093.000000	10.074510
2092.000000	10.072392
2091.000000	10.058901
2090.000000	10.047305
2089.000000	10.041842
2088.000000	10.019207
2087.000000	10.012072
2086.000000	10.017981
2085.000000	10.010176
2084.000000	9.992894
2083.000000	9.979514
2082.000000	9.965577
2081.000000	9.931682
2080.000000	9.911612
2079.000000	9.892657
2078.000000	9.889981
2077.000000	9.878943
2076.000000	9.850623
2075.000000	9.826985
2074.000000	9.789076
2073.000000	9.759417
2072.000000	9.744142
2071.000000	9.721173
2070.000000	9.683822
2069.000000	9.650149
2068.000000	9.610344
2067.000000	9.571543
2066.000000	9.553146
2065.000000	9.522596
2064.000000	9.482791
2063.000000	9.459042
2062.000000	9.442651
2061.000000	9.411767
2060.000000	9.380547
2059.000000	9.361146
2058.000000	9.333606
2057.000000	9.316547
2056.000000	9.310415
2055.000000	9.309634
2054.000000	9.315321
2053.000000	9.304840
2052.000000	9.307516
2051.000000	9.344310
2050.000000	9.353899
2049.000000	9.373077
2048.000000	9.412882
2047.000000	9.442651
2046.000000	9.485132
2045.000000	9.520700
2044.000000	9.550247
2043.000000	9.585815
2042.000000	9.631641
2041.000000	9.690400
2040.000000	9.730093
2039.000000	9.772462
2038.000000	9.823306
2037.000000	9.850177
2036.000000	9.880615
2035.000000	9.933689
2034.000000	9.963458
2033.000000	10.000253
2032.000000	10.027681
2031.000000	10.042176
2030.000000	10.067709
2029.000000	10.097702
2028.000000	10.120671
2027.000000	10.127137
2026.000000	10.115988
2025.000000	10.144420
2024.000000	10.169172
2023.000000	10.198496
2022.000000	10.204071
2021.000000	10.202510
2020.000000	10.213660
2019.000000	10.204963
2018.000000	10.219569
2017.000000	10.231723
2016.000000	10.201284
2015.000000	10.220907
2014.000000	10.212879
2013.000000	10.190022
2012.000000	10.208531
2011.000000	10.199054
2010.000000	10.178650
2009.000000	10.163932
2008.000000	10.151667
2007.000000	10.141744
2006.000000	10.104057
2005.000000	10.096476
2004.000000	10.079305
2003.000000	10.050761
2002.000000	10.016755
2001.000000	9.992002
2000.000000	9.978511
1999.000000	9.948183
1998.000000	9.901020
1997.000000	9.870246
1996.000000	9.830330
1995.000000	9.821187
1994.000000	9.789745
1993.000000	9.737898
1992.000000	9.684268
1991.000000	9.654386
1990.000000	9.620379
1989.000000	9.596965
1988.000000	9.541773
1987.000000	9.498623
1986.000000	9.468742
1985.000000	9.440199
1984.000000	9.363265
1983.000000	9.328924
1982.000000	9.306178
1981.000000	9.266931
1980.000000	9.214527
1979.000000	9.180631
1978.000000	9.143502
1977.000000	9.110165
1976.000000	9.053078
1975.000000	9.013496
1974.000000	8.951280
1973.000000	8.919169
1972.000000	8.896088
1971.000000	8.880925
1970.000000	8.828186
1969.000000	8.796744
1968.000000	8.739211
1967.000000	8.709218
1966.000000	8.658375
1965.000000	8.630946
1964.000000	8.584229
1963.000000	8.566612
1962.000000	8.548549
1961.000000	8.517330
1960.000000	8.464926
1959.000000	8.459574
1958.000000	8.421442
1957.000000	8.387212
1956.000000	8.351309
1955.000000	8.335923
1954.000000	8.295337
1953.000000	8.245944
1952.000000	8.229665
1951.000000	8.190306
1950.000000	8.174474
1949.000000	8.151839
1948.000000	8.124968
1947.000000	8.119282
1946.000000	8.086836
1945.000000	8.038000
1944.000000	8.039896
1943.000000	8.036997
1942.000000	7.996411
1941.000000	8.007227
1940.000000	7.981917
1939.000000	7.962404
1938.000000	7.945568
1937.000000	7.982920
1936.000000	7.968760
1935.000000	7.963854
1934.000000	7.962070
1933.000000	7.994070
1932.000000	7.987937
1931.000000	7.986711
1930.000000	8.010572
1929.000000	8.031533
1928.000000	8.053387
1927.000000	8.093972
1926.000000	8.105902
1925.000000	8.165665
1924.000000	8.221191
1923.000000	8.246055
1922.000000	8.273038
1921.000000	8.329456
1920.000000	8.402821
1919.000000	8.456117
1918.000000	8.524466
1917.000000	8.581887
1916.000000	8.665734
1915.000000	8.749357
1914.000000	8.799308
1913.000000	8.880813
1912.000000	9.007363
1911.000000	9.099572
1910.000000	9.181635
1909.000000	9.265927
1908.000000	9.375084
1907.000000	9.479334
1906.000000	9.593174
1905.000000	9.761424
1904.000000	9.902692
1903.000000	10.043180
1902.000000	10.179653
1901.000000	10.332405
1900.000000	10.511359
1899.000000	10.695331
1898.000000	10.871386
1897.000000	11.094048
1896.000000	11.297086
1895.000000	11.495998
1894.000000	11.674729
1893.000000	11.868513
1892.000000	12.113697
1891.000000	12.385975
1890.000000	12.675758
1889.000000	12.953611
1888.000000	13.213401
1887.000000	13.511212
1886.000000	13.800327
1885.000000	14.147866
1884.000000	14.463516
1883.000000	14.850860
1882.000000	15.243110
1881.000000	15.617855
1880.000000	15.995945
1879.000000	16.355972
1878.000000	16.715218
1877.000000	17.081712
1876.000000	17.430477
1875.000000	17.795968
1874.000000	18.168148
1873.000000	18.519590
1872.000000	18.879059
1871.000000	19.233065
1870.000000	19.564103
1869.000000	19.877746
1868.000000	20.196854
1867.000000	20.452407
1866.000000	20.652992
1865.000000	20.840866
1864.000000	21.010231
1863.000000	21.157074
1862.000000	21.288642
1861.000000	21.452878
1860.000000	21.627038
1859.000000	21.752585
1858.000000	21.909462
1857.000000	22.033225
1856.000000	22.128890
1855.000000	22.191664
1854.000000	22.263357
1853.000000	22.330367
1852.000000	22.375301
1851.000000	22.408639
1850.000000	22.423691
1849.000000	22.455802
1848.000000	22.493043
1847.000000	22.532290
1846.000000	22.558381
1845.000000	22.550687
1844.000000	22.509656
1843.000000	22.483119
1842.000000	22.477321
1841.000000	22.501294
1840.000000	22.509767
1839.000000	22.493935
1838.000000	22.479774
1837.000000	22.451454
1836.000000	22.451788
1835.000000	22.450004
1834.000000	22.419008
1833.000000	22.366047
1832.000000	22.293796
1831.000000	22.242395
1830.000000	22.218981
1829.000000	22.194451
1828.000000	22.140486
1827.000000	22.082953
1826.000000	22.045155
1825.000000	22.011371
1824.000000	21.958187
1823.000000	21.901211
1822.000000	21.871219
1821.000000	21.862076
1820.000000	21.852598
1819.000000	21.855609
1818.000000	21.823609
1817.000000	21.787595
1816.000000	21.764403
1815.000000	21.745783
1814.000000	21.744334
1813.000000	21.720919
1812.000000	21.697059
1811.000000	21.682006
1810.000000	21.658146
1809.000000	21.626703
1808.000000	21.596265
1807.000000	21.552223
1806.000000	21.516766
1805.000000	21.494467
1804.000000	21.455220
1803.000000	21.417422
1802.000000	21.369255
1801.000000	21.334244
1800.000000	21.299122
1799.000000	21.245938
1798.000000	21.201004
1797.000000	21.158301
1796.000000	21.113590
1795.000000	21.072336
1794.000000	21.036433
1793.000000	21.005437
1792.000000	20.983137
1791.000000	20.937646
1790.000000	20.885130
1789.000000	20.853465
1788.000000	20.808308
1787.000000	20.772741
1786.000000	20.751667
1785.000000	20.690567
1784.000000	20.627013
1783.000000	20.594344
1782.000000	20.560002
1781.000000	20.507375
1780.000000	20.457201
1779.000000	20.415501
1778.000000	20.356073
1777.000000	20.299320
1776.000000	20.245913
1775.000000	20.179683
1774.000000	20.104199
1773.000000	20.032617
1772.000000	19.964157
1771.000000	19.892018
1770.000000	19.831252
1769.000000	19.753984
1768.000000	19.664674
1767.000000	19.605134
1766.000000	19.540353
1765.000000	19.465204
1764.000000	19.419824
1763.000000	19.386152
1762.000000	19.372549
1761.000000	19.379908
1760.000000	19.388270
1759.000000	19.408228
1758.000000	19.459517
1757.000000	19.494416
1756.000000	19.546040
1755.000000	19.598109
1754.000000	19.632228
1753.000000	19.666569
1752.000000	19.692325
1751.000000	19.706931
1750.000000	19.723879
1749.000000	19.707043
1748.000000	19.689538
1747.000000	19.668576
1746.000000	19.638249
1745.000000	19.580716
1744.000000	19.524855
1743.000000	19.438110
1742.000000	19.324493
1741.000000	19.216340
1740.000000	19.093358
1739.000000	18.975505
1738.000000	18.825540
1737.000000	18.709805
1736.000000	18.596077
1735.000000	18.484022
1734.000000	18.393262
1733.000000	18.350893
1732.000000	18.323799
1731.000000	18.309416
1730.000000	18.316329
1729.000000	18.353123
1728.000000	18.426489
1727.000000	18.473429
1726.000000	18.518029
1725.000000	18.582586
1724.000000	18.652049
1723.000000	18.675464
1722.000000	18.725638
1721.000000	18.768676
1720.000000	18.838808
1719.000000	18.908160
1718.000000	18.980188
1717.000000	19.056675
1716.000000	19.132605
1715.000000	19.195713
1714.000000	19.280675
1713.000000	19.360507
1712.000000	19.442570
1711.000000	19.518054
1710.000000	19.555629
1709.000000	19.630444
1708.000000	19.659768
1707.000000	19.657984
1706.000000	19.656311
1705.000000	19.660214
1704.000000	19.630109
1703.000000	19.584953
1702.000000	19.531768
1701.000000	19.473232
1700.000000	19.391838
1699.000000	19.303532
1698.000000	19.189023
1697.000000	19.103727
1696.000000	19.030473
1695.000000	18.973721
1694.000000	18.943951
1693.000000	18.951867
1692.000000	18.978738
1691.000000	19.008508
1690.000000	19.113428
1689.000000	19.199393
1688.000000	19.297399
1687.000000	19.379685
1686.000000	19.429302
1685.000000	19.516716
1684.000000	19.585845
1683.000000	19.680172
1682.000000	19.834039
1681.000000	20.036854
1680.000000	20.298094
1679.000000	20.600253
1678.000000	20.961061
1677.000000	21.318300
1676.000000	21.701519
1675.000000	22.060542
1674.000000	22.348318
1673.000000	22.643899
1672.000000	22.903132
1671.000000	23.143856
1670.000000	23.352469
1669.000000	23.524064
1668.000000	23.692315
1667.000000	23.844510
1666.000000	23.956454
1665.000000	24.073861
1664.000000	24.193944
1663.000000	24.282028
1662.000000	24.360299
1661.000000	24.435226
1660.000000	24.485734
1659.000000	24.552410
1658.000000	24.618528
1657.000000	24.623546
1656.000000	24.674054
1655.000000	24.689218
1654.000000	24.698807
1653.000000	24.721553
1652.000000	24.718319
1651.000000	24.692229
1650.000000	24.688549
1649.000000	24.666584
1648.000000	24.635365
1647.000000	24.591657
1646.000000	24.564563
1645.000000	24.518849
1644.000000	24.460870
1643.000000	24.401219
1642.000000	24.379700
1641.000000	24.336662
1640.000000	24.284258
1639.000000	24.247129
1638.000000	24.215129
1637.000000	24.159491
1636.000000	24.103631
1635.000000	24.046544
1634.000000	23.986781
1633.000000	23.927799
1632.000000	23.856217
1631.000000	23.802363
1630.000000	23.708259
1629.000000	23.648608
1628.000000	23.604789
1627.000000	23.537890
1626.000000	23.465862
1625.000000	23.389375
1624.000000	23.303856
1623.000000	23.235173
1622.000000	23.169055
1621.000000	23.106951
1620.000000	23.038491
1619.000000	22.968247
1618.000000	22.912944
1617.000000	22.838686
1616.000000	22.779258
1615.000000	22.721502
1614.000000	22.665084
1613.000000	22.589377
1612.000000	22.521586
1611.000000	22.468067
1610.000000	22.403064
1609.000000	22.336165
1608.000000	22.264583
1607.000000	22.206381
1606.000000	22.135023
1605.000000	22.063553
1604.000000	21.992974
1603.000000	21.936779
1602.000000	21.868320
1601.000000	21.789045
1600.000000	21.730508
1599.000000	21.659261
1598.000000	21.590801
1597.000000	21.526244
1596.000000	21.452321
1595.000000	21.392669
1594.000000	21.336697
1593.000000	21.240363
1592.000000	21.201896
1591.000000	21.137004
1590.000000	21.087611
1589.000000	21.031304
1588.000000	20.997632
1587.000000	20.913339
1586.000000	20.879890
1585.000000	20.822134
1584.000000	20.784671
1583.000000	20.731152
1582.000000	20.678190
1581.000000	20.634372
1580.000000	20.596685
1579.000000	20.550637
1578.000000	20.500797
1577.000000	20.466679
1576.000000	20.430219
1575.000000	20.412268
1574.000000	20.395654
1573.000000	20.375250
1572.000000	20.353731
1571.000000	20.326191
1570.000000	20.301996
1569.000000	20.297090
1568.000000	20.280700
1567.000000	20.278136
1566.000000	20.274345
1565.000000	20.275794
1564.000000	20.285606
1563.000000	20.271669
1562.000000	20.262526
1561.000000	20.244798
1560.000000	20.230191
1559.000000	20.213801
1558.000000	20.196185
1557.000000	20.171655
1556.000000	20.141328
1555.000000	20.111000
1554.000000	20.088255
1553.000000	20.043432
1552.000000	20.019795
1551.000000	19.975865
1550.000000	19.925579
1549.000000	19.888450
1548.000000	19.862137
1547.000000	19.802151
1546.000000	19.750081
1545.000000	19.719196
1544.000000	19.684074
1543.000000	19.657092
1542.000000	19.625092
1541.000000	19.591085
1540.000000	19.557078
1539.000000	19.521176
1538.000000	19.494193
1537.000000	19.461970
1536.000000	19.426960
1535.000000	19.414695
1534.000000	19.366417
1533.000000	19.328173
1532.000000	19.279560
1531.000000	19.251685
1530.000000	19.223365
1529.000000	19.166278
1528.000000	19.129929
1527.000000	19.103058
1526.000000	19.063031
1525.000000	19.006836
1524.000000	18.955324
1523.000000	18.913846
1522.000000	18.857094
1521.000000	18.806697
1520.000000	18.768788
1519.000000	18.708021
1518.000000	18.648593
1517.000000	18.610014
1516.000000	18.566084
1515.000000	18.502196
1514.000000	18.438085
1513.000000	18.393262
1512.000000	18.337736
1511.000000	18.281095
1510.000000	18.232148
1509.000000	18.182643
1508.000000	18.117082
1507.000000	18.052302
1506.000000	17.993765
1505.000000	17.928762
1504.000000	17.873236
1503.000000	17.809459
1502.000000	17.760623
1501.000000	17.713682
1500.000000	17.653250
1499.000000	17.613111
1498.000000	17.562491
1497.000000	17.507300
1496.000000	17.470171
1495.000000	17.416429
1494.000000	17.372833
1493.000000	17.353321
1492.000000	17.319314
1491.000000	17.282854
1490.000000	17.251189
1489.000000	17.213056
1488.000000	17.180945
1487.000000	17.154185
1486.000000	17.125642
1485.000000	17.098213
1484.000000	17.072123
1483.000000	17.058632
1482.000000	17.045363
1481.000000	17.034437
1480.000000	17.002214
1479.000000	16.977350
1478.000000	16.974005
1477.000000	16.953712
1476.000000	16.938214
1475.000000	16.936764
1474.000000	16.929963
1473.000000	16.924500
1472.000000	16.924165
1471.000000	16.930075
1470.000000	16.938883
1469.000000	16.943120
1468.000000	16.929852
1467.000000	16.932862
1466.000000	16.947357
1465.000000	16.949475
1464.000000	16.962855
1463.000000	16.991398
1462.000000	17.001768
1461.000000	17.021503
1460.000000	17.059635
1459.000000	17.080597
1458.000000	17.103119
1457.000000	17.147830
1456.000000	17.179273
1455.000000	17.225544
1454.000000	17.281293
1453.000000	17.322436
1452.000000	17.361126
1451.000000	17.397586
1450.000000	17.490463
1449.000000	17.545766
1448.000000	17.582895
1447.000000	17.660052
1446.000000	17.730184
1445.000000	17.805445
1444.000000	17.863870
1443.000000	17.924079
1442.000000	18.000344
1441.000000	18.077835
1440.000000	18.155549
1439.000000	18.207507
1438.000000	18.296928
1437.000000	18.388691
1436.000000	18.490823
1435.000000	18.568314
1434.000000	18.664425
1433.000000	18.775366
1432.000000	18.878056
1431.000000	18.979407
1430.000000	19.101163
1429.000000	19.227379
1428.000000	19.351141
1427.000000	19.478249
1426.000000	19.634792
1425.000000	19.767921
1424.000000	19.925467
1423.000000	20.129620
1422.000000	20.285606
1421.000000	20.472923
1420.000000	20.667709
1419.000000	20.886803
1418.000000	21.093297
1417.000000	21.355875
1416.000000	21.533714
1415.000000	21.768863
1414.000000	22.029992
1413.000000	22.291677
1412.000000	22.561168
1411.000000	22.812819
1410.000000	23.105167
1409.000000	23.459953
1408.000000	23.814740
1407.000000	24.185359
1406.000000	24.549065
1405.000000	24.890807
1404.000000	25.353412
1403.000000	25.721912
1402.000000	26.119737
1401.000000	26.453005
1400.000000	26.976042
1399.000000	27.429281
1398.000000	27.830004
1397.000000	28.142645
1396.000000	28.516720
1395.000000	29.016231
1394.000000	29.481624
1393.000000	29.826376
1392.000000	30.202458
1391.000000	30.656812
1390.000000	31.148296
1389.000000	31.531403
1388.000000	32.066035
1387.000000	32.642591
1386.000000	33.187816
1385.000000	33.758797
1384.000000	34.322643
1383.000000	34.958962
1382.000000	35.592716
1381.000000	36.222680
1380.000000	36.749730
1379.000000	37.063040
1378.000000	37.458523
1377.000000	37.763358
1376.000000	38.001072
1375.000000	38.243023
1374.000000	38.517531
1373.000000	38.825934
1372.000000	39.114045
1371.000000	39.457459
1370.000000	39.869890
1369.000000	40.180523
1368.000000	40.503087
1367.000000	40.840479
1366.000000	41.111642
1365.000000	41.354708
1364.000000	41.614164
1363.000000	41.826679
1362.000000	42.030497
1361.000000	42.253382
1360.000000	42.476935
1359.000000	42.571151
1358.000000	42.684879
1357.000000	42.815443
1356.000000	42.985923
1355.000000	43.186843
1354.000000	43.506507
1353.000000	43.875789
1352.000000	44.207830
1351.000000	44.668651
1350.000000	45.127799
1349.000000	45.569331
1348.000000	45.992243
1347.000000	46.387949
1346.000000	46.786332
1345.000000	47.150261
1344.000000	47.533368
1343.000000	47.942789
1342.000000	48.253533
1341.000000	48.620362
1340.000000	48.972807
1339.000000	49.318116
1338.000000	49.643913
1337.000000	49.990783
1336.000000	50.344789
1335.000000	50.657764
1334.000000	50.979324
1333.000000	51.320619
1332.000000	51.643406
1331.000000	51.947350
1330.000000	52.251628
1329.000000	52.552449
1328.000000	52.839333
1327.000000	53.119639
1326.000000	53.384335
1325.000000	53.643568
1324.000000	53.900348
1323.000000	54.154006
1322.000000	54.384584
1321.000000	54.620959
1320.000000	54.834143
1319.000000	55.079216
1318.000000	55.254714
1317.000000	55.466894
1316.000000	55.652539
1315.000000	55.834838
1314.000000	56.031966
1313.000000	56.222962
1312.000000	56.384077
1311.000000	56.545526
1310.000000	56.689804
1309.000000	56.826835
1308.000000	56.965985
1307.000000	57.097664
1306.000000	57.225217
1305.000000	57.335823
1304.000000	57.414987
1303.000000	57.508088
1302.000000	57.577885
1301.000000	57.666303
1300.000000	57.739000
1299.000000	57.778247
1298.000000	57.846819
1297.000000	57.915055
1296.000000	57.950066
1295.000000	57.973703
1294.000000	58.018302
1293.000000	58.055989
1292.000000	58.071264
1291.000000	58.100588
1290.000000	58.104936
1289.000000	58.111180
1288.000000	58.101703
1287.000000	58.082414
1286.000000	58.063682
1285.000000	58.034358
1284.000000	58.020421
1283.000000	57.970581
1282.000000	57.940588
1281.000000	57.891641
1280.000000	57.840017
1279.000000	57.789397
1278.000000	57.735878
1277.000000	57.694066
1276.000000	57.671209
1275.000000	57.632631
1274.000000	57.597509
1273.000000	57.567962
1272.000000	57.538527
1271.000000	57.503070
1270.000000	57.485900
1269.000000	57.466834
1268.000000	57.446652
1267.000000	57.418666
1266.000000	57.393245
1265.000000	57.353775
1264.000000	57.314081
1263.000000	57.277175
1262.000000	57.231127
1261.000000	57.183071
1260.000000	57.133120
1259.000000	57.095434
1258.000000	57.055741
1257.000000	57.011699
1256.000000	56.943462
1255.000000	56.878459
1254.000000	56.816912
1253.000000	56.741762
1252.000000	56.669512
1251.000000	56.583324
1250.000000	56.485763
1249.000000	56.386418
1248.000000	56.290864
1247.000000	56.186391
1246.000000	56.068649
1245.000000	55.950573
1244.000000	55.838852
1243.000000	55.712747
1242.000000	55.578169
1241.000000	55.439912
1240.000000	55.316595
1239.000000	55.186366
1238.000000	55.045098
1237.000000	54.901934
1236.000000	54.756541
1235.000000	54.629991
1234.000000	54.500207
1233.000000	54.345782
1232.000000	54.192696
1231.000000	54.027567
1230.000000	53.851289
1229.000000	53.680140
1228.000000	53.512001
1227.000000	53.343862
1226.000000	53.161451
1225.000000	52.968225
1224.000000	52.786372
1223.000000	52.610094
1222.000000	52.418763
1221.000000	52.211042
1220.000000	52.015586
1219.000000	51.824144
1218.000000	51.635267
1217.000000	51.450849
1216.000000	51.267546
1215.000000	51.082460
1214.000000	50.913986
1213.000000	50.751534
1212.000000	50.593541
1211.000000	50.450935
1210.000000	50.283911
1209.000000	50.111090
1208.000000	49.966923
1207.000000	49.833906
1206.000000	49.694979
1205.000000	49.569209
1204.000000	49.474102
1203.000000	49.386241
1202.000000	49.303956
1201.000000	49.225238
1200.000000	49.151092
1199.000000	49.088765
1198.000000	48.995664
1197.000000	48.874912
1196.000000	48.748138
1195.000000	48.584459
1194.000000	48.378857
1193.000000	48.133673
1192.000000	47.855263
1191.000000	47.538274
1190.000000	47.182038
1189.000000	46.821342
1188.000000	46.481608
1187.000000	46.213790
1186.000000	46.022571
1185.000000	45.931031
1184.000000	45.940397
1183.000000	46.057135
1182.000000	46.298082
1181.000000	46.624883
1180.000000	47.026275
1179.000000	47.469257
1178.000000	47.896517
1177.000000	48.317199
1176.000000	48.700083
1175.000000	49.039706
1174.000000	49.353907
1173.000000	49.665655
1172.000000	49.949194
1171.000000	50.244107
1170.000000	50.549165
1169.000000	50.866488
1168.000000	51.172996
1167.000000	51.511170
1166.000000	51.840200
1165.000000	52.188631
1164.000000	52.559362
1163.000000	52.921842
1162.000000	53.308740
1161.000000	53.681589
1160.000000	54.041393
1159.000000	54.454270
1158.000000	54.815858
1157.000000	55.166853
1156.000000	55.506030
1155.000000	55.847326
1154.000000	56.154168
1153.000000	56.425888
1152.000000	56.642641
1151.000000	56.834752
1150.000000	57.002221
1149.000000	57.171475
1148.000000	57.334931
1147.000000	57.481105
1146.000000	57.671878
1145.000000	57.897104
1144.000000	58.157786
1143.000000	58.459946
1142.000000	58.827666
1141.000000	59.224710
1140.000000	59.636584
1139.000000	60.078339
1138.000000	60.512958
1137.000000	60.996413
1136.000000	61.490126
1135.000000	62.000341
1134.000000	62.550806
1133.000000	63.076631
1132.000000	63.514260
1131.000000	63.912754
1130.000000	64.307234
1129.000000	64.649421
1128.000000	64.947678
1127.000000	65.216834
1126.000000	65.429572
1125.000000	65.607412
1124.000000	65.733404
1123.000000	65.855941
1122.000000	65.966212
1121.000000	66.044484
1120.000000	66.101571
1119.000000	66.152414
1118.000000	66.171926
1117.000000	66.213292
1116.000000	66.229013
1115.000000	66.229793
1114.000000	66.219759
1113.000000	66.206267
1112.000000	66.193668
1111.000000	66.195786
1110.000000	66.192330
1109.000000	66.165125
1108.000000	66.167689
1107.000000	66.139926
1106.000000	66.111383
1105.000000	66.098895
1104.000000	66.087633
1103.000000	66.079717
1102.000000	66.043703
1101.000000	66.027871
1100.000000	66.006797
1099.000000	65.960526
1098.000000	65.935104
1097.000000	65.934658
1096.000000	65.918603
1095.000000	65.854714
1094.000000	65.817362
1093.000000	65.770868
1092.000000	65.739537
1091.000000	65.675983
1090.000000	65.630492
1089.000000	65.565600
1088.000000	65.522227
1087.000000	65.457781
1086.000000	65.388095
1085.000000	65.348959
1084.000000	65.263552
1083.000000	65.201782
1082.000000	65.144807
1081.000000	65.071441
1080.000000	64.977114
1079.000000	64.915232
1078.000000	64.846215
1077.000000	64.759916
1076.000000	64.698926
1075.000000	64.626787
1074.000000	64.541268
1073.000000	64.459763
1072.000000	64.385282
1071.000000	64.283708
1070.000000	64.179792
1069.000000	64.115680
1068.000000	64.028266
1067.000000	63.943751
1066.000000	63.866594
1065.000000	63.775723
1064.000000	63.662664
1063.000000	63.565326
1062.000000	63.478692
1061.000000	63.398860
1060.000000	63.310108
1059.000000	63.202066
1058.000000	63.098038
1057.000000	63.007279
1056.000000	62.907154
1055.000000	62.802346
1054.000000	62.694639
1053.000000	62.615475
1052.000000	62.526500
1051.000000	62.415113
1050.000000	62.321344
1049.000000	62.224452
1048.000000	62.135142
1047.000000	62.041484
1046.000000	61.963435
1045.000000	61.862529
1044.000000	61.764523
1043.000000	61.686586
1042.000000	61.583116
1041.000000	61.505067
1040.000000	61.389444
1039.000000	61.322768
1038.000000	61.215841
1037.000000	61.113598
1036.000000	61.048483
1035.000000	60.944678
1034.000000	60.812330
1033.000000	60.729933
1032.000000	60.602937
1031.000000	60.496122
1030.000000	60.410491
1029.000000	60.291189
1028.000000	60.191063
1027.000000	60.069308
1026.000000	59.948555
1025.000000	59.832263
1024.000000	59.703260
1023.000000	59.614842
1022.000000	59.484612
1021.000000	59.351149
1020.000000	59.247010
1019.000000	59.136739
1018.000000	59.017882
1017.000000	58.916307
1016.000000	58.799234
1015.000000	58.711820
1014.000000	58.611583
1013.000000	58.513465
1012.000000	58.415793
1011.000000	58.338190
1010.000000	58.263152
1009.000000	58.203835
1008.000000	58.150762
1007.000000	58.068700
1006.000000	58.005369
1005.000000	57.958094
1004.000000	57.889968
1003.000000	57.831432
1002.000000	57.756840
1001.000000	57.698080
1000.000000	57.655154
999.000000	57.592715
998.000000	57.522248
997.000000	57.456241
996.000000	57.394025
995.000000	57.336827
994.000000	57.284534
993.000000	57.230792
992.000000	57.179392
991.000000	57.106361
990.000000	57.062542
989.000000	57.013483
988.000000	56.983490
987.000000	56.926514
986.000000	56.852703
985.000000	56.815016
984.000000	56.785804
983.000000	56.742877
982.000000	56.679323
981.000000	56.643533
980.000000	56.615881
979.000000	56.572843
978.000000	56.519547
977.000000	56.473164
976.000000	56.459784
975.000000	56.413289
974.000000	56.356983
973.000000	56.330000
972.000000	56.304021
971.000000	56.287854
970.000000	56.245485
969.000000	56.196314
968.000000	56.167213
967.000000	56.126293
966.000000	56.096635
965.000000	56.076119
964.000000	56.045680
963.000000	56.031855
962.000000	56.003534
961.000000	55.988036
960.000000	55.967186
959.000000	55.930392
958.000000	55.915897
957.000000	55.911548
956.000000	55.875646
955.000000	55.847103
954.000000	55.824022
953.000000	55.804956
952.000000	55.783772
951.000000	55.749988
950.000000	55.742294
949.000000	55.724232
948.000000	55.684761
947.000000	55.657779
946.000000	55.630685
945.000000	55.583521
944.000000	55.534574
943.000000	55.504469
942.000000	55.464999
941.000000	55.398212
940.000000	55.321055
939.000000	55.265752
938.000000	55.216359
937.000000	55.152136
936.000000	55.084902
935.000000	55.013321
934.000000	54.955788
933.000000	54.895913
932.000000	54.832583
931.000000	54.762339
930.000000	54.696889
929.000000	54.649503
928.000000	54.572904
927.000000	54.471775
926.000000	54.409894
925.000000	54.343441
924.000000	54.258145
923.000000	54.169616
922.000000	54.082313
921.000000	53.996905
920.000000	53.897338
919.000000	53.816948
918.000000	53.769115
917.000000	53.673561
916.000000	53.564293
915.000000	53.487248
914.000000	53.388795
913.000000	53.277632
912.000000	53.171040
911.000000	53.079388
910.000000	52.987849
909.000000	52.901326
908.000000	52.811682
907.000000	52.736978
906.000000	52.645215
905.000000	52.590581
904.000000	52.538846
903.000000	52.471279
902.000000	52.408171
901.000000	52.359112
900.000000	52.316742
899.000000	52.282958
898.000000	52.237690
897.000000	52.193314
896.000000	52.125523
895.000000	52.063419
894.000000	52.035656
893.000000	51.974444
892.000000	51.890597
891.000000	51.821580
890.000000	51.753455
889.000000	51.671392
888.000000	51.601037
887.000000	51.512062
886.000000	51.403016
885.000000	51.306905
884.000000	51.183365
883.000000	51.092272
882.000000	50.988579
881.000000	50.879757
880.000000	50.744732
879.000000	50.626991
878.000000	50.492301
877.000000	50.345681
876.000000	50.132609
875.000000	49.924888
874.000000	49.687955
873.000000	49.466631
872.000000	49.225461
871.000000	49.003580
870.000000	48.922187
869.000000	48.917950
868.000000	48.939803
867.000000	48.973253
866.000000	48.957420
865.000000	48.958870
864.000000	48.953183
863.000000	48.948612
862.000000	48.947720
861.000000	48.952068
860.000000	48.944821
859.000000	48.962772
858.000000	48.942033
857.000000	48.216900
856.000000	49.304200
855.000000	49.305000
854.000000	49.403500
853.000000	49.373200
852.000000	49.350600
851.000000	49.358000
850.000000	49.403700
849.000000	49.083400
848.000000	49.471900
847.000000	49.375100
846.000000	49.239300
845.000000	49.630700
844.000000	49.265600
843.000000	49.155900
842.000000	49.656100
841.000000	49.503000
840.000000	49.665300
839.000000	49.346500
838.000000	49.442600
837.000000	49.336700
836.000000	49.539500
835.000000	49.373000
834.000000	49.423800
833.000000	49.576800
832.000000	49.272100
831.000000	49.348400
830.000000	49.343500
829.000000	49.298600
828.000000	49.271700
827.000000	49.253200
826.000000	49.317500
825.000000	49.273000
824.000000	49.318400
823.000000	49.175600
822.000000	49.216300
821.000000	49.181600
820.000000	49.090500
819.000000	49.145800
818.000000	49.166500
817.000000	49.099300
816.000000	49.081000
815.000000	48.927300
814.000000	48.928600
813.000000	48.772900
812.000000	48.853900
811.000000	48.817300
810.000000	48.837000
809.000000	48.728000
808.000000	48.635500
807.000000	48.722600
806.000000	48.570800
805.000000	48.689000
804.000000	48.477500
803.000000	48.476000
802.000000	48.443600
801.000000	48.420800
800.000000	48.604700
799.000000	48.451800
798.000000	48.327300
797.000000	48.246800
796.000000	48.185000
795.000000	48.096000
794.000000	48.080700
793.000000	48.031600
792.000000	47.968200
791.000000	48.021500
790.000000	47.973700
789.000000	47.810800
788.000000	47.897100
787.000000	47.776700
786.000000	47.713700
785.000000	47.763900
784.000000	47.677700
783.000000	47.590500
782.000000	47.532500
781.000000	47.439300
780.000000	47.305200
779.000000	47.326800
778.000000	47.321700
777.000000	47.297500
776.000000	47.226800
775.000000	47.048800
774.000000	47.037400
773.000000	46.926900
772.000000	46.908900
771.000000	46.834500
770.000000	46.783600
769.000000	46.766100
768.000000	46.752800
767.000000	46.643100
766.000000	46.642400
765.000000	46.499500
764.000000	46.423200
763.000000	46.429600
762.000000	46.309900
761.000000	46.258900
760.000000	46.093600
759.000000	46.058600
758.000000	46.032900
757.000000	45.918700
756.000000	45.821700
755.000000	45.770900
754.000000	45.606100
753.000000	45.618200
752.000000	45.617700
751.000000	45.490000
750.000000	45.324100
749.000000	45.247000
748.000000	45.226000
747.000000	45.108900
746.000000	45.049900
745.000000	45.011900
744.000000	44.881900
743.000000	44.771000
742.000000	44.683000
741.000000	44.473400
740.000000	44.460200
739.000000	44.287600
738.000000	44.285200
737.000000	44.161000
736.000000	44.046500
735.000000	44.025100
734.000000	43.856500
733.000000	43.796600
732.000000	43.706800
731.000000	43.550300
730.000000	43.494000
729.000000	43.358700
728.000000	43.256200
727.000000	43.099300
726.000000	42.998000
725.000000	42.912200
724.000000	42.799200
723.000000	42.612400
722.000000	42.475600
721.000000	42.415400
720.000000	42.302500
719.000000	42.099100
718.000000	41.992100
717.000000	41.942700
716.000000	41.808600
715.000000	41.677700
714.000000	41.545000
713.000000	41.430100
712.000000	41.295400
711.000000	41.161500
710.000000	41.026400
709.000000	40.896500
708.000000	40.729200
707.000000	40.630000
706.000000	40.520000
705.000000	40.343400
704.000000	40.180500
703.000000	40.012200
702.000000	39.933900
701.000000	39.778900
700.000000	39.583300
699.000000	39.414100
698.000000	39.275000
697.000000	39.140700
696.000000	38.927900
695.000000	38.770800
694.000000	38.670000
693.000000	38.472300
692.000000	38.319900
691.000000	38.099800
690.000000	37.943300
689.000000	37.761300
688.000000	37.557800
687.000000	37.369400
686.000000	37.209400
685.000000	37.022400
684.000000	36.821100
683.000000	36.639400
682.000000	36.436000
681.000000	36.249500
680.000000	36.080100
679.000000	35.868500
678.000000	35.691200
677.000000	35.515600
676.000000	35.316300
675.000000	35.154600
674.000000	34.952900
673.000000	34.754000
672.000000	34.562200
671.000000	34.352000
670.000000	34.118800
669.000000	33.910100
668.000000	33.724600
667.000000	33.519800
666.000000	33.338600
665.000000	33.169700
664.000000	32.977200
663.000000	32.794900
662.000000	32.633400
661.000000	32.453100
660.000000	32.285600
659.000000	32.122900
658.000000	31.946500
657.000000	31.747700
656.000000	31.570200
655.000000	31.437300
654.000000	31.276100
653.000000	31.072300
652.000000	30.918400
651.000000	30.793400
650.000000	30.634800
649.000000	30.491700
648.000000	30.357600
647.000000	30.212100
646.000000	30.072800
645.000000	29.924300
644.000000	29.780000
643.000000	29.655400
642.000000	29.536500
641.000000	29.406800
640.000000	29.293200
639.000000	29.187500
638.000000	29.082800
637.000000	28.986800
636.000000	28.884600
635.000000	28.777900
634.000000	28.668700
633.000000	28.565800
632.000000	28.474200
631.000000	28.375800
630.000000	28.280400
629.000000	28.198600
628.000000	28.109700
627.000000	28.054700
626.000000	27.966500
625.000000	27.878100
624.000000	27.834400
623.000000	27.768900
622.000000	27.695900
621.000000	27.649500
620.000000	27.609400
619.000000	27.553800
618.000000	27.494500
617.000000	27.469500
616.000000	27.447800
615.000000	27.423800
614.000000	27.399800
613.000000	27.395700
612.000000	27.392300
611.000000	27.386200
610.000000	27.396100
609.000000	27.407800
608.000000	27.423000
607.000000	27.450500
606.000000	27.485500
605.000000	27.519000
604.000000	27.556700
603.000000	27.617100
602.000000	27.659400
601.000000	27.726400
600.000000	27.774900
599.000000	27.862400
598.000000	27.942700
597.000000	28.001700
596.000000	28.091500
595.000000	28.181900
594.000000	28.252200
593.000000	28.343900
592.000000	28.431800
591.000000	28.525600
590.000000	28.626900
589.000000	28.705200
588.000000	28.794300
587.000000	28.880100
586.000000	28.982200
585.000000	29.061600
584.000000	29.137000
583.000000	29.232900
582.000000	29.318500
581.000000	29.375800
580.000000	29.422000
579.000000	29.495500
578.000000	29.553700
577.000000	29.602100
576.000000	29.651700
575.000000	29.691700
574.000000	29.727400
573.000000	29.781700
572.000000	29.803600
571.000000	29.819100
570.000000	29.835200
569.000000	29.840000
568.000000	29.830400
567.000000	29.829400
566.000000	29.831300
565.000000	29.828100
564.000000	29.796800
563.000000	29.769000
562.000000	29.715900
561.000000	29.669100
560.000000	29.614400
559.000000	29.572800
558.000000	29.512700
557.000000	29.436600
556.000000	29.356100
555.000000	29.280300
554.000000	29.164100
553.000000	29.052600
552.000000	28.941300
551.000000	28.829600
550.000000	28.711400
549.000000	28.566300
548.000000	28.414600
547.000000	28.264100
546.000000	28.119000
545.000000	27.947900
544.000000	27.769400
543.000000	27.579300
542.000000	27.372600
541.000000	27.168100
540.000000	26.958600
539.000000	26.748000
538.000000	26.522900
537.000000	26.271500
536.000000	26.044300
535.000000	25.801500
534.000000	25.537900
533.000000	25.253500
532.000000	24.974900
531.000000	24.699800
530.000000	24.423500
529.000000	24.146100
528.000000	23.838700
527.000000	23.525700
526.000000	23.206100
525.000000	22.882100
524.000000	22.551700
523.000000	22.231600
522.000000	21.881900
521.000000	21.563000
520.000000	21.223000
519.000000	20.905000
518.000000	20.557800
517.000000	20.226400
516.000000	19.902900
515.000000	19.578200
514.000000	19.266500
513.000000	18.933000
512.000000	18.614700
511.000000	18.325600
510.000000	18.011500
509.000000	17.707200
508.000000	17.435100
507.000000	17.159100
506.000000	16.874300
505.000000	16.625800
504.000000	16.401700
503.000000	16.131000
502.000000	15.891000
501.000000	15.671000
500.000000	15.456600
499.000000	15.239300
498.000000	15.023900
497.000000	14.833400
496.000000	14.649700
495.000000	14.480000
494.000000	14.293900
493.000000	14.143600
492.000000	13.990300
491.000000	13.854600
490.000000	13.692000
489.000000	13.552200
488.000000	13.431500
487.000000	13.306000
486.000000	13.186800
485.000000	13.070900
484.000000	12.953100
483.000000	12.852500
482.000000	12.734800
481.000000	12.599500
480.000000	12.484600
479.000000	12.353400
478.000000	12.262200
477.000000	12.136900
476.000000	12.027800
475.000000	11.933800
474.000000	11.832100
473.000000	11.735300
472.000000	11.634100
471.000000	11.543700
470.000000	11.450600
469.000000	11.372400
468.000000	11.300000
467.000000	11.200800
466.000000	11.137800
465.000000	11.073600
464.000000	11.012300
463.000000	10.934300
462.000000	10.879400
461.000000	10.816300
460.000000	10.779000
459.000000	10.704700
458.000000	10.643400
457.000000	10.587900
456.000000	10.536100
455.000000	10.484600
454.000000	10.445000
453.000000	10.392700
452.000000	10.346900
451.000000	10.297000
450.000000	10.235200
449.000000	10.177500
448.000000	10.139600
447.000000	10.094500
446.000000	10.043400
445.000000	10.009800
444.000000	9.961600
443.000000	9.900200
442.000000	9.832600
441.000000	9.786900
440.000000	9.741900
439.000000	9.682500
438.000000	9.613900
437.000000	9.562200
436.000000	9.503500
435.000000	9.444700
434.000000	9.381900
433.000000	9.318800
432.000000	9.261500
431.000000	9.209500
430.000000	9.131000
429.000000	9.072900
428.000000	9.016800
427.000000	8.948600
426.000000	8.890700
425.000000	8.816900
424.000000	8.735100
423.000000	8.681200
422.000000	8.612600
421.000000	8.549700
420.000000	8.491000
419.000000	8.402100
418.000000	8.348000
417.000000	8.284900
416.000000	8.202800
415.000000	8.130600
414.000000	8.057500
413.000000	7.982600
412.000000	7.893700
411.000000	7.813300
410.000000	7.732500
409.000000	7.672500
408.000000	7.582500
407.000000	7.495400
406.000000	7.414500
405.000000	7.367000
404.000000	7.264400
403.000000	7.196100
402.000000	7.105500
401.000000	7.010500
400.000000	6.948400
399.000000	6.885800
398.000000	6.791700
397.000000	6.724700
396.000000	6.645900
395.000000	6.552700
394.000000	6.494800
393.000000	6.416700
392.000000	6.332200
391.000000	6.248100
390.000000	6.182500
389.000000	6.101500
388.000000	6.039200
387.000000	5.972000
386.000000	5.909000
385.000000	5.836700
384.000000	5.774300
383.000000	5.704900
382.000000	5.644300
381.000000	5.595400
380.000000	5.529400
379.000000	5.485000
378.000000	5.429500
377.000000	5.386000
376.000000	5.292500
375.000000	5.100500
374.000000	4.956100
373.000000	4.835000
372.000000	4.677300
371.000000	4.693600
370.000000	4.740100
369.000000	4.776200
368.000000	4.725900
367.000000	4.740600
366.000000	4.768200
365.000000	4.786600
364.000000	4.801800
363.000000	4.792800
362.000000	4.823800
361.000000	4.792700
360.000000	4.756400
359.000000	4.744100
358.000000	4.599700
357.000000	4.591200
356.000000	4.657800
355.000000	4.670100
354.000000	4.715400
353.000000	4.756400
352.000000	4.815900
351.000000	4.764900
350.000000	4.692600
349.000000	4.705300
348.000000	4.655000
347.000000	4.430400
346.000000	4.491200
345.000000	4.581400
344.000000	4.624300
343.000000	4.710200
342.000000	4.665500
341.000000	4.568900
340.000000	4.511600
339.000000	4.542500
338.000000	4.641700
337.000000	4.595400
336.000000	4.790200
335.000000	4.789600
334.000000	4.504900
333.000000	4.542700
332.000000	4.540600
331.000000	4.767600
330.000000	5.128800
329.000000	5.102400
328.000000	5.246900
327.000000	4.896900
326.000000	4.764400
325.000000	5.074200
324.000000	5.106900
323.000000	5.335900
322.000000	4.801800
321.000000	4.684700
320.000000	4.982300
319.000000	5.054400
318.000000	5.258600
317.000000	5.303700
316.000000	4.823000
315.000000	4.483900
314.000000	4.476800
313.000000	4.477000
312.000000	4.486200
311.000000	4.466000
310.000000	4.485600
309.000000	4.476000
308.000000	4.488500
307.000000	4.523300
306.000000	4.511300
305.000000	4.481600
304.000000	4.482700
303.000000	4.489000
302.000000	4.475200
301.000000	4.509900
300.000000	4.519300
299.000000	4.518800
298.000000	4.511800
297.000000	4.497400
296.000000	4.503900
295.000000	4.510900
294.000000	4.523400
293.000000	4.512500
292.000000	4.497200
291.000000	4.535100
290.000000	4.521600
289.000000	4.502700
288.000000	4.492200
287.000000	4.488800
286.000000	4.528800
285.000000	4.519700
284.000000	4.531200
283.000000	4.552600
282.000000	4.546300
281.000000	4.495700
280.000000	4.492200
279.000000	4.516700
278.000000	4.559600
277.000000	4.562300
276.000000	4.548700
275.000000	4.564600
274.000000	4.594900
273.000000	4.617900
272.000000	4.604800
271.000000	4.625700
270.000000	4.622900
269.000000	4.685900
268.000000	4.713400
267.000000	4.669900
266.000000	4.660600
265.000000	4.682700
264.000000	4.704400
263.000000	4.732600
262.000000	4.792400
261.000000	4.791800
260.000000	4.800100
259.000000	4.799500
258.000000	4.781600
257.000000	4.867000
256.000000	4.900800
255.000000	4.867000
254.000000	4.857400
253.000000	4.850300
252.000000	4.877800
251.000000	4.882300
250.000000	4.859900
