PE UV       SUBTECH     SPECTRUM    ASCII       PEDS        4.00        
   -1
CICIMAUCR0252-1.ASC
24/06/27
14:04:34.00
24/06/27
14:04:34.00
Vinicio Soto Monge
C. resplendens. Sex F. Ventral
250,000000
1
Lambda 1050
1050L1511233
PerkinElmer UV WinLab 6.3.2.0749 / 2.02.05 Lambda 900 UV/VIS/NIR, Aug  7 2015 09:38:08

0
0
3350/servo 860,8/2
0
0
UV/VIS
1
1
1
DoubleDePol,CommonBeamDepol,RBeamAtt,SBeamAtt,60mm sphere, WB InGaAs Detector
0
0
0
0
Program
Program
3350/servo 860,8/2
3350/0,2 860,8/0,2
3350/0,2 860,8/0,2
0
15.00
 
 
 
0
 
860,8
319,2
860,8
Front
100
on
S:100 R:100
0
0
0
0
 
0
 
 
 
0
 
 
0
0
0
0
0
 
 
 
 
0
0


0
0
#HDR
-1
-1
#GR
nm
%R
1.0
0.0
2500,000000
-1,000000
2251
8
56,798400
4,471700
#DATA
2482.000000	5.180388
2481.000000	5.145178
2480.000000	5.192237
2479.000000	5.182080
2478.000000	5.141567
2477.000000	5.163686
2476.000000	5.134345
2475.000000	5.125317
2474.000000	5.089092
2473.000000	5.142583
2472.000000	5.108502
2471.000000	5.110308
2470.000000	5.087286
2469.000000	5.080515
2468.000000	5.078258
2467.000000	5.046322
2466.000000	5.096427
2465.000000	5.103875
2464.000000	5.074421
2463.000000	5.080854
2462.000000	5.118771
2461.000000	5.059864
2460.000000	5.104327
2459.000000	5.102634
2458.000000	5.103762
2457.000000	5.101618
2456.000000	5.117643
2455.000000	5.112000
2454.000000	5.088076
2453.000000	5.094283
2452.000000	5.113468
2451.000000	5.151272
2450.000000	5.141680
2449.000000	5.139423
2448.000000	5.168990
2447.000000	5.171360
2446.000000	5.152401
2445.000000	5.175648
2444.000000	5.196638
2443.000000	5.185127
2442.000000	5.183547
2441.000000	5.217967
2440.000000	5.234217
2439.000000	5.234669
2438.000000	5.261414
2437.000000	5.256223
2436.000000	5.290191
2435.000000	5.292674
2434.000000	5.296285
2433.000000	5.302830
2432.000000	5.291545
2431.000000	5.325400
2430.000000	5.341989
2429.000000	5.324497
2428.000000	5.339506
2427.000000	5.336347
2426.000000	5.364785
2425.000000	5.367832
2424.000000	5.380245
2423.000000	5.377875
2422.000000	5.377198
2421.000000	5.392095
2420.000000	5.416019
2419.000000	5.411392
2418.000000	5.385211
2417.000000	5.408345
2416.000000	5.446714
2415.000000	5.443667
2414.000000	5.437460
2413.000000	5.438927
2412.000000	5.468268
2411.000000	5.473460
2410.000000	5.467140
2409.000000	5.460369
2408.000000	5.468833
2407.000000	5.476507
2406.000000	5.491177
2405.000000	5.483616
2404.000000	5.495465
2403.000000	5.511377
2402.000000	5.514424
2401.000000	5.521759
2400.000000	5.523227
2399.000000	5.523114
2398.000000	5.520970
2397.000000	5.547602
2396.000000	5.578072
2395.000000	5.570736
2394.000000	5.559000
2393.000000	5.577169
2392.000000	5.585971
2391.000000	5.589131
2390.000000	5.599288
2389.000000	5.599965
2388.000000	5.592742
2387.000000	5.604479
2386.000000	5.622422
2385.000000	5.624453
2384.000000	5.618698
2383.000000	5.608880
2382.000000	5.623776
2381.000000	5.650070
2380.000000	5.655374
2379.000000	5.640478
2378.000000	5.624792
2377.000000	5.627839
2376.000000	5.632804
2375.000000	5.636077
2374.000000	5.651199
2373.000000	5.645556
2372.000000	5.623663
2371.000000	5.618359
2370.000000	5.638559
2369.000000	5.628177
2368.000000	5.633933
2367.000000	5.634158
2366.000000	5.605381
2365.000000	5.596015
2364.000000	5.608090
2363.000000	5.609557
2362.000000	5.601883
2361.000000	5.588792
2360.000000	5.571865
2359.000000	5.565658
2358.000000	5.563288
2357.000000	5.564868
2356.000000	5.558774
2355.000000	5.543878
2354.000000	5.530223
2353.000000	5.533834
2352.000000	5.540267
2351.000000	5.526725
2350.000000	5.519841
2349.000000	5.536204
2348.000000	5.539477
2347.000000	5.530449
2346.000000	5.533045
2345.000000	5.548505
2344.000000	5.557533
2343.000000	5.563401
2342.000000	5.571301
2341.000000	5.593984
2340.000000	5.594999
2339.000000	5.596918
2338.000000	5.607977
2337.000000	5.619601
2336.000000	5.627049
2335.000000	5.627613
2334.000000	5.618585
2333.000000	5.614522
2332.000000	5.610234
2331.000000	5.606510
2330.000000	5.610573
2329.000000	5.599626
2328.000000	5.597143
2327.000000	5.597256
2326.000000	5.585068
2325.000000	5.570059
2324.000000	5.558436
2323.000000	5.556066
2322.000000	5.533383
2321.000000	5.518035
2320.000000	5.483052
2319.000000	5.476394
2318.000000	5.478989
2317.000000	5.456532
2316.000000	5.439943
2315.000000	5.419517
2314.000000	5.401800
2313.000000	5.373587
2312.000000	5.351694
2311.000000	5.339168
2310.000000	5.306780
2309.000000	5.296059
2308.000000	5.287483
2307.000000	5.285225
2306.000000	5.293802
2305.000000	5.264235
2304.000000	5.253176
2303.000000	5.289627
2302.000000	5.294818
2301.000000	5.285790
2300.000000	5.288160
2299.000000	5.308473
2298.000000	5.301476
2297.000000	5.349212
2296.000000	5.367832
2295.000000	5.373361
2294.000000	5.384759
2293.000000	5.389950
2292.000000	5.399994
2291.000000	5.424595
2290.000000	5.446376
2289.000000	5.428432
2288.000000	5.440169
2287.000000	5.454275
2286.000000	5.463303
2285.000000	5.449648
2284.000000	5.459805
2283.000000	5.459128
2282.000000	5.423128
2281.000000	5.442200
2280.000000	5.438137
2279.000000	5.444457
2278.000000	5.430464
2277.000000	5.392320
2276.000000	5.362415
2275.000000	5.388145
2274.000000	5.399091
2273.000000	5.376521
2272.000000	5.362754
2271.000000	5.346729
2270.000000	5.349099
2269.000000	5.355531
2268.000000	5.350227
2267.000000	5.372910
2266.000000	5.400107
2265.000000	5.417824
2264.000000	5.434413
2263.000000	5.446601
2262.000000	5.476732
2261.000000	5.533722
2260.000000	5.556517
2259.000000	5.619601
2258.000000	5.658872
2257.000000	5.701078
2256.000000	5.756714
2255.000000	5.813929
2254.000000	5.857150
2253.000000	5.920685
2252.000000	5.981060
2251.000000	6.040757
2250.000000	6.092443
2249.000000	6.165795
2248.000000	6.211161
2247.000000	6.254270
2246.000000	6.296927
2245.000000	6.344099
2244.000000	6.407972
2243.000000	6.466316
2242.000000	6.488208
2241.000000	6.519355
2240.000000	6.557386
2239.000000	6.564157
2238.000000	6.604896
2237.000000	6.627353
2236.000000	6.678700
2235.000000	6.709846
2234.000000	6.740541
2233.000000	6.746523
2232.000000	6.777556
2231.000000	6.786359
2230.000000	6.795725
2229.000000	6.785117
2228.000000	6.831160
2227.000000	6.833191
2226.000000	6.834546
2225.000000	6.827888
2224.000000	6.842332
2223.000000	6.833304
2222.000000	6.820439
2221.000000	6.833417
2220.000000	6.824841
2219.000000	6.818295
2218.000000	6.808816
2217.000000	6.806785
2216.000000	6.819988
2215.000000	6.820778
2214.000000	6.791550
2213.000000	6.763337
2212.000000	6.773607
2211.000000	6.775412
2210.000000	6.760629
2209.000000	6.757130
2208.000000	6.752955
2207.000000	6.764691
2206.000000	6.713796
2205.000000	6.734335
2204.000000	6.733545
2203.000000	6.729369
2202.000000	6.735012
2201.000000	6.706461
2200.000000	6.722711
2199.000000	6.726209
2198.000000	6.717069
2197.000000	6.696417
2196.000000	6.716166
2195.000000	6.729031
2194.000000	6.705332
2193.000000	6.713570
2192.000000	6.685696
2191.000000	6.689533
2190.000000	6.692242
2189.000000	6.690436
2188.000000	6.672154
2187.000000	6.691113
2186.000000	6.683778
2185.000000	6.681521
2184.000000	6.654888
2183.000000	6.672267
2182.000000	6.669559
2181.000000	6.658387
2180.000000	6.647666
2179.000000	6.657258
2178.000000	6.641120
2177.000000	6.639879
2176.000000	6.643716
2175.000000	6.626788
2174.000000	6.626450
2173.000000	6.626676
2172.000000	6.641572
2171.000000	6.641346
2170.000000	6.639879
2169.000000	6.634914
2168.000000	6.631754
2167.000000	6.639992
2166.000000	6.633334
2165.000000	6.606250
2164.000000	6.640218
2163.000000	6.647102
2162.000000	6.673621
2161.000000	6.663916
2160.000000	6.662675
2159.000000	6.678474
2158.000000	6.670800
2157.000000	6.681408
2156.000000	6.704881
2155.000000	6.692919
2154.000000	6.701721
2153.000000	6.693483
2152.000000	6.726774
2151.000000	6.741219
2150.000000	6.751037
2149.000000	6.747087
2148.000000	6.774509
2147.000000	6.795048
2146.000000	6.795048
2145.000000	6.796628
2144.000000	6.813217
2143.000000	6.816377
2142.000000	6.840527
2141.000000	6.849329
2140.000000	6.854520
2139.000000	6.848313
2138.000000	6.868288
2137.000000	6.887247
2136.000000	6.877203
2135.000000	6.883748
2134.000000	6.887585
2133.000000	6.886457
2132.000000	6.901014
2131.000000	6.899773
2130.000000	6.897967
2129.000000	6.908124
2128.000000	6.916813
2127.000000	6.911171
2126.000000	6.917265
2125.000000	6.900450
2124.000000	6.911284
2123.000000	6.911509
2122.000000	6.895710
2121.000000	6.904738
2120.000000	6.907898
2119.000000	6.914105
2118.000000	6.908237
2117.000000	6.897403
2116.000000	6.880137
2115.000000	6.881604
2114.000000	6.870545
2113.000000	6.863661
2112.000000	6.850232
2111.000000	6.858357
2110.000000	6.854182
2109.000000	6.838947
2108.000000	6.827210
2107.000000	6.824051
2106.000000	6.826759
2105.000000	6.810396
2104.000000	6.806559
2103.000000	6.798434
2102.000000	6.780265
2101.000000	6.769995
2100.000000	6.751601
2099.000000	6.754422
2098.000000	6.759839
2097.000000	6.755325
2096.000000	6.753858
2095.000000	6.739752
2094.000000	6.720454
2093.000000	6.724630
2092.000000	6.715602
2091.000000	6.695966
2090.000000	6.698674
2089.000000	6.702398
2088.000000	6.692806
2087.000000	6.699238
2086.000000	6.695176
2085.000000	6.674298
2084.000000	6.683778
2083.000000	6.691226
2082.000000	6.674863
2081.000000	6.651954
2080.000000	6.642926
2079.000000	6.642475
2078.000000	6.646763
2077.000000	6.634801
2076.000000	6.613585
2075.000000	6.602639
2074.000000	6.577699
2073.000000	6.572056
2072.000000	6.583680
2071.000000	6.571492
2070.000000	6.542941
2069.000000	6.527932
2068.000000	6.512923
2067.000000	6.501638
2066.000000	6.487644
2065.000000	6.473989
2064.000000	6.459206
2063.000000	6.442843
2062.000000	6.431219
2061.000000	6.431106
2060.000000	6.429075
2059.000000	6.411696
2058.000000	6.393301
2057.000000	6.374455
2056.000000	6.371634
2055.000000	6.373101
2054.000000	6.373440
2053.000000	6.378292
2052.000000	6.389239
2051.000000	6.395897
2050.000000	6.409552
2049.000000	6.410793
2048.000000	6.416436
2047.000000	6.444310
2046.000000	6.466654
2045.000000	6.484823
2044.000000	6.505587
2043.000000	6.528270
2042.000000	6.535718
2041.000000	6.564157
2040.000000	6.578714
2039.000000	6.592031
2038.000000	6.609635
2037.000000	6.615503
2036.000000	6.645522
2035.000000	6.664255
2034.000000	6.659289
2033.000000	6.692354
2032.000000	6.697207
2031.000000	6.705219
2030.000000	6.715714
2029.000000	6.715150
2028.000000	6.742347
2027.000000	6.757469
2026.000000	6.757469
2025.000000	6.762096
2024.000000	6.772252
2023.000000	6.760516
2022.000000	6.765369
2021.000000	6.767964
2020.000000	6.765143
2019.000000	6.767626
2018.000000	6.761757
2017.000000	6.758936
2016.000000	6.757582
2015.000000	6.742911
2014.000000	6.753971
2013.000000	6.757130
2012.000000	6.747877
2011.000000	6.745507
2010.000000	6.730498
2009.000000	6.718423
2008.000000	6.721131
2007.000000	6.699577
2006.000000	6.700705
2005.000000	6.703075
2004.000000	6.676217
2003.000000	6.663578
2002.000000	6.658048
2001.000000	6.629835
2000.000000	6.606363
1999.000000	6.596883
1998.000000	6.580181
1997.000000	6.576344
1996.000000	6.551066
1995.000000	6.505587
1994.000000	6.504685
1993.000000	6.488434
1992.000000	6.473989
1991.000000	6.441376
1990.000000	6.429978
1989.000000	6.416549
1988.000000	6.382355
1987.000000	6.365202
1986.000000	6.338005
1985.000000	6.328074
1984.000000	6.300087
1983.000000	6.293090
1982.000000	6.290608
1981.000000	6.259913
1980.000000	6.234747
1979.000000	6.215111
1978.000000	6.193444
1977.000000	6.174485
1976.000000	6.152592
1975.000000	6.123702
1974.000000	6.123025
1973.000000	6.083641
1972.000000	6.087477
1971.000000	6.063102
1970.000000	6.048206
1969.000000	6.020106
1968.000000	6.003743
1967.000000	5.984558
1966.000000	5.957023
1965.000000	5.959392
1964.000000	5.934001
1963.000000	5.949236
1962.000000	5.906240
1961.000000	5.893149
1960.000000	5.862454
1959.000000	5.860197
1958.000000	5.851508
1957.000000	5.802305
1956.000000	5.827132
1955.000000	5.805803
1954.000000	5.800612
1953.000000	5.756262
1952.000000	5.771271
1951.000000	5.744074
1950.000000	5.718119
1949.000000	5.713943
1948.000000	5.705931
1947.000000	5.692276
1946.000000	5.676928
1945.000000	5.708301
1944.000000	5.677944
1943.000000	5.650296
1942.000000	5.661468
1941.000000	5.644540
1940.000000	5.645895
1939.000000	5.647362
1938.000000	5.656164
1937.000000	5.635061
1936.000000	5.660001
1935.000000	5.636528
1934.000000	5.622196
1933.000000	5.613055
1932.000000	5.666659
1931.000000	5.680653
1930.000000	5.654246
1929.000000	5.672866
1928.000000	5.637318
1927.000000	5.691938
1926.000000	5.709542
1925.000000	5.726695
1924.000000	5.741027
1923.000000	5.738883
1922.000000	5.775560
1921.000000	5.768901
1920.000000	5.814719
1919.000000	5.857376
1918.000000	5.878028
1917.000000	5.893601
1916.000000	5.924183
1915.000000	5.978464
1914.000000	5.982414
1913.000000	6.035679
1912.000000	6.082286
1911.000000	6.117044
1910.000000	6.157670
1909.000000	6.187237
1908.000000	6.253931
1907.000000	6.297830
1906.000000	6.386418
1905.000000	6.421175
1904.000000	6.498478
1903.000000	6.558627
1902.000000	6.626563
1901.000000	6.706461
1900.000000	6.787939
1899.000000	6.864338
1898.000000	6.970417
1897.000000	7.102565
1896.000000	7.182463
1895.000000	7.292040
1894.000000	7.378484
1893.000000	7.485353
1892.000000	7.613663
1891.000000	7.757999
1890.000000	7.914748
1889.000000	8.059647
1888.000000	8.220910
1887.000000	8.404743
1886.000000	8.569617
1885.000000	8.787418
1884.000000	8.990323
1883.000000	9.222794
1882.000000	9.502550
1881.000000	9.753867
1880.000000	10.006990
1879.000000	10.262934
1878.000000	10.543367
1877.000000	10.811612
1876.000000	11.053450
1875.000000	11.325644
1874.000000	11.612510
1873.000000	11.902083
1872.000000	12.180033
1871.000000	12.446021
1870.000000	12.694743
1869.000000	12.961069
1868.000000	13.252674
1867.000000	13.472393
1866.000000	13.657129
1865.000000	13.830129
1864.000000	14.006401
1863.000000	14.150397
1862.000000	14.278708
1861.000000	14.410856
1860.000000	14.560269
1859.000000	14.684743
1858.000000	14.810797
1857.000000	14.922518
1856.000000	15.007269
1855.000000	15.082427
1854.000000	15.141899
1853.000000	15.219991
1852.000000	15.254411
1851.000000	15.295488
1850.000000	15.352139
1849.000000	15.373355
1848.000000	15.385543
1847.000000	15.414094
1846.000000	15.437341
1845.000000	15.435422
1844.000000	15.401793
1843.000000	15.393668
1842.000000	15.397618
1841.000000	15.406420
1840.000000	15.408790
1839.000000	15.414658
1838.000000	15.403486
1837.000000	15.391411
1836.000000	15.383060
1835.000000	15.385994
1834.000000	15.362295
1833.000000	15.326522
1832.000000	15.277658
1831.000000	15.240079
1830.000000	15.220217
1829.000000	15.188393
1828.000000	15.157472
1827.000000	15.116959
1826.000000	15.059744
1825.000000	15.027469
1824.000000	14.985037
1823.000000	14.943170
1822.000000	14.927371
1821.000000	14.914957
1820.000000	14.906155
1819.000000	14.879522
1818.000000	14.834721
1817.000000	14.811022
1816.000000	14.800979
1815.000000	14.799737
1814.000000	14.794095
1813.000000	14.774120
1812.000000	14.773218
1811.000000	14.756967
1810.000000	14.734510
1809.000000	14.712278
1808.000000	14.671652
1807.000000	14.645923
1806.000000	14.637910
1805.000000	14.600557
1804.000000	14.553724
1803.000000	14.519982
1802.000000	14.489851
1801.000000	14.457350
1800.000000	14.424510
1799.000000	14.377903
1798.000000	14.335472
1797.000000	14.309290
1796.000000	14.272050
1795.000000	14.251737
1794.000000	14.221380
1793.000000	14.170372
1792.000000	14.130084
1791.000000	14.103452
1790.000000	14.076368
1789.000000	14.031905
1788.000000	13.990376
1787.000000	13.956746
1786.000000	13.925826
1785.000000	13.883507
1784.000000	13.842768
1783.000000	13.805753
1782.000000	13.754519
1781.000000	13.711184
1780.000000	13.668076
1779.000000	13.618760
1778.000000	13.563351
1777.000000	13.523853
1776.000000	13.497446
1775.000000	13.428720
1774.000000	13.366427
1773.000000	13.326365
1772.000000	13.266103
1771.000000	13.198506
1770.000000	13.140050
1769.000000	13.086897
1768.000000	13.040290
1767.000000	12.980818
1766.000000	12.912769
1765.000000	12.868645
1764.000000	12.829147
1763.000000	12.795744
1762.000000	12.783443
1761.000000	12.796195
1760.000000	12.825536
1759.000000	12.848106
1758.000000	12.869435
1757.000000	12.919540
1756.000000	12.983639
1755.000000	13.019639
1754.000000	13.055299
1753.000000	13.107662
1752.000000	13.132150
1751.000000	13.147498
1750.000000	13.171986
1749.000000	13.172438
1748.000000	13.168939
1747.000000	13.159234
1746.000000	13.131135
1745.000000	13.098634
1744.000000	13.058685
1743.000000	13.008354
1742.000000	12.938386
1741.000000	12.844382
1740.000000	12.742366
1739.000000	12.627033
1738.000000	12.514973
1737.000000	12.409683
1736.000000	12.298977
1735.000000	12.192334
1734.000000	12.136812
1733.000000	12.079032
1732.000000	12.037842
1731.000000	12.037729
1730.000000	12.058494
1729.000000	12.108599
1728.000000	12.144711
1727.000000	12.201588
1726.000000	12.261624
1725.000000	12.328883
1724.000000	12.378762
1723.000000	12.442861
1722.000000	12.475024
1721.000000	12.526709
1720.000000	12.555373
1719.000000	12.576702
1718.000000	12.612588
1717.000000	12.655358
1716.000000	12.706028
1715.000000	12.745187
1714.000000	12.794164
1713.000000	12.841448
1712.000000	12.869773
1711.000000	12.932631
1710.000000	12.989282
1709.000000	13.013545
1708.000000	13.028667
1707.000000	13.034083
1706.000000	13.022347
1705.000000	12.990636
1704.000000	12.964229
1703.000000	12.950574
1702.000000	12.905886
1701.000000	12.841335
1700.000000	12.784797
1699.000000	12.695646
1698.000000	12.602544
1697.000000	12.526483
1696.000000	12.462497
1695.000000	12.398173
1694.000000	12.357885
1693.000000	12.363302
1692.000000	12.400204
1691.000000	12.449745
1690.000000	12.525016
1689.000000	12.623309
1688.000000	12.712235
1687.000000	12.785700
1686.000000	12.829937
1685.000000	12.894601
1684.000000	12.915816
1683.000000	12.977433
1682.000000	13.087010
1681.000000	13.242856
1680.000000	13.426351
1679.000000	13.695724
1678.000000	13.996470
1677.000000	14.322268
1676.000000	14.626964
1675.000000	14.949828
1674.000000	15.225634
1673.000000	15.479321
1672.000000	15.702426
1671.000000	15.899688
1670.000000	16.079797
1669.000000	16.246251
1668.000000	16.343528
1667.000000	16.483462
1666.000000	16.576451
1665.000000	16.685351
1664.000000	16.754528
1663.000000	16.812759
1662.000000	16.873472
1661.000000	16.945132
1660.000000	16.948743
1659.000000	16.996818
1658.000000	17.042296
1657.000000	17.061819
1656.000000	17.055951
1655.000000	17.079085
1654.000000	17.094433
1653.000000	17.085969
1652.000000	17.064641
1651.000000	17.061368
1650.000000	17.029431
1649.000000	17.014309
1648.000000	16.995125
1647.000000	16.968831
1646.000000	16.959351
1645.000000	16.877648
1644.000000	16.861849
1643.000000	16.821787
1642.000000	16.780032
1641.000000	16.721125
1640.000000	16.686931
1639.000000	16.654543
1638.000000	16.590783
1637.000000	16.567197
1636.000000	16.512239
1635.000000	16.467437
1634.000000	16.412141
1633.000000	16.349622
1632.000000	16.292971
1631.000000	16.233837
1630.000000	16.188246
1629.000000	16.130015
1628.000000	16.085891
1627.000000	16.006783
1626.000000	15.950358
1625.000000	15.866172
1624.000000	15.818662
1623.000000	15.764832
1622.000000	15.712357
1621.000000	15.647806
1620.000000	15.612823
1619.000000	15.533828
1618.000000	15.490832
1617.000000	15.439824
1616.000000	15.355524
1615.000000	15.321331
1614.000000	15.272015
1613.000000	15.227552
1612.000000	15.179930
1611.000000	15.137498
1610.000000	15.064258
1609.000000	15.024873
1608.000000	14.977589
1607.000000	14.918569
1606.000000	14.863046
1605.000000	14.808201
1604.000000	14.755162
1603.000000	14.714535
1602.000000	14.645020
1601.000000	14.597171
1600.000000	14.558125
1599.000000	14.503618
1598.000000	14.439181
1597.000000	14.402843
1596.000000	14.354769
1595.000000	14.307259
1594.000000	14.259862
1593.000000	14.208177
1592.000000	14.151752
1591.000000	14.108869
1590.000000	14.075239
1589.000000	14.031792
1588.000000	13.981573
1587.000000	13.936433
1586.000000	13.892535
1585.000000	13.862291
1584.000000	13.823696
1583.000000	13.770995
1582.000000	13.734770
1581.000000	13.707799
1580.000000	13.667511
1579.000000	13.647763
1578.000000	13.617519
1577.000000	13.597544
1576.000000	13.570235
1575.000000	13.537169
1574.000000	13.524982
1573.000000	13.515841
1572.000000	13.479052
1571.000000	13.474650
1570.000000	13.453322
1569.000000	13.442827
1568.000000	13.438200
1567.000000	13.427592
1566.000000	13.419467
1565.000000	13.422514
1564.000000	13.400508
1563.000000	13.396897
1562.000000	13.377599
1561.000000	13.375455
1560.000000	13.370038
1559.000000	13.361010
1558.000000	13.339569
1557.000000	13.311018
1556.000000	13.295557
1555.000000	13.273100
1554.000000	13.262266
1553.000000	13.250981
1552.000000	13.214305
1551.000000	13.191397
1550.000000	13.189929
1549.000000	13.160588
1548.000000	13.112401
1547.000000	13.076176
1546.000000	13.064666
1545.000000	13.052252
1544.000000	13.019187
1543.000000	13.001583
1542.000000	12.985445
1541.000000	12.964793
1540.000000	12.954524
1539.000000	12.927327
1538.000000	12.908933
1537.000000	12.880043
1536.000000	12.855442
1535.000000	12.837498
1534.000000	12.808722
1533.000000	12.801273
1532.000000	12.769450
1531.000000	12.720247
1530.000000	12.703319
1529.000000	12.672399
1528.000000	12.628274
1527.000000	12.595773
1526.000000	12.564288
1525.000000	12.539348
1524.000000	12.508540
1523.000000	12.466221
1522.000000	12.434285
1521.000000	12.403928
1520.000000	12.346600
1519.000000	12.299654
1518.000000	12.275730
1517.000000	12.246051
1516.000000	12.211067
1515.000000	12.171005
1514.000000	12.124172
1513.000000	12.089302
1512.000000	12.052287
1511.000000	12.003987
1510.000000	11.960652
1509.000000	11.919801
1508.000000	11.879062
1507.000000	11.831213
1506.000000	11.794198
1505.000000	11.761020
1504.000000	11.706739
1503.000000	11.652910
1502.000000	11.614992
1501.000000	11.581589
1500.000000	11.543671
1499.000000	11.502029
1498.000000	11.471221
1497.000000	11.431724
1496.000000	11.393580
1495.000000	11.363224
1494.000000	11.331738
1493.000000	11.318309
1492.000000	11.289984
1491.000000	11.247891
1490.000000	11.221258
1489.000000	11.206813
1488.000000	11.189660
1487.000000	11.154564
1486.000000	11.136282
1485.000000	11.098364
1484.000000	11.069475
1483.000000	11.053788
1482.000000	11.041149
1481.000000	11.018805
1480.000000	11.005601
1479.000000	10.979307
1478.000000	10.968699
1477.000000	10.960913
1476.000000	10.948951
1475.000000	10.944549
1474.000000	10.946355
1473.000000	10.919948
1472.000000	10.919948
1471.000000	10.933829
1470.000000	10.925929
1469.000000	10.914193
1468.000000	10.921641
1467.000000	10.919948
1466.000000	10.910807
1465.000000	10.924123
1464.000000	10.936876
1463.000000	10.941277
1462.000000	10.957640
1461.000000	10.966781
1460.000000	10.971972
1459.000000	10.978630
1458.000000	11.013952
1457.000000	11.047582
1456.000000	11.052886
1455.000000	11.084709
1454.000000	11.115517
1453.000000	11.161109
1452.000000	11.191466
1451.000000	11.222387
1450.000000	11.269671
1449.000000	11.334334
1448.000000	11.339412
1447.000000	11.361644
1446.000000	11.429128
1445.000000	11.458243
1444.000000	11.518731
1443.000000	11.551119
1442.000000	11.608673
1441.000000	11.656521
1440.000000	11.721410
1439.000000	11.785622
1438.000000	11.838774
1437.000000	11.879287
1436.000000	11.959185
1435.000000	12.029942
1434.000000	12.086706
1433.000000	12.163444
1432.000000	12.242778
1431.000000	12.322112
1430.000000	12.405282
1429.000000	12.487550
1428.000000	12.583585
1427.000000	12.666417
1426.000000	12.766064
1425.000000	12.878802
1424.000000	13.005871
1423.000000	13.134294
1422.000000	13.251997
1421.000000	13.412131
1420.000000	13.549583
1419.000000	13.681731
1418.000000	13.857551
1417.000000	14.048607
1416.000000	14.175112
1415.000000	14.367634
1414.000000	14.564558
1413.000000	14.766221
1412.000000	14.977138
1411.000000	15.169435
1410.000000	15.395699
1409.000000	15.649499
1408.000000	15.959499
1407.000000	16.248621
1406.000000	16.525442
1405.000000	16.815016
1404.000000	17.196224
1403.000000	17.503063
1402.000000	17.851545
1401.000000	18.139764
1400.000000	18.545235
1399.000000	18.963006
1398.000000	19.314422
1397.000000	19.577137
1396.000000	19.888152
1395.000000	20.326124
1394.000000	20.752585
1393.000000	21.086170
1392.000000	21.418175
1391.000000	21.838993
1390.000000	22.290168
1389.000000	22.677244
1388.000000	23.125598
1387.000000	23.689511
1386.000000	24.210201
1385.000000	24.784496
1384.000000	25.328998
1383.000000	25.953737
1382.000000	26.598337
1381.000000	27.234586
1380.000000	27.815088
1379.000000	28.251141
1378.000000	28.605942
1377.000000	28.922486
1376.000000	29.203258
1375.000000	29.470374
1374.000000	29.763672
1373.000000	30.043992
1372.000000	30.365615
1371.000000	30.748402
1370.000000	31.155566
1369.000000	31.494116
1368.000000	31.848127
1367.000000	32.209699
1366.000000	32.531887
1365.000000	32.773386
1364.000000	33.016127
1363.000000	33.242956
1362.000000	33.468656
1361.000000	33.691987
1360.000000	33.912157
1359.000000	34.040694
1358.000000	34.203988
1357.000000	34.325753
1356.000000	34.486790
1355.000000	34.719149
1354.000000	35.022490
1353.000000	35.422206
1352.000000	35.795853
1351.000000	36.273773
1350.000000	36.796044
1349.000000	37.282202
1348.000000	37.754480
1347.000000	38.198546
1346.000000	38.636969
1345.000000	39.024722
1344.000000	39.413942
1343.000000	39.866246
1342.000000	40.273748
1341.000000	40.646153
1340.000000	41.049706
1339.000000	41.430462
1338.000000	41.809526
1337.000000	42.210821
1336.000000	42.599139
1335.000000	42.970077
1334.000000	43.347223
1333.000000	43.737797
1332.000000	44.106253
1331.000000	44.468389
1330.000000	44.839215
1329.000000	45.183069
1328.000000	45.533131
1327.000000	45.890076
1326.000000	46.236639
1325.000000	46.530839
1324.000000	46.835647
1323.000000	47.164493
1322.000000	47.446731
1321.000000	47.734048
1320.000000	48.011321
1319.000000	48.266475
1318.000000	48.535961
1317.000000	48.797096
1316.000000	49.025618
1315.000000	49.269939
1314.000000	49.493495
1313.000000	49.735897
1312.000000	49.929999
1311.000000	50.131211
1310.000000	50.330279
1309.000000	50.523140
1308.000000	50.700992
1307.000000	50.852437
1306.000000	51.015393
1305.000000	51.178574
1304.000000	51.295148
1303.000000	51.417929
1302.000000	51.515770
1301.000000	51.623655
1300.000000	51.739891
1299.000000	51.825883
1298.000000	51.904313
1297.000000	51.978117
1296.000000	52.044135
1295.000000	52.106202
1294.000000	52.171091
1293.000000	52.215441
1292.000000	52.238689
1291.000000	52.276606
1290.000000	52.304142
1289.000000	52.312944
1288.000000	52.319151
1287.000000	52.320505
1286.000000	52.311815
1285.000000	52.299289
1284.000000	52.273898
1283.000000	52.252795
1282.000000	52.211040
1281.000000	52.173687
1280.000000	52.122340
1279.000000	52.077200
1278.000000	52.042668
1277.000000	52.005653
1276.000000	51.951823
1275.000000	51.906345
1274.000000	51.853531
1273.000000	51.818660
1272.000000	51.778147
1271.000000	51.744292
1270.000000	51.703102
1269.000000	51.663717
1268.000000	51.622752
1267.000000	51.584609
1266.000000	51.536986
1265.000000	51.493087
1264.000000	51.447834
1263.000000	51.407773
1262.000000	51.361617
1261.000000	51.291876
1260.000000	51.234435
1259.000000	51.187376
1258.000000	51.123503
1257.000000	51.053423
1256.000000	50.996095
1255.000000	50.920034
1254.000000	50.836074
1253.000000	50.753806
1252.000000	50.660930
1251.000000	50.583853
1250.000000	50.507680
1249.000000	50.385689
1248.000000	50.266970
1247.000000	50.170032
1246.000000	50.057746
1245.000000	49.941962
1244.000000	49.811394
1243.000000	49.677102
1242.000000	49.534572
1241.000000	49.392720
1240.000000	49.258428
1239.000000	49.110707
1238.000000	48.949444
1237.000000	48.791567
1236.000000	48.632787
1235.000000	48.473104
1234.000000	48.307891
1233.000000	48.129475
1232.000000	47.959184
1231.000000	47.776254
1230.000000	47.570866
1229.000000	47.365028
1228.000000	47.169345
1227.000000	46.978516
1226.000000	46.786332
1225.000000	46.563904
1224.000000	46.337640
1223.000000	46.131462
1222.000000	45.909937
1221.000000	45.693152
1220.000000	45.488329
1219.000000	45.265789
1218.000000	45.049793
1217.000000	44.840005
1216.000000	44.639921
1215.000000	44.464214
1214.000000	44.292230
1213.000000	44.098353
1212.000000	43.913843
1211.000000	43.755515
1210.000000	43.604860
1209.000000	43.444612
1208.000000	43.291813
1207.000000	43.158537
1206.000000	43.020183
1205.000000	42.901577
1204.000000	42.813441
1203.000000	42.724402
1202.000000	42.661319
1201.000000	42.604330
1200.000000	42.559980
1199.000000	42.508859
1198.000000	42.434829
1197.000000	42.340937
1196.000000	42.222558
1195.000000	42.066824
1194.000000	41.870014
1193.000000	41.619825
1192.000000	41.320772
1191.000000	40.963150
1190.000000	40.547297
1189.000000	40.146904
1188.000000	39.771226
1187.000000	39.426469
1186.000000	39.197157
1185.000000	39.074150
1184.000000	39.071668
1183.000000	39.195577
1182.000000	39.466643
1181.000000	39.855525
1180.000000	40.321483
1179.000000	40.830325
1178.000000	41.349887
1177.000000	41.848685
1176.000000	42.324349
1175.000000	42.748891
1174.000000	43.120845
1173.000000	43.478129
1172.000000	43.817356
1171.000000	44.168659
1170.000000	44.528651
1169.000000	44.888079
1168.000000	45.262516
1167.000000	45.647335
1166.000000	46.034750
1165.000000	46.445750
1164.000000	46.844563
1163.000000	47.289079
1162.000000	47.722988
1161.000000	48.161524
1160.000000	48.598254
1159.000000	49.044690
1158.000000	49.500153
1157.000000	49.931918
1156.000000	50.351946
1155.000000	50.749969
1154.000000	51.123164
1153.000000	51.441515
1152.000000	51.718675
1151.000000	51.965930
1150.000000	52.167706
1149.000000	52.380316
1148.000000	52.584913
1147.000000	52.780821
1146.000000	53.014082
1145.000000	53.292709
1144.000000	53.611737
1143.000000	53.990123
1142.000000	54.451681
1141.000000	54.941563
1140.000000	55.462818
1139.000000	56.013301
1138.000000	56.580938
1137.000000	57.145527
1136.000000	57.765413
1135.000000	58.425474
1134.000000	59.097271
1133.000000	59.767601
1132.000000	60.330272
1131.000000	60.896667
1130.000000	61.387002
1129.000000	61.821023
1128.000000	62.212952
1127.000000	62.557032
1126.000000	62.842995
1125.000000	63.055830
1124.000000	63.226460
1123.000000	63.422367
1122.000000	63.526754
1121.000000	63.656193
1120.000000	63.755163
1119.000000	63.847474
1118.000000	63.909993
1117.000000	63.948926
1116.000000	63.988875
1115.000000	64.006593
1114.000000	64.041915
1113.000000	64.048460
1112.000000	64.050040
1111.000000	64.066629
1110.000000	64.065952
1109.000000	64.079268
1108.000000	64.074077
1107.000000	64.062905
1106.000000	64.075544
1105.000000	64.085024
1104.000000	64.079043
1103.000000	64.097099
1102.000000	64.095857
1101.000000	64.088071
1100.000000	64.082202
1099.000000	64.075657
1098.000000	64.052974
1097.000000	64.043946
1096.000000	64.010655
1095.000000	64.018668
1094.000000	63.984813
1093.000000	63.958293
1092.000000	63.917780
1091.000000	63.898482
1090.000000	63.866997
1089.000000	63.819939
1088.000000	63.778184
1087.000000	63.704380
1086.000000	63.653259
1085.000000	63.612407
1084.000000	63.559819
1083.000000	63.491093
1082.000000	63.422819
1081.000000	63.388400
1080.000000	63.321479
1079.000000	63.240566
1078.000000	63.200165
1077.000000	63.116769
1076.000000	63.066099
1075.000000	62.995004
1074.000000	62.918266
1073.000000	62.833741
1072.000000	62.789165
1071.000000	62.713668
1070.000000	62.642686
1069.000000	62.559966
1068.000000	62.474539
1067.000000	62.424546
1066.000000	62.323432
1065.000000	62.248613
1064.000000	62.178871
1063.000000	62.094572
1062.000000	62.017834
1061.000000	61.921460
1060.000000	61.843819
1059.000000	61.757376
1058.000000	61.689327
1057.000000	61.576928
1056.000000	61.465207
1055.000000	61.376281
1054.000000	61.283969
1053.000000	61.231833
1052.000000	61.092688
1051.000000	61.011210
1050.000000	60.917545
1049.000000	60.827377
1048.000000	60.757410
1047.000000	60.669162
1046.000000	60.582380
1045.000000	60.517265
1044.000000	60.414459
1043.000000	60.330498
1042.000000	60.268882
1041.000000	60.178150
1040.000000	60.092723
1039.000000	60.015082
1038.000000	59.947485
1037.000000	59.840164
1036.000000	59.765119
1035.000000	59.651140
1034.000000	59.564133
1033.000000	59.484799
1032.000000	59.362921
1031.000000	59.274785
1030.000000	59.174009
1029.000000	59.096820
1028.000000	58.998415
1027.000000	58.883984
1026.000000	58.747887
1025.000000	58.675212
1024.000000	58.565183
1023.000000	58.436421
1022.000000	58.351219
1021.000000	58.238256
1020.000000	58.122246
1019.000000	58.029031
1018.000000	57.910539
1017.000000	57.812811
1016.000000	57.735734
1015.000000	57.644438
1014.000000	57.549080
1013.000000	57.504165
1012.000000	57.419415
1011.000000	57.377547
1010.000000	57.324621
1009.000000	57.268534
1008.000000	57.254089
1007.000000	57.219106
1006.000000	57.174191
1005.000000	57.152750
1004.000000	57.136274
1003.000000	57.103321
1002.000000	57.078156
1001.000000	57.064727
1000.000000	57.043172
999.000000	57.035611
998.000000	57.007737
997.000000	56.974221
996.000000	56.946121
995.000000	56.937206
994.000000	56.933820
993.000000	56.929645
992.000000	56.910912
991.000000	56.914749
990.000000	56.889245
989.000000	56.906962
988.000000	56.896016
987.000000	56.904592
986.000000	56.926937
985.000000	56.932692
984.000000	56.944880
983.000000	56.978622
982.000000	56.999612
981.000000	57.002772
980.000000	57.022746
979.000000	57.070708
978.000000	57.094068
977.000000	57.110770
976.000000	57.138418
975.000000	57.173401
974.000000	57.215607
973.000000	57.244271
972.000000	57.268421
971.000000	57.314916
970.000000	57.339065
969.000000	57.368858
968.000000	57.401697
967.000000	57.436117
966.000000	57.463201
965.000000	57.530008
964.000000	57.583386
963.000000	57.603248
962.000000	57.659899
961.000000	57.727383
960.000000	57.789789
959.000000	57.856709
958.000000	57.915391
957.000000	57.988293
956.000000	58.042235
955.000000	58.084441
954.000000	58.157568
953.000000	58.228325
952.000000	58.287346
951.000000	58.340949
950.000000	58.393425
949.000000	58.450978
948.000000	58.510225
947.000000	58.552656
946.000000	58.589671
945.000000	58.649595
944.000000	58.694396
943.000000	58.715386
942.000000	58.731185
941.000000	58.771473
940.000000	58.787498
939.000000	58.775197
938.000000	58.785579
937.000000	58.822143
936.000000	58.825302
935.000000	58.820676
934.000000	58.829704
933.000000	58.830268
932.000000	58.831509
931.000000	58.856336
930.000000	58.855772
929.000000	58.846631
928.000000	58.836136
927.000000	58.841553
926.000000	58.837264
925.000000	58.819321
924.000000	58.795284
923.000000	58.764250
922.000000	58.762219
921.000000	58.738182
920.000000	58.707035
919.000000	58.675099
918.000000	58.622962
917.000000	58.584931
916.000000	58.539679
915.000000	58.476257
914.000000	58.429988
913.000000	58.379657
912.000000	58.315897
911.000000	58.258230
910.000000	58.204288
909.000000	58.148878
908.000000	58.119086
907.000000	58.094372
906.000000	58.054084
905.000000	58.018085
904.000000	58.001609
903.000000	57.988405
902.000000	57.936946
901.000000	57.910426
900.000000	57.892708
899.000000	57.901511
898.000000	57.906363
897.000000	57.902752
896.000000	57.874088
895.000000	57.814052
894.000000	57.794190
893.000000	57.783582
892.000000	57.763834
891.000000	57.712938
890.000000	57.647824
889.000000	57.618708
888.000000	57.544227
887.000000	57.480580
886.000000	57.412644
885.000000	57.351592
884.000000	57.255895
883.000000	57.186831
882.000000	57.114494
881.000000	56.995662
880.000000	56.922761
879.000000	56.782940
878.000000	56.645601
877.000000	56.527898
876.000000	56.336279
875.000000	56.138791
874.000000	55.913203
873.000000	55.663804
872.000000	55.470379
871.000000	55.389240
870.000000	55.396688
869.000000	55.409779
868.000000	55.473990
867.000000	55.522290
866.000000	55.537412
865.000000	55.575217
864.000000	55.611216
863.000000	55.633448
862.000000	55.645636
861.000000	55.654212
860.000000	55.662563
859.000000	55.685246
858.000000	55.705333
857.000000	54.700100
856.000000	56.196000
855.000000	56.219900
854.000000	55.979900
853.000000	55.638300
852.000000	56.152200
851.000000	55.766000
850.000000	55.620700
849.000000	56.001200
848.000000	56.230100
847.000000	56.237800
846.000000	55.968700
845.000000	55.952600
844.000000	55.857100
843.000000	56.056100
842.000000	55.640000
841.000000	55.730300
840.000000	55.908400
839.000000	55.733900
838.000000	55.695900
837.000000	55.637200
836.000000	55.796900
835.000000	55.735000
834.000000	55.580400
833.000000	55.816400
832.000000	55.551400
831.000000	55.360100
830.000000	55.467300
829.000000	55.319500
828.000000	55.346400
827.000000	55.225300
826.000000	55.216600
825.000000	55.094700
824.000000	55.005500
823.000000	54.919900
822.000000	54.999800
821.000000	54.890100
820.000000	54.814000
819.000000	54.861400
818.000000	54.824400
817.000000	54.733400
816.000000	54.647200
815.000000	54.764400
814.000000	54.395300
813.000000	54.430700
812.000000	54.433200
811.000000	54.210700
810.000000	54.123100
809.000000	54.124400
808.000000	54.031700
807.000000	54.097800
806.000000	54.034600
805.000000	53.875000
804.000000	53.747800
803.000000	53.715000
802.000000	53.761500
801.000000	53.505000
800.000000	53.492900
799.000000	53.512000
798.000000	53.252600
797.000000	53.329700
796.000000	53.208000
795.000000	52.979600
794.000000	52.815200
793.000000	52.937100
792.000000	52.785200
791.000000	52.707700
790.000000	52.626500
789.000000	52.384500
788.000000	52.386800
787.000000	52.427900
786.000000	52.343800
785.000000	52.191400
784.000000	52.133700
783.000000	52.057600
782.000000	51.871700
781.000000	52.019000
780.000000	51.652300
779.000000	51.583500
778.000000	51.521100
777.000000	51.341400
776.000000	51.230500
775.000000	51.070600
774.000000	51.067700
773.000000	50.915800
772.000000	50.785900
771.000000	50.738900
770.000000	50.627200
769.000000	50.512800
768.000000	50.314600
767.000000	50.237500
766.000000	50.035300
765.000000	49.859000
764.000000	49.777700
763.000000	49.681500
762.000000	49.491300
761.000000	49.428800
760.000000	49.257000
759.000000	49.153100
758.000000	48.935800
757.000000	48.885500
756.000000	48.707800
755.000000	48.474400
754.000000	48.367900
753.000000	48.256700
752.000000	48.127200
751.000000	47.965500
750.000000	47.829800
749.000000	47.626300
748.000000	47.488800
747.000000	47.301300
746.000000	47.142700
745.000000	47.014000
744.000000	46.812700
743.000000	46.640000
742.000000	46.380000
741.000000	46.208300
740.000000	45.898500
739.000000	45.688600
738.000000	45.519800
737.000000	45.273900
736.000000	45.102400
735.000000	44.966700
734.000000	44.783700
733.000000	44.555900
732.000000	44.257000
731.000000	44.037300
730.000000	43.839900
729.000000	43.606800
728.000000	43.317600
727.000000	43.066400
726.000000	42.807200
725.000000	42.527400
724.000000	42.294300
723.000000	42.014800
722.000000	41.750800
721.000000	41.517100
720.000000	41.197200
719.000000	40.895800
718.000000	40.575800
717.000000	40.360000
716.000000	40.136800
715.000000	39.857600
714.000000	39.557200
713.000000	39.266900
712.000000	38.935600
711.000000	38.722100
710.000000	38.422600
709.000000	38.141900
708.000000	37.916500
707.000000	37.613300
706.000000	37.324700
705.000000	37.064000
704.000000	36.821800
703.000000	36.547800
702.000000	36.268500
701.000000	35.975500
700.000000	35.748600
699.000000	35.514000
698.000000	35.247200
697.000000	34.978100
696.000000	34.771300
695.000000	34.537200
694.000000	34.307800
693.000000	34.063800
692.000000	33.850000
691.000000	33.614900
690.000000	33.405300
689.000000	33.170800
688.000000	32.954800
687.000000	32.711100
686.000000	32.519100
685.000000	32.341300
684.000000	32.142600
683.000000	31.955000
682.000000	31.762600
681.000000	31.551900
680.000000	31.373700
679.000000	31.191800
678.000000	31.012700
677.000000	30.871500
676.000000	30.723800
675.000000	30.544100
674.000000	30.392000
673.000000	30.231600
672.000000	30.077300
671.000000	29.920400
670.000000	29.737000
669.000000	29.586300
668.000000	29.447100
667.000000	29.313600
666.000000	29.181600
665.000000	29.056000
664.000000	28.924400
663.000000	28.800300
662.000000	28.663900
661.000000	28.570300
660.000000	28.471800
659.000000	28.311300
658.000000	28.201700
657.000000	28.092200
656.000000	27.991900
655.000000	27.881700
654.000000	27.775400
653.000000	27.688400
652.000000	27.599200
651.000000	27.501700
650.000000	27.410800
649.000000	27.341000
648.000000	27.290300
647.000000	27.226300
646.000000	27.132700
645.000000	27.068900
644.000000	27.008800
643.000000	26.926700
642.000000	26.883500
641.000000	26.844900
640.000000	26.797300
639.000000	26.747500
638.000000	26.697900
637.000000	26.683800
636.000000	26.660400
635.000000	26.638400
634.000000	26.623300
633.000000	26.599200
632.000000	26.598100
631.000000	26.591000
630.000000	26.566100
629.000000	26.560700
628.000000	26.570100
627.000000	26.593000
626.000000	26.631600
625.000000	26.658700
624.000000	26.674700
623.000000	26.695700
622.000000	26.733100
621.000000	26.775100
620.000000	26.826800
619.000000	26.885900
618.000000	26.949500
617.000000	27.016600
616.000000	27.053400
615.000000	27.131300
614.000000	27.234900
613.000000	27.318100
612.000000	27.396800
611.000000	27.500900
610.000000	27.584700
609.000000	27.664600
608.000000	27.758100
607.000000	27.848400
606.000000	27.958100
605.000000	28.060100
604.000000	28.145500
603.000000	28.259000
602.000000	28.364900
601.000000	28.483100
600.000000	28.590400
599.000000	28.687100
598.000000	28.778600
597.000000	28.883200
596.000000	28.975600
595.000000	29.076000
594.000000	29.178000
593.000000	29.284600
592.000000	29.359900
591.000000	29.447800
590.000000	29.537600
589.000000	29.613700
588.000000	29.693400
587.000000	29.770300
586.000000	29.823600
585.000000	29.861700
584.000000	29.915200
583.000000	29.971300
582.000000	30.004200
581.000000	30.020800
580.000000	30.071300
579.000000	30.104600
578.000000	30.122100
577.000000	30.134700
576.000000	30.128700
575.000000	30.119100
574.000000	30.113500
573.000000	30.078100
572.000000	30.046200
571.000000	30.016500
570.000000	29.988500
569.000000	29.939500
568.000000	29.879200
567.000000	29.802400
566.000000	29.750200
565.000000	29.667900
564.000000	29.593500
563.000000	29.490700
562.000000	29.387600
561.000000	29.274400
560.000000	29.167400
559.000000	29.042000
558.000000	28.906400
557.000000	28.746200
556.000000	28.617100
555.000000	28.487900
554.000000	28.313400
553.000000	28.180500
552.000000	27.995500
551.000000	27.814700
550.000000	27.616400
549.000000	27.420000
548.000000	27.233700
547.000000	27.024300
546.000000	26.809600
545.000000	26.614700
544.000000	26.387600
543.000000	26.136500
542.000000	25.887900
541.000000	25.629600
540.000000	25.386000
539.000000	25.135900
538.000000	24.863700
537.000000	24.593500
536.000000	24.342900
535.000000	24.052300
534.000000	23.761300
533.000000	23.460100
532.000000	23.165500
531.000000	22.856100
530.000000	22.557400
529.000000	22.252100
528.000000	21.949400
527.000000	21.633200
526.000000	21.319800
525.000000	20.999300
524.000000	20.661100
523.000000	20.363100
522.000000	20.040900
521.000000	19.708700
520.000000	19.431700
519.000000	19.125900
518.000000	18.805400
517.000000	18.501600
516.000000	18.209800
515.000000	17.930600
514.000000	17.628700
513.000000	17.353900
512.000000	17.085400
511.000000	16.837800
510.000000	16.568400
509.000000	16.332300
508.000000	16.105900
507.000000	15.858100
506.000000	15.665200
505.000000	15.446800
504.000000	15.233200
503.000000	15.045700
502.000000	14.850200
501.000000	14.673500
500.000000	14.491900
499.000000	14.335900
498.000000	14.181600
497.000000	14.023000
496.000000	13.897100
495.000000	13.754000
494.000000	13.631600
493.000000	13.523500
492.000000	13.391500
491.000000	13.280000
490.000000	13.168600
489.000000	13.079500
488.000000	12.990700
487.000000	12.902400
486.000000	12.794400
485.000000	12.717200
484.000000	12.651200
483.000000	12.533300
482.000000	12.468700
481.000000	12.354300
480.000000	12.284800
479.000000	12.165900
478.000000	12.070000
477.000000	12.008600
476.000000	11.908300
475.000000	11.821400
474.000000	11.715000
473.000000	11.646700
472.000000	11.570000
471.000000	11.476900
470.000000	11.399400
469.000000	11.333500
468.000000	11.248900
467.000000	11.178500
466.000000	11.097900
465.000000	11.021400
464.000000	10.980400
463.000000	10.917800
462.000000	10.848600
461.000000	10.782600
460.000000	10.719000
459.000000	10.642500
458.000000	10.601000
457.000000	10.533600
456.000000	10.481900
455.000000	10.445400
454.000000	10.376600
453.000000	10.345400
452.000000	10.269600
451.000000	10.221000
450.000000	10.176300
449.000000	10.137100
448.000000	10.087100
447.000000	10.030600
446.000000	9.970600
445.000000	9.921200
444.000000	9.888700
443.000000	9.822100
442.000000	9.779200
441.000000	9.718900
440.000000	9.656900
439.000000	9.623700
438.000000	9.566300
437.000000	9.532300
436.000000	9.467700
435.000000	9.410000
434.000000	9.354700
433.000000	9.301400
432.000000	9.251400
431.000000	9.169200
430.000000	9.124400
429.000000	9.087200
428.000000	9.039400
427.000000	8.953200
426.000000	8.935800
425.000000	8.889900
424.000000	8.857200
423.000000	8.806400
422.000000	8.742000
421.000000	8.680900
420.000000	8.626500
419.000000	8.569900
418.000000	8.504500
417.000000	8.451500
416.000000	8.379500
415.000000	8.328900
414.000000	8.280400
413.000000	8.223700
412.000000	8.151300
411.000000	8.095100
410.000000	8.025900
409.000000	7.965200
408.000000	7.890600
407.000000	7.836800
406.000000	7.743500
405.000000	7.673200
404.000000	7.600700
403.000000	7.545800
402.000000	7.469600
401.000000	7.392600
400.000000	7.294900
399.000000	7.249900
398.000000	7.181400
397.000000	7.086600
396.000000	6.997100
395.000000	6.941900
394.000000	6.862000
393.000000	6.760900
392.000000	6.658200
391.000000	6.576400
390.000000	6.498700
389.000000	6.428100
388.000000	6.352400
387.000000	6.289000
386.000000	6.227000
385.000000	6.137900
384.000000	6.055500
383.000000	6.006700
382.000000	5.951600
381.000000	5.877100
380.000000	5.812900
379.000000	5.734600
378.000000	5.662900
377.000000	5.651200
376.000000	5.622300
375.000000	5.338200
374.000000	4.851900
373.000000	4.819900
372.000000	4.875700
371.000000	5.048600
370.000000	5.070900
369.000000	5.166400
368.000000	5.056300
367.000000	4.914600
366.000000	5.037900
365.000000	5.017900
364.000000	5.100800
363.000000	5.071400
362.000000	4.970900
361.000000	5.034200
360.000000	5.028300
359.000000	4.976700
358.000000	4.986900
357.000000	4.993200
356.000000	4.909800
355.000000	4.954400
354.000000	5.074600
353.000000	5.099800
352.000000	5.086000
351.000000	5.047900
350.000000	5.055400
349.000000	4.952600
348.000000	4.927600
347.000000	5.005500
346.000000	4.912300
345.000000	4.922400
344.000000	4.999400
343.000000	4.887300
342.000000	4.916100
341.000000	4.947200
340.000000	5.005600
339.000000	5.114500
338.000000	4.943000
337.000000	4.679200
336.000000	4.848600
335.000000	5.001100
334.000000	4.982200
333.000000	4.803500
332.000000	4.899700
331.000000	5.328600
330.000000	5.213900
329.000000	4.938700
328.000000	5.271000
327.000000	5.563700
326.000000	5.202200
325.000000	5.178900
324.000000	5.465800
323.000000	5.718000
322.000000	5.876400
321.000000	5.942600
320.000000	6.204000
319.000000	6.357400
318.000000	5.956300
317.000000	5.580300
316.000000	5.158800
315.000000	4.877900
314.000000	4.868000
313.000000	4.855800
312.000000	4.850700
311.000000	4.875600
310.000000	4.877300
309.000000	4.862700
308.000000	4.890300
307.000000	4.882600
306.000000	4.894700
305.000000	4.921900
304.000000	4.922700
303.000000	4.903600
302.000000	4.905700
301.000000	4.918600
300.000000	4.933800
299.000000	4.921200
298.000000	4.942500
297.000000	4.950700
296.000000	4.921800
295.000000	4.947400
294.000000	4.909100
293.000000	4.907100
292.000000	4.911100
291.000000	4.911200
290.000000	4.977300
289.000000	4.971700
288.000000	4.977600
287.000000	4.995100
286.000000	4.962700
285.000000	4.954400
284.000000	4.975200
283.000000	4.948900
282.000000	4.975700
281.000000	4.977100
280.000000	4.968200
279.000000	4.992200
278.000000	5.033000
277.000000	5.058700
276.000000	5.062400
275.000000	5.040000
274.000000	5.059100
273.000000	5.037700
272.000000	5.039100
271.000000	5.104000
270.000000	5.095600
269.000000	5.094200
268.000000	5.121700
267.000000	5.158400
266.000000	5.136600
265.000000	5.178700
264.000000	5.180600
263.000000	5.214000
262.000000	5.223100
261.000000	5.223400
260.000000	5.271100
259.000000	5.322100
258.000000	5.304500
257.000000	5.356500
256.000000	5.353900
255.000000	5.363800
254.000000	5.399000
253.000000	5.428000
252.000000	5.440900
251.000000	5.413400
250.000000	5.427500
