343ms
0ms
NA
NA
Counts
6/17/2024 4:05:35 PM
10.00000000
0.00000000
Resolution=2&-1
Time1=343ms:Average1=10:Objective=NA:Aperture=NA: (6/17/2024 4:05:35 PM)
350.16613620	350.60193709	351.03772818	351.47350942	351.90928082	352.34504234	352.78079397	353.21653569	353.65226748	354.08798932	354.52370120	354.95940309	355.39509497	355.83077683	356.26644864	356.70211039	357.13776206	357.57340363	358.00903508	358.44465639	358.88026755	359.31586852	359.75145930	360.18703986	360.62261019	361.05817026	361.49372007	361.92925958	362.36478878	362.80030765	363.23581617	363.67131432	364.10680209	364.54227945	364.97774638	365.41320287	365.84864890	366.28408445	366.71950949	367.15492401	367.59032800	368.02572142	368.46110427	368.89647652	369.33183815	369.76718915	370.20252950	370.63785917	371.07317815	371.50848642	371.94378395	372.37907074	372.81434676	373.24961199	373.68486642	374.12011002	374.55534277	374.99056467	375.42577567	375.86097578	376.29616497	376.73134321	377.16651050	377.60166680	378.03681211	378.47194641	378.90706966	379.34218187	379.77728300	380.21237303	380.64745196	381.08251975	381.51757640	381.95262187	382.38765616	382.82267924	383.25769109	383.69269170	384.12768105	384.56265911	384.99762586	385.43258130	385.86752540	386.30245813	386.73737949	387.17228945	387.60718799	388.04207509	388.47695074	388.91181492	389.34666760	389.78150877	390.21633841	390.65115650	391.08596302	391.52075795	391.95554127	392.39031297	392.82507302	393.25982140	393.69455810	394.12928310	394.56399638	394.99869791	395.43338769	395.86806568	396.30273188	396.73738625	397.17202880	397.60665948	398.04127829	398.47588521	398.91048022	399.34506329	399.77963441	400.21419356	400.64874072	401.08327588	401.51779900	401.95231008	402.38680910	402.82129603	403.25577086	403.69023356	404.12468412	404.55912252	404.99354874	405.42796276	405.86236457	406.29675414	406.73113145	407.16549648	407.59984922	408.03418965	408.46851774	408.90283349	409.33713686	409.77142784	410.20570642	410.63997256	411.07422626	411.50846749	411.94269624	412.37691248	412.81111621	413.24530738	413.67948600	414.11365204	414.54780547	414.98194629	415.41607447	415.85018999	416.28429284	416.71838299	417.15246043	417.58652514	418.02057709	418.45461627	418.88864266	419.32265625	419.75665700	420.19064491	420.62461995	421.05858210	421.49253135	421.92646768	422.36039106	422.79430148	423.22819892	423.66208336	424.09595478	424.52981316	424.96365849	425.39749074	425.83130989	426.26511593	426.69890883	427.13268858	427.56645516	428.00020855	428.43394873	428.86767568	429.30138939	429.73508982	430.16877697	430.60245081	431.03611133	431.46975851	431.90339232	432.33701276	432.77061979	433.20421340	433.63779357	434.07136029	434.50491352	434.93845327	435.37197949	435.80549219	436.23899132	436.67247689	437.10594887	437.53940723	437.97285197	438.40628306	438.83970048	439.27310421	439.70649424	440.13987054	440.57323310	441.00658189	441.43991690	441.87323811	442.30654551	442.73983906	443.17311875	443.60638457	444.03963649	444.47287449	444.90609856	445.33930868	445.77250482	446.20568697	446.63885511	447.07200922	447.50514928	447.93827527	448.37138718	448.80448497	449.23756865	449.67063818	450.10369354	450.53673472	450.96976170	451.40277446	451.83577298	452.26875725	452.70172723	453.13468291	453.56762428	454.00055132	454.43346400	454.86636230	455.29924622	455.73211572	456.16497079	456.59781142	457.03063757	457.46344923	457.89624639	458.32902903	458.76179711	459.19455064	459.62728958	460.06001392	460.49272363	460.92541871	461.35809913	461.79076486	462.22341591	462.65605223	463.08867382	463.52128065	463.95387271	464.38644998	464.81901243	465.25156005	465.68409283	466.11661073	466.54911374	466.98160185	467.41407503	467.84653327	468.27897654	468.71140483	469.14381811	469.57621637	470.00859960	470.44096776	470.87332084	471.30565882	471.73798169	472.17028942	472.60258200	473.03485940	473.46712160	473.89936860	474.33160036	474.76381687	475.19601811	475.62820407	476.06037471	476.49253003	476.92467000	477.35679461	477.78890383	478.22099765	478.65307605	479.08513900	479.51718650	479.94921851	480.38123503	480.81323602	481.24522149	481.67719139	482.10914572	482.54108446	482.97300758	483.40491507	483.83680691	484.26868308	484.70054356	485.13238833	485.56421738	485.99603067	486.42782820	486.85960995	487.29137589	487.72312601	488.15486029	488.58657870	489.01828124	489.44996788	489.88163860	490.31329338	490.74493220	491.17655505	491.60816190	492.03975274	492.47132755	492.90288631	493.33442899	493.76595559	494.19746607	494.62896043	495.06043864	495.49190069	495.92334655	496.35477620	496.78618963	497.21758682	497.64896774	498.08033239	498.51168074	498.94301276	499.37432845	499.80562778	500.23691074	500.66817730	501.09942745	501.53066116	501.96187842	502.39307921	502.82426351	503.25543130	503.68658256	504.11771727	504.54883542	504.97993698	505.41102193	505.84209026	506.27314195	506.70417698	507.13519532	507.56619696	507.99718189	508.42815007	508.85910150	509.29003615	509.72095401	510.15185505	510.58273926	511.01360661	511.44445709	511.87529069	512.30610737	512.73690712	513.16768992	513.59845576	514.02920461	514.45993645	514.89065127	515.32134905	515.75202976	516.18269339	516.61333992	517.04396933	517.47458160	517.90517671	518.33575465	518.76631539	519.19685891	519.62738520	520.05789424	520.48838600	520.91886048	521.34931764	521.77975747	522.21017995	522.64058507	523.07097279	523.50134312	523.93169601	524.36203147	524.79234945	525.22264996	525.65293297	526.08319845	526.51344640	526.94367678	527.37388959	527.80408480	528.23426240	528.66442236	529.09456467	529.52468930	529.95479624	530.38488547	530.81495697	531.24501072	531.67504671	532.10506490	532.53506529	532.96504785	533.39501257	533.82495942	534.25488839	534.68479946	535.11469261	535.54456782	535.97442507	536.40426434	536.83408561	537.26388887	537.69367409	538.12344125	538.55319035	538.98292135	539.41263423	539.84232899	540.27200560	540.70166404	541.13130429	541.56092633	541.99053015	542.42011572	542.84968303	543.27923205	543.70876277	544.13827517	544.56776923	544.99724493	545.42670225	545.85614117	546.28556168	546.71496375	547.14434736	547.57371250	548.00305915	548.43238728	548.86169688	549.29098794	549.72026042	550.14951431	550.57874960	551.00796626	551.43716427	551.86634362	552.29550429	552.72464625	553.15376949	553.58287399	554.01195973	554.44102669	554.87007485	555.29910419	555.72811470	556.15710635	556.58607912	557.01503300	557.44396797	557.87288401	558.30178110	558.73065921	559.15951834	559.58835846	560.01717955	560.44598160	560.87476458	561.30352847	561.73227326	562.16099893	562.58970546	563.01839282	563.44706101	563.87571000	564.30433977	564.73295030	565.16154157	565.59011358	566.01866628	566.44719967	566.87571373	567.30420844	567.73268378	568.16113973	568.58957627	569.01799338	569.44639105	569.87476924	570.30312796	570.73146717	571.15978685	571.58808700	572.01636758	572.44462858	572.87286998	573.30109177	573.72929391	574.15747640	574.58563922	575.01378234	575.44190574	575.87000941	576.29809333	576.72615748	577.15420184	577.58222639	578.01023111	578.43821598	578.86618099	579.29412611	579.72205133	580.14995662	580.57784197	581.00570736	581.43355276	581.86137817	582.28918356	582.71696890	583.14473420	583.57247941	584.00020453	584.42790954	584.85559441	585.28325913	585.71090368	586.13852803	586.56613218	586.99371610	587.42127977	587.84882317	588.27634629	588.70384910	589.13133159	589.55879373	589.98623551	590.41365691	590.84105791	591.26843849	591.69579863	592.12313831	592.55045752	592.97775623	593.40503442	593.83229208	594.25952919	594.68674573	595.11394167	595.54111700	595.96827171	596.39540576	596.82251915	597.24961185	597.67668385	598.10373512	598.53076564	598.95777541	599.38476439	599.81173257	600.23867993	600.66560645	601.09251211	601.51939690	601.94626078	602.37310376	602.79992580	603.22672688	603.65350699	604.08026611	604.50700422	604.93372130	605.36041733	605.78709229	606.21374616	606.64037893	607.06699057	607.49358107	607.92015040	608.34669856	608.77322551	609.19973124	609.62621572	610.05267896	610.47912091	610.90554156	611.33194090	611.75831891	612.18467556	612.61101083	613.03732472	613.46361719	613.88988823	614.31613782	614.74236595	615.16857258	615.59475771	616.02092131	616.44706337	616.87318386	617.29928278	617.72536008	618.15141577	618.57744982	619.00346220	619.42945291	619.85542192	620.28136922	620.70729478	621.13319858	621.55908061	621.98494085	622.41077927	622.83659587	623.26239061	623.68816348	624.11391447	624.53964355	624.96535070	625.39103591	625.81669915	626.24234041	626.66795966	627.09355689	627.51913209	627.94468522	628.37021627	628.79572523	629.22121207	629.64667677	630.07211931	630.49753969	630.92293786	631.34831383	631.77366756	632.19899905	632.62430826	633.04959519	633.47485980	633.90010209	634.32532203	634.75051961	635.17569481	635.60084760	636.02597797	636.45108589	636.87617136	637.30123435	637.72627483	638.15129281	638.57628824	639.00126112	639.42621142	639.85113913	640.27604422	640.70092669	641.12578650	641.55062364	641.97543809	642.40022983	642.82499885	643.24974512	643.67446862	644.09916934	644.52384726	644.94850235	645.37313460	645.79774399	646.22233050	646.64689411	647.07143480	647.49595255	647.92044735	648.34491917	648.76936800	649.19379381	649.61819659	650.04257632	650.46693298	650.89126655	651.31557701	651.73986434	652.16412852	652.58836954	653.01258737	653.43678200	653.86095340	654.28510156	654.70922646	655.13332808	655.55740640	655.98146140	656.40549307	656.82950137	657.25348630	657.67744784	658.10138596	658.52530064	658.94919188	659.37305964	659.79690391	660.22072468	660.64452191	661.06829560	661.49204572	661.91577225	662.33947518	662.76315449	663.18681015	663.61044215	664.03405047	664.45763509	664.88119598	665.30473314	665.72824655	666.15173617	666.57520200	666.99864402	667.42206220	667.84545653	668.26882699	668.69217355	669.11549621	669.53879494	669.96206971	670.38532052	670.80854735	671.23175017	671.65492896	672.07808371	672.50121440	672.92432101	673.34740351	673.77046190	674.19349615	674.61650623	675.03949215	675.46245386	675.88539136	676.30830463	676.73119364	677.15405838	677.57689882	677.99971496	678.42250677	678.84527423	679.26801732	679.69073602	680.11343032	680.53610019	680.95874562	681.38136658	681.80396307	682.22653505	682.64908251	683.07160543	683.49410379	683.91657758	684.33902677	684.76145134	685.18385128	685.60622656	686.02857717	686.45090309	686.87320430	687.29548077	687.71773250	688.13995946	688.56216163	688.98433899	689.40649153	689.82861923	690.25072206	690.67280001	691.09485305	691.51688118	691.93888436	692.36086259	692.78281583	693.20474408	693.62664732	694.04852552	694.47037866	694.89220673	695.31400971	695.73578757	696.15754031	696.57926789	697.00097031	697.42264753	697.84429955	698.26592635	698.68752790	699.10910418	699.53065518	699.95218088	700.37368126	700.79515630	701.21660597	701.63803027	702.05942917	702.48080265	702.90215070	703.32347329	703.74477041	704.16604204	704.58728815	705.00850873	705.42970376	705.85087322	706.27201710	706.69313536	707.11422800	707.53529499	707.95633632	708.37735196	708.79834190	709.21930612	709.64024460	710.06115731	710.48204425	710.90290539	711.32374071	711.74455020	712.16533383	712.58609158	713.00682344	713.42752939	713.84820941	714.26886347	714.68949157	715.11009368	715.53066977	715.95121984	716.37174387	716.79224183	717.21271370	717.63315947	718.05357912	718.47397263	718.89433997	719.31468114	719.73499610	720.15528485	720.57554736	720.99578362	721.41599360	721.83617729	722.25633466	722.67646570	723.09657039	723.51664871	723.93670063	724.35672615	724.77672524	725.19669789	725.61664407	726.03656376	726.45645695	726.87632362	727.29616374	727.71597730	728.13576429	728.55552467	728.97525843	729.39496556	729.81464603	730.23429983	730.65392692	731.07352731	731.49310096	731.91264786	732.33216799	732.75166133	733.17112786	733.59056756	734.00998042	734.42936640	734.84872550	735.26805770	735.68736298	736.10664131	736.52589267	736.94511706	737.36431445	737.78348482	738.20262815	738.62174442	739.04083362	739.45989572	739.87893071	740.29793856	740.71691926	741.13587279	741.55479913	741.97369826	742.39257016	742.81141481	743.23023219	743.64902229	744.06778508	744.48652055	744.90522868	745.32390944	745.74256282	746.16118880	746.57978736	746.99835849	747.41690215	747.83541834	748.25390703	748.67236821	749.09080185	749.50920794	749.92758646	750.34593739	750.76426070	751.18255639	751.60082443	752.01906480	752.43727748	752.85546246	753.27361971	753.69174922	754.10985097	754.52792493	754.94597109	755.36398944	755.78197994	756.19994258	756.61787735	757.03578422	757.45366318	757.87151420	758.28933727	758.70713236	759.12489946	759.54263856	759.96034962	760.37803263	760.79568758	761.21331443	761.63091318	762.04848381	762.46602629	762.88354061	763.30102674	763.71848468	764.13591439	764.55331586	764.97068908	765.38803401	765.80535065	766.22263898	766.63989896	767.05713060	767.47433386	767.89150873	768.30865518	768.72577321	769.14286278	769.55992389	769.97695651	770.39396062	770.81093621	771.22788325	771.64480173	772.06169163	772.47855292	772.89538559	773.31218962	773.72896499	774.14571169	774.56242968	774.97911896	775.39577950	775.81241129	776.22901431	776.64558853	777.06213394	777.47865052	777.89513825	778.31159710	778.72802708	779.14442814	779.56080028	779.97714347	780.39345769	780.80974294	781.22599918	781.64222640	782.05842457	782.47459369	782.89073373	783.30684467	783.72292649	784.13897918	784.55500271	784.97099707	785.38696224	785.80289819	786.21880491	786.63468238	787.05053057	787.46634949	787.88213909	788.29789936	788.71363029	789.12933186	789.54500404	789.96064681	790.37626017	790.79184408	791.20739853	791.62292351	792.03841898	792.45388494	792.86932136	793.28472822	793.70010551	794.11545321	794.53077129	794.94605974	795.36131853	795.77654766	796.19174710	796.60691683	797.02205683	797.43716709	797.85224758	798.26729829	798.68231919	799.09731027	799.51227150	799.92720288	800.34210438	800.75697597	801.17181765	801.58662939	802.00141118	802.41616299	802.83088480	803.24557660	803.66023837	804.07487008	804.48947173	804.90404329	805.31858473	805.73309605	806.14757722	806.56202823	806.97644905	807.39083966	807.80520005	808.21953020	808.63383009	809.04809970	809.46233901	809.87654799	810.29072665	810.70487494	811.11899286	811.53308038	811.94713749	812.36116416	812.77516039	813.18912614	813.60306140	814.01696615	814.43084037	814.84468405	815.25849716	815.67227968	816.08603160	816.49975289	816.91344354	817.32710353	817.74073284	818.15433144	818.56789933	818.98143648	819.39494287	819.80841849	820.22186330	820.63527731	821.04866048	821.46201280	821.87533424	822.28862480	822.70188444	823.11511316	823.52831093	823.94147773	824.35461354	824.76771835	825.18079213	825.59383487	826.00684655	826.41982715	826.83277664	827.24569502	827.65858225	828.07143833	828.48426323	828.89705694	829.30981943	829.72255068	830.13525068	830.54791941	830.96055685	831.37316298	831.78573777	832.19828122	832.61079330	833.02327400	833.43572328	833.84814115	834.26052757	834.67288252	835.08520599	835.49749796	835.90975842	836.32198733	836.73418468	837.14635046	837.55848463	837.97058720	838.38265813	838.79469740	839.20670500	839.61868091	840.03062511	840.44253757	840.85441829	841.26626724	841.67808440	842.08986976	842.50162329	842.91334498	843.32503480	843.73669274	844.14831877	844.55991289	844.97147506	845.38300528	845.79450352	846.20596976	846.61740399	847.02880618	847.44017631	847.85151437	848.26282034	848.67409420	849.08533592	849.49654550	849.90772291	850.31886813	850.72998114	851.14106193	851.55211047	851.96312674	852.37411074	852.78506243	853.19598180	853.60686882	854.01772349	854.42854578	854.83933568	855.25009315	855.66081819	856.07151078	856.48217089	856.89279850	857.30339361	857.71395618	858.12448620	858.53498366	858.94544852	859.35588078	859.76628041	860.17664740	860.58698172	860.99728335	861.40755229	861.81778850	862.22799197	862.63816268	863.04830061	863.45840574	863.86847805	864.27851753	864.68852415	865.09849790	865.50843876	865.91834670	866.32822171	866.73806377	867.14787286	867.55764895	867.96739205	868.37710211	868.78677913	869.19642308	869.60603395	870.01561171	870.42515635	870.83466785	871.24414619	871.65359135	872.06300331	872.47238206	872.88172756	873.29103981	873.70031878	874.10956446	874.51877683	874.92795586	875.33710155	875.74621386	876.15529278	876.56433830	876.97335038	877.38232902	877.79127419	878.20018588	878.60906407	879.01790873	879.42671984	879.83549740	880.24424138	880.65295176	881.06162852	881.47027164	881.87888110	882.28745689	882.69599898	883.10450736	883.51298201	883.92142291	884.32983003	884.73820337	885.14654289	885.55484859	885.96312043	886.37135842	886.77956251	887.18773271	887.59586898	888.00397130	888.41203966	888.82007405	889.22807443	889.63604079	890.04397312	890.45187139	890.85973558	891.26756568	891.67536166	892.08312351	892.49085121	892.89854473	893.30620407	893.71382919	894.12142009	894.52897673	894.93649911	895.34398721	895.75144100	896.15886046	896.56624558	896.97359634	897.38091272	897.78819470	898.19544225	898.60265537	899.00983403	899.41697822	899.82408791	900.23116308	900.63820372	901.04520981	901.45218132	901.85911824	902.26602056	902.67288824	903.07972127	903.48651964	903.89328332	904.30001230	904.70670655	905.11336605	905.51999079	905.92658076	906.33313592	906.73965626	907.14614176	907.55259240	907.95900816	908.36538903	908.77173498	909.17804600	909.58432207	909.99056316	910.39676926	910.80294035	911.20907641	911.61517742	912.02124336	912.42727422	912.83326996	913.23923059	913.64515607	914.05104638	914.45690152	914.86272145	915.26850616	915.67425563	916.07996984	916.48564877	916.89129241	917.29690073	917.70247372	918.10801135	918.51351361	918.91898047	919.32441193	919.72980795	920.13516853	920.54049363	920.94578325	921.35103736	921.75625595	922.16143899	922.56658647	922.97169836	923.37677465	923.78181532	924.18682035	924.59178972	924.99672341	925.40162141	925.80648369	926.21131023	926.61610102	927.02085603	927.42557525	927.83025866	928.23490624	928.63951796	929.04409382	929.44863379	929.85313785	930.25760599	930.66203818	931.06643441	931.47079465	931.87511889	932.27940711	932.68365929	933.08787540	933.49205544	933.89619938	934.30030721	934.70437889	935.10841442	935.51241378	935.91637694	936.32030390	936.72419462	937.12804908	937.53186728	937.93564919	938.33939480	938.74310407	939.14677700	939.55041357	939.95401375	940.35757752	940.76110488	941.16459579	941.56805025	941.97146822	942.37484969	942.77819465	943.18150307	943.58477494	943.98801022	944.39120892	944.79437100	945.19749645	945.60058525	946.00363738	946.40665282	946.80963155	947.21257356	947.61547881	948.01834730	948.42117901	948.82397391	949.22673199	949.62945323	950.03213761	950.43478511	950.83739570	951.23996938	951.64250613	952.04500591	952.44746872	952.84989454	953.25228334	953.65463511	954.05694983	954.45922747	954.86146803	955.26367148	955.66583780	956.06796697	956.47005898	956.87211380	957.27413142	957.67611181	958.07805496	958.47996085	958.88182946	959.28366077	959.68545476	960.08721142	960.48893071	960.89061263	961.29225716	961.69386427	962.09543395	962.49696617	962.89846092	963.29991819	963.70133794	964.10272017	964.50406485	964.90537196	965.30664148	965.70787340	966.10906770	966.51022435	966.91134334	967.31242465	967.71346826	968.11447415	968.51544230	968.91637270	969.31726532	969.71812014	970.11893715	970.51971632	970.92045764	971.32116109	971.72182665	972.12245430	972.52304402	972.92359579	973.32410959	973.72458541	974.12502322	974.52542301	974.92578475	975.32610843	975.72639403	976.12664153	976.52685091	976.92702215	977.32715523	977.72725014	978.12730685	978.52732534	978.92730560	979.32724760	979.72715134	980.12701678	980.52684391	980.92663271	981.32638316	981.72609525	982.12576895	982.52540424	982.92500111	983.32455953	983.72407949	984.12356097	984.52300394	984.92240840	985.32177431	985.72110167	986.12039045	986.51964064	986.91885220	987.31802514	987.71715942	988.11625502	988.51531193	988.91433014	989.31330961	989.71225033	990.11115229	990.51001546	990.90883982	991.30762535	991.70637204	992.10507987	992.50374881	992.90237886	993.30096998	993.69952216	994.09803538	994.49650962	994.89494487	995.29334110	995.69169830	996.09001644	996.48829550	996.88653548	997.28473634	997.68289807	998.08102066	998.47910407	998.87714829	999.27515331	999.67311910	1000.07104565	1000.46893293	1000.86678093	1001.26458963	1001.66235901	1002.06008904	1002.45777972	1002.85543101	1003.25304291	1003.65061539	1004.04814844	1004.44564203	1004.84309615	1005.24051077	1005.63788588	1006.03522146	1006.43251749	1006.82977395	1007.22699082	1007.62416809	1008.02130573	1008.41840372	1008.81546205	1009.21248069	1009.60945963	1010.00639885	1010.40329832	1010.80015804	1011.19697798	1011.59375812	1011.99049844	1012.38719893	1012.78385955	1013.18048031	1013.57706117	1013.97360212	1014.37010314	1014.76656420	1015.16298530	1015.55936641	1015.95570751	1016.35200858	1016.74826960	1017.14449056	1017.54067144	1017.93681221	1018.33291286	1018.72897337	1019.12499372	1019.52097388	1019.91691385	1020.31281360
1357.44000000	1355.52000000	1354.96000000	1352.88000000	1352.92000000	1366.72000000	1383.82000000	1381.96000000	1395.70000000	1392.60000000	1378.84000000	1355.88000000	1369.72000000	1347.84000000	1343.10000000	1349.98000000	1361.82000000	1353.30000000	1358.92000000	1366.68000000	1387.82000000	1403.62000000	1401.88000000	1401.10000000	1392.92000000	1373.64000000	1354.62000000	1355.74000000	1356.90000000	1366.68000000	1367.82000000	1369.52000000	1376.58000000	1398.04000000	1402.64000000	1388.06000000	1396.40000000	1397.54000000	1385.72000000	1375.96000000	1387.78000000	1399.90000000	1395.94000000	1390.88000000	1409.04000000	1394.06000000	1369.30000000	1381.44000000	1381.72000000	1371.24000000	1377.80000000	1392.48000000	1389.70000000	1383.76000000	1385.72000000	1392.30000000	1386.56000000	1370.98000000	1377.60000000	1381.72000000	1388.80000000	1396.72000000	1402.64000000	1400.20000000	1389.88000000	1380.96000000	1373.06000000	1376.96000000	1388.64000000	1386.02000000	1377.62000000	1384.00000000	1380.24000000	1365.68000000	1369.76000000	1374.74000000	1365.92000000	1376.52000000	1377.86000000	1387.88000000	1393.82000000	1397.58000000	1398.42000000	1407.46000000	1396.38000000	1391.38000000	1389.80000000	1395.84000000	1386.04000000	1383.28000000	1375.80000000	1374.50000000	1362.02000000	1368.02000000	1382.10000000	1399.58000000	1396.82000000	1388.32000000	1385.40000000	1370.54000000	1341.70000000	1353.56000000	1374.74000000	1371.60000000	1376.22000000	1388.18000000	1388.06000000	1376.84000000	1383.52000000	1370.24000000	1377.70000000	1358.04000000	1376.54000000	1380.88000000	1386.22000000	1386.80000000	1394.84000000	1375.97000000	1378.23000000	1380.83000000	1389.67000000	1387.67000000	1386.26000000	1379.48000000	1390.62000000	1390.17000000	1399.67000000	1406.01000000	1401.03000000	1406.25000000	1407.20000000	1406.80000000	1393.34000000	1401.88000000	1396.08000000	1399.48000000	1403.40000000	1422.80000000	1425.28000000	1413.98000000	1400.68000000	1390.06000000	1383.78000000	1379.60000000	1397.00000000	1411.06000000	1410.64000000	1405.44000000	1400.94000000	1388.68000000	1379.80000000	1382.80000000	1374.10000000	1383.74000000	1383.58000000	1379.38000000	1376.88000000	1375.90000000	1370.24000000	1378.72000000	1397.58000000	1389.42000000	1401.78000000	1397.96000000	1399.18000000	1375.86000000	1390.12000000	1381.60000000	1391.86000000	1384.24000000	1390.22000000	1388.70000000	1397.42000000	1385.56000000	1408.66000000	1415.28000000	1409.54000000	1407.80000000	1412.48000000	1380.74000000	1382.06000000	1390.88000000	1396.44000000	1409.50000000	1421.04000000	1419.14000000	1428.64000000	1414.68000000	1393.34000000	1388.18000000	1392.34000000	1381.34000000	1398.88000000	1408.52000000	1409.38000000	1409.12000000	1406.12000000	1400.00000000	1402.12000000	1400.62000000	1395.12000000	1414.82000000	1429.38000000	1427.24000000	1428.00000000	1434.62000000	1417.96000000	1398.90000000	1393.46000000	1381.32000000	1369.02000000	1365.36000000	1376.46000000	1384.20000000	1395.52000000	1399.78000000	1420.62000000	1413.78000000	1418.16000000	1413.50000000	1413.20000000	1398.98000000	1391.14000000	1372.10000000	1373.34000000	1389.28000000	1385.56000000	1388.78000000	1395.84000000	1395.78000000	1370.46000000	1376.10000000	1383.96000000	1387.54000000	1395.44000000	1408.66000000	1398.32000000	1385.18000000	1386.80000000	1385.16000000	1384.48000000	1407.44000000	1414.90000000	1415.04000000	1423.34000000	1417.98000000	1396.48000000	1397.82000000	1393.04000000	1385.60000000	1390.86000000	1398.26000000	1408.38000000	1412.74000000	1402.20000000	1409.26000000	1414.02000000	1412.22000000	1409.54000000	1422.28000000	1409.24000000	1389.08000000	1387.76000000	1405.12000000	1414.24000000	1412.24000000	1416.32000000	1396.58000000	1387.26000000	1371.94000000	1376.38000000	1373.28000000	1375.10000000	1363.96000000	1364.94000000	1353.00000000	1360.06000000	1373.22000000	1384.02000000	1390.88000000	1408.72000000	1422.50000000	1431.30000000	1430.44000000	1421.64000000	1418.02000000	1396.46000000	1388.66000000	1384.24000000	1393.94000000	1398.14000000	1405.76000000	1393.62000000	1397.92000000	1391.56000000	1374.78000000	1376.32000000	1392.40000000	1396.96000000	1395.66000000	1407.78000000	1403.54000000	1398.76000000	1397.40000000	1385.98000000	1393.12000000	1393.30000000	1398.66000000	1387.98000000	1406.22000000	1410.04000000	1420.82000000	1416.00000000	1413.86000000	1411.34000000	1408.98000000	1406.04000000	1411.72000000	1409.96000000	1407.26000000	1399.26000000	1394.32000000	1386.24000000	1390.78000000	1387.14000000	1391.62000000	1405.62000000	1410.60000000	1413.28000000	1422.58000000	1425.08000000	1415.44000000	1394.02000000	1390.90000000	1398.56000000	1398.44000000	1401.24000000	1413.02000000	1423.42000000	1421.76000000	1411.38000000	1396.62000000	1401.88000000	1387.56000000	1380.84000000	1384.96000000	1385.72000000	1400.34000000	1415.22000000	1408.22000000	1410.82000000	1421.70000000	1392.92000000	1390.22000000	1401.18000000	1404.34000000	1402.02000000	1423.48000000	1414.16000000	1417.48000000	1417.76000000	1409.82000000	1405.12000000	1405.32000000	1409.50000000	1411.36000000	1427.20000000	1431.98000000	1439.20000000	1430.60000000	1438.18000000	1430.84000000	1419.78000000	1421.10000000	1429.46000000	1416.24000000	1419.16000000	1429.26000000	1450.74000000	1443.80000000	1442.72000000	1447.28000000	1436.26000000	1409.46000000	1423.48000000	1428.06000000	1432.24000000	1444.44000000	1456.88000000	1442.62000000	1441.98000000	1432.50000000	1422.10000000	1412.72000000	1410.40000000	1403.88000000	1403.44000000	1409.00000000	1422.84000000	1422.20000000	1422.56000000	1421.06000000	1417.18000000	1416.82000000	1417.82000000	1425.30000000	1434.72000000	1439.26000000	1431.24000000	1427.20000000	1419.40000000	1419.18000000	1410.58000000	1404.49000000	1407.27000000	1406.39000000	1411.63000000	1428.33000000	1434.04000000	1429.96000000	1425.10000000	1413.66000000	1417.74000000	1411.64000000	1414.56000000	1422.44000000	1443.70000000	1435.12000000	1438.84000000	1430.34000000	1436.78000000	1417.72000000	1415.88000000	1423.50000000	1445.02000000	1450.34000000	1444.62000000	1439.48000000	1428.92000000	1412.47000000	1396.82500000	1395.08500000	1412.62500000	1427.54500000	1445.05500000	1446.52000000	1451.10000000	1422.10000000	1417.22000000	1408.02000000	1412.42000000	1425.30000000	1436.74000000	1426.98000000	1435.36000000	1426.04000000	1415.94000000	1426.68000000	1432.84000000	1417.16000000	1430.90000000	1420.46000000	1412.46000000	1409.84000000	1426.14000000	1419.24000000	1428.48000000	1433.82000000	1432.22000000	1417.96000000	1421.14000000	1419.62000000	1407.98000000	1405.36000000	1399.44000000	1393.00000000	1400.02000000	1401.82000000	1406.98000000	1421.48000000	1414.86000000	1402.40000000	1403.24000000	1397.86000000	1399.46000000	1405.82000000	1409.63000000	1410.61000000	1418.41000000	1420.69000000	1433.73000000	1424.72000000	1430.92000000	1434.04000000	1434.84000000	1427.22000000	1434.44000000	1417.54000000	1406.40000000	1379.18000000	1369.56000000	1374.92000000	1390.86000000	1381.68000000	1401.66000000	1423.00000000	1423.40000000	1431.18000000	1444.54000000	1437.70000000	1423.44000000	1424.94000000	1416.34000000	1409.26000000	1416.04000000	1416.16000000	1405.84000000	1400.50000000	1411.76000000	1414.02000000	1424.78000000	1427.70000000	1436.42000000	1433.04000000	1437.38000000	1427.26000000	1442.62000000	1436.16000000	1434.26000000	1427.18000000	1426.04000000	1416.32000000	1426.76000000	1432.50000000	1431.94000000	1434.28000000	1447.68000000	1448.86000000	1450.50000000	1461.90000000	1469.34000000	1467.68000000	1473.08000000	1464.62000000	1446.32000000	1448.12000000	1432.22000000	1407.66000000	1405.16000000	1423.58000000	1414.50000000	1420.84000000	1433.60000000	1447.56000000	1432.46000000	1443.90000000	1437.76000000	1438.00000000	1438.62000000	1439.58000000	1425.04000000	1433.12000000	1430.44000000	1431.34000000	1433.84000000	1434.16000000	1410.56000000	1411.70000000	1389.96000000	1385.32000000	1390.70000000	1401.76000000	1408.80000000	1407.46000000	1421.40000000	1418.64000000	1422.28000000	1422.90000000	1436.82000000	1427.20000000	1436.80000000	1451.56000000	1437.84000000	1440.58000000	1435.32000000	1431.24000000	1431.66000000	1427.14000000	1433.98000000	1442.40000000	1437.02000000	1429.86000000	1437.28000000	1425.98000000	1411.18000000	1406.04000000	1407.98000000	1397.40000000	1399.72000000	1411.62000000	1419.37000000	1414.59000000	1423.23000000	1414.73000000	1419.69000000	1411.56000000	1423.50000000	1417.76000000	1418.00000000	1423.28000000	1431.96000000	1407.50000000	1425.32000000	1445.42000000	1445.90000000	1446.08000000	1457.66000000	1443.82000000	1434.08000000	1416.68000000	1432.36000000	1439.84000000	1435.46000000	1433.90000000	1429.88000000	1412.68000000	1410.06000000	1419.56000000	1425.42000000	1422.68000000	1423.56000000	1422.62000000	1419.50000000	1408.88000000	1414.30000000	1408.22000000	1401.58000000	1407.82000000	1417.54000000	1417.58000000	1418.16000000	1416.76000000	1411.00000000	1452.58000000	1458.74000000	1467.44000000	1475.40000000	1481.08000000	1426.52000000	1426.42000000	1426.62000000	1433.24000000	1433.30000000	1436.00000000	1437.70000000	1440.74000000	1439.62000000	1441.42000000	1464.06000000	1463.54000000	1453.22000000	1462.92000000	1451.90000000	1436.80000000	1439.42000000	1451.76000000	1444.00000000	1447.74000000	1442.20000000	1453.96000000	1445.46000000	1429.42000000	1435.12000000	1441.98000000	1436.42000000	1430.88000000	1428.90000000	1426.40000000	1430.16000000	1414.26000000	1420.38000000	1442.70000000	1440.38000000	1432.72000000	1444.02000000	1449.42000000	1429.74000000	1438.16000000	1426.30000000	1418.88000000	1415.54000000	1430.62000000	1422.22000000	1435.08000000	1432.56000000	1425.88000000	1411.64000000	1403.58000000	1404.76000000	1411.86000000	1417.86000000	1423.98000000	1435.64000000	1429.60000000	1436.54000000	1439.38000000	1444.66000000	1439.34000000	1438.32000000	1431.98000000	1438.00000000	1439.10000000	1452.64000000	1456.08000000	1447.18000000	1440.42000000	1435.42000000	1427.54000000	1429.18000000	1444.66000000	1449.28000000	1445.78000000	1456.30000000	1464.68000000	1458.74000000	1449.02000000	1443.58000000	1426.12000000	1417.76000000	1422.30000000	1409.38000000	1433.44000000	1443.78000000	1457.32000000	1471.16000000	1483.90000000	1470.56000000	1462.20000000	1456.02000000	1436.04000000	1428.10000000	1435.24000000	1451.62000000	1447.36000000	1447.16000000	1456.94000000	1435.88000000	1424.74000000	1432.16000000	1441.52000000	1456.84000000	1472.64000000	1469.46000000	1461.02000000	1444.04000000	1416.16000000	1416.96000000	1413.46000000	1404.72000000	1422.70000000	1428.44000000	1436.64000000	1444.10000000	1480.50000000	1478.24000000	1484.14000000	1469.34000000	1473.62000000	1445.26000000	1429.56000000	1430.90000000	1433.14000000	1414.44000000	1403.90000000	1429.72000000	1453.28000000	1454.60000000	1471.16000000	1477.24000000	1457.64000000	1439.50000000	1436.28000000	1417.68000000	1411.62000000	1405.36000000	1401.08000000	1389.72000000	1405.56000000	1417.30000000	1434.16000000	1434.34000000	1448.50000000	1451.38000000	1449.20000000	1449.62000000	1449.80000000	1466.40000000	1461.24000000	1463.74000000	1452.08000000	1447.60000000	1428.02000000	1422.32000000	1437.08000000	1453.22000000	1472.78000000	1468.48000000	1479.14000000	1460.12000000	1446.88000000	1544.06000000	1551.94000000	1564.74000000	1561.52000000	1567.66000000	1451.98000000	1451.18000000	1427.02000000	1421.90000000	1406.16000000	1401.06000000	1411.94000000	1429.58000000	1446.00000000	1456.68000000	1461.70000000	1449.88000000	1446.42000000	1452.26000000	1470.28000000	1479.24000000	1481.14000000	1474.10000000	1470.32000000	1459.26000000	1451.38000000	1452.86000000	1452.14000000	1439.64000000	1422.28000000	1429.18000000	1425.58000000	1428.80000000	1436.18000000	1446.48000000	1447.34000000	1446.82000000	1440.06000000	1429.82000000	1429.92000000	1422.20000000	1425.98000000	1420.20000000	1436.24000000	1435.74000000	1461.58000000	1473.00000000	1473.28000000	1473.34000000	1489.48000000	1461.30000000	1448.92000000	1447.18000000	1441.48000000	1443.38000000	1434.70000000	1429.30000000	1436.40000000	1431.80000000	1417.38000000	1437.04000000	1446.96000000	1460.00000000	1464.10000000	1449.88000000	1435.92000000	1434.44000000	1420.04000000	1421.00000000	1447.12000000	1458.70000000	1453.18000000	1460.06000000	1456.08000000	1443.46000000	1444.62000000	1441.23000000	1426.97000000	1429.31000000	1439.53000000	1431.15000000	1427.18000000	1439.60000000	1441.84000000	1433.80000000	1443.04000000	1467.60000000	1471.26000000	1450.74000000	1441.26000000	1426.98000000	1408.52000000	1393.68000000	1418.92000000	1423.34000000	1439.54000000	1437.62000000	1457.50000000	1444.70000000	1447.50000000	1438.20000000	1446.38000000	1441.66000000	1440.22000000	1448.42000000	1444.08000000	1438.56000000	1427.86000000	1431.04000000	1409.34000000	1423.66000000	1428.78000000	1432.88000000	1437.56000000	1454.84000000	1442.88000000	1434.76000000	1452.06000000	1444.86000000	1439.88000000	1431.00000000	1430.12000000	1421.72000000	1442.28000000	1433.96000000	1435.74000000	1429.46000000	1425.30000000	1413.34000000	1414.76000000	1421.16000000	1432.88000000	1421.54000000	1407.74000000	1418.62000000	1425.54000000	1426.24000000	1447.30000000	1456.92000000	1460.74000000	1463.82000000	1458.50000000	1442.36000000	1452.38000000	1444.04000000	1433.84000000	1441.80000000	1453.72000000	1433.10000000	1441.18000000	1445.12000000	1451.90000000	1437.64000000	1447.54000000	1444.62000000	1464.48000000	1457.36000000	1467.24000000	1479.66000000	1482.98000000	1465.58000000	1464.38000000	1480.76000000	1471.58000000	1460.48000000	1460.40000000	1462.00000000	1455.58000000	1462.70000000	1477.26000000	1491.08000000	1486.62000000	1474.68000000	1465.12000000	1459.26000000	1446.38000000	1446.56000000	1442.48000000	1457.18000000	1464.36000000	1473.48000000	1487.64000000	1501.58000000	1478.30000000	1463.06000000	1446.32000000	1431.70000000	1469.18000000	1478.60000000	1482.12000000	1483.52000000	1482.70000000	1450.90000000	1446.36000000	1442.76000000	1450.16000000	1460.06000000	1443.28000000	1457.22000000	1443.24000000	1436.72000000	1439.24000000	1449.20000000	1441.52000000	1465.30000000	1469.14000000	1448.08000000	1433.32000000	1436.84000000	1430.18000000	1432.50000000	1449.26000000	1458.64000000	1453.14000000	1456.88000000	1477.98000000	1473.16000000	1470.42000000	1470.86000000	1460.88000000	1445.52000000	1449.50000000	1447.04000000	1446.20000000	1455.82000000	1450.14000000	1443.92000000	1454.82000000	1458.02000000	1452.04000000	1452.38000000	1466.58000000	1457.34000000	1464.44000000	1457.06000000	1443.66000000	1429.68000000	1433.78000000	1424.34000000	1427.18000000	1445.14000000	1444.20000000	1442.74000000	1445.78000000	1458.38000000	1455.58000000	1462.48000000	1459.58000000	1441.74000000	1431.50000000	1429.60000000	1423.72000000	1415.16000000	1434.86000000	1442.70000000	1443.90000000	1448.04000000	1455.04000000	1440.62000000	1435.06000000	1450.74000000	1447.02000000	1435.78000000	1444.80000000	1452.18000000	1428.32000000	1439.22000000	1458.16000000	1471.78000000	1469.62000000	1471.12000000	1462.12000000	1442.70000000	1428.10000000	1420.62000000	1429.18000000	1428.72000000	1452.12000000	1448.84000000	1459.26000000	1444.56000000	1463.08000000	1459.40000000	1468.36000000	1451.06000000	1462.54000000	1435.12000000	1439.88000000	1433.10000000	1446.78000000	1450.24000000	1511.54000000	1510.84000000	1531.42000000	1523.74000000	1510.44000000	1461.22000000	1450.62000000	1433.16000000	1431.32000000	1433.54000000	1424.00000000	1423.32000000	1429.48000000	1425.58000000	1445.90000000	1453.48000000	1453.60000000	1445.36000000	1463.00000000	1454.02000000	1452.62000000	1449.34000000	1452.98000000	1452.40000000	1453.64000000	1465.50000000	1483.78000000	1466.34000000	1457.12000000	1465.14000000	1459.02000000	1472.68000000	1485.56000000	1493.78000000	1476.66000000	1459.76000000	1424.56000000	1418.36000000	1406.32000000	1407.14000000	1417.16000000	1437.14000000	1433.48000000	1438.86000000	1447.26000000	1446.22000000	1430.56000000	1454.36000000	1465.94000000	1450.62000000	1463.46000000	1468.78000000	1459.58000000	1451.76000000	1471.22000000	1452.84000000	1457.46000000	1457.82000000	1457.60000000	1449.52000000	1454.46000000	1462.02000000	1467.00000000	1478.46000000	1478.64000000	1484.84000000	1463.86000000	1448.88000000	1438.88000000	1432.40000000	1432.94000000	1430.62000000	1430.98000000	1420.16000000	1437.56000000	1443.84000000	1452.48000000	1457.90000000	1472.16000000	1460.60000000	1445.22000000	1437.56000000	1448.36000000	1433.84000000	1429.96000000	1451.96000000	1464.36000000	1470.42000000	1473.26000000	1490.82000000	1472.48000000	1464.72000000	1445.54000000	1460.78000000	1433.30000000	1428.42000000	1438.26000000	1438.40000000	1430.10000000	1446.00000000	1449.48000000	1440.78000000	1448.14000000	1466.00000000	1460.10000000	1461.82000000	1474.82000000	1492.36000000	1483.62000000	1479.54000000	1484.74000000	1467.44000000	1444.52000000	1436.10000000	1459.16000000	1456.52000000	1470.82000000	1496.02000000	1496.92000000	1495.52000000	1501.02000000	1501.10000000	1485.00000000	1481.78000000	1460.00000000	1457.42000000	1441.90000000	1456.00000000	1443.78000000	1448.02000000	1450.94000000	1468.14000000	1455.34000000	1470.80000000	1477.58000000	1467.46000000	1459.34000000	1461.50000000	1461.72000000	1459.16000000	1465.88000000	1464.10000000	1459.56000000	1449.18000000	1441.14000000	1430.56000000	1437.52000000	1438.04000000	1437.20000000	1452.26000000	1462.72000000	1451.98000000	1438.52000000	1439.04000000	1429.32000000	1440.64000000	1452.80000000	1460.74000000	1472.00000000	1466.96000000	1462.82000000	1480.04000000	1485.90000000	1490.38000000	1487.40000000	1473.42000000	1462.92000000	1459.22000000	1455.52000000	1474.74000000	1478.68000000	1467.32000000	1474.18000000	1468.64000000	1444.18000000	1448.56000000	1456.04000000	1447.14000000	1456.36000000	1469.94000000	1465.44000000	1453.42000000	1452.20000000	1451.14000000	1449.92000000	1443.24000000	1443.16000000	1452.40000000	1446.28000000	1457.48000000	1471.76000000	1477.78000000	1474.08000000	1473.16000000	1449.22000000	1442.56000000	1445.14000000	1452.74000000	1448.14000000	1463.88000000	1469.04000000	1472.74000000	1462.76000000	1475.56000000	1461.80000000	1452.38000000	1445.80000000	1444.08000000	1430.44000000	1452.46000000	1474.24000000	1472.50000000	1465.88000000	1474.58000000	1473.74000000	1481.12000000	1482.12000000	1481.98000000	1477.52000000	1475.82000000	1457.94000000	1460.82000000	1464.80000000	1471.22000000	1468.26000000	1480.82000000	1479.84000000	1478.36000000	1480.14000000	1487.44000000	1465.98000000	1480.74000000	1477.46000000	1470.68000000	1460.86000000	1463.82000000	1457.68000000	1475.74000000	1476.24000000	1478.32000000	1468.78000000	1462.68000000	1478.66000000	1464.38000000	1462.54000000	1471.94000000	1465.14000000	1438.26000000	1460.12000000	1455.52000000	1452.10000000	1449.40000000	1456.92000000	1456.50000000	1462.08000000	1462.00000000	1456.14000000	1443.62000000	1423.22000000	1429.76000000	1422.90000000	1438.80000000	1457.30000000	1477.22000000	1467.00000000	1496.70000000	1502.20000000	1495.00000000	1485.62000000	1487.14000000	1473.10000000	1456.36000000	1457.12000000	1463.72000000	1479.12000000	1480.22000000	1489.72000000	1489.50000000	1500.02000000	1478.70000000	1463.72000000	1458.54000000	1458.32000000	1459.04000000	1470.86000000	1494.74000000	1502.64000000	1499.66000000	1497.74000000	1493.96000000	1476.94000000	1475.70000000	1478.32000000	1488.12000000	1489.46000000	1499.48000000	1501.04000000	1501.88000000	1464.50000000	1458.68000000	1447.70000000	1444.30000000	1438.30000000	1450.46000000	1451.18000000	1461.72000000	1455.12000000	1450.78000000	1466.70000000	1463.38000000	1460.78000000	1464.56000000	1465.78000000	1450.60000000	1470.46000000	1480.62000000	1475.14000000	1485.68000000	1500.82000000	1482.64000000	1476.08000000	1474.48000000	1473.98000000	1469.44000000	1476.98000000	1474.50000000	1491.04000000	1486.38000000	1488.74000000	1493.20000000	1487.14000000	1487.48000000	1482.96000000	1462.14000000	1468.94000000	1469.04000000	1454.02000000	1457.84000000	1467.24000000	1451.16000000	1467.94000000	1492.54000000	1493.60000000	1497.94000000	1510.28000000	1503.70000000	1471.58000000	1484.16000000	1484.00000000	1467.02000000	1458.82000000	1486.34000000	1490.80000000	1490.08000000	1495.98000000	1481.66000000	1462.90000000	1451.54000000	1448.02000000	1459.56000000	1467.60000000	1470.22000000	1457.02000000	1472.94000000	1464.28000000	1469.04000000	1481.86000000	1494.06000000	1488.94000000	1476.28000000	1484.28000000	1473.98000000	1473.20000000	1476.20000000	1479.78000000	1486.24000000	1482.26000000	1478.78000000	1472.40000000	1484.98000000	1486.12000000	1475.72000000	1480.28000000	1481.24000000	1481.42000000	1475.66000000	1505.40000000	1497.08000000	1496.54000000	1488.24000000	1484.44000000	1473.92000000	1476.88000000	1464.46000000	1486.18000000	1474.34000000	1468.16000000	1474.34000000	1471.22000000	1454.58000000	1463.46000000	1478.92000000	1478.08000000	1504.82000000	1503.42000000	1504.64000000	1480.88000000	1475.88000000	1457.04000000	1459.90000000	1456.20000000	1466.56000000	1460.48000000	1475.46000000	1474.32000000	1472.96000000	1463.24000000	1492.70000000	1484.62000000	1488.40000000	1490.56000000	1493.34000000	1474.04000000	1483.60000000	1478.20000000	1493.46000000	1505.52000000	1515.00000000	1515.16000000	1516.86000000	1494.62000000	1489.64000000	1495.88000000	1477.64000000	1485.96000000	1506.36000000	1505.88000000	1489.52000000	1499.54000000	1482.24000000	1473.14000000	1497.30000000	1507.92000000	1511.62000000	1522.64000000	1525.84000000	1497.60000000	1487.56000000	1486.08000000	1479.46000000	1476.00000000	1472.42000000	1487.60000000	1482.18000000	1499.70000000	1507.36000000	1518.48000000	1512.62000000	1511.90000000	1497.34000000	1491.58000000	1489.72000000	1492.32000000	1477.22000000	1485.22000000	1478.52000000	1485.54000000	1493.36000000	1497.16000000	1487.70000000	1490.04000000	1490.06000000	1456.12000000	1460.86000000	1468.96000000	1468.80000000	1480.86000000	1494.14000000	1503.22000000	1508.36000000	1511.54000000	1503.64000000	1495.94000000	1495.62000000	1486.44000000	1484.76000000	1488.40000000	1506.02000000	1499.04000000	1492.66000000	1495.28000000	1477.08000000	1474.44000000	1474.52000000	1480.17500000	1475.23333333
