PE UV       SUBTECH     SPECTRUM    ASCII       PEDS        4.00        
   -1
INBUCR0143-3.Sample.ASC
24/04/29
13:57:43.00
24/04/29
13:57:43.00
Vinicio Soto Monge
C. kalinini
250,000000
1
Lambda 1050
1050L1511233
PerkinElmer UV WinLab 6.3.2.0749 / 2.02.05 Lambda 900 UV/VIS/NIR, Aug  7 2015 09:38:08

0
0
3350/servo 860,8/2
0
0
UV/VIS
1
1
1
DoubleDePol,CommonBeamDepol,RBeamAtt,SBeamAtt,60mm sphere, WB InGaAs Detector
0
0
0
0
Program
Program
3350/servo 860,8/2
3350/0,2 860,8/0,2
3350/0,2 860,8/0,2
0
15.00
 
 
 
0
 
860,8
319,2
860,8
Front
100
on
S:100 R:100
0
0
0
0
 
0
 
 
 
0
 
 
0
0
0
0
0
 
 
 
 
0
0


0
0
#HDR
-1
-1
#GR
nm
%R
1.0
0.0
2500,000000
-1,000000
2251
8
98,762200
5,959600
#DATA
2482.000000	13.845092
2481.000000	13.859953
2480.000000	13.826378
2479.000000	13.880759
2478.000000	13.882741
2477.000000	13.937563
2476.000000	13.948461
2475.000000	14.056014
2474.000000	13.971469
2473.000000	14.034987
2472.000000	14.088599
2471.000000	14.156190
2470.000000	14.174354
2469.000000	14.204627
2468.000000	14.270348
2467.000000	14.331555
2466.000000	14.403880
2465.000000	14.407513
2464.000000	14.459913
2463.000000	14.510442
2462.000000	14.616123
2461.000000	14.676229
2460.000000	14.737546
2459.000000	14.823632
2458.000000	14.869757
2457.000000	14.960247
2456.000000	15.084752
2455.000000	15.102035
2454.000000	15.229183
2453.000000	15.316920
2452.000000	15.415556
2451.000000	15.484138
2450.000000	15.599286
2449.000000	15.704087
2448.000000	15.813951
2447.000000	15.900257
2446.000000	16.005498
2445.000000	16.138920
2444.000000	16.248564
2443.000000	16.356117
2442.000000	16.482493
2441.000000	16.602155
2440.000000	16.695176
2439.000000	16.803830
2438.000000	16.909951
2437.000000	17.048878
2436.000000	17.161604
2435.000000	17.247250
2434.000000	17.366251
2433.000000	17.475565
2432.000000	17.587961
2431.000000	17.659956
2430.000000	17.744391
2429.000000	17.861190
2428.000000	17.964890
2427.000000	18.047233
2426.000000	18.134309
2425.000000	18.227771
2424.000000	18.308353
2423.000000	18.406988
2422.000000	18.482066
2421.000000	18.539860
2420.000000	18.615929
2419.000000	18.687814
2418.000000	18.753644
2417.000000	18.822117
2416.000000	18.884314
2415.000000	18.937485
2414.000000	19.000674
2413.000000	19.037442
2412.000000	19.067385
2411.000000	19.111528
2410.000000	19.181762
2409.000000	19.215999
2408.000000	19.228108
2407.000000	19.267848
2406.000000	19.303736
2405.000000	19.334229
2404.000000	19.362521
2403.000000	19.378593
2402.000000	19.411178
2401.000000	19.453561
2400.000000	19.515428
2399.000000	19.582029
2398.000000	19.629696
2397.000000	19.654905
2396.000000	19.657657
2395.000000	19.683637
2394.000000	19.703012
2393.000000	19.704223
2392.000000	19.727671
2391.000000	19.754752
2390.000000	19.765320
2389.000000	19.769613
2388.000000	19.773796
2387.000000	19.787557
2386.000000	19.794272
2385.000000	19.799666
2384.000000	19.813096
2383.000000	19.806051
2382.000000	19.785905
2381.000000	19.770273
2380.000000	19.764109
2379.000000	19.741211
2378.000000	19.728992
2377.000000	19.729322
2376.000000	19.702461
2375.000000	19.692003
2374.000000	19.689251
2373.000000	19.674830
2372.000000	19.663381
2371.000000	19.645107
2370.000000	19.625623
2369.000000	19.612522
2368.000000	19.619458
2367.000000	19.618797
2366.000000	19.607128
2365.000000	19.599533
2364.000000	19.592377
2363.000000	19.593148
2362.000000	19.595790
2361.000000	19.588524
2360.000000	19.565737
2359.000000	19.542068
2358.000000	19.550655
2357.000000	19.550655
2356.000000	19.531831
2355.000000	19.522584
2354.000000	19.501227
2353.000000	19.464569
2352.000000	19.458955
2351.000000	19.452019
2350.000000	19.425819
2349.000000	19.411178
2348.000000	19.382006
2347.000000	19.346889
2346.000000	19.350191
2345.000000	19.335991
2344.000000	19.310671
2343.000000	19.302745
2342.000000	19.286673
2341.000000	19.269610
2340.000000	19.271481
2339.000000	19.244731
2338.000000	19.238236
2337.000000	19.257500
2336.000000	19.270821
2335.000000	19.278086
2334.000000	19.279517
2333.000000	19.289975
2332.000000	19.306378
2331.000000	19.324872
2330.000000	19.343917
2329.000000	19.374410
2328.000000	19.414040
2327.000000	19.448167
2326.000000	19.478330
2325.000000	19.505520
2324.000000	19.532271
2323.000000	19.555829
2322.000000	19.572672
2321.000000	19.587093
2320.000000	19.616155
2319.000000	19.643016
2318.000000	19.625733
2317.000000	19.619568
2316.000000	19.615825
2315.000000	19.592927
2314.000000	19.578066
2313.000000	19.557921
2312.000000	19.534142
2311.000000	19.503759
2310.000000	19.490769
2309.000000	19.482293
2308.000000	19.429893
2307.000000	19.400720
2306.000000	19.376722
2305.000000	19.344247
2304.000000	19.345017
2303.000000	19.312432
2302.000000	19.310671
2301.000000	19.307919
2300.000000	19.300103
2299.000000	19.304837
2298.000000	19.312543
2297.000000	19.315625
2296.000000	19.327734
2295.000000	19.343476
2294.000000	19.375731
2293.000000	19.407766
2292.000000	19.447396
2291.000000	19.469413
2290.000000	19.509594
2289.000000	19.548784
2288.000000	19.559021
2287.000000	19.629806
2286.000000	19.673619
2285.000000	19.693655
2284.000000	19.740110
2283.000000	19.780952
2282.000000	19.819151
2281.000000	19.856249
2280.000000	19.903916
2279.000000	19.945638
2278.000000	19.970737
2277.000000	20.004533
2276.000000	20.032384
2275.000000	20.080711
2274.000000	20.105370
2273.000000	20.144010
2272.000000	20.160412
2271.000000	20.205767
2270.000000	20.264772
2269.000000	20.298128
2268.000000	20.358784
2267.000000	20.423294
2266.000000	20.461603
2265.000000	20.577522
2264.000000	20.652600
2263.000000	20.751896
2262.000000	20.867154
2261.000000	20.983844
2260.000000	21.119798
2259.000000	21.263678
2258.000000	21.430016
2257.000000	21.586335
2256.000000	21.744527
2255.000000	21.924955
2254.000000	22.109346
2253.000000	22.295609
2252.000000	22.469652
2251.000000	22.631146
2250.000000	22.790438
2249.000000	23.000699
2248.000000	23.163514
2247.000000	23.304863
2246.000000	23.438395
2245.000000	23.588770
2244.000000	23.734082
2243.000000	23.833598
2242.000000	23.951608
2241.000000	24.066867
2240.000000	24.126092
2239.000000	24.225608
2238.000000	24.264138
2237.000000	24.317088
2236.000000	24.346591
2235.000000	24.380827
2234.000000	24.410220
2233.000000	24.417595
2232.000000	24.419027
2231.000000	24.390405
2230.000000	24.379947
2229.000000	24.368718
2228.000000	24.334812
2227.000000	24.302888
2226.000000	24.223957
2225.000000	24.164071
2224.000000	24.123670
2223.000000	24.023493
2222.000000	23.954911
2221.000000	23.877081
2220.000000	23.786041
2219.000000	23.731109
2218.000000	23.645464
2217.000000	23.557726
2216.000000	23.467898
2215.000000	23.381701
2214.000000	23.300679
2213.000000	23.216355
2212.000000	23.147002
2211.000000	23.078199
2210.000000	22.989141
2209.000000	22.923090
2208.000000	22.867497
2207.000000	22.824454
2206.000000	22.765009
2205.000000	22.723947
2204.000000	22.676721
2203.000000	22.618707
2202.000000	22.594158
2201.000000	22.553096
2200.000000	22.500366
2199.000000	22.448626
2198.000000	22.411198
2197.000000	22.374429
2196.000000	22.341624
2195.000000	22.326323
2194.000000	22.263905
2193.000000	22.266877
2192.000000	22.236824
2191.000000	22.220421
2190.000000	22.177709
2189.000000	22.147105
2188.000000	22.147325
2187.000000	22.147766
2186.000000	22.088100
2185.000000	22.067514
2184.000000	22.060799
2183.000000	22.035370
2182.000000	22.000803
2181.000000	21.978126
2180.000000	21.966347
2179.000000	21.940147
2178.000000	21.931230
2177.000000	21.910754
2176.000000	21.927377
2175.000000	21.919561
2174.000000	21.903268
2173.000000	21.919561
2172.000000	21.907231
2171.000000	21.933431
2170.000000	21.943669
2169.000000	21.976144
2168.000000	22.022600
2167.000000	22.038892
2166.000000	22.061129
2165.000000	22.112759
2164.000000	22.170663
2163.000000	22.218770
2162.000000	22.280087
2161.000000	22.337111
2160.000000	22.408335
2159.000000	22.504219
2158.000000	22.577645
2157.000000	22.655035
2156.000000	22.758184
2155.000000	22.866617
2154.000000	22.976261
2153.000000	23.088217
2152.000000	23.209970
2151.000000	23.317632
2150.000000	23.435533
2149.000000	23.552773
2148.000000	23.680911
2147.000000	23.821819
2146.000000	23.948086
2145.000000	24.070830
2144.000000	24.186308
2143.000000	24.307731
2142.000000	24.417265
2141.000000	24.544303
2140.000000	24.653066
2139.000000	24.766563
2138.000000	24.875987
2137.000000	24.994988
2136.000000	25.112228
2135.000000	25.221432
2134.000000	25.312031
2133.000000	25.420904
2132.000000	25.509082
2131.000000	25.585701
2130.000000	25.685437
2129.000000	25.760735
2128.000000	25.831739
2127.000000	25.920137
2126.000000	25.990041
2125.000000	26.040569
2124.000000	26.095171
2123.000000	26.158470
2122.000000	26.232006
2121.000000	26.288700
2120.000000	26.318532
2119.000000	26.361465
2118.000000	26.410013
2117.000000	26.420801
2116.000000	26.451294
2115.000000	26.481347
2114.000000	26.499952
2113.000000	26.515914
2112.000000	26.529674
2111.000000	26.560718
2110.000000	26.578111
2109.000000	26.586698
2108.000000	26.588349
2107.000000	26.583726
2106.000000	26.593413
2105.000000	26.607064
2104.000000	26.621705
2103.000000	26.610807
2102.000000	26.595395
2101.000000	26.623576
2100.000000	26.636346
2099.000000	26.643832
2098.000000	26.664968
2097.000000	26.673445
2096.000000	26.699535
2095.000000	26.728156
2094.000000	26.740266
2093.000000	26.770759
2092.000000	26.800592
2091.000000	26.815894
2090.000000	26.842974
2089.000000	26.877101
2088.000000	26.900879
2087.000000	26.928180
2086.000000	26.937317
2085.000000	26.941500
2084.000000	26.927850
2083.000000	26.914639
2082.000000	26.916621
2081.000000	26.888219
2080.000000	26.851341
2079.000000	26.786831
2078.000000	26.717809
2077.000000	26.650327
2076.000000	26.586698
2075.000000	26.522849
2074.000000	26.438965
2073.000000	26.341100
2072.000000	26.232777
2071.000000	26.126215
2070.000000	26.020204
2069.000000	25.898120
2068.000000	25.769322
2067.000000	25.644596
2066.000000	25.499395
2065.000000	25.369605
2064.000000	25.236073
2063.000000	25.120594
2062.000000	25.001703
2061.000000	24.887326
2060.000000	24.793864
2059.000000	24.711851
2058.000000	24.618389
2057.000000	24.556742
2056.000000	24.528671
2055.000000	24.501590
2054.000000	24.514690
2053.000000	24.538468
2052.000000	24.570723
2051.000000	24.642828
2050.000000	24.749280
2049.000000	24.861786
2048.000000	24.988383
2047.000000	25.150097
2046.000000	25.307958
2045.000000	25.479029
2044.000000	25.664191
2043.000000	25.828217
2042.000000	26.024717
2041.000000	26.216704
2040.000000	26.404618
2039.000000	26.578222
2038.000000	26.749843
2037.000000	26.918382
2036.000000	27.084940
2035.000000	27.230912
2034.000000	27.379856
2033.000000	27.519993
2032.000000	27.654076
2031.000000	27.774288
2030.000000	27.910022
2029.000000	28.018125
2028.000000	28.140539
2027.000000	28.218809
2026.000000	28.301372
2025.000000	28.395935
2024.000000	28.498754
2023.000000	28.554897
2022.000000	28.628653
2021.000000	28.712207
2020.000000	28.755470
2019.000000	28.808641
2018.000000	28.874472
2017.000000	28.916083
2016.000000	28.952521
2015.000000	28.967053
2014.000000	29.002610
2013.000000	29.029580
2012.000000	29.033874
2011.000000	29.012627
2010.000000	29.024186
2009.000000	29.012848
2008.000000	29.004151
2007.000000	28.982464
2006.000000	28.939862
2005.000000	28.905075
2004.000000	28.855757
2003.000000	28.797853
2002.000000	28.739068
2001.000000	28.693823
2000.000000	28.621167
1999.000000	28.551704
1998.000000	28.474865
1997.000000	28.396705
1996.000000	28.299611
1995.000000	28.228827
1994.000000	28.140209
1993.000000	28.037830
1992.000000	27.931929
1991.000000	27.791461
1990.000000	27.708238
1989.000000	27.604098
1988.000000	27.497756
1987.000000	27.382608
1986.000000	27.278248
1985.000000	27.158366
1984.000000	27.025274
1983.000000	26.935776
1982.000000	26.820958
1981.000000	26.705919
1980.000000	26.576790
1979.000000	26.469018
1978.000000	26.347815
1977.000000	26.240483
1976.000000	26.136013
1975.000000	26.044422
1974.000000	25.913202
1973.000000	25.820731
1972.000000	25.690171
1971.000000	25.602434
1970.000000	25.504679
1969.000000	25.392723
1968.000000	25.300142
1967.000000	25.206460
1966.000000	25.085698
1965.000000	25.004675
1964.000000	24.890958
1963.000000	24.780544
1962.000000	24.701063
1961.000000	24.583603
1960.000000	24.481995
1959.000000	24.353857
1958.000000	24.245313
1957.000000	24.151962
1956.000000	24.043419
1955.000000	23.917702
1954.000000	23.827653
1953.000000	23.726155
1952.000000	23.633244
1951.000000	23.539673
1950.000000	23.442688
1949.000000	23.338658
1948.000000	23.281855
1947.000000	23.190485
1946.000000	23.117499
1945.000000	23.044403
1944.000000	22.979673
1943.000000	22.944556
1942.000000	22.868818
1941.000000	22.857260
1940.000000	22.822473
1939.000000	22.798695
1938.000000	22.790879
1937.000000	22.768862
1936.000000	22.765339
1935.000000	22.767210
1934.000000	22.791539
1933.000000	22.829518
1932.000000	22.886652
1931.000000	22.932998
1930.000000	23.028991
1929.000000	23.151295
1928.000000	23.248720
1927.000000	23.361006
1926.000000	23.492446
1925.000000	23.635116
1924.000000	23.746851
1923.000000	23.914950
1922.000000	24.158897
1921.000000	24.374552
1920.000000	24.622132
1919.000000	24.819514
1918.000000	25.064671
1917.000000	25.335039
1916.000000	25.579426
1915.000000	25.849683
1914.000000	26.232997
1913.000000	26.641520
1912.000000	27.035622
1911.000000	27.392295
1910.000000	27.769665
1909.000000	28.121164
1908.000000	28.532439
1907.000000	29.047965
1906.000000	29.640439
1905.000000	30.225427
1904.000000	30.801829
1903.000000	31.353572
1902.000000	31.963879
1901.000000	32.585856
1900.000000	33.274104
1899.000000	33.989982
1898.000000	34.653791
1897.000000	35.281272
1896.000000	35.846996
1895.000000	36.450919
1894.000000	37.047796
1893.000000	37.712155
1892.000000	38.468655
1891.000000	39.160866
1890.000000	39.814987
1889.000000	40.441477
1888.000000	40.984083
1887.000000	41.522176
1886.000000	42.065332
1885.000000	42.612561
1884.000000	43.131059
1883.000000	43.585267
1882.000000	44.029678
1881.000000	44.437100
1880.000000	44.779022
1879.000000	45.148465
1878.000000	45.514716
1877.000000	45.827135
1876.000000	46.163223
1875.000000	46.485330
1874.000000	46.791034
1873.000000	47.091895
1872.000000	47.337933
1871.000000	47.551277
1870.000000	47.758235
1869.000000	47.947801
1868.000000	48.062178
1867.000000	48.155640
1866.000000	48.214425
1865.000000	48.301282
1864.000000	48.381643
1863.000000	48.463986
1862.000000	48.584749
1861.000000	48.707273
1860.000000	48.800624
1859.000000	48.875702
1858.000000	48.960027
1857.000000	49.002189
1856.000000	49.030811
1855.000000	49.087174
1854.000000	49.117998
1853.000000	49.114805
1852.000000	49.137703
1851.000000	49.163903
1850.000000	49.180966
1849.000000	49.211019
1848.000000	49.251420
1847.000000	49.203203
1846.000000	49.145409
1845.000000	49.111283
1844.000000	49.059433
1843.000000	49.079798
1842.000000	49.110952
1841.000000	49.066919
1840.000000	49.026077
1839.000000	48.970044
1838.000000	48.917094
1837.000000	48.874271
1836.000000	48.818898
1835.000000	48.750096
1834.000000	48.669514
1833.000000	48.598620
1832.000000	48.557888
1831.000000	48.535101
1830.000000	48.498553
1829.000000	48.467949
1828.000000	48.418742
1827.000000	48.376579
1826.000000	48.355994
1825.000000	48.325390
1824.000000	48.302823
1823.000000	48.304254
1822.000000	48.347957
1821.000000	48.394964
1820.000000	48.384285
1819.000000	48.339701
1818.000000	48.314162
1817.000000	48.302272
1816.000000	48.301502
1815.000000	48.275632
1814.000000	48.262422
1813.000000	48.251964
1812.000000	48.229727
1811.000000	48.183051
1810.000000	48.142320
1809.000000	48.124486
1808.000000	48.096084
1807.000000	48.086287
1806.000000	48.033777
1805.000000	47.987982
1804.000000	47.980936
1803.000000	47.975982
1802.000000	47.974882
1801.000000	47.933380
1800.000000	47.887695
1799.000000	47.869090
1798.000000	47.857421
1797.000000	47.826708
1796.000000	47.809094
1795.000000	47.797426
1794.000000	47.775849
1793.000000	47.754933
1792.000000	47.746456
1791.000000	47.744145
1790.000000	47.740952
1789.000000	47.735228
1788.000000	47.740512
1787.000000	47.752511
1786.000000	47.763299
1785.000000	47.778711
1784.000000	47.776620
1783.000000	47.771556
1782.000000	47.755704
1781.000000	47.747117
1780.000000	47.736439
1779.000000	47.702313
1778.000000	47.657839
1777.000000	47.621401
1776.000000	47.573844
1775.000000	47.521334
1774.000000	47.486877
1773.000000	47.449999
1772.000000	47.390994
1771.000000	47.343658
1770.000000	47.301495
1769.000000	47.264177
1768.000000	47.214859
1767.000000	47.169394
1766.000000	47.129654
1765.000000	47.114132
1764.000000	47.076703
1763.000000	47.068006
1762.000000	47.068447
1761.000000	47.059310
1760.000000	47.061071
1759.000000	47.047421
1758.000000	47.045659
1757.000000	47.049622
1756.000000	47.056888
1755.000000	47.040595
1754.000000	47.027716
1753.000000	47.047311
1752.000000	47.018799
1751.000000	46.996672
1750.000000	46.953959
1749.000000	46.920163
1748.000000	46.855874
1747.000000	46.799070
1746.000000	46.739955
1745.000000	46.650787
1744.000000	46.566572
1743.000000	46.465074
1742.000000	46.346183
1741.000000	46.250960
1740.000000	46.166415
1739.000000	46.070532
1738.000000	45.982244
1737.000000	45.905515
1736.000000	45.828126
1735.000000	45.747104
1734.000000	45.684796
1733.000000	45.634598
1732.000000	45.584619
1731.000000	45.534751
1730.000000	45.456151
1729.000000	45.407384
1728.000000	45.332416
1727.000000	45.271209
1726.000000	45.230258
1725.000000	45.217158
1724.000000	45.206370
1723.000000	45.266366
1722.000000	45.365552
1721.000000	45.513065
1720.000000	45.716170
1719.000000	45.954173
1718.000000	46.206156
1717.000000	46.479495
1716.000000	46.750193
1715.000000	47.034651
1714.000000	47.252948
1713.000000	47.459687
1712.000000	47.659490
1711.000000	47.844101
1710.000000	48.005925
1709.000000	48.135715
1708.000000	48.249762
1707.000000	48.346306
1706.000000	48.461014
1705.000000	48.500975
1704.000000	48.550733
1703.000000	48.587831
1702.000000	48.601262
1701.000000	48.637589
1700.000000	48.653552
1699.000000	48.642653
1698.000000	48.636158
1697.000000	48.630214
1696.000000	48.581887
1695.000000	48.537633
1694.000000	48.415769
1693.000000	48.340692
1692.000000	48.227745
1691.000000	48.145292
1690.000000	48.087388
1689.000000	48.068233
1688.000000	48.090140
1687.000000	48.187234
1686.000000	48.353572
1685.000000	48.553925
1684.000000	48.770241
1683.000000	49.046663
1682.000000	49.321654
1681.000000	49.601708
1680.000000	49.860737
1679.000000	50.120536
1678.000000	50.344998
1677.000000	50.585092
1676.000000	50.786767
1675.000000	50.983598
1674.000000	51.183401
1673.000000	51.398946
1672.000000	51.626050
1671.000000	51.826404
1670.000000	52.046132
1669.000000	52.256503
1668.000000	52.463902
1667.000000	52.712913
1666.000000	52.874187
1665.000000	53.084668
1664.000000	53.249134
1663.000000	53.419214
1662.000000	53.581699
1661.000000	53.730313
1660.000000	53.868579
1659.000000	53.993855
1658.000000	54.126947
1657.000000	54.231747
1656.000000	54.309467
1655.000000	54.378600
1654.000000	54.458081
1653.000000	54.496390
1652.000000	54.535030
1651.000000	54.588090
1650.000000	54.615061
1649.000000	54.632344
1648.000000	54.655022
1647.000000	54.649297
1646.000000	54.660636
1645.000000	54.647096
1644.000000	54.657994
1643.000000	54.655242
1642.000000	54.676268
1641.000000	54.686616
1640.000000	54.685295
1639.000000	54.676818
1638.000000	54.662948
1637.000000	54.659865
1636.000000	54.650838
1635.000000	54.625849
1634.000000	54.618914
1633.000000	54.603172
1632.000000	54.578843
1631.000000	54.544387
1630.000000	54.513894
1629.000000	54.485382
1628.000000	54.444871
1627.000000	54.384214
1626.000000	54.353721
1625.000000	54.318384
1624.000000	54.277983
1623.000000	54.241875
1622.000000	54.211932
1621.000000	54.161734
1620.000000	54.144120
1619.000000	54.130580
1618.000000	54.082693
1617.000000	54.037118
1616.000000	54.008386
1615.000000	53.985158
1614.000000	53.930887
1613.000000	53.876725
1612.000000	53.828508
1611.000000	53.784254
1610.000000	53.727781
1609.000000	53.669546
1608.000000	53.604376
1607.000000	53.527868
1606.000000	53.449708
1605.000000	53.367915
1604.000000	53.277646
1603.000000	53.189799
1602.000000	53.102061
1601.000000	53.026984
1600.000000	52.949044
1599.000000	52.859876
1598.000000	52.789752
1597.000000	52.713353
1596.000000	52.642459
1595.000000	52.574537
1594.000000	52.501551
1593.000000	52.441115
1592.000000	52.377926
1591.000000	52.321013
1590.000000	52.271695
1589.000000	52.224249
1588.000000	52.175701
1587.000000	52.103046
1586.000000	52.043820
1585.000000	51.992081
1584.000000	51.937259
1583.000000	51.882657
1582.000000	51.843577
1581.000000	51.820569
1580.000000	51.788865
1579.000000	51.765857
1578.000000	51.739327
1577.000000	51.727438
1576.000000	51.719952
1575.000000	51.713677
1574.000000	51.708944
1573.000000	51.706632
1572.000000	51.716209
1571.000000	51.731401
1570.000000	51.758702
1569.000000	51.786333
1568.000000	51.817707
1567.000000	51.849301
1566.000000	51.888381
1565.000000	51.917553
1564.000000	51.928452
1563.000000	51.950138
1562.000000	51.963569
1561.000000	51.961807
1560.000000	51.944634
1559.000000	51.932195
1558.000000	51.902582
1557.000000	51.852714
1556.000000	51.810882
1555.000000	51.757050
1554.000000	51.684725
1553.000000	51.614051
1552.000000	51.544257
1551.000000	51.460263
1550.000000	51.373076
1549.000000	51.291504
1548.000000	51.194519
1547.000000	51.113277
1546.000000	51.049098
1545.000000	50.982497
1544.000000	50.920850
1543.000000	50.871312
1542.000000	50.834543
1541.000000	50.795023
1540.000000	50.763649
1539.000000	50.729633
1538.000000	50.694846
1537.000000	50.669087
1536.000000	50.629016
1535.000000	50.578267
1534.000000	50.534784
1533.000000	50.501648
1532.000000	50.455963
1531.000000	50.397949
1530.000000	50.339164
1529.000000	50.282470
1528.000000	50.225557
1527.000000	50.155103
1526.000000	50.111179
1525.000000	50.052284
1524.000000	49.981059
1523.000000	49.917871
1522.000000	49.860297
1521.000000	49.792925
1520.000000	49.722691
1519.000000	49.654769
1518.000000	49.587287
1517.000000	49.516833
1516.000000	49.447921
1515.000000	49.379999
1514.000000	49.297435
1513.000000	49.216853
1512.000000	49.130107
1511.000000	49.065047
1510.000000	48.983034
1509.000000	48.900141
1508.000000	48.808991
1507.000000	48.737216
1506.000000	48.676229
1505.000000	48.604234
1504.000000	48.541376
1503.000000	48.479398
1502.000000	48.403880
1501.000000	48.354232
1500.000000	48.315262
1499.000000	48.275632
1498.000000	48.257468
1497.000000	48.242056
1496.000000	48.238424
1495.000000	48.239855
1494.000000	48.234460
1493.000000	48.242827
1492.000000	48.253175
1491.000000	48.283228
1490.000000	48.308107
1489.000000	48.336509
1488.000000	48.371516
1487.000000	48.401899
1486.000000	48.428869
1485.000000	48.449896
1484.000000	48.484022
1483.000000	48.518698
1482.000000	48.549632
1481.000000	48.589042
1480.000000	48.629773
1479.000000	48.673807
1478.000000	48.737766
1477.000000	48.785873
1476.000000	48.831448
1475.000000	48.927552
1474.000000	49.011216
1473.000000	49.122071
1472.000000	49.214652
1471.000000	49.303160
1470.000000	49.380879
1469.000000	49.474781
1468.000000	49.586737
1467.000000	49.689226
1466.000000	49.798429
1465.000000	49.911376
1464.000000	50.003516
1463.000000	50.097859
1462.000000	50.247904
1461.000000	50.337953
1460.000000	50.475888
1459.000000	50.573974
1458.000000	50.704644
1457.000000	50.846322
1456.000000	50.967085
1455.000000	51.080802
1454.000000	51.199913
1453.000000	51.351940
1452.000000	51.473363
1451.000000	51.615152
1450.000000	51.705421
1449.000000	51.785122
1448.000000	51.916012
1447.000000	52.054829
1446.000000	52.196727
1445.000000	52.319582
1444.000000	52.408200
1443.000000	52.542502
1442.000000	52.691006
1441.000000	52.806485
1440.000000	52.957300
1439.000000	53.101951
1438.000000	53.270380
1437.000000	53.382006
1436.000000	53.552086
1435.000000	53.740991
1434.000000	53.923621
1433.000000	54.106361
1432.000000	54.259929
1431.000000	54.458411
1430.000000	54.665920
1429.000000	54.882236
1428.000000	55.108679
1427.000000	55.329729
1426.000000	55.582262
1425.000000	55.863308
1424.000000	56.179140
1423.000000	56.430573
1422.000000	56.667694
1421.000000	57.003782
1420.000000	57.374106
1419.000000	57.668581
1418.000000	57.988487
1417.000000	58.262267
1416.000000	58.668588
1415.000000	59.108595
1414.000000	59.534732
1413.000000	59.872911
1412.000000	60.239602
1411.000000	60.691498
1410.000000	61.201519
1409.000000	61.632720
1408.000000	62.091992
1407.000000	62.500845
1406.000000	62.963860
1405.000000	63.388786
1404.000000	63.825381
1403.000000	64.224106
1402.000000	64.664113
1401.000000	65.190977
1400.000000	65.616563
1399.000000	65.867336
1398.000000	66.170838
1397.000000	66.578040
1396.000000	67.085199
1395.000000	67.376042
1394.000000	67.635951
1393.000000	67.931198
1392.000000	68.270257
1391.000000	68.561541
1390.000000	68.834880
1389.000000	69.247146
1388.000000	69.587747
1387.000000	69.853491
1386.000000	70.168002
1385.000000	70.517300
1384.000000	70.757284
1383.000000	71.028201
1382.000000	71.269396
1381.000000	71.427477
1380.000000	71.515105
1379.000000	71.628271
1378.000000	71.749254
1377.000000	71.883117
1376.000000	72.003989
1375.000000	72.143576
1374.000000	72.260376
1373.000000	72.431117
1372.000000	72.619581
1371.000000	72.775240
1370.000000	72.899305
1369.000000	73.082926
1368.000000	73.233412
1367.000000	73.329515
1366.000000	73.456002
1365.000000	73.605497
1364.000000	73.719214
1363.000000	73.829739
1362.000000	73.973068
1361.000000	74.037688
1360.000000	74.036257
1359.000000	74.159992
1358.000000	74.234629
1357.000000	74.348126
1356.000000	74.497951
1355.000000	74.639850
1354.000000	74.769529
1353.000000	74.904492
1352.000000	75.135449
1351.000000	75.355288
1350.000000	75.568411
1349.000000	75.782856
1348.000000	76.002144
1347.000000	76.211304
1346.000000	76.420134
1345.000000	76.650761
1344.000000	76.848362
1343.000000	77.016791
1342.000000	77.189294
1341.000000	77.368071
1340.000000	77.540573
1339.000000	77.690948
1338.000000	77.841544
1337.000000	77.992139
1336.000000	78.123580
1335.000000	78.251278
1334.000000	78.376664
1333.000000	78.508325
1332.000000	78.615437
1331.000000	78.691725
1330.000000	78.781664
1329.000000	78.891859
1328.000000	78.975192
1327.000000	79.047078
1326.000000	79.120724
1325.000000	79.196682
1324.000000	79.266145
1323.000000	79.318766
1322.000000	79.375569
1321.000000	79.439859
1320.000000	79.494571
1319.000000	79.536623
1318.000000	79.600362
1317.000000	79.662559
1316.000000	79.702740
1315.000000	79.745673
1314.000000	79.785634
1313.000000	79.816127
1312.000000	79.866546
1311.000000	79.916414
1310.000000	79.947678
1309.000000	79.978061
1308.000000	80.011967
1307.000000	80.040479
1306.000000	80.062936
1305.000000	80.083412
1304.000000	80.098163
1303.000000	80.118969
1302.000000	80.133170
1301.000000	80.143738
1300.000000	80.147371
1299.000000	80.144178
1298.000000	80.145499
1297.000000	80.140656
1296.000000	80.142417
1295.000000	80.143628
1294.000000	80.128546
1293.000000	80.109502
1292.000000	80.107300
1291.000000	80.101246
1290.000000	80.079119
1289.000000	80.064037
1288.000000	80.056221
1287.000000	80.020113
1286.000000	79.987418
1285.000000	79.970465
1284.000000	79.947458
1283.000000	79.913221
1282.000000	79.898470
1281.000000	79.883719
1280.000000	79.865555
1279.000000	79.852565
1278.000000	79.833520
1277.000000	79.827796
1276.000000	79.826915
1275.000000	79.831979
1274.000000	79.834511
1273.000000	79.853446
1272.000000	79.856748
1271.000000	79.879756
1270.000000	79.904855
1269.000000	79.928193
1268.000000	79.925441
1267.000000	79.936559
1266.000000	79.965512
1265.000000	79.974869
1264.000000	79.973988
1263.000000	79.975529
1262.000000	79.986868
1261.000000	79.997216
1260.000000	79.996996
1259.000000	80.002170
1258.000000	79.999858
1257.000000	80.018462
1256.000000	80.013618
1255.000000	79.996335
1254.000000	79.980813
1253.000000	79.974869
1252.000000	79.940963
1251.000000	79.900011
1250.000000	79.865885
1249.000000	79.831099
1248.000000	79.774955
1247.000000	79.715290
1246.000000	79.675880
1245.000000	79.619847
1244.000000	79.551484
1243.000000	79.502056
1242.000000	79.441950
1241.000000	79.380303
1240.000000	79.332306
1239.000000	79.291575
1238.000000	79.267026
1237.000000	79.209892
1236.000000	79.181711
1235.000000	79.155070
1234.000000	79.120394
1233.000000	79.071076
1232.000000	79.037941
1231.000000	79.013722
1230.000000	78.984109
1229.000000	78.950423
1228.000000	78.888116
1227.000000	78.845843
1226.000000	78.820634
1225.000000	78.790251
1224.000000	78.731576
1223.000000	78.696569
1222.000000	78.661782
1221.000000	78.626335
1220.000000	78.571183
1219.000000	78.530121
1218.000000	78.493904
1217.000000	78.466052
1216.000000	78.424661
1215.000000	78.394057
1214.000000	78.342427
1213.000000	78.295421
1212.000000	78.225518
1211.000000	78.165412
1210.000000	78.123910
1209.000000	78.050924
1208.000000	77.999184
1207.000000	77.933354
1206.000000	77.890091
1205.000000	77.804445
1204.000000	77.756669
1203.000000	77.685884
1202.000000	77.629741
1201.000000	77.563360
1200.000000	77.498851
1199.000000	77.432910
1198.000000	77.350567
1197.000000	77.282755
1196.000000	77.200632
1195.000000	77.118730
1194.000000	77.028020
1193.000000	76.944246
1192.000000	76.878085
1191.000000	76.810713
1190.000000	76.752259
1189.000000	76.702831
1188.000000	76.674209
1187.000000	76.701069
1186.000000	76.719454
1185.000000	76.769652
1184.000000	76.806420
1183.000000	76.846381
1182.000000	76.924321
1181.000000	77.012388
1180.000000	77.086365
1179.000000	77.184450
1178.000000	77.274169
1177.000000	77.353319
1176.000000	77.451625
1175.000000	77.533968
1174.000000	77.633154
1173.000000	77.725735
1172.000000	77.848479
1171.000000	77.957462
1170.000000	78.094187
1169.000000	78.240489
1168.000000	78.410350
1167.000000	78.569091
1166.000000	78.721338
1165.000000	78.898574
1164.000000	79.074158
1163.000000	79.243578
1162.000000	79.421144
1161.000000	79.602233
1160.000000	79.764828
1159.000000	79.919606
1158.000000	80.074275
1157.000000	80.213422
1156.000000	80.359063
1155.000000	80.496669
1154.000000	80.587378
1153.000000	80.707921
1152.000000	80.800722
1151.000000	80.879542
1150.000000	80.974545
1149.000000	81.048081
1148.000000	81.133287
1147.000000	81.229941
1146.000000	81.279919
1145.000000	81.364134
1144.000000	81.444165
1143.000000	81.525737
1142.000000	81.617878
1141.000000	81.736879
1140.000000	81.830121
1139.000000	81.944278
1138.000000	82.076269
1137.000000	82.223782
1136.000000	82.360948
1135.000000	82.502626
1134.000000	82.599500
1133.000000	82.683275
1132.000000	82.782240
1131.000000	82.890674
1130.000000	82.984245
1129.000000	83.077046
1128.000000	83.167976
1127.000000	83.244265
1126.000000	83.279492
1125.000000	83.336625
1124.000000	83.392879
1123.000000	83.431848
1122.000000	83.454196
1121.000000	83.463002
1120.000000	83.487111
1119.000000	83.492285
1118.000000	83.519916
1117.000000	83.522778
1116.000000	83.519916
1115.000000	83.522778
1114.000000	83.536649
1113.000000	83.548097
1112.000000	83.577820
1111.000000	83.571876
1110.000000	83.579802
1109.000000	83.587838
1108.000000	83.572646
1107.000000	83.571435
1106.000000	83.579141
1105.000000	83.594773
1104.000000	83.606222
1103.000000	83.603470
1102.000000	83.581343
1101.000000	83.588168
1100.000000	83.595874
1099.000000	83.591691
1098.000000	83.581013
1097.000000	83.567362
1096.000000	83.546887
1095.000000	83.553161
1094.000000	83.559877
1093.000000	83.560317
1092.000000	83.560207
1091.000000	83.545455
1090.000000	83.535108
1089.000000	83.521237
1088.000000	83.490523
1087.000000	83.486120
1086.000000	83.477203
1085.000000	83.477643
1084.000000	83.464984
1083.000000	83.455406
1082.000000	83.444288
1081.000000	83.435811
1080.000000	83.419849
1079.000000	83.421500
1078.000000	83.400474
1077.000000	83.372403
1076.000000	83.368550
1075.000000	83.363266
1074.000000	83.348625
1073.000000	83.323525
1072.000000	83.323525
1071.000000	83.321764
1070.000000	83.316260
1069.000000	83.319012
1068.000000	83.309545
1067.000000	83.301619
1066.000000	83.296995
1065.000000	83.284666
1064.000000	83.280152
1063.000000	83.286647
1062.000000	83.281033
1061.000000	83.265291
1060.000000	83.255934
1059.000000	83.270245
1058.000000	83.257144
1057.000000	83.245696
1056.000000	83.250760
1055.000000	83.263309
1054.000000	83.270245
1053.000000	83.254723
1052.000000	83.233917
1051.000000	83.240191
1050.000000	83.256924
1049.000000	83.256044
1048.000000	83.256044
1047.000000	83.267823
1046.000000	83.279932
1045.000000	83.280372
1044.000000	83.274208
1043.000000	83.281913
1042.000000	83.293142
1041.000000	83.291271
1040.000000	83.294023
1039.000000	83.300187
1038.000000	83.303270
1037.000000	83.292041
1036.000000	83.292482
1035.000000	83.316150
1034.000000	83.329140
1033.000000	83.328589
1032.000000	83.343451
1031.000000	83.356991
1030.000000	83.362275
1029.000000	83.374935
1028.000000	83.382751
1027.000000	83.385943
1026.000000	83.383191
1025.000000	83.395300
1024.000000	83.421170
1023.000000	83.437463
1022.000000	83.436362
1021.000000	83.455847
1020.000000	83.484689
1019.000000	83.508137
1018.000000	83.532576
1017.000000	83.554592
1016.000000	83.582884
1015.000000	83.607873
1014.000000	83.627358
1013.000000	83.652678
1012.000000	83.692418
1011.000000	83.724783
1010.000000	83.755166
1009.000000	83.800191
1008.000000	83.827492
1007.000000	83.827382
1006.000000	83.876149
1005.000000	83.907523
1004.000000	83.937356
1003.000000	83.980839
1002.000000	83.994380
1001.000000	84.009571
1000.000000	84.058669
999.000000	84.109418
998.000000	84.142443
997.000000	84.154883
996.000000	84.177230
995.000000	84.198916
994.000000	84.240748
993.000000	84.260123
992.000000	84.278617
991.000000	84.302065
990.000000	84.327495
989.000000	84.336081
988.000000	84.374391
987.000000	84.416223
986.000000	84.427782
985.000000	84.464110
984.000000	84.505391
983.000000	84.530601
982.000000	84.549205
981.000000	84.554819
980.000000	84.598192
979.000000	84.636502
978.000000	84.657198
977.000000	84.679765
976.000000	84.715983
975.000000	84.750329
974.000000	84.807133
973.000000	84.823425
972.000000	84.843020
971.000000	84.886173
970.000000	84.925033
969.000000	84.933179
968.000000	84.960700
967.000000	84.998239
966.000000	85.029503
965.000000	85.073867
964.000000	85.101388
963.000000	85.123735
962.000000	85.175475
961.000000	85.206849
960.000000	85.229086
959.000000	85.285009
958.000000	85.303613
957.000000	85.344014
956.000000	85.373847
955.000000	85.398726
954.000000	85.422614
953.000000	85.462465
952.000000	85.526754
951.000000	85.519709
950.000000	85.545248
949.000000	85.548331
948.000000	85.565944
947.000000	85.615372
946.000000	85.633316
945.000000	85.630674
944.000000	85.646856
943.000000	85.682413
942.000000	85.682744
941.000000	85.676469
940.000000	85.719402
939.000000	85.683294
938.000000	85.697275
937.000000	85.699917
936.000000	85.721934
935.000000	85.719622
934.000000	85.736905
933.000000	85.724686
932.000000	85.706082
931.000000	85.710705
930.000000	85.752317
929.000000	85.724025
928.000000	85.738667
927.000000	85.732282
926.000000	85.777636
925.000000	85.754188
924.000000	85.747473
923.000000	85.764316
922.000000	85.760683
921.000000	85.773343
920.000000	85.840384
919.000000	85.808790
918.000000	85.801084
917.000000	85.800754
916.000000	85.821010
915.000000	85.814845
914.000000	85.902472
913.000000	85.880235
912.000000	85.871318
911.000000	85.818478
910.000000	85.848861
909.000000	85.834440
908.000000	85.822000
907.000000	85.824642
906.000000	85.791397
905.000000	85.810662
904.000000	85.800424
903.000000	85.744171
902.000000	85.727768
901.000000	85.700687
900.000000	85.672396
899.000000	85.615152
898.000000	85.504517
897.000000	85.456300
896.000000	85.392781
895.000000	85.338620
894.000000	85.236792
893.000000	85.079151
892.000000	84.958499
891.000000	84.852267
890.000000	84.593239
889.000000	84.483705
888.000000	84.333660
887.000000	84.099840
886.000000	83.895414
885.000000	83.628899
884.000000	83.479185
883.000000	83.246907
882.000000	82.935808
881.000000	82.723786
880.000000	82.397496
879.000000	82.139568
878.000000	81.709578
877.000000	81.247664
876.000000	80.843434
875.000000	80.520667
874.000000	80.014389
873.000000	79.448445
872.000000	79.032987
871.000000	78.828890
870.000000	78.829881
869.000000	78.845403
868.000000	78.933030
867.000000	78.961432
866.000000	79.023409
865.000000	79.032987
864.000000	79.072837
863.000000	79.113238
862.000000	79.170592
861.000000	79.206920
860.000000	79.267466
859.000000	79.339242
858.000000	80.850700
857.000000	81.017200
856.000000	80.776100
855.000000	80.758800
854.000000	80.735700
853.000000	81.192300
852.000000	81.264900
851.000000	81.467400
850.000000	81.518400
849.000000	81.718600
848.000000	81.836800
847.000000	81.605900
846.000000	82.162300
845.000000	81.707200
844.000000	82.027400
843.000000	82.557600
842.000000	82.489800
841.000000	82.809700
840.000000	82.903600
839.000000	83.109600
838.000000	83.555200
837.000000	84.080700
836.000000	84.598400
835.000000	84.889900
834.000000	84.980000
833.000000	85.286200
832.000000	85.599000
831.000000	86.132600
830.000000	86.601500
829.000000	86.675700
828.000000	87.131200
827.000000	87.549300
826.000000	87.844200
825.000000	88.220800
824.000000	88.587600
823.000000	89.243300
822.000000	89.775700
821.000000	89.915300
820.000000	90.174700
819.000000	90.622100
818.000000	91.224800
817.000000	91.442100
816.000000	91.777300
815.000000	92.456900
814.000000	92.740800
813.000000	93.164300
812.000000	93.502300
811.000000	93.906400
810.000000	94.149200
809.000000	94.462700
808.000000	94.621700
807.000000	95.365000
806.000000	95.493500
805.000000	95.748700
804.000000	96.094900
803.000000	96.417000
802.000000	96.593100
801.000000	96.846200
800.000000	97.078700
799.000000	97.277900
798.000000	97.391600
797.000000	97.635400
796.000000	97.753500
795.000000	97.967400
794.000000	98.063600
793.000000	98.059300
792.000000	98.152500
791.000000	98.358500
790.000000	98.457500
789.000000	98.447000
788.000000	98.635800
787.000000	98.687000
786.000000	98.555600
785.000000	98.702100
784.000000	98.699600
783.000000	98.696100
782.000000	98.762200
781.000000	98.642900
780.000000	98.611100
779.000000	98.616700
778.000000	98.521700
777.000000	98.378100
776.000000	98.390400
775.000000	98.376900
774.000000	98.232200
773.000000	98.078800
772.000000	97.994200
771.000000	97.993000
770.000000	98.052700
769.000000	97.992500
768.000000	97.738700
767.000000	97.734600
766.000000	97.694300
765.000000	97.601600
764.000000	97.447900
763.000000	97.432400
762.000000	97.300400
761.000000	97.205800
760.000000	97.141600
759.000000	97.026800
758.000000	96.937900
757.000000	96.813800
756.000000	96.650400
755.000000	96.491300
754.000000	96.327800
753.000000	96.087600
752.000000	95.999700
751.000000	95.956700
750.000000	95.846500
749.000000	95.767900
748.000000	95.629600
747.000000	95.453000
746.000000	95.370400
745.000000	95.193500
744.000000	95.008000
743.000000	94.935600
742.000000	94.884300
741.000000	94.761400
740.000000	94.618300
739.000000	94.471300
738.000000	94.340600
737.000000	94.206700
736.000000	94.112600
735.000000	93.971700
734.000000	93.888900
733.000000	93.812100
732.000000	93.702700
731.000000	93.702300
730.000000	93.599700
729.000000	93.460600
728.000000	93.343000
727.000000	93.144000
726.000000	93.056000
725.000000	92.930700
724.000000	92.791100
723.000000	92.679800
722.000000	92.500300
721.000000	92.296500
720.000000	92.059500
719.000000	91.776100
718.000000	91.496000
717.000000	91.226000
716.000000	90.921000
715.000000	90.563800
714.000000	90.172700
713.000000	89.833200
712.000000	89.439500
711.000000	88.918100
710.000000	88.442400
709.000000	87.931000
708.000000	87.327200
707.000000	86.799700
706.000000	86.208600
705.000000	85.597800
704.000000	84.983400
703.000000	84.367200
702.000000	83.727800
701.000000	83.114800
700.000000	82.430000
699.000000	81.708400
698.000000	81.053500
697.000000	80.409700
696.000000	79.782900
695.000000	79.154100
694.000000	78.567500
693.000000	77.989200
692.000000	77.381400
691.000000	76.881800
690.000000	76.321400
689.000000	75.778500
688.000000	75.265100
687.000000	74.859800
686.000000	74.389900
685.000000	73.942600
684.000000	73.484600
683.000000	73.161900
682.000000	72.839700
681.000000	72.426300
680.000000	72.123300
679.000000	71.813500
678.000000	71.572100
677.000000	71.254000
676.000000	70.966500
675.000000	70.649900
674.000000	70.326400
673.000000	70.068000
672.000000	69.799400
671.000000	69.490700
670.000000	69.154400
669.000000	68.897400
668.000000	68.554700
667.000000	68.221200
666.000000	68.031000
665.000000	67.706700
664.000000	67.442000
663.000000	67.123700
662.000000	66.835300
661.000000	66.588100
660.000000	66.386200
659.000000	66.100400
658.000000	65.892000
657.000000	65.711200
656.000000	65.557500
655.000000	65.405400
654.000000	65.161100
653.000000	64.975500
652.000000	64.791600
651.000000	64.622600
650.000000	64.513900
649.000000	64.387300
648.000000	64.221300
647.000000	64.126400
646.000000	64.035500
645.000000	63.918600
644.000000	63.814100
643.000000	63.693900
642.000000	63.461700
641.000000	63.298500
640.000000	63.134500
639.000000	62.911000
638.000000	62.680000
637.000000	62.423300
636.000000	62.123500
635.000000	61.836300
634.000000	61.545800
633.000000	61.136800
632.000000	60.783100
631.000000	60.378700
630.000000	59.908200
629.000000	59.476900
628.000000	59.046600
627.000000	58.571600
626.000000	58.141800
625.000000	57.675800
624.000000	57.209900
623.000000	56.878700
622.000000	56.553400
621.000000	56.221400
620.000000	55.906900
619.000000	55.699800
618.000000	55.562400
617.000000	55.436600
616.000000	55.348300
615.000000	55.335400
614.000000	55.422000
613.000000	55.538500
612.000000	55.802600
611.000000	56.081800
610.000000	56.367900
609.000000	56.740900
608.000000	57.210000
607.000000	57.733200
606.000000	58.272900
605.000000	58.871000
604.000000	59.482300
603.000000	60.175800
602.000000	60.848700
601.000000	61.622900
600.000000	62.343200
599.000000	63.133600
598.000000	63.865900
597.000000	64.584800
596.000000	65.313100
595.000000	66.066000
594.000000	66.739100
593.000000	67.386000
592.000000	68.039100
591.000000	68.668400
590.000000	69.280700
589.000000	69.766000
588.000000	70.323200
587.000000	70.740800
586.000000	71.245400
585.000000	71.694700
584.000000	72.076400
583.000000	72.517800
582.000000	72.924600
581.000000	73.286400
580.000000	73.593100
579.000000	73.921200
578.000000	74.133100
577.000000	74.458600
576.000000	74.582900
575.000000	74.775700
574.000000	75.008500
573.000000	75.142700
572.000000	75.256000
571.000000	75.379600
570.000000	75.473100
569.000000	75.572300
568.000000	75.605400
567.000000	75.591300
566.000000	75.548100
565.000000	75.476800
564.000000	75.429300
563.000000	75.344500
562.000000	75.220200
561.000000	75.103800
560.000000	74.934200
559.000000	74.764600
558.000000	74.584500
557.000000	74.440100
556.000000	74.205900
555.000000	73.977600
554.000000	73.721600
553.000000	73.433800
552.000000	73.168200
551.000000	72.839000
550.000000	72.524000
549.000000	72.233000
548.000000	71.879000
547.000000	71.488700
546.000000	71.088400
545.000000	70.648500
544.000000	70.165300
543.000000	69.674700
542.000000	69.185600
541.000000	68.690600
540.000000	68.207300
539.000000	67.645200
538.000000	67.057900
537.000000	66.499100
536.000000	65.867000
535.000000	65.214200
534.000000	64.530900
533.000000	63.880500
532.000000	63.167600
531.000000	62.391600
530.000000	61.640500
529.000000	60.865800
528.000000	60.049700
527.000000	59.216900
526.000000	58.380600
525.000000	57.488000
524.000000	56.602000
523.000000	55.708600
522.000000	54.798900
521.000000	53.907000
520.000000	52.985200
519.000000	52.067400
518.000000	51.173000
517.000000	50.235800
516.000000	49.331700
515.000000	48.401100
514.000000	47.523600
513.000000	46.635100
512.000000	45.749400
511.000000	44.867700
510.000000	43.969400
509.000000	43.093300
508.000000	42.229400
507.000000	41.385100
506.000000	40.560100
505.000000	39.783400
504.000000	39.004300
503.000000	38.228300
502.000000	37.448700
501.000000	36.720500
500.000000	36.006100
499.000000	35.258100
498.000000	34.558300
497.000000	33.862200
496.000000	33.183300
495.000000	32.520300
494.000000	31.816300
493.000000	31.141200
492.000000	30.482500
491.000000	29.813800
490.000000	29.181600
489.000000	28.555000
488.000000	27.939500
487.000000	27.325900
486.000000	26.761400
485.000000	26.227500
484.000000	25.716600
483.000000	25.220900
482.000000	24.747200
481.000000	24.321200
480.000000	23.931400
479.000000	23.578800
478.000000	23.277900
477.000000	22.996400
476.000000	22.766100
475.000000	22.582100
474.000000	22.422000
473.000000	22.308600
472.000000	22.225400
471.000000	22.143500
470.000000	22.081600
469.000000	22.068600
468.000000	22.083700
467.000000	22.115000
466.000000	22.141700
465.000000	22.171000
464.000000	22.200400
463.000000	22.234400
462.000000	22.289100
461.000000	22.323700
460.000000	22.340400
459.000000	22.360500
458.000000	22.386400
457.000000	22.403300
456.000000	22.388300
455.000000	22.361900
454.000000	22.330600
453.000000	22.276900
452.000000	22.216400
451.000000	22.162000
450.000000	22.078400
449.000000	21.960100
448.000000	21.858400
447.000000	21.751200
446.000000	21.627000
445.000000	21.465700
444.000000	21.292600
443.000000	21.138400
442.000000	20.950100
441.000000	20.759100
440.000000	20.574500
439.000000	20.335600
438.000000	20.107700
437.000000	19.871300
436.000000	19.634400
435.000000	19.422500
434.000000	19.166700
433.000000	18.904200
432.000000	18.646200
431.000000	18.371500
430.000000	18.093600
429.000000	17.814900
428.000000	17.537300
427.000000	17.233400
426.000000	16.925100
425.000000	16.642400
424.000000	16.320500
423.000000	15.998400
422.000000	15.670400
421.000000	15.356100
420.000000	15.041500
419.000000	14.706400
418.000000	14.377900
417.000000	14.050800
416.000000	13.703500
415.000000	13.378200
414.000000	13.058800
413.000000	12.740700
412.000000	12.419400
411.000000	12.111600
410.000000	11.799600
409.000000	11.488000
408.000000	11.186000
407.000000	10.913000
406.000000	10.629000
405.000000	10.372900
404.000000	10.118800
403.000000	9.866600
402.000000	9.621000
401.000000	9.388400
400.000000	9.164000
399.000000	8.948000
398.000000	8.743100
397.000000	8.589800
396.000000	8.420000
395.000000	8.252300
394.000000	8.094000
393.000000	7.956400
392.000000	7.816200
391.000000	7.684100
390.000000	7.563400
389.000000	7.450900
388.000000	7.360200
387.000000	7.245400
386.000000	7.158100
385.000000	7.068600
384.000000	6.986900
383.000000	6.932900
382.000000	6.897700
381.000000	6.829000
380.000000	6.769800
379.000000	6.704700
378.000000	6.667400
377.000000	6.617300
376.000000	6.497500
375.000000	6.257600
374.000000	6.042500
373.000000	6.017600
372.000000	6.080800
371.000000	6.279200
370.000000	6.377200
369.000000	6.287600
368.000000	6.320900
367.000000	6.277600
366.000000	6.170100
365.000000	6.098600
364.000000	6.247100
363.000000	6.319600
362.000000	6.328600
361.000000	6.272600
360.000000	6.281100
359.000000	6.327900
358.000000	6.252500
357.000000	6.235700
356.000000	5.959600
355.000000	6.242800
354.000000	6.362700
353.000000	6.225500
352.000000	6.162500
351.000000	6.181300
350.000000	6.117100
349.000000	6.208800
348.000000	6.181100
347.000000	6.352900
346.000000	6.213900
345.000000	6.231200
344.000000	6.482800
343.000000	6.156800
342.000000	6.308900
341.000000	6.329500
340.000000	6.515000
339.000000	6.170700
338.000000	6.148600
337.000000	6.005600
336.000000	6.414700
335.000000	6.483600
334.000000	6.416300
333.000000	6.260100
332.000000	6.456400
331.000000	6.233500
330.000000	6.709000
329.000000	6.189200
328.000000	6.314900
327.000000	6.581900
326.000000	6.532700
325.000000	6.751300
324.000000	6.305800
323.000000	6.573000
322.000000	6.729100
321.000000	6.617100
320.000000	6.639100
319.000000	6.808600
318.000000	7.034500
317.000000	6.784100
316.000000	6.287100
315.000000	6.185300
314.000000	6.195800
313.000000	6.254300
312.000000	6.126800
311.000000	6.191300
310.000000	6.228100
309.000000	6.201200
308.000000	6.235900
307.000000	6.196900
306.000000	6.219000
305.000000	6.257500
304.000000	6.113700
303.000000	6.187400
302.000000	6.225500
301.000000	6.209100
300.000000	6.193400
299.000000	6.218600
298.000000	6.233800
297.000000	6.273500
296.000000	6.219000
295.000000	6.280300
294.000000	6.227300
293.000000	6.220400
292.000000	6.202700
291.000000	6.226800
290.000000	6.203200
289.000000	6.243900
288.000000	6.223200
287.000000	6.272900
286.000000	6.285600
285.000000	6.306200
284.000000	6.313100
283.000000	6.306300
282.000000	6.243600
281.000000	6.257800
280.000000	6.267700
279.000000	6.238000
278.000000	6.263100
277.000000	6.284600
276.000000	6.269800
275.000000	6.328000
274.000000	6.328200
273.000000	6.301100
272.000000	6.275000
271.000000	6.388800
270.000000	6.379800
269.000000	6.393700
268.000000	6.420400
267.000000	6.417300
266.000000	6.456800
265.000000	6.492000
264.000000	6.448000
263.000000	6.607800
262.000000	6.577600
261.000000	6.636300
260.000000	6.583600
259.000000	6.588900
258.000000	6.665300
257.000000	6.711500
256.000000	6.747500
255.000000	6.748200
254.000000	6.787500
253.000000	6.793600
252.000000	6.878500
251.000000	6.854900
250.000000	6.851100
