PE UV       SUBTECH     SPECTRUM    ASCII       PEDS        4.00        
   -1
CICIMAUCR0001-5.Sample.ASC
24/04/23
10:47:46.00
24/04/23
10:47:46.00
Vinicio Soto Monge
C. kalinini
250,000000
1
Lambda 1050
1050L1511233
PerkinElmer UV WinLab 6.3.2.0749 / 2.02.05 Lambda 900 UV/VIS/NIR, Aug  7 2015 09:38:08

0
0
3350/servo 860,8/2
0
0
UV/VIS
1
1
1
DoubleDePol,CommonBeamDepol,RBeamAtt,SBeamAtt,60mm sphere, WB InGaAs Detector
0
0
0
0
Program
Program
3350/servo 860,8/2
3350/0,2 860,8/0,2
3350/0,2 860,8/0,2
0
15.00
 
 
 
0
 
860,8
319,2
860,8
Front
100
on
S:100 R:100
0
0
0
0
 
0
 
 
 
0
 
 
0
0
0
0
0
 
 
 
 
0
0


0
0
#HDR
-1
-1
#GR
nm
%R
1.0
0.0
2500,000000
-1,000000
2251
8
101,472100
5,465400
#DATA
2482.000000	14.904411
2481.000000	14.997940
2480.000000	15.007507
2479.000000	14.960911
2478.000000	14.990286
2477.000000	15.005931
2476.000000	15.054890
2475.000000	15.093720
2474.000000	15.160124
2473.000000	15.127710
2472.000000	15.140315
2471.000000	15.223152
2470.000000	15.258493
2469.000000	15.323772
2468.000000	15.337840
2467.000000	15.404470
2466.000000	15.459732
2465.000000	15.524898
2464.000000	15.557875
2463.000000	15.585788
2462.000000	15.680329
2461.000000	15.739981
2460.000000	15.785451
2459.000000	15.883144
2458.000000	15.946172
2457.000000	16.025632
2456.000000	16.098452
2455.000000	16.175324
2454.000000	16.214716
2453.000000	16.346962
2452.000000	16.430474
2451.000000	16.538972
2450.000000	16.646007
2449.000000	16.737285
2448.000000	16.845558
2447.000000	16.958670
2446.000000	17.058389
2445.000000	17.148429
2444.000000	17.267395
2443.000000	17.372291
2442.000000	17.484953
2441.000000	17.606732
2440.000000	17.717706
2439.000000	17.814387
2438.000000	17.908253
2437.000000	18.026431
2436.000000	18.129976
2435.000000	18.237011
2434.000000	18.345509
2433.000000	18.430935
2432.000000	18.538982
2431.000000	18.635550
2430.000000	18.737858
2429.000000	18.834426
2428.000000	18.917488
2427.000000	19.020808
2426.000000	19.108259
2425.000000	19.193797
2424.000000	19.308598
2423.000000	19.432628
2422.000000	19.547654
2421.000000	19.628015
2420.000000	19.707250
2419.000000	19.785472
2418.000000	19.846924
2417.000000	19.937189
2416.000000	20.043436
2415.000000	20.119407
2414.000000	20.176808
2413.000000	20.239273
2412.000000	20.311642
2411.000000	20.380860
2410.000000	20.405059
2409.000000	20.467524
2408.000000	20.539781
2407.000000	20.588965
2406.000000	20.631059
2405.000000	20.677429
2404.000000	20.732241
2403.000000	20.783001
2402.000000	20.818567
2401.000000	20.845241
2400.000000	20.892512
2399.000000	20.921775
2398.000000	20.955990
2397.000000	20.999547
2396.000000	21.028585
2395.000000	21.057848
2394.000000	21.078782
2393.000000	21.082046
2392.000000	21.129204
2391.000000	21.158242
2390.000000	21.167359
2389.000000	21.199998
2388.000000	21.207989
2387.000000	21.211478
2386.000000	21.213842
2385.000000	21.227798
2384.000000	21.243780
2383.000000	21.229374
2382.000000	21.233876
2381.000000	21.252221
2380.000000	21.242092
2379.000000	21.227010
2378.000000	21.227235
2377.000000	21.228586
2376.000000	21.222395
2375.000000	21.198647
2374.000000	21.190656
2373.000000	21.190656
2372.000000	21.177488
2371.000000	21.191107
2370.000000	21.194371
2369.000000	21.182553
2368.000000	21.183003
2367.000000	21.196847
2366.000000	21.202587
2365.000000	21.203825
2364.000000	21.205963
2363.000000	21.207989
2362.000000	21.209227
2361.000000	21.208889
2360.000000	21.218006
2359.000000	21.216881
2358.000000	21.207877
2357.000000	21.193020
2356.000000	21.188068
2355.000000	21.185592
2354.000000	21.181315
2353.000000	21.166796
2352.000000	21.164657
2351.000000	21.164882
2350.000000	21.144849
2349.000000	21.126390
2348.000000	21.116599
2347.000000	21.112659
2346.000000	21.108495
2345.000000	21.108382
2344.000000	21.100954
2343.000000	21.077769
2342.000000	21.061674
2341.000000	21.066964
2340.000000	21.079795
2339.000000	21.083509
2338.000000	21.080695
2337.000000	21.080020
2336.000000	21.096227
2335.000000	21.128979
2334.000000	21.148563
2333.000000	21.148113
2332.000000	21.155653
2331.000000	21.192682
2330.000000	21.229261
2329.000000	21.248169
2328.000000	21.266065
2327.000000	21.285086
2326.000000	21.331681
2325.000000	21.346876
2324.000000	21.385818
2323.000000	21.419808
2322.000000	21.437478
2321.000000	21.462127
2320.000000	21.460776
2319.000000	21.457062
2318.000000	21.468092
2317.000000	21.471243
2316.000000	21.442768
2315.000000	21.427349
2314.000000	21.401012
2313.000000	21.364321
2312.000000	21.326391
2311.000000	21.285086
2310.000000	21.258299
2309.000000	21.251658
2308.000000	21.208664
2307.000000	21.185704
2306.000000	21.141134
2305.000000	21.098140
2304.000000	21.089136
2303.000000	21.065501
2302.000000	21.052445
2301.000000	21.037926
2300.000000	21.019468
2299.000000	21.022282
2298.000000	21.028360
2297.000000	21.030723
2296.000000	21.053908
2295.000000	21.052220
2294.000000	21.075743
2293.000000	21.090712
2292.000000	21.090825
2291.000000	21.123352
2290.000000	21.157904
2289.000000	21.179739
2288.000000	21.231174
2287.000000	21.274731
2286.000000	21.306920
2285.000000	21.322115
2284.000000	21.360156
2283.000000	21.401575
2282.000000	21.460663
2281.000000	21.514912
2280.000000	21.535959
2279.000000	21.588745
2278.000000	21.625661
2277.000000	21.660214
2276.000000	21.678672
2275.000000	21.718290
2274.000000	21.749804
2273.000000	21.782106
2272.000000	21.795612
2271.000000	21.841420
2270.000000	21.883401
2269.000000	21.911200
2268.000000	21.958134
2267.000000	22.041758
2266.000000	22.075523
2265.000000	22.165901
2264.000000	22.258192
2263.000000	22.346431
2262.000000	22.432419
2261.000000	22.570292
2260.000000	22.699274
2259.000000	22.834334
2258.000000	22.980987
2257.000000	23.137318
2256.000000	23.303217
2255.000000	23.462475
2254.000000	23.640078
2253.000000	23.823760
2252.000000	23.996411
2251.000000	24.159608
2250.000000	24.326069
2249.000000	24.485890
2248.000000	24.645036
2247.000000	24.792476
2246.000000	24.925960
2245.000000	25.061358
2244.000000	25.193491
2243.000000	25.308179
2242.000000	25.398894
2241.000000	25.473515
2240.000000	25.540932
2239.000000	25.635249
2238.000000	25.678356
2237.000000	25.735644
2236.000000	25.762093
2235.000000	25.763894
2234.000000	25.826921
2233.000000	25.826696
2232.000000	25.792256
2231.000000	25.789893
2230.000000	25.762205
2229.000000	25.743522
2228.000000	25.690511
2227.000000	25.639188
2226.000000	25.628384
2225.000000	25.558040
2224.000000	25.471377
2223.000000	25.416115
2222.000000	25.363216
2221.000000	25.274752
2220.000000	25.188201
2219.000000	25.104689
2218.000000	25.028043
2217.000000	24.942843
2216.000000	24.890169
2215.000000	24.799004
2214.000000	24.696133
2213.000000	24.652689
2212.000000	24.580882
2211.000000	24.506712
2210.000000	24.431191
2209.000000	24.375254
2208.000000	24.332710
2207.000000	24.290391
2206.000000	24.223762
2205.000000	24.163097
2204.000000	24.126181
2203.000000	24.093992
2202.000000	24.071482
2201.000000	24.041431
2200.000000	24.024098
2199.000000	23.964109
2198.000000	23.947339
2197.000000	23.929669
2196.000000	23.924717
2195.000000	23.895792
2194.000000	23.883298
2193.000000	23.862027
2192.000000	23.864052
2191.000000	23.812730
2190.000000	23.810029
2189.000000	23.812730
2188.000000	23.803276
2187.000000	23.783354
2186.000000	23.785830
2185.000000	23.771199
2184.000000	23.740473
2183.000000	23.757580
2182.000000	23.728430
2181.000000	23.714024
2180.000000	23.700518
2179.000000	23.706820
2178.000000	23.704682
2177.000000	23.686561
2176.000000	23.693427
2175.000000	23.703894
2174.000000	23.709747
2173.000000	23.707158
2172.000000	23.717400
2171.000000	23.765909
2170.000000	23.789319
2169.000000	23.809353
2168.000000	23.846607
2167.000000	23.879584
2166.000000	23.882961
2165.000000	23.931920
2164.000000	23.998662
2163.000000	24.063941
2162.000000	24.132821
2161.000000	24.199113
2160.000000	24.263942
2159.000000	24.348017
2158.000000	24.414534
2157.000000	24.503448
2156.000000	24.612846
2155.000000	24.708626
2154.000000	24.808458
2153.000000	24.921796
2152.000000	25.035471
2151.000000	25.156687
2150.000000	25.272839
2149.000000	25.382125
2148.000000	25.510544
2147.000000	25.615103
2146.000000	25.728103
2145.000000	25.831986
2144.000000	25.951289
2143.000000	26.063051
2142.000000	26.183142
2141.000000	26.296592
2140.000000	26.402839
2139.000000	26.496368
2138.000000	26.617809
2137.000000	26.706611
2136.000000	26.804979
2135.000000	26.906724
2134.000000	27.015110
2133.000000	27.098172
2132.000000	27.176506
2131.000000	27.255179
2130.000000	27.325410
2129.000000	27.378083
2128.000000	27.466435
2127.000000	27.559063
2126.000000	27.603408
2125.000000	27.650904
2124.000000	27.704928
2123.000000	27.766042
2122.000000	27.816690
2121.000000	27.841001
2120.000000	27.866887
2119.000000	27.903691
2118.000000	27.949724
2117.000000	27.979437
2116.000000	27.998795
2115.000000	28.028846
2114.000000	28.046854
2113.000000	28.057884
2112.000000	28.070490
2111.000000	28.072966
2110.000000	28.089173
2109.000000	28.082082
2108.000000	28.075329
2107.000000	28.083771
2106.000000	28.084108
2105.000000	28.073866
2104.000000	28.084896
2103.000000	28.104480
2102.000000	28.101328
2101.000000	28.096376
2100.000000	28.093112
2099.000000	28.094350
2098.000000	28.096151
2097.000000	28.104030
2096.000000	28.115960
2095.000000	28.119561
2094.000000	28.126314
2093.000000	28.143309
2092.000000	28.164019
2091.000000	28.170096
2090.000000	28.172572
2089.000000	28.185516
2088.000000	28.198684
2087.000000	28.216017
2086.000000	28.221869
2085.000000	28.202286
2084.000000	28.161655
2083.000000	28.150062
2082.000000	28.131829
2081.000000	28.091987
2080.000000	28.049330
2079.000000	27.997220
2078.000000	27.924625
2077.000000	27.843139
2076.000000	27.771107
2075.000000	27.694573
2074.000000	27.598118
2073.000000	27.492997
2072.000000	27.393728
2071.000000	27.296822
2070.000000	27.202956
2069.000000	27.085454
2068.000000	26.965588
2067.000000	26.825576
2066.000000	26.717753
2065.000000	26.605429
2064.000000	26.461815
2063.000000	26.335759
2062.000000	26.241668
2061.000000	26.145550
2060.000000	26.038177
2059.000000	25.957817
2058.000000	25.894789
2057.000000	25.842791
2056.000000	25.810939
2055.000000	25.804524
2054.000000	25.819381
2053.000000	25.839752
2052.000000	25.878244
2051.000000	25.941835
2050.000000	26.031312
2049.000000	26.150277
2048.000000	26.288826
2047.000000	26.420172
2046.000000	26.552530
2045.000000	26.702559
2044.000000	26.881626
2043.000000	27.054953
2042.000000	27.208358
2041.000000	27.355348
2040.000000	27.533514
2039.000000	27.694348
2038.000000	27.837962
2037.000000	27.982026
2036.000000	28.128340
2035.000000	28.254396
2034.000000	28.381577
2033.000000	28.514949
2032.000000	28.646407
2031.000000	28.742187
2030.000000	28.841118
2029.000000	28.935548
2028.000000	29.011856
2027.000000	29.108987
2026.000000	29.221312
2025.000000	29.281863
2024.000000	29.337351
2023.000000	29.432343
2022.000000	29.470047
2021.000000	29.507751
2020.000000	29.583272
2019.000000	29.622889
2018.000000	29.651252
2017.000000	29.665208
2016.000000	29.688619
2015.000000	29.708878
2014.000000	29.747144
2013.000000	29.733639
2012.000000	29.733976
2011.000000	29.742417
2010.000000	29.727223
2009.000000	29.717094
2008.000000	29.684567
2007.000000	29.659468
2006.000000	29.616362
2005.000000	29.575956
2004.000000	29.501786
2003.000000	29.458679
2002.000000	29.407694
2001.000000	29.345904
2000.000000	29.275448
1999.000000	29.202516
1998.000000	29.119454
1997.000000	29.027951
1996.000000	28.944777
1995.000000	28.853161
1994.000000	28.738585
1993.000000	28.654286
1992.000000	28.555692
1991.000000	28.449783
1990.000000	28.329805
1989.000000	28.239990
1988.000000	28.121137
1987.000000	28.018942
1986.000000	27.898176
1985.000000	27.792492
1984.000000	27.666773
1983.000000	27.536553
1982.000000	27.429293
1981.000000	27.333626
1980.000000	27.202168
1979.000000	27.092544
1978.000000	26.985172
1977.000000	26.856752
1976.000000	26.754557
1975.000000	26.629514
1974.000000	26.519553
1973.000000	26.418258
1972.000000	26.298843
1971.000000	26.199686
1970.000000	26.087249
1969.000000	25.998447
1968.000000	25.888036
1967.000000	25.793044
1966.000000	25.694225
1965.000000	25.580100
1964.000000	25.448191
1963.000000	25.349260
1962.000000	25.243351
1961.000000	25.124160
1960.000000	25.012623
1959.000000	24.887693
1958.000000	24.788762
1957.000000	24.677112
1956.000000	24.576043
1955.000000	24.449086
1954.000000	24.351731
1953.000000	24.242332
1952.000000	24.112788
1951.000000	24.009917
1950.000000	23.918864
1949.000000	23.827136
1948.000000	23.762983
1947.000000	23.654597
1946.000000	23.550151
1945.000000	23.489712
1944.000000	23.403048
1943.000000	23.359829
1942.000000	23.298940
1941.000000	23.257296
1940.000000	23.198883
1939.000000	23.188641
1938.000000	23.171871
1937.000000	23.148573
1936.000000	23.121336
1935.000000	23.140470
1934.000000	23.174460
1933.000000	23.188979
1932.000000	23.245816
1931.000000	23.305805
1930.000000	23.358366
1929.000000	23.457297
1928.000000	23.553190
1927.000000	23.648520
1926.000000	23.751052
1925.000000	23.894216
1924.000000	24.050210
1923.000000	24.196300
1922.000000	24.380319
1921.000000	24.596189
1920.000000	24.834007
1919.000000	25.034458
1918.000000	25.284206
1917.000000	25.511669
1916.000000	25.772110
1915.000000	26.087587
1914.000000	26.431201
1913.000000	26.772565
1912.000000	27.141729
1911.000000	27.496711
1910.000000	27.862835
1909.000000	28.211627
1908.000000	28.658563
1907.000000	29.132960
1906.000000	29.696835
1905.000000	30.269376
1904.000000	30.808489
1903.000000	31.337811
1902.000000	31.855540
1901.000000	32.465560
1900.000000	33.134782
1899.000000	33.769113
1898.000000	34.418975
1897.000000	35.058146
1896.000000	35.633613
1895.000000	36.219547
1894.000000	36.871436
1893.000000	37.510269
1892.000000	38.232276
1891.000000	38.902510
1890.000000	39.520071
1889.000000	40.081132
1888.000000	40.669542
1887.000000	41.200553
1886.000000	41.739216
1885.000000	42.298364
1884.000000	42.850646
1883.000000	43.304109
1882.000000	43.727634
1881.000000	44.154198
1880.000000	44.515032
1879.000000	44.883633
1878.000000	45.250095
1877.000000	45.596299
1876.000000	45.921455
1875.000000	46.245261
1874.000000	46.547907
1873.000000	46.853368
1872.000000	47.114933
1871.000000	47.333730
1870.000000	47.519775
1869.000000	47.716737
1868.000000	47.851460
1867.000000	47.958720
1866.000000	48.044708
1865.000000	48.139249
1864.000000	48.239982
1863.000000	48.339701
1862.000000	48.448649
1861.000000	48.575155
1860.000000	48.705938
1859.000000	48.793614
1858.000000	48.861594
1857.000000	48.922033
1856.000000	48.962889
1855.000000	49.025129
1854.000000	49.065422
1853.000000	49.081967
1852.000000	49.116407
1851.000000	49.122822
1850.000000	49.171444
1849.000000	49.267111
1848.000000	49.305941
1847.000000	49.276003
1846.000000	49.213538
1845.000000	49.166267
1844.000000	49.135878
1843.000000	49.172007
1842.000000	49.232333
1841.000000	49.218715
1840.000000	49.180110
1839.000000	49.142068
1838.000000	49.109541
1837.000000	49.085118
1836.000000	49.038185
1835.000000	48.973244
1834.000000	48.893896
1833.000000	48.839534
1832.000000	48.816574
1831.000000	48.801380
1830.000000	48.797216
1829.000000	48.780671
1828.000000	48.718768
1827.000000	48.686579
1826.000000	48.661030
1825.000000	48.620175
1824.000000	48.603067
1823.000000	48.630980
1822.000000	48.673186
1821.000000	48.690293
1820.000000	48.679939
1819.000000	48.641784
1818.000000	48.602054
1817.000000	48.587873
1816.000000	48.586297
1815.000000	48.552757
1814.000000	48.527434
1813.000000	48.517867
1812.000000	48.499521
1811.000000	48.458441
1810.000000	48.425576
1809.000000	48.385508
1808.000000	48.348705
1807.000000	48.343640
1806.000000	48.315390
1805.000000	48.263167
1804.000000	48.228389
1803.000000	48.199914
1802.000000	48.192260
1801.000000	48.160521
1800.000000	48.108186
1799.000000	48.051235
1798.000000	48.029513
1797.000000	48.010718
1796.000000	47.977178
1795.000000	47.951404
1794.000000	47.942512
1793.000000	47.896817
1792.000000	47.857425
1791.000000	47.840430
1790.000000	47.831426
1789.000000	47.813755
1788.000000	47.815444
1787.000000	47.806327
1786.000000	47.811504
1785.000000	47.803176
1784.000000	47.766822
1783.000000	47.751403
1782.000000	47.737221
1781.000000	47.724391
1780.000000	47.701431
1779.000000	47.662488
1778.000000	47.616906
1777.000000	47.582128
1776.000000	47.523152
1775.000000	47.464963
1774.000000	47.421744
1773.000000	47.367720
1772.000000	47.309982
1771.000000	47.266763
1770.000000	47.219380
1769.000000	47.166481
1768.000000	47.110882
1767.000000	47.080381
1766.000000	47.048079
1765.000000	47.007336
1764.000000	46.963441
1763.000000	46.938455
1762.000000	46.910656
1761.000000	46.914370
1760.000000	46.904353
1759.000000	46.875427
1758.000000	46.877116
1757.000000	46.858770
1756.000000	46.861134
1755.000000	46.848753
1754.000000	46.835697
1753.000000	46.829620
1752.000000	46.822642
1751.000000	46.800919
1750.000000	46.773345
1749.000000	46.738679
1748.000000	46.700187
1747.000000	46.633783
1746.000000	46.581222
1745.000000	46.522134
1744.000000	46.442336
1743.000000	46.373005
1742.000000	46.313466
1741.000000	46.248075
1740.000000	46.177956
1739.000000	46.109301
1738.000000	46.055727
1737.000000	45.999227
1736.000000	45.957921
1735.000000	45.915152
1734.000000	45.869119
1733.000000	45.853362
1732.000000	45.813745
1731.000000	45.758483
1730.000000	45.734847
1729.000000	45.718303
1728.000000	45.683750
1727.000000	45.658876
1726.000000	45.640981
1725.000000	45.637154
1724.000000	45.683412
1723.000000	45.731809
1722.000000	45.825112
1721.000000	45.981782
1720.000000	46.157922
1719.000000	46.366702
1718.000000	46.624441
1717.000000	46.838399
1716.000000	47.066087
1715.000000	47.292537
1714.000000	47.479595
1713.000000	47.673181
1712.000000	47.843581
1711.000000	47.991809
1710.000000	48.140150
1709.000000	48.269244
1708.000000	48.373803
1707.000000	48.450112
1706.000000	48.543416
1705.000000	48.607907
1704.000000	48.630867
1703.000000	48.675099
1702.000000	48.698510
1701.000000	48.731262
1700.000000	48.731599
1699.000000	48.744767
1698.000000	48.729573
1697.000000	48.720007
1696.000000	48.690181
1695.000000	48.657541
1694.000000	48.581570
1693.000000	48.525858
1692.000000	48.462605
1691.000000	48.386972
1690.000000	48.342402
1689.000000	48.336774
1688.000000	48.371215
1687.000000	48.459341
1686.000000	48.592150
1685.000000	48.783260
1684.000000	48.951859
1683.000000	49.164016
1682.000000	49.379886
1681.000000	49.639539
1680.000000	49.835826
1679.000000	50.046406
1678.000000	50.240892
1677.000000	50.447421
1676.000000	50.621874
1675.000000	50.780456
1674.000000	50.971116
1673.000000	51.145680
1672.000000	51.326548
1671.000000	51.505952
1670.000000	51.675678
1669.000000	51.887159
1668.000000	52.057784
1667.000000	52.229535
1666.000000	52.364708
1665.000000	52.523403
1664.000000	52.659025
1663.000000	52.806128
1662.000000	52.930045
1661.000000	53.044509
1660.000000	53.160998
1659.000000	53.254864
1658.000000	53.324533
1657.000000	53.412434
1656.000000	53.471410
1655.000000	53.507651
1654.000000	53.540741
1653.000000	53.574618
1652.000000	53.598704
1651.000000	53.611197
1650.000000	53.618175
1649.000000	53.614461
1648.000000	53.626166
1647.000000	53.603206
1646.000000	53.571692
1645.000000	53.574618
1644.000000	53.558636
1643.000000	53.533988
1642.000000	53.532187
1641.000000	53.544455
1640.000000	53.533988
1639.000000	53.514066
1638.000000	53.508326
1637.000000	53.484128
1636.000000	53.467133
1635.000000	53.462181
1634.000000	53.415248
1633.000000	53.383284
1632.000000	53.352783
1631.000000	53.303486
1630.000000	53.271522
1629.000000	53.234155
1628.000000	53.201741
1627.000000	53.174053
1626.000000	53.134999
1625.000000	53.090767
1624.000000	53.058352
1623.000000	53.023574
1622.000000	53.001515
1621.000000	52.969438
1620.000000	52.951542
1619.000000	52.912825
1618.000000	52.875234
1617.000000	52.860827
1616.000000	52.838655
1615.000000	52.811418
1614.000000	52.776865
1613.000000	52.754017
1612.000000	52.710123
1611.000000	52.675345
1610.000000	52.618845
1609.000000	52.562570
1608.000000	52.525316
1607.000000	52.468704
1606.000000	52.406238
1605.000000	52.353903
1604.000000	52.284910
1603.000000	52.222332
1602.000000	52.159979
1601.000000	52.094363
1600.000000	52.031222
1599.000000	51.960541
1598.000000	51.895262
1597.000000	51.839888
1596.000000	51.784288
1595.000000	51.734316
1594.000000	51.694023
1593.000000	51.660146
1592.000000	51.614563
1591.000000	51.571682
1590.000000	51.524073
1589.000000	51.482767
1588.000000	51.437635
1587.000000	51.394303
1586.000000	51.351872
1585.000000	51.305839
1584.000000	51.269148
1583.000000	51.253841
1582.000000	51.220864
1581.000000	51.186423
1580.000000	51.172242
1579.000000	51.152321
1578.000000	51.135101
1577.000000	51.119006
1576.000000	51.114617
1575.000000	51.106401
1574.000000	51.103362
1573.000000	51.112816
1572.000000	51.101673
1571.000000	51.104937
1570.000000	51.128798
1569.000000	51.144780
1568.000000	51.169879
1567.000000	51.187887
1566.000000	51.197566
1565.000000	51.217037
1564.000000	51.218725
1563.000000	51.224128
1562.000000	51.225703
1561.000000	51.200830
1560.000000	51.187662
1559.000000	51.169428
1558.000000	51.124859
1557.000000	51.073536
1556.000000	51.022101
1555.000000	50.976180
1554.000000	50.914616
1553.000000	50.846410
1552.000000	50.756145
1551.000000	50.656426
1550.000000	50.563573
1549.000000	50.467680
1548.000000	50.397449
1547.000000	50.321478
1546.000000	50.241343
1545.000000	50.168860
1544.000000	50.120126
1543.000000	50.071167
1542.000000	50.023896
1541.000000	49.982028
1540.000000	49.937908
1539.000000	49.897728
1538.000000	49.856760
1537.000000	49.817142
1536.000000	49.777412
1535.000000	49.724514
1534.000000	49.682420
1533.000000	49.648318
1532.000000	49.613877
1531.000000	49.563117
1530.000000	49.503241
1529.000000	49.426594
1528.000000	49.382812
1527.000000	49.338355
1526.000000	49.285569
1525.000000	49.237623
1524.000000	49.183487
1523.000000	49.111792
1522.000000	49.049102
1521.000000	48.996767
1520.000000	48.925523
1519.000000	48.864971
1518.000000	48.821076
1517.000000	48.764914
1516.000000	48.700085
1515.000000	48.635594
1514.000000	48.577406
1513.000000	48.527434
1512.000000	48.469246
1511.000000	48.397776
1510.000000	48.331710
1509.000000	48.272508
1508.000000	48.210043
1507.000000	48.143751
1506.000000	48.086801
1505.000000	48.027037
1504.000000	47.978753
1503.000000	47.933171
1502.000000	47.896479
1501.000000	47.859676
1500.000000	47.829175
1499.000000	47.789445
1498.000000	47.768848
1497.000000	47.748702
1496.000000	47.740823
1495.000000	47.751853
1494.000000	47.755117
1493.000000	47.763220
1492.000000	47.794284
1491.000000	47.828724
1490.000000	47.844481
1489.000000	47.867329
1488.000000	47.900306
1487.000000	47.919215
1486.000000	47.956243
1485.000000	47.986069
1484.000000	48.016458
1483.000000	48.052474
1482.000000	48.096368
1481.000000	48.116627
1480.000000	48.160296
1479.000000	48.168512
1478.000000	48.212069
1477.000000	48.237731
1476.000000	48.268006
1475.000000	48.333398
1474.000000	48.401491
1473.000000	48.496933
1472.000000	48.565251
1471.000000	48.634806
1470.000000	48.682302
1469.000000	48.736551
1468.000000	48.819163
1467.000000	48.903463
1466.000000	48.972231
1465.000000	49.060470
1464.000000	49.134302
1463.000000	49.211624
1462.000000	49.316858
1461.000000	49.403859
1460.000000	49.501327
1459.000000	49.587090
1458.000000	49.683208
1457.000000	49.783265
1456.000000	49.905269
1455.000000	49.988443
1454.000000	50.098404
1453.000000	50.175388
1452.000000	50.301557
1451.000000	50.403752
1450.000000	50.472520
1449.000000	50.531158
1448.000000	50.678374
1447.000000	50.769089
1446.000000	50.953896
1445.000000	50.985297
1444.000000	51.048550
1443.000000	51.192501
1442.000000	51.292108
1441.000000	51.412874
1440.000000	51.547483
1439.000000	51.666448
1438.000000	51.827282
1437.000000	51.927226
1436.000000	52.065438
1435.000000	52.234600
1434.000000	52.389243
1433.000000	52.596785
1432.000000	52.720478
1431.000000	52.870732
1430.000000	53.080074
1429.000000	53.300559
1428.000000	53.495046
1427.000000	53.699774
1426.000000	53.963365
1425.000000	54.206811
1424.000000	54.498427
1423.000000	54.713622
1422.000000	54.969673
1421.000000	55.319703
1420.000000	55.654314
1419.000000	55.947394
1418.000000	56.234621
1417.000000	56.497200
1416.000000	56.897652
1415.000000	57.325341
1414.000000	57.678860
1413.000000	58.033167
1412.000000	58.348194
1411.000000	58.821579
1410.000000	59.290236
1409.000000	59.707233
1408.000000	60.116464
1407.000000	60.524458
1406.000000	60.960926
1405.000000	61.375897
1404.000000	61.739208
1403.000000	62.171962
1402.000000	62.629252
1401.000000	63.185473
1400.000000	63.502864
1399.000000	63.765555
1398.000000	64.046817
1397.000000	64.460888
1396.000000	64.933710
1395.000000	65.255827
1394.000000	65.469897
1393.000000	65.754085
1392.000000	66.109293
1391.000000	66.392693
1390.000000	66.667990
1389.000000	67.029050
1388.000000	67.386283
1387.000000	67.623988
1386.000000	67.872836
1385.000000	68.161976
1384.000000	68.439299
1383.000000	68.709869
1382.000000	68.898502
1381.000000	69.034237
1380.000000	69.134294
1379.000000	69.251346
1378.000000	69.340598
1377.000000	69.452585
1376.000000	69.553993
1375.000000	69.651010
1374.000000	69.789222
1373.000000	69.957484
1372.000000	70.068120
1371.000000	70.210271
1370.000000	70.288605
1369.000000	70.423102
1368.000000	70.550959
1367.000000	70.618601
1366.000000	70.750172
1365.000000	70.882756
1364.000000	70.942857
1363.000000	71.044152
1362.000000	71.181238
1361.000000	71.246067
1360.000000	71.246967
1359.000000	71.309432
1358.000000	71.388105
1357.000000	71.468127
1356.000000	71.597672
1355.000000	71.738922
1354.000000	71.832339
1353.000000	71.924855
1352.000000	72.120129
1351.000000	72.298633
1350.000000	72.484790
1349.000000	72.670385
1348.000000	72.872862
1347.000000	73.033583
1346.000000	73.164816
1345.000000	73.359302
1344.000000	73.545235
1343.000000	73.697852
1342.000000	73.837076
1341.000000	73.991495
1340.000000	74.127792
1339.000000	74.259476
1338.000000	74.380017
1337.000000	74.512038
1336.000000	74.639782
1335.000000	74.738938
1334.000000	74.831792
1333.000000	74.935337
1332.000000	75.034269
1331.000000	75.124421
1330.000000	75.214011
1329.000000	75.291670
1328.000000	75.357624
1327.000000	75.434834
1326.000000	75.498762
1325.000000	75.567417
1324.000000	75.626281
1323.000000	75.672089
1322.000000	75.730052
1321.000000	75.773946
1320.000000	75.823806
1319.000000	75.867250
1318.000000	75.910019
1317.000000	75.960666
1316.000000	75.995782
1315.000000	76.026508
1314.000000	76.059598
1313.000000	76.102254
1312.000000	76.131967
1311.000000	76.156503
1310.000000	76.183965
1309.000000	76.199272
1308.000000	76.213228
1307.000000	76.212665
1306.000000	76.224596
1305.000000	76.244179
1304.000000	76.259599
1303.000000	76.270066
1302.000000	76.274455
1301.000000	76.277832
1300.000000	76.276819
1299.000000	76.267815
1298.000000	76.256110
1297.000000	76.255885
1296.000000	76.250932
1295.000000	76.234950
1294.000000	76.223808
1293.000000	76.214241
1292.000000	76.191281
1291.000000	76.176537
1290.000000	76.161230
1289.000000	76.131404
1288.000000	76.104055
1287.000000	76.077043
1286.000000	76.047667
1285.000000	76.021556
1284.000000	75.989029
1283.000000	75.969220
1282.000000	75.940295
1281.000000	75.905292
1280.000000	75.886383
1279.000000	75.870739
1278.000000	75.854532
1277.000000	75.839788
1276.000000	75.828083
1275.000000	75.830109
1274.000000	75.829096
1273.000000	75.839113
1272.000000	75.851493
1271.000000	75.861623
1270.000000	75.877154
1269.000000	75.890323
1268.000000	75.905179
1267.000000	75.904391
1266.000000	75.908556
1265.000000	75.911707
1264.000000	75.913846
1263.000000	75.919698
1262.000000	75.912382
1261.000000	75.920374
1260.000000	75.932079
1259.000000	75.926226
1258.000000	75.935343
1257.000000	75.920711
1256.000000	75.911820
1255.000000	75.891898
1254.000000	75.886046
1253.000000	75.879856
1252.000000	75.861060
1251.000000	75.807036
1250.000000	75.780699
1249.000000	75.751661
1248.000000	75.689646
1247.000000	75.651942
1246.000000	75.615701
1245.000000	75.583512
1244.000000	75.512380
1243.000000	75.461508
1242.000000	75.406021
1241.000000	75.363252
1240.000000	75.325323
1239.000000	75.280078
1238.000000	75.246425
1237.000000	75.207708
1236.000000	75.172818
1235.000000	75.129711
1234.000000	75.095271
1233.000000	75.068034
1232.000000	75.018287
1231.000000	74.985197
1230.000000	74.941190
1229.000000	74.916542
1228.000000	74.896620
1227.000000	74.839107
1226.000000	74.792737
1225.000000	74.758297
1224.000000	74.715303
1223.000000	74.686377
1222.000000	74.640569
1221.000000	74.597125
1220.000000	74.554469
1219.000000	74.520929
1218.000000	74.461390
1217.000000	74.414119
1216.000000	74.390484
1215.000000	74.339048
1214.000000	74.294479
1213.000000	74.223460
1212.000000	74.185080
1211.000000	74.115412
1210.000000	74.068704
1209.000000	73.984967
1208.000000	73.925991
1207.000000	73.869265
1206.000000	73.789580
1205.000000	73.726552
1204.000000	73.646192
1203.000000	73.594194
1202.000000	73.532179
1201.000000	73.472077
1200.000000	73.420417
1199.000000	73.341632
1198.000000	73.265323
1197.000000	73.205447
1196.000000	73.143657
1195.000000	73.054517
1194.000000	72.996554
1193.000000	72.916981
1192.000000	72.845737
1191.000000	72.769654
1190.000000	72.719119
1189.000000	72.666445
1188.000000	72.644048
1187.000000	72.649000
1186.000000	72.640334
1185.000000	72.655528
1184.000000	72.656429
1183.000000	72.711015
1182.000000	72.747819
1181.000000	72.805895
1180.000000	72.895259
1179.000000	72.924635
1178.000000	72.989801
1177.000000	73.053955
1176.000000	73.125536
1175.000000	73.177197
1174.000000	73.262960
1173.000000	73.336342
1172.000000	73.416365
1171.000000	73.499202
1170.000000	73.587553
1169.000000	73.696501
1168.000000	73.808489
1167.000000	73.923514
1166.000000	74.021996
1165.000000	74.143774
1164.000000	74.257900
1163.000000	74.418171
1162.000000	74.525544
1161.000000	74.638769
1160.000000	74.749630
1159.000000	74.862067
1158.000000	74.968315
1157.000000	75.088293
1156.000000	75.167753
1155.000000	75.247438
1154.000000	75.330612
1153.000000	75.383398
1152.000000	75.446764
1151.000000	75.500563
1150.000000	75.541418
1149.000000	75.592066
1148.000000	75.652617
1147.000000	75.680642
1146.000000	75.730840
1145.000000	75.766743
1144.000000	75.810525
1143.000000	75.849467
1142.000000	75.924088
1141.000000	75.990492
1140.000000	76.067589
1139.000000	76.141759
1138.000000	76.231461
1137.000000	76.347950
1136.000000	76.446769
1135.000000	76.552791
1134.000000	76.623810
1133.000000	76.650822
1132.000000	76.716889
1131.000000	76.777103
1130.000000	76.877497
1129.000000	76.897081
1128.000000	76.929495
1127.000000	76.975078
1126.000000	77.012557
1125.000000	77.039344
1124.000000	77.057915
1123.000000	77.054763
1122.000000	77.069957
1121.000000	77.046547
1120.000000	77.050824
1119.000000	77.048911
1118.000000	77.033491
1117.000000	77.045309
1116.000000	77.018185
1115.000000	76.997700
1114.000000	76.991060
1113.000000	76.980255
1112.000000	76.982056
1111.000000	76.958533
1110.000000	76.971364
1109.000000	76.960334
1108.000000	76.931746
1107.000000	76.926682
1106.000000	76.897419
1105.000000	76.904397
1104.000000	76.889878
1103.000000	76.875471
1102.000000	76.869394
1101.000000	76.859939
1100.000000	76.830564
1099.000000	76.826737
1098.000000	76.823473
1097.000000	76.809292
1096.000000	76.791734
1095.000000	76.775752
1094.000000	76.747165
1093.000000	76.723642
1092.000000	76.695392
1091.000000	76.673107
1090.000000	76.656674
1089.000000	76.626286
1088.000000	76.594772
1087.000000	76.553354
1086.000000	76.538272
1085.000000	76.525779
1084.000000	76.499330
1083.000000	76.467366
1082.000000	76.454760
1081.000000	76.428086
1080.000000	76.406589
1079.000000	76.404901
1078.000000	76.393871
1077.000000	76.359318
1076.000000	76.341197
1075.000000	76.315198
1074.000000	76.293926
1073.000000	76.274230
1072.000000	76.251383
1071.000000	76.221895
1070.000000	76.198597
1069.000000	76.175074
1068.000000	76.151889
1067.000000	76.121162
1066.000000	76.089648
1065.000000	76.062637
1064.000000	76.045754
1063.000000	76.036412
1062.000000	76.008387
1061.000000	75.969783
1060.000000	75.965056
1059.000000	75.935905
1058.000000	75.914633
1057.000000	75.909231
1056.000000	75.883907
1055.000000	75.873665
1054.000000	75.856670
1053.000000	75.831122
1052.000000	75.820767
1051.000000	75.805348
1050.000000	75.803997
1049.000000	75.800395
1048.000000	75.785089
1047.000000	75.789366
1046.000000	75.792404
1045.000000	75.795331
1044.000000	75.790941
1043.000000	75.779911
1042.000000	75.782275
1041.000000	75.779574
1040.000000	75.761903
1039.000000	75.752337
1038.000000	75.759315
1037.000000	75.759877
1036.000000	75.749523
1035.000000	75.730840
1034.000000	75.721611
1033.000000	75.717559
1032.000000	75.721836
1031.000000	75.718459
1030.000000	75.706304
1029.000000	75.702590
1028.000000	75.690659
1027.000000	75.681430
1026.000000	75.686045
1025.000000	75.694036
1024.000000	75.690434
1023.000000	75.694261
1022.000000	75.702139
1021.000000	75.696174
1020.000000	75.693698
1019.000000	75.690434
1018.000000	75.681318
1017.000000	75.684807
1016.000000	75.689871
1015.000000	75.678842
1014.000000	75.681205
1013.000000	75.691560
1012.000000	75.690209
1011.000000	75.693923
1010.000000	75.694824
1009.000000	75.702139
1008.000000	75.712607
1007.000000	75.709230
1006.000000	75.715420
1005.000000	75.724762
1004.000000	75.716883
1003.000000	75.713282
1002.000000	75.718909
1001.000000	75.724649
1000.000000	75.733203
999.000000	75.751999
998.000000	75.760778
997.000000	75.762128
996.000000	75.779236
995.000000	75.784751
994.000000	75.789928
993.000000	75.823356
992.000000	75.855432
991.000000	75.880756
990.000000	75.898089
989.000000	75.901915
988.000000	75.918235
987.000000	75.959879
986.000000	75.982276
985.000000	75.989817
984.000000	76.006587
983.000000	76.053745
982.000000	76.071528
981.000000	76.099215
980.000000	76.115760
979.000000	76.131967
978.000000	76.150538
977.000000	76.187679
976.000000	76.216042
975.000000	76.234950
974.000000	76.248569
973.000000	76.268603
972.000000	76.270403
971.000000	76.287849
970.000000	76.305857
969.000000	76.334782
968.000000	76.339509
967.000000	76.370235
966.000000	76.364157
965.000000	76.375525
964.000000	76.406476
963.000000	76.444068
962.000000	76.471643
961.000000	76.502031
960.000000	76.522065
959.000000	76.545588
958.000000	76.581829
957.000000	76.588807
956.000000	76.614693
955.000000	76.644969
954.000000	76.648909
953.000000	76.649922
952.000000	76.661739
951.000000	76.708560
950.000000	76.719365
949.000000	76.729157
948.000000	76.761233
947.000000	76.773164
946.000000	76.815370
945.000000	76.839568
944.000000	76.869394
943.000000	76.903946
942.000000	76.949529
941.000000	76.967087
940.000000	76.998488
939.000000	77.049811
938.000000	77.071421
937.000000	77.098883
936.000000	77.133210
935.000000	77.171477
934.000000	77.205467
933.000000	77.197476
932.000000	77.225501
931.000000	77.267482
930.000000	77.266582
929.000000	77.282339
928.000000	77.279075
927.000000	77.287179
926.000000	77.308000
925.000000	77.340640
924.000000	77.407157
923.000000	77.436307
922.000000	77.477163
921.000000	77.526009
920.000000	77.570354
919.000000	77.669398
918.000000	77.734452
917.000000	77.833833
916.000000	77.891459
915.000000	77.968443
914.000000	78.025731
913.000000	78.112844
912.000000	78.176210
911.000000	78.246553
910.000000	78.317460
909.000000	78.383189
908.000000	78.493600
907.000000	78.523538
906.000000	78.563831
905.000000	78.628435
904.000000	78.691125
903.000000	78.845994
902.000000	78.910822
901.000000	79.005814
900.000000	79.074695
899.000000	79.182743
898.000000	79.278748
897.000000	79.382631
896.000000	79.503622
895.000000	79.614259
894.000000	79.713078
893.000000	79.850726
892.000000	79.922983
891.000000	80.020789
890.000000	80.058943
889.000000	80.126811
888.000000	80.196141
887.000000	80.300363
886.000000	80.353374
885.000000	80.440825
884.000000	80.483706
883.000000	80.476728
882.000000	80.538856
881.000000	80.599858
880.000000	80.670989
879.000000	80.699014
878.000000	80.679656
877.000000	80.723663
876.000000	80.772397
875.000000	80.737956
874.000000	80.772284
873.000000	80.794344
872.000000	80.763167
871.000000	80.584438
870.000000	80.367667
869.000000	80.091020
868.000000	79.882353
867.000000	79.710714
866.000000	79.433054
865.000000	79.172163
864.000000	78.786905
863.000000	78.465688
862.000000	77.995680
861.000000	77.620776
860.000000	77.037431
859.000000	76.313623
858.000000	77.260167
857.000000	76.922900
856.000000	77.394400
855.000000	77.463200
854.000000	77.549600
853.000000	77.784700
852.000000	77.413800
851.000000	78.169100
850.000000	78.651400
849.000000	78.518600
848.000000	78.874400
847.000000	78.713900
846.000000	79.297300
845.000000	79.366000
844.000000	79.506900
843.000000	80.065600
842.000000	80.471300
841.000000	80.893900
840.000000	81.211500
839.000000	81.328300
838.000000	81.975700
837.000000	82.120900
836.000000	82.419800
835.000000	83.016100
834.000000	83.366300
833.000000	83.849000
832.000000	84.230700
831.000000	84.904100
830.000000	85.468800
829.000000	85.993300
828.000000	86.334000
827.000000	86.900300
826.000000	87.397100
825.000000	87.831200
824.000000	88.499100
823.000000	88.998600
822.000000	89.383900
821.000000	89.920000
820.000000	90.494100
819.000000	90.896700
818.000000	91.611100
817.000000	91.963600
816.000000	92.422200
815.000000	92.731700
814.000000	93.239000
813.000000	93.614200
812.000000	94.022000
811.000000	94.456500
810.000000	94.646700
809.000000	95.020800
808.000000	95.292000
807.000000	95.590900
806.000000	95.843000
805.000000	96.167700
804.000000	96.496200
803.000000	96.768300
802.000000	97.204300
801.000000	97.593800
800.000000	97.860100
799.000000	98.086300
798.000000	98.417600
797.000000	98.677200
796.000000	98.854600
795.000000	98.935700
794.000000	99.251300
793.000000	99.624000
792.000000	99.781200
791.000000	99.844000
790.000000	100.014200
789.000000	100.235900
788.000000	100.302300
787.000000	100.384600
786.000000	100.561500
785.000000	100.699800
784.000000	100.713300
783.000000	100.807300
782.000000	100.939000
781.000000	100.951300
780.000000	101.061500
779.000000	101.223700
778.000000	101.204600
777.000000	101.272700
776.000000	101.311900
775.000000	101.341000
774.000000	101.418300
773.000000	101.393100
772.000000	101.359500
771.000000	101.472100
770.000000	101.455400
769.000000	101.410700
768.000000	101.448500
767.000000	101.437900
766.000000	101.300100
765.000000	101.286900
764.000000	101.203100
763.000000	101.079200
762.000000	100.965400
761.000000	100.777100
760.000000	100.673400
759.000000	100.638900
758.000000	100.390100
757.000000	100.253100
756.000000	100.155300
755.000000	99.963900
754.000000	99.787200
753.000000	99.586400
752.000000	99.550600
751.000000	99.433300
750.000000	99.346200
749.000000	99.311700
748.000000	99.099400
747.000000	98.940500
746.000000	98.882200
745.000000	98.739900
744.000000	98.586100
743.000000	98.486200
742.000000	98.290000
741.000000	98.004800
740.000000	97.824900
739.000000	97.614800
738.000000	97.319200
737.000000	97.018300
736.000000	96.740300
735.000000	96.492200
734.000000	96.250300
733.000000	95.947100
732.000000	95.586300
731.000000	95.249500
730.000000	94.976000
729.000000	94.678700
728.000000	94.334300
727.000000	93.988500
726.000000	93.683000
725.000000	93.421500
724.000000	93.152400
723.000000	92.768100
722.000000	92.454300
721.000000	92.201200
720.000000	91.883100
719.000000	91.503700
718.000000	91.115300
717.000000	90.743800
716.000000	90.322000
715.000000	89.848000
714.000000	89.363700
713.000000	88.846100
712.000000	88.299200
711.000000	87.660400
710.000000	87.022600
709.000000	86.411800
708.000000	85.714700
707.000000	85.075700
706.000000	84.434300
705.000000	83.737000
704.000000	83.152600
703.000000	82.562000
702.000000	82.022100
701.000000	81.514600
700.000000	81.037300
699.000000	80.643200
698.000000	80.257300
697.000000	79.963300
696.000000	79.649300
695.000000	79.283300
694.000000	78.991700
693.000000	78.642600
692.000000	78.251200
691.000000	77.855400
690.000000	77.411900
689.000000	76.934500
688.000000	76.450100
687.000000	75.909900
686.000000	75.339900
685.000000	74.720300
684.000000	74.037000
683.000000	73.347700
682.000000	72.645900
681.000000	71.955400
680.000000	71.337000
679.000000	70.707900
678.000000	70.099700
677.000000	69.505800
676.000000	68.932600
675.000000	68.433400
674.000000	68.014000
673.000000	67.592500
672.000000	67.139800
671.000000	66.789100
670.000000	66.451500
669.000000	66.115200
668.000000	65.787200
667.000000	65.418900
666.000000	65.067100
665.000000	64.719100
664.000000	64.314900
663.000000	63.920400
662.000000	63.530300
661.000000	63.105600
660.000000	62.717300
659.000000	62.331400
658.000000	61.958700
657.000000	61.688000
656.000000	61.457600
655.000000	61.217100
654.000000	61.028000
653.000000	60.908600
652.000000	60.904100
651.000000	60.935100
650.000000	61.051800
649.000000	61.207600
648.000000	61.364900
647.000000	61.538300
646.000000	61.730800
645.000000	61.916300
644.000000	62.028500
643.000000	62.129400
642.000000	62.167800
641.000000	62.127200
640.000000	61.944600
639.000000	61.714400
638.000000	61.432400
637.000000	61.055300
636.000000	60.702700
635.000000	60.258700
634.000000	59.776000
633.000000	59.285300
632.000000	58.817100
631.000000	58.382500
630.000000	57.992700
629.000000	57.619300
628.000000	57.381500
627.000000	57.142400
626.000000	56.948700
625.000000	56.817200
624.000000	56.751300
623.000000	56.747300
622.000000	56.802400
621.000000	56.886300
620.000000	57.001200
619.000000	57.151100
618.000000	57.292900
617.000000	57.498600
616.000000	57.701900
615.000000	57.959300
614.000000	58.260700
613.000000	58.583200
612.000000	58.937500
611.000000	59.418400
610.000000	59.859000
609.000000	60.431300
608.000000	60.963200
607.000000	61.607500
606.000000	62.310100
605.000000	62.986100
604.000000	63.737100
603.000000	64.489400
602.000000	65.288400
601.000000	66.075100
600.000000	66.897000
599.000000	67.689400
598.000000	68.473200
597.000000	69.224000
596.000000	69.924200
595.000000	70.653800
594.000000	71.387900
593.000000	72.064400
592.000000	72.706300
591.000000	73.281100
590.000000	73.861800
589.000000	74.404500
588.000000	74.884700
587.000000	75.333500
586.000000	75.770000
585.000000	76.092300
584.000000	76.362100
583.000000	76.665600
582.000000	76.913900
581.000000	77.147800
580.000000	77.318100
579.000000	77.450300
578.000000	77.570900
577.000000	77.675100
576.000000	77.739400
575.000000	77.778400
574.000000	77.801400
573.000000	77.773000
572.000000	77.770600
571.000000	77.795600
570.000000	77.760800
569.000000	77.700000
568.000000	77.659700
567.000000	77.521800
566.000000	77.455000
565.000000	77.329700
564.000000	77.162300
563.000000	76.987300
562.000000	76.827800
561.000000	76.657500
560.000000	76.488500
559.000000	76.247400
558.000000	76.023200
557.000000	75.759600
556.000000	75.491300
555.000000	75.232200
554.000000	74.954900
553.000000	74.637000
552.000000	74.254800
551.000000	73.965500
550.000000	73.596300
549.000000	73.237400
548.000000	72.807600
547.000000	72.410100
546.000000	71.945200
545.000000	71.421300
544.000000	70.889800
543.000000	70.305900
542.000000	69.709200
541.000000	69.059000
540.000000	68.403400
539.000000	67.673100
538.000000	66.875400
537.000000	66.054900
536.000000	65.125000
535.000000	64.203800
534.000000	63.196600
533.000000	62.150700
532.000000	61.078600
531.000000	59.985500
530.000000	58.880500
529.000000	57.756900
528.000000	56.638300
527.000000	55.522600
526.000000	54.425300
525.000000	53.344800
524.000000	52.268300
523.000000	51.238500
522.000000	50.242000
521.000000	49.249100
520.000000	48.299100
519.000000	47.373500
518.000000	46.493700
517.000000	45.663000
516.000000	44.867400
515.000000	44.110800
514.000000	43.401000
513.000000	42.702200
512.000000	42.062600
511.000000	41.418100
510.000000	40.826200
509.000000	40.283000
508.000000	39.769800
507.000000	39.265200
506.000000	38.792900
505.000000	38.354100
504.000000	37.927700
503.000000	37.514200
502.000000	37.108200
501.000000	36.726100
500.000000	36.379700
499.000000	36.049900
498.000000	35.730700
497.000000	35.421600
496.000000	35.145500
495.000000	34.897300
494.000000	34.630100
493.000000	34.368000
492.000000	34.136500
491.000000	33.901200
490.000000	33.689500
489.000000	33.503000
488.000000	33.301500
487.000000	33.093800
486.000000	32.911900
485.000000	32.740900
484.000000	32.574900
483.000000	32.386000
482.000000	32.185200
481.000000	31.961500
480.000000	31.752300
479.000000	31.523000
478.000000	31.296100
477.000000	31.084800
476.000000	30.869700
475.000000	30.638500
474.000000	30.409300
473.000000	30.166200
472.000000	29.916700
471.000000	29.668600
470.000000	29.428900
469.000000	29.160900
468.000000	28.885400
467.000000	28.615800
466.000000	28.342000
465.000000	28.037200
464.000000	27.725400
463.000000	27.418700
462.000000	27.097700
461.000000	26.747400
460.000000	26.374400
459.000000	26.007000
458.000000	25.617100
457.000000	25.241200
456.000000	24.851800
455.000000	24.417500
454.000000	23.973400
453.000000	23.519500
452.000000	23.053000
451.000000	22.576700
450.000000	22.097500
449.000000	21.600800
448.000000	21.097700
447.000000	20.580800
446.000000	20.053300
445.000000	19.526900
444.000000	18.980400
443.000000	18.433700
442.000000	17.894000
441.000000	17.346900
440.000000	16.811700
439.000000	16.272100
438.000000	15.737600
437.000000	15.226400
436.000000	14.727600
435.000000	14.241800
434.000000	13.757300
433.000000	13.306600
432.000000	12.870600
431.000000	12.429600
430.000000	12.018800
429.000000	11.640300
428.000000	11.277700
427.000000	10.937500
426.000000	10.620000
425.000000	10.307500
424.000000	10.018800
423.000000	9.759900
422.000000	9.513400
421.000000	9.276300
420.000000	9.066000
419.000000	8.868500
418.000000	8.699700
417.000000	8.545300
416.000000	8.388200
415.000000	8.249500
414.000000	8.119900
413.000000	8.006400
412.000000	7.909700
411.000000	7.805600
410.000000	7.711600
409.000000	7.643900
408.000000	7.578900
407.000000	7.511300
406.000000	7.442200
405.000000	7.379900
404.000000	7.326000
403.000000	7.280600
402.000000	7.245300
401.000000	7.220700
400.000000	7.185800
399.000000	7.137800
398.000000	7.108900
397.000000	7.088600
396.000000	7.051600
395.000000	7.015700
394.000000	6.979000
393.000000	6.960300
392.000000	6.947000
391.000000	6.911500
390.000000	6.887400
389.000000	6.861300
388.000000	6.827000
387.000000	6.770800
386.000000	6.734600
385.000000	6.709000
384.000000	6.677600
383.000000	6.644200
382.000000	6.605300
381.000000	6.586400
380.000000	6.547500
379.000000	6.517400
378.000000	6.479700
377.000000	6.476000
376.000000	6.420000
375.000000	6.392700
374.000000	6.354400
373.000000	6.304200
372.000000	6.265500
371.000000	6.245500
370.000000	6.230700
369.000000	6.135100
368.000000	6.148600
367.000000	6.143300
366.000000	6.083900
365.000000	6.140300
364.000000	6.109000
363.000000	6.076700
362.000000	6.057700
361.000000	6.011700
360.000000	5.964500
359.000000	5.934600
358.000000	5.956000
357.000000	5.905100
356.000000	5.822400
355.000000	5.802500
354.000000	5.836000
353.000000	5.814400
352.000000	5.812700
351.000000	5.747600
350.000000	5.742600
349.000000	5.660800
348.000000	5.710600
347.000000	5.687600
346.000000	5.710800
345.000000	5.668100
344.000000	5.608200
343.000000	5.649200
342.000000	5.671400
341.000000	5.566100
340.000000	5.627400
339.000000	5.601800
338.000000	5.547800
337.000000	5.629100
336.000000	5.575400
335.000000	5.515200
334.000000	5.590700
333.000000	5.606200
332.000000	5.575800
331.000000	5.611000
330.000000	5.602100
329.000000	5.630200
328.000000	5.585000
327.000000	5.523400
326.000000	5.571200
325.000000	5.595500
324.000000	5.534900
323.000000	5.541000
322.000000	5.601200
321.000000	5.567600
320.000000	5.491500
319.000000	5.626800
318.000000	5.648800
317.000000	5.724600
316.000000	5.576700
315.000000	5.500300
314.000000	5.529000
313.000000	5.499300
312.000000	5.532000
311.000000	5.522300
310.000000	5.520400
309.000000	5.465400
308.000000	5.472200
307.000000	5.481000
306.000000	5.532800
305.000000	5.541700
304.000000	5.537000
303.000000	5.538600
302.000000	5.569400
301.000000	5.564200
300.000000	5.528900
299.000000	5.524800
298.000000	5.581800
297.000000	5.531100
296.000000	5.533600
295.000000	5.587200
294.000000	5.553400
293.000000	5.532700
292.000000	5.554600
291.000000	5.559400
290.000000	5.562400
289.000000	5.578000
288.000000	5.574200
287.000000	5.578500
286.000000	5.557400
285.000000	5.569800
284.000000	5.535500
283.000000	5.617100
282.000000	5.568600
281.000000	5.572100
280.000000	5.586000
279.000000	5.619700
278.000000	5.622400
277.000000	5.619600
276.000000	5.611000
275.000000	5.671400
274.000000	5.653000
273.000000	5.637800
272.000000	5.710500
271.000000	5.631900
270.000000	5.701200
269.000000	5.743700
268.000000	5.743700
267.000000	5.741400
266.000000	5.808500
265.000000	5.777800
264.000000	5.839400
263.000000	5.865000
262.000000	5.871000
261.000000	5.928900
260.000000	5.946600
259.000000	5.965900
258.000000	6.001000
257.000000	6.023200
256.000000	6.049200
255.000000	6.035700
254.000000	6.050000
253.000000	6.055200
252.000000	6.091800
251.000000	6.092600
250.000000	6.117800
