PE UV       SUBTECH     SPECTRUM    ASCII       PEDS        4.00        
   -1
CICIMAUCR0070-2.Sample.ASC
24/04/18
13:05:53.00
24/04/18
13:05:53.00
Vinicio Soto Monge
C. resplendens
250,000000
1
Lambda 1050
1050L1511233
PerkinElmer UV WinLab 6.3.2.0749 / 2.02.05 Lambda 900 UV/VIS/NIR, Aug  7 2015 09:38:08

0
0
3350/servo 860,8/2
0
0
UV/VIS
1
1
1
DoubleDePol,CommonBeamDepol,RBeamAtt,SBeamAtt,60mm sphere, WB InGaAs Detector
0
0
0
0
Program
Program
3350/servo 860,8/2
3350/0,2 860,8/0,2
3350/0,2 860,8/0,2
0
15.00
 
 
 
0
 
860,8
319,2
860,8
Front
100
on
S:100 R:100
0
0
0
0
 
0
 
 
 
0
 
 
0
0
0
0
0
 
 
 
 
0
0


0
0
#HDR
-1
-1
#GR
nm
%R
1.0
0.0
2500,000000
-1,000000
2251
8
82,681400
5,204000
#DATA
2482.000000	21.442471
2481.000000	21.485337
2480.000000	21.427423
2479.000000	21.450110
2478.000000	21.510646
2477.000000	21.533675
2476.000000	21.572208
2475.000000	21.601393
2474.000000	21.681082
2473.000000	21.760771
2472.000000	21.761797
2471.000000	21.832594
2470.000000	21.935881
2469.000000	21.914220
2468.000000	22.009984
2467.000000	22.043387
2466.000000	22.109396
2465.000000	22.189883
2464.000000	22.275158
2463.000000	22.360661
2462.000000	22.457906
2461.000000	22.543181
2460.000000	22.598701
2459.000000	22.660492
2458.000000	22.761043
2457.000000	22.881432
2456.000000	22.959981
2455.000000	23.056542
2454.000000	23.155726
2453.000000	23.256847
2452.000000	23.378832
2451.000000	23.517917
2450.000000	23.648908
2449.000000	23.794149
2448.000000	23.909293
2447.000000	24.047694
2446.000000	24.198978
2445.000000	24.330197
2444.000000	24.461529
2443.000000	24.594458
2442.000000	24.714961
2441.000000	24.845267
2440.000000	24.983212
2439.000000	25.121271
2438.000000	25.256366
2437.000000	25.393969
2436.000000	25.520514
2435.000000	25.634176
2434.000000	25.764141
2433.000000	25.898096
2432.000000	26.031253
2431.000000	26.152553
2430.000000	26.263023
2429.000000	26.378965
2428.000000	26.500608
2427.000000	26.618374
2426.000000	26.725994
2425.000000	26.796562
2424.000000	26.905664
2423.000000	27.041899
2422.000000	27.236618
2421.000000	27.488226
2420.000000	27.707342
2419.000000	27.855091
2418.000000	27.979127
2417.000000	28.079451
2416.000000	28.168374
2415.000000	28.217624
2414.000000	28.330146
2413.000000	28.475274
2412.000000	28.573317
2411.000000	28.639326
2410.000000	28.732923
2409.000000	28.841227
2408.000000	28.946681
2407.000000	28.993536
2406.000000	29.035376
2405.000000	29.114609
2404.000000	29.209118
2403.000000	29.298042
2402.000000	29.344441
2401.000000	29.379213
2400.000000	29.440433
2399.000000	29.529014
2398.000000	29.596732
2397.000000	29.631504
2396.000000	29.670835
2395.000000	29.700476
2394.000000	29.755198
2393.000000	29.830213
2392.000000	29.880603
2391.000000	29.898729
2390.000000	29.927458
2389.000000	29.950715
2388.000000	29.978874
2387.000000	30.021968
2386.000000	30.033482
2385.000000	30.060501
2384.000000	30.095615
2383.000000	30.099263
2382.000000	30.099719
2381.000000	30.120354
2380.000000	30.138480
2379.000000	30.118415
2378.000000	30.148399
2377.000000	30.172681
2376.000000	30.153187
2375.000000	30.134604
2374.000000	30.144750
2373.000000	30.162193
2372.000000	30.146232
2371.000000	30.173479
2370.000000	30.195482
2369.000000	30.184652
2368.000000	30.181118
2367.000000	30.201638
2366.000000	30.224667
2365.000000	30.224895
2364.000000	30.239830
2363.000000	30.257273
2362.000000	30.271979
2361.000000	30.276881
2360.000000	30.274373
2359.000000	30.295464
2358.000000	30.311310
2357.000000	30.305040
2356.000000	30.321115
2355.000000	30.326815
2354.000000	30.311538
2353.000000	30.297858
2352.000000	30.313933
2351.000000	30.313477
2350.000000	30.282467
2349.000000	30.264341
2348.000000	30.274715
2347.000000	30.286458
2346.000000	30.269357
2345.000000	30.291702
2344.000000	30.292842
2343.000000	30.277793
2342.000000	30.310512
2341.000000	30.317923
2340.000000	30.304128
2339.000000	30.320773
2338.000000	30.323851
2337.000000	30.350870
2336.000000	30.358280
2335.000000	30.356570
2334.000000	30.410608
2333.000000	30.435917
2332.000000	30.469206
2331.000000	30.516062
2330.000000	30.515378
2329.000000	30.573292
2328.000000	30.624822
2327.000000	30.667687
2326.000000	30.701433
2325.000000	30.722181
2324.000000	30.770975
2323.000000	30.797196
2322.000000	30.811447
2321.000000	30.861723
2320.000000	30.860924
2319.000000	30.882471
2318.000000	30.901852
2317.000000	30.871983
2316.000000	30.843482
2315.000000	30.845990
2314.000000	30.819427
2313.000000	30.815323
2312.000000	30.794346
2311.000000	30.741220
2310.000000	30.689690
2309.000000	30.680798
2308.000000	30.641238
2307.000000	30.596093
2306.000000	30.591989
2305.000000	30.556875
2304.000000	30.540003
2303.000000	30.527918
2302.000000	30.529286
2301.000000	30.524042
2300.000000	30.504776
2299.000000	30.509678
2298.000000	30.515606
2297.000000	30.530882
2296.000000	30.538065
2295.000000	30.563602
2294.000000	30.585718
2293.000000	30.598943
2292.000000	30.664153
2291.000000	30.683990
2290.000000	30.717393
2289.000000	30.741790
2288.000000	30.817489
2287.000000	30.855110
2286.000000	30.911314
2285.000000	30.948480
2284.000000	31.009358
2283.000000	31.066132
2282.000000	31.124844
2281.000000	31.182872
2280.000000	31.238050
2279.000000	31.290492
2278.000000	31.337576
2277.000000	31.383748
2276.000000	31.435619
2275.000000	31.489657
2274.000000	31.505960
2273.000000	31.568890
2272.000000	31.643905
2271.000000	31.663286
2270.000000	31.718920
2269.000000	31.770792
2268.000000	31.864731
2267.000000	31.890154
2266.000000	31.982839
2265.000000	32.064010
2264.000000	32.179497
2263.000000	32.257247
2262.000000	32.406023
2261.000000	32.519343
2260.000000	32.675529
2259.000000	32.858961
2258.000000	33.025179
2257.000000	33.198466
2256.000000	33.336867
2255.000000	33.575591
2254.000000	33.746370
2253.000000	33.946219
2252.000000	34.113121
2251.000000	34.305332
2250.000000	34.505751
2249.000000	34.682914
2248.000000	34.844458
2247.000000	34.988103
2246.000000	35.141096
2245.000000	35.327949
2244.000000	35.413338
2243.000000	35.551397
2242.000000	35.641233
2241.000000	35.719782
2240.000000	35.841766
2239.000000	35.924761
2238.000000	35.957024
2237.000000	36.011062
2236.000000	36.028505
2235.000000	36.088129
2234.000000	36.079921
2233.000000	36.091093
2232.000000	36.071256
2231.000000	36.054384
2230.000000	36.020524
2229.000000	35.980053
2228.000000	35.948930
2227.000000	35.885772
2226.000000	35.842336
2225.000000	35.741328
2224.000000	35.655825
2223.000000	35.569638
2222.000000	35.487555
2221.000000	35.401254
2220.000000	35.316435
2219.000000	35.226258
2218.000000	35.142579
2217.000000	35.040431
2216.000000	34.937143
2215.000000	34.835451
2214.000000	34.725323
2213.000000	34.647230
2212.000000	34.566402
2211.000000	34.466648
2210.000000	34.386275
2209.000000	34.323801
2208.000000	34.261554
2207.000000	34.180839
2206.000000	34.124749
2205.000000	34.040500
2204.000000	33.991821
2203.000000	33.957049
2202.000000	33.909168
2201.000000	33.874966
2200.000000	33.819788
2199.000000	33.765066
2198.000000	33.721061
2197.000000	33.673749
2196.000000	33.674319
2195.000000	33.638636
2194.000000	33.619597
2193.000000	33.576731
2192.000000	33.541618
2191.000000	33.531928
2190.000000	33.507531
2189.000000	33.480740
2188.000000	33.466375
2187.000000	33.456001
2186.000000	33.416442
2185.000000	33.389879
2184.000000	33.343023
2183.000000	33.341769
2182.000000	33.314750
2181.000000	33.289783
2180.000000	33.277585
2179.000000	33.271770
2178.000000	33.233693
2177.000000	33.222749
2176.000000	33.213286
2175.000000	33.221837
2174.000000	33.208270
2173.000000	33.216706
2172.000000	33.217618
2171.000000	33.233921
2170.000000	33.267552
2169.000000	33.307568
2168.000000	33.332877
2167.000000	33.345645
2166.000000	33.404471
2165.000000	33.451441
2164.000000	33.491570
2163.000000	33.545722
2162.000000	33.614809
2161.000000	33.701794
2160.000000	33.775555
2159.000000	33.860830
2158.000000	33.952603
2157.000000	34.074474
2156.000000	34.184032
2155.000000	34.303508
2154.000000	34.418766
2153.000000	34.550555
2152.000000	34.666269
2151.000000	34.796576
2150.000000	34.928365
2149.000000	35.051147
2148.000000	35.182138
2147.000000	35.319969
2146.000000	35.464754
2145.000000	35.589817
2144.000000	35.712371
2143.000000	35.840170
2142.000000	35.966601
2141.000000	36.097249
2140.000000	36.208289
2139.000000	36.325486
2138.000000	36.438008
2137.000000	36.553722
2136.000000	36.659404
2135.000000	36.784124
2134.000000	36.885474
2133.000000	36.976677
2132.000000	37.077115
2131.000000	37.179719
2130.000000	37.258154
2129.000000	37.331800
2128.000000	37.415479
2127.000000	37.486162
2126.000000	37.542366
2125.000000	37.609400
2124.000000	37.662754
2123.000000	37.709838
2122.000000	37.774478
2121.000000	37.816204
2120.000000	37.846187
2119.000000	37.893499
2118.000000	37.930550
2117.000000	37.967601
2116.000000	38.004197
2115.000000	37.996787
2114.000000	38.030874
2113.000000	38.060173
2112.000000	38.072371
2111.000000	38.084000
2110.000000	38.086052
2109.000000	38.101328
2108.000000	38.110335
2107.000000	38.125269
2106.000000	38.125839
2105.000000	38.109879
2104.000000	38.118201
2103.000000	38.125155
2102.000000	38.110563
2101.000000	38.112843
2100.000000	38.113413
2099.000000	38.120367
2098.000000	38.134162
2097.000000	38.146360
2096.000000	38.158330
2095.000000	38.164715
2094.000000	38.168477
2093.000000	38.191962
2092.000000	38.225365
2091.000000	38.245088
2090.000000	38.272335
2089.000000	38.286585
2088.000000	38.290119
2087.000000	38.295933
2086.000000	38.308816
2085.000000	38.302774
2084.000000	38.302660
2083.000000	38.292399
2082.000000	38.247596
2081.000000	38.205642
2080.000000	38.171213
2079.000000	38.129031
2078.000000	38.070319
2077.000000	38.002601
2076.000000	37.939328
2075.000000	37.848239
2074.000000	37.763420
2073.000000	37.671647
2072.000000	37.555134
2071.000000	37.444208
2070.000000	37.316068
2069.000000	37.190207
2068.000000	37.062066
2067.000000	36.916255
2066.000000	36.792675
2065.000000	36.668866
2064.000000	36.540611
2063.000000	36.409849
2062.000000	36.279770
2061.000000	36.180928
2060.000000	36.058716
2059.000000	35.952008
2058.000000	35.871863
2057.000000	35.806767
2056.000000	35.760139
2055.000000	35.726736
2054.000000	35.715107
2053.000000	35.731068
2052.000000	35.770285
2051.000000	35.827059
2050.000000	35.916211
2049.000000	36.022691
2048.000000	36.127802
2047.000000	36.274868
2046.000000	36.436412
2045.000000	36.592939
2044.000000	36.776714
2043.000000	36.931760
2042.000000	37.102652
2041.000000	37.300221
2040.000000	37.466325
2039.000000	37.644286
2038.000000	37.808908
2037.000000	37.969198
2036.000000	38.126067
2035.000000	38.265152
2034.000000	38.388619
2033.000000	38.516531
2032.000000	38.657669
2031.000000	38.805076
2030.000000	38.895823
2029.000000	39.011994
2028.000000	39.114027
2027.000000	39.196110
2026.000000	39.276255
2025.000000	39.365292
2024.000000	39.455242
2023.000000	39.510990
2022.000000	39.552487
2021.000000	39.624310
2020.000000	39.706849
2019.000000	39.753135
2018.000000	39.798394
2017.000000	39.814811
2016.000000	39.842058
2015.000000	39.895754
2014.000000	39.914678
2013.000000	39.894500
2012.000000	39.895640
2011.000000	39.915932
2010.000000	39.899744
2009.000000	39.879451
2008.000000	39.857676
2007.000000	39.828719
2006.000000	39.803980
2005.000000	39.750968
2004.000000	39.692826
2003.000000	39.650189
2002.000000	39.583382
2001.000000	39.532308
2000.000000	39.455128
1999.000000	39.368712
1998.000000	39.295408
1997.000000	39.207283
1996.000000	39.123148
1995.000000	39.027840
1994.000000	38.932875
1993.000000	38.811688
1992.000000	38.718091
1991.000000	38.611611
1990.000000	38.502965
1989.000000	38.373228
1988.000000	38.284305
1987.000000	38.163233
1986.000000	38.046720
1985.000000	37.929068
1984.000000	37.807426
1983.000000	37.672787
1982.000000	37.580329
1981.000000	37.445804
1980.000000	37.333282
1979.000000	37.219962
1978.000000	37.082587
1977.000000	36.964593
1976.000000	36.838504
1975.000000	36.723588
1974.000000	36.607874
1973.000000	36.498886
1972.000000	36.375191
1971.000000	36.259819
1970.000000	36.157786
1969.000000	36.061224
1968.000000	35.934223
1967.000000	35.840056
1966.000000	35.723430
1965.000000	35.638383
1964.000000	35.522440
1963.000000	35.393046
1962.000000	35.263081
1961.000000	35.149077
1960.000000	35.041457
1959.000000	34.938169
1958.000000	34.815159
1957.000000	34.683028
1956.000000	34.581906
1955.000000	34.465394
1954.000000	34.350250
1953.000000	34.218689
1952.000000	34.128740
1951.000000	34.006983
1950.000000	33.913614
1949.000000	33.811922
1948.000000	33.718097
1947.000000	33.620509
1946.000000	33.527710
1945.000000	33.462613
1944.000000	33.398201
1943.000000	33.340743
1942.000000	33.275190
1941.000000	33.214540
1940.000000	33.186951
1939.000000	33.177261
1938.000000	33.144428
1937.000000	33.138157
1936.000000	33.132913
1935.000000	33.123793
1934.000000	33.170307
1933.000000	33.204850
1932.000000	33.252846
1931.000000	33.317828
1930.000000	33.408461
1929.000000	33.478004
1928.000000	33.613441
1927.000000	33.727445
1926.000000	33.852051
1925.000000	33.990909
1924.000000	34.192810
1923.000000	34.342497
1922.000000	34.543373
1921.000000	34.790420
1920.000000	35.047271
1919.000000	35.277103
1918.000000	35.542961
1917.000000	35.821131
1916.000000	36.088129
1915.000000	36.398790
1914.000000	36.782072
1913.000000	37.207992
1912.000000	37.587968
1911.000000	37.965207
1910.000000	38.382235
1909.000000	38.726755
1908.000000	39.154157
1907.000000	39.653837
1906.000000	40.203565
1905.000000	40.805621
1904.000000	41.369713
1903.000000	41.915565
1902.000000	42.471678
1901.000000	43.032692
1900.000000	43.675675
1899.000000	44.342258
1898.000000	44.985583
1897.000000	45.650797
1896.000000	46.209760
1895.000000	46.759602
1894.000000	47.371234
1893.000000	47.997117
1892.000000	48.656175
1891.000000	49.319793
1890.000000	49.916149
1889.000000	50.420959
1888.000000	50.994514
1887.000000	51.492940
1886.000000	51.986008
1885.000000	52.469044
1884.000000	52.969180
1883.000000	53.399774
1882.000000	53.768805
1881.000000	54.161664
1880.000000	54.512568
1879.000000	54.851389
1878.000000	55.190209
1877.000000	55.476929
1876.000000	55.749513
1875.000000	56.032130
1874.000000	56.323524
1873.000000	56.567265
1872.000000	56.794817
1871.000000	57.017696
1870.000000	57.157009
1869.000000	57.291648
1868.000000	57.450227
1867.000000	57.540633
1866.000000	57.585094
1865.000000	57.657145
1864.000000	57.736834
1863.000000	57.819715
1862.000000	57.919696
1861.000000	58.032219
1860.000000	58.145653
1859.000000	58.226482
1858.000000	58.273793
1857.000000	58.334558
1856.000000	58.359524
1855.000000	58.390534
1854.000000	58.447422
1853.000000	58.429523
1852.000000	58.446738
1851.000000	58.511264
1850.000000	58.564048
1849.000000	58.615806
1848.000000	58.631424
1847.000000	58.627434
1846.000000	58.563592
1845.000000	58.492453
1844.000000	58.470793
1843.000000	58.510466
1842.000000	58.561882
1841.000000	58.571572
1840.000000	58.538283
1839.000000	58.482079
1838.000000	58.447536
1837.000000	58.424279
1836.000000	58.393498
1835.000000	58.345958
1834.000000	58.266953
1833.000000	58.198209
1832.000000	58.176662
1831.000000	58.176320
1830.000000	58.164463
1829.000000	58.143259
1828.000000	58.078846
1827.000000	58.030394
1826.000000	58.015688
1825.000000	57.987415
1824.000000	57.968148
1823.000000	57.980689
1822.000000	58.053195
1821.000000	58.098455
1820.000000	58.075198
1819.000000	57.998929
1818.000000	57.962790
1817.000000	57.970200
1816.000000	57.977383
1815.000000	57.963360
1814.000000	57.952416
1813.000000	57.959712
1812.000000	57.947057
1811.000000	57.914452
1810.000000	57.863606
1809.000000	57.845024
1808.000000	57.839438
1807.000000	57.829177
1806.000000	57.807288
1805.000000	57.765791
1804.000000	57.750514
1803.000000	57.743560
1802.000000	57.749032
1801.000000	57.742534
1800.000000	57.694310
1799.000000	57.651217
1798.000000	57.644718
1797.000000	57.635598
1796.000000	57.625566
1795.000000	57.616787
1794.000000	57.601055
1793.000000	57.582586
1792.000000	57.562521
1791.000000	57.550779
1790.000000	57.561039
1789.000000	57.557847
1788.000000	57.567766
1787.000000	57.575974
1786.000000	57.587032
1785.000000	57.605957
1784.000000	57.605045
1783.000000	57.592505
1782.000000	57.591478
1781.000000	57.585436
1780.000000	57.588628
1779.000000	57.563661
1778.000000	57.553287
1777.000000	57.531740
1776.000000	57.498109
1775.000000	57.457068
1774.000000	57.433355
1773.000000	57.413518
1772.000000	57.405538
1771.000000	57.376695
1770.000000	57.337021
1769.000000	57.318667
1768.000000	57.297804
1767.000000	57.275231
1766.000000	57.248212
1765.000000	57.213897
1764.000000	57.214809
1763.000000	57.199304
1762.000000	57.199418
1761.000000	57.225411
1760.000000	57.211617
1759.000000	57.239548
1758.000000	57.251176
1757.000000	57.251746
1756.000000	57.263375
1755.000000	57.254482
1754.000000	57.279563
1753.000000	57.283325
1752.000000	57.285149
1751.000000	57.292674
1750.000000	57.278537
1749.000000	57.237610
1748.000000	57.223815
1747.000000	57.175363
1746.000000	57.150738
1745.000000	57.097042
1744.000000	57.029324
1743.000000	57.004357
1742.000000	56.946329
1741.000000	56.883969
1740.000000	56.829931
1739.000000	56.773727
1738.000000	56.739297
1737.000000	56.700992
1736.000000	56.668273
1735.000000	56.612411
1734.000000	56.590294
1733.000000	56.565555
1732.000000	56.543780
1731.000000	56.495899
1730.000000	56.462723
1729.000000	56.450639
1728.000000	56.443115
1727.000000	56.410623
1726.000000	56.397969
1725.000000	56.379044
1724.000000	56.419858
1723.000000	56.486322
1722.000000	56.547314
1721.000000	56.673517
1720.000000	56.842243
1719.000000	57.022484
1718.000000	57.255850
1717.000000	57.464022
1716.000000	57.695450
1715.000000	57.858818
1714.000000	58.060606
1713.000000	58.253729
1712.000000	58.403188
1711.000000	58.559716
1710.000000	58.686830
1709.000000	58.781682
1708.000000	58.905148
1707.000000	58.982329
1706.000000	59.059966
1705.000000	59.121414
1704.000000	59.155501
1703.000000	59.183661
1702.000000	59.222878
1701.000000	59.218546
1700.000000	59.242259
1699.000000	59.285238
1698.000000	59.256851
1697.000000	59.261183
1696.000000	59.220598
1695.000000	59.211136
1694.000000	59.173172
1693.000000	59.112522
1692.000000	59.047768
1691.000000	58.996124
1690.000000	58.946760
1689.000000	58.939350
1688.000000	58.948014
1687.000000	59.024625
1686.000000	59.117652
1685.000000	59.277258
1684.000000	59.421359
1683.000000	59.619726
1682.000000	59.809771
1681.000000	60.022389
1680.000000	60.213460
1679.000000	60.388114
1678.000000	60.578387
1677.000000	60.755208
1676.000000	60.915156
1675.000000	61.070885
1674.000000	61.227071
1673.000000	61.380407
1672.000000	61.542520
1671.000000	61.684912
1670.000000	61.842807
1669.000000	62.002755
1668.000000	62.167149
1667.000000	62.324931
1666.000000	62.442013
1665.000000	62.567760
1664.000000	62.671276
1663.000000	62.771485
1662.000000	62.904642
1661.000000	63.005764
1660.000000	63.088873
1659.000000	63.180532
1658.000000	63.247453
1657.000000	63.334210
1656.000000	63.374453
1655.000000	63.420511
1654.000000	63.445478
1653.000000	63.467367
1652.000000	63.477171
1651.000000	63.499288
1650.000000	63.511942
1649.000000	63.517072
1648.000000	63.517870
1647.000000	63.511600
1646.000000	63.498718
1645.000000	63.478995
1644.000000	63.466455
1643.000000	63.462236
1642.000000	63.451634
1641.000000	63.442400
1640.000000	63.437155
1639.000000	63.421879
1638.000000	63.416977
1637.000000	63.394632
1636.000000	63.383916
1635.000000	63.357239
1634.000000	63.325659
1633.000000	63.291572
1632.000000	63.266947
1631.000000	63.219978
1630.000000	63.175630
1629.000000	63.142797
1628.000000	63.111332
1627.000000	63.081235
1626.000000	63.040763
1625.000000	62.982051
1624.000000	62.953892
1623.000000	62.932801
1622.000000	62.882525
1621.000000	62.848894
1620.000000	62.825181
1619.000000	62.786876
1618.000000	62.755867
1617.000000	62.754043
1616.000000	62.725656
1615.000000	62.671618
1614.000000	62.641064
1613.000000	62.617010
1612.000000	62.573574
1611.000000	62.535041
1610.000000	62.493657
1609.000000	62.457746
1608.000000	62.409636
1607.000000	62.346022
1606.000000	62.291528
1605.000000	62.246838
1604.000000	62.179576
1603.000000	62.139218
1602.000000	62.086092
1601.000000	62.011420
1600.000000	61.946893
1599.000000	61.899353
1598.000000	61.851358
1597.000000	61.805072
1596.000000	61.728233
1595.000000	61.674993
1594.000000	61.637372
1593.000000	61.594164
1592.000000	61.565207
1591.000000	61.532260
1590.000000	61.479932
1589.000000	61.433760
1588.000000	61.406514
1587.000000	61.372084
1586.000000	61.330245
1585.000000	61.292281
1584.000000	61.278601
1583.000000	61.268796
1582.000000	61.228439
1581.000000	61.196404
1580.000000	61.164825
1579.000000	61.153880
1578.000000	61.136894
1577.000000	61.115347
1576.000000	61.117513
1575.000000	61.125037
1574.000000	61.127773
1573.000000	61.130395
1572.000000	61.139402
1571.000000	61.172463
1570.000000	61.206892
1569.000000	61.231517
1568.000000	61.248390
1567.000000	61.275979
1566.000000	61.296728
1565.000000	61.310522
1564.000000	61.343583
1563.000000	61.366954
1562.000000	61.376758
1561.000000	61.393973
1560.000000	61.403207
1559.000000	61.392377
1558.000000	61.379039
1557.000000	61.358860
1556.000000	61.334121
1555.000000	61.302542
1554.000000	61.256142
1553.000000	61.217153
1552.000000	61.174971
1551.000000	61.114663
1550.000000	61.055267
1549.000000	60.990398
1548.000000	60.925416
1547.000000	60.871948
1546.000000	60.825890
1545.000000	60.772080
1544.000000	60.731267
1543.000000	60.697978
1542.000000	60.669933
1541.000000	60.646448
1540.000000	60.620911
1539.000000	60.604608
1538.000000	60.588306
1537.000000	60.561857
1536.000000	60.525147
1535.000000	60.499154
1534.000000	60.469969
1533.000000	60.448309
1532.000000	60.406355
1531.000000	60.372838
1530.000000	60.333392
1529.000000	60.308425
1528.000000	60.280494
1527.000000	60.218932
1526.000000	60.175497
1525.000000	60.142549
1524.000000	60.114846
1523.000000	60.064685
1522.000000	60.015663
1521.000000	59.974963
1520.000000	59.902115
1519.000000	59.860617
1518.000000	59.821058
1517.000000	59.760636
1516.000000	59.698731
1515.000000	59.655752
1514.000000	59.605704
1513.000000	59.547790
1512.000000	59.481553
1511.000000	59.434356
1510.000000	59.392288
1509.000000	59.325938
1508.000000	59.262437
1507.000000	59.233024
1506.000000	59.158694
1505.000000	59.102604
1504.000000	59.047882
1503.000000	59.001710
1502.000000	58.968307
1501.000000	58.946760
1500.000000	58.906972
1499.000000	58.872885
1498.000000	58.870719
1497.000000	58.849286
1496.000000	58.854759
1495.000000	58.845866
1494.000000	58.839026
1493.000000	58.836974
1492.000000	58.885768
1491.000000	58.905604
1490.000000	58.928861
1489.000000	58.978567
1488.000000	59.019837
1487.000000	59.029299
1486.000000	59.051188
1485.000000	59.084477
1484.000000	59.107848
1483.000000	59.145583
1482.000000	59.199735
1481.000000	59.227666
1480.000000	59.252747
1479.000000	59.284896
1478.000000	59.319553
1477.000000	59.357517
1476.000000	59.385448
1475.000000	59.424437
1474.000000	59.498084
1473.000000	59.580851
1472.000000	59.659514
1471.000000	59.726206
1470.000000	59.772606
1469.000000	59.797915
1468.000000	59.878060
1467.000000	59.961967
1466.000000	60.028089
1465.000000	60.097518
1464.000000	60.156002
1463.000000	60.249941
1462.000000	60.328262
1461.000000	60.405101
1460.000000	60.480344
1459.000000	60.545326
1458.000000	60.623533
1457.000000	60.718042
1456.000000	60.814262
1455.000000	60.894863
1454.000000	60.952207
1453.000000	61.042954
1452.000000	61.181811
1451.000000	61.266858
1450.000000	61.324203
1449.000000	61.335033
1448.000000	61.422246
1447.000000	61.529980
1446.000000	61.677159
1445.000000	61.740888
1444.000000	61.778623
1443.000000	61.855918
1442.000000	61.952251
1441.000000	62.068080
1440.000000	62.142638
1439.000000	62.253792
1438.000000	62.377829
1437.000000	62.457404
1436.000000	62.553281
1435.000000	62.707643
1434.000000	62.845816
1433.000000	62.972703
1432.000000	63.103237
1431.000000	63.281654
1430.000000	63.379469
1429.000000	63.545003
1428.000000	63.742801
1427.000000	63.877212
1426.000000	64.079227
1425.000000	64.287968
1424.000000	64.529201
1423.000000	64.717422
1422.000000	64.901083
1421.000000	65.155426
1420.000000	65.494360
1419.000000	65.754974
1418.000000	65.950719
1417.000000	66.129136
1416.000000	66.444585
1415.000000	66.800620
1414.000000	67.168397
1413.000000	67.392074
1412.000000	67.632964
1411.000000	68.020579
1410.000000	68.417313
1409.000000	68.824650
1408.000000	69.120377
1407.000000	69.458171
1406.000000	69.785021
1405.000000	70.138434
1404.000000	70.377272
1403.000000	70.749268
1402.000000	71.056281
1401.000000	71.510360
1400.000000	71.865711
1399.000000	72.004226
1398.000000	72.139891
1397.000000	72.514166
1396.000000	72.931991
1395.000000	73.241057
1394.000000	73.377862
1393.000000	73.553200
1392.000000	73.818374
1391.000000	74.030079
1390.000000	74.218756
1389.000000	74.524173
1388.000000	74.843385
1387.000000	74.988398
1386.000000	75.185968
1385.000000	75.439513
1384.000000	75.748008
1383.000000	75.871361
1382.000000	76.038149
1381.000000	76.108945
1380.000000	76.071210
1379.000000	76.233438
1378.000000	76.322019
1377.000000	76.418809
1376.000000	76.498953
1375.000000	76.594831
1374.000000	76.680334
1373.000000	76.830135
1372.000000	76.971159
1371.000000	77.076156
1370.000000	77.132589
1369.000000	77.233824
1368.000000	77.383284
1367.000000	77.436182
1366.000000	77.514958
1365.000000	77.642643
1364.000000	77.739433
1363.000000	77.824366
1362.000000	77.919673
1361.000000	77.969949
1360.000000	77.957295
1359.000000	77.965617
1358.000000	78.008368
1357.000000	78.072781
1356.000000	78.156916
1355.000000	78.268412
1354.000000	78.324046
1353.000000	78.359843
1352.000000	78.451731
1351.000000	78.575197
1350.000000	78.696269
1349.000000	78.831706
1348.000000	78.968967
1347.000000	79.043982
1346.000000	79.108281
1345.000000	79.221259
1344.000000	79.359546
1343.000000	79.453485
1342.000000	79.550275
1341.000000	79.644328
1340.000000	79.730059
1339.000000	79.820122
1338.000000	79.898329
1337.000000	79.975168
1336.000000	80.045623
1335.000000	80.098977
1334.000000	80.164871
1333.000000	80.245472
1332.000000	80.298484
1331.000000	80.336105
1330.000000	80.387293
1329.000000	80.444637
1328.000000	80.480435
1327.000000	80.516688
1326.000000	80.556931
1325.000000	80.597745
1324.000000	80.622598
1323.000000	80.655773
1322.000000	80.683590
1321.000000	80.706619
1320.000000	80.729306
1319.000000	80.740022
1318.000000	80.771829
1317.000000	80.801926
1316.000000	80.810021
1315.000000	80.827121
1314.000000	80.841372
1313.000000	80.859954
1312.000000	80.874547
1311.000000	80.893472
1310.000000	80.918666
1309.000000	80.926989
1308.000000	80.936223
1307.000000	80.945571
1306.000000	80.936223
1305.000000	80.937819
1304.000000	80.947282
1303.000000	80.948080
1302.000000	80.945685
1301.000000	80.948878
1300.000000	80.947168
1299.000000	80.934741
1298.000000	80.938047
1297.000000	80.950930
1296.000000	80.934627
1295.000000	80.916614
1294.000000	80.917754
1293.000000	80.900654
1292.000000	80.880133
1291.000000	80.853912
1290.000000	80.828831
1289.000000	80.821991
1288.000000	80.804776
1287.000000	80.777871
1286.000000	80.773539
1285.000000	80.764761
1284.000000	80.740136
1283.000000	80.715169
1282.000000	80.692140
1281.000000	80.667971
1280.000000	80.657711
1279.000000	80.641408
1278.000000	80.630008
1277.000000	80.632744
1276.000000	80.631148
1275.000000	80.631946
1274.000000	80.624308
1273.000000	80.619976
1272.000000	80.627158
1271.000000	80.635594
1270.000000	80.646881
1269.000000	80.663069
1268.000000	80.662271
1267.000000	80.663069
1266.000000	80.689176
1265.000000	80.692140
1264.000000	80.696814
1263.000000	80.704909
1262.000000	80.703199
1261.000000	80.735348
1260.000000	80.761227
1259.000000	80.779011
1258.000000	80.787334
1257.000000	80.798164
1256.000000	80.799190
1255.000000	80.805688
1254.000000	80.819255
1253.000000	80.843880
1252.000000	80.836013
1251.000000	80.826437
1250.000000	80.810021
1249.000000	80.820395
1248.000000	80.818001
1247.000000	80.788360
1246.000000	80.792464
1245.000000	80.792692
1244.000000	80.745038
1243.000000	80.733638
1242.000000	80.727824
1241.000000	80.727710
1240.000000	80.711293
1239.000000	80.701945
1238.000000	80.683704
1237.000000	80.680968
1236.000000	80.679144
1235.000000	80.657369
1234.000000	80.657711
1233.000000	80.668883
1232.000000	80.663411
1231.000000	80.649275
1230.000000	80.649731
1229.000000	80.629780
1228.000000	80.637646
1227.000000	80.628298
1226.000000	80.621800
1225.000000	80.608233
1224.000000	80.613819
1223.000000	80.597631
1222.000000	80.598657
1221.000000	80.597175
1220.000000	80.573234
1219.000000	80.566850
1218.000000	80.554081
1217.000000	80.558185
1216.000000	80.550091
1215.000000	80.532192
1214.000000	80.516232
1213.000000	80.496737
1212.000000	80.488985
1211.000000	80.447259
1210.000000	80.416250
1209.000000	80.394703
1208.000000	80.367228
1207.000000	80.336789
1206.000000	80.298484
1205.000000	80.268615
1204.000000	80.226547
1203.000000	80.192118
1202.000000	80.134888
1201.000000	80.112087
1200.000000	80.058505
1199.000000	80.012447
1198.000000	79.980526
1197.000000	79.923638
1196.000000	79.876326
1195.000000	79.824455
1194.000000	79.769961
1193.000000	79.714327
1192.000000	79.644670
1191.000000	79.590062
1190.000000	79.547995
1189.000000	79.497719
1188.000000	79.500113
1187.000000	79.488028
1186.000000	79.462263
1185.000000	79.467280
1184.000000	79.468534
1183.000000	79.478452
1182.000000	79.501709
1181.000000	79.523712
1180.000000	79.548793
1179.000000	79.556659
1178.000000	79.590062
1177.000000	79.628709
1176.000000	79.661543
1175.000000	79.684458
1174.000000	79.706346
1173.000000	79.746134
1172.000000	79.788429
1171.000000	79.799260
1170.000000	79.891489
1169.000000	79.928882
1168.000000	79.999223
1167.000000	80.073782
1166.000000	80.140018
1165.000000	80.208421
1164.000000	80.306464
1163.000000	80.379085
1162.000000	80.448969
1161.000000	80.528088
1160.000000	80.606181
1159.000000	80.691000
1158.000000	80.755071
1157.000000	80.827691
1156.000000	80.903276
1155.000000	80.952982
1154.000000	81.022182
1153.000000	81.083060
1152.000000	81.132424
1151.000000	81.164003
1150.000000	81.218611
1149.000000	81.239930
1148.000000	81.288154
1147.000000	81.339228
1146.000000	81.374797
1145.000000	81.430431
1144.000000	81.457792
1143.000000	81.495756
1142.000000	81.539419
1141.000000	81.614890
1140.000000	81.680214
1139.000000	81.743715
1138.000000	81.818045
1137.000000	81.918369
1136.000000	82.039783
1135.000000	82.122892
1134.000000	82.161084
1133.000000	82.175334
1132.000000	82.240545
1131.000000	82.302563
1130.000000	82.395476
1129.000000	82.480523
1128.000000	82.514155
1127.000000	82.552232
1126.000000	82.604218
1125.000000	82.641611
1124.000000	82.701577
1123.000000	82.740567
1122.000000	82.764850
1121.000000	82.772488
1120.000000	82.786055
1119.000000	82.803041
1118.000000	82.826184
1117.000000	82.836672
1116.000000	82.835760
1115.000000	82.844311
1114.000000	82.866997
1113.000000	82.863691
1112.000000	82.880450
1111.000000	82.901769
1110.000000	82.896069
1109.000000	82.895955
1108.000000	82.913967
1107.000000	82.916133
1106.000000	82.905189
1105.000000	82.920693
1104.000000	82.939960
1103.000000	82.941442
1102.000000	82.934260
1101.000000	82.915449
1100.000000	82.925710
1099.000000	82.914195
1098.000000	82.899945
1097.000000	82.891622
1096.000000	82.883528
1095.000000	82.887632
1094.000000	82.873268
1093.000000	82.855027
1092.000000	82.826640
1091.000000	82.802243
1090.000000	82.799165
1089.000000	82.771006
1088.000000	82.743873
1087.000000	82.704428
1086.000000	82.708532
1085.000000	82.672278
1084.000000	82.633745
1083.000000	82.591335
1082.000000	82.571499
1081.000000	82.545620
1080.000000	82.493064
1079.000000	82.461257
1078.000000	82.434352
1077.000000	82.400492
1076.000000	82.368913
1075.000000	82.337334
1074.000000	82.299827
1073.000000	82.248981
1072.000000	82.191979
1071.000000	82.166784
1070.000000	82.152419
1069.000000	82.118332
1068.000000	82.078659
1067.000000	82.059050
1066.000000	82.014474
1065.000000	81.963857
1064.000000	81.947440
1063.000000	81.926919
1062.000000	81.901496
1061.000000	81.877897
1060.000000	81.847116
1059.000000	81.817589
1058.000000	81.803225
1057.000000	81.783616
1056.000000	81.759561
1055.000000	81.747135
1054.000000	81.747819
1053.000000	81.747477
1052.000000	81.735506
1051.000000	81.734822
1050.000000	81.737900
1049.000000	81.741890
1048.000000	81.764691
1047.000000	81.782590
1046.000000	81.792736
1045.000000	81.797867
1044.000000	81.813143
1043.000000	81.844152
1042.000000	81.884738
1041.000000	81.911415
1040.000000	81.934671
1039.000000	81.955648
1038.000000	81.971723
1037.000000	82.002960
1036.000000	82.040239
1035.000000	82.081623
1034.000000	82.104994
1033.000000	82.138853
1032.000000	82.184911
1031.000000	82.216262
1030.000000	82.255251
1029.000000	82.293785
1028.000000	82.329012
1027.000000	82.359565
1026.000000	82.399238
1025.000000	82.433326
1024.000000	82.460459
1023.000000	82.502298
1022.000000	82.543910
1021.000000	82.582557
1020.000000	82.618354
1019.000000	82.637393
1018.000000	82.672050
1017.000000	82.705454
1016.000000	82.739199
1015.000000	82.757667
1014.000000	82.766560
1013.000000	82.807259
1012.000000	82.830174
1011.000000	82.840435
1010.000000	82.858105
1009.000000	82.897323
1008.000000	82.917615
1007.000000	82.915221
1006.000000	82.936084
1005.000000	82.957973
1004.000000	82.939048
1003.000000	82.940416
1002.000000	82.962989
1001.000000	82.951589
1000.000000	82.952273
999.000000	82.955009
998.000000	82.951817
997.000000	82.943038
996.000000	82.935514
995.000000	82.935628
994.000000	82.937566
993.000000	82.935172
992.000000	82.926166
991.000000	82.942924
990.000000	82.943152
989.000000	82.952159
988.000000	82.976897
987.000000	82.989552
986.000000	83.021359
985.000000	83.044274
984.000000	83.085543
983.000000	83.132513
982.000000	83.158962
981.000000	83.183587
980.000000	83.251191
979.000000	83.295083
978.000000	83.366792
977.000000	83.410797
976.000000	83.479314
975.000000	83.549996
974.000000	83.600956
973.000000	83.648610
972.000000	83.744145
971.000000	83.837287
970.000000	83.942285
969.000000	84.005557
968.000000	84.092770
967.000000	84.197198
966.000000	84.286463
965.000000	84.378351
964.000000	84.474342
963.000000	84.584698
962.000000	84.708621
961.000000	84.828667
960.000000	84.921238
959.000000	85.013126
958.000000	85.122342
957.000000	85.254814
956.000000	85.375773
955.000000	85.468914
954.000000	85.561144
953.000000	85.659643
952.000000	85.746058
951.000000	85.853222
950.000000	85.947732
949.000000	86.042697
948.000000	86.113494
947.000000	86.169584
946.000000	86.290656
945.000000	86.351876
944.000000	86.402266
943.000000	86.497460
942.000000	86.565292
941.000000	86.605080
940.000000	86.721364
939.000000	86.753057
938.000000	86.817811
937.000000	86.879374
936.000000	86.935806
935.000000	87.061096
934.000000	87.122659
933.000000	87.173276
932.000000	87.248861
931.000000	87.359103
930.000000	87.414509
929.000000	87.476983
928.000000	87.572861
927.000000	87.624049
926.000000	87.677745
925.000000	87.724486
924.000000	87.862089
923.000000	87.907349
922.000000	87.934938
921.000000	87.992282
920.000000	88.072427
919.000000	88.162148
918.000000	88.210258
917.000000	88.367584
916.000000	88.427094
915.000000	88.480220
914.000000	88.577352
913.000000	88.639826
912.000000	88.704466
911.000000	88.793617
910.000000	88.857004
909.000000	88.903175
908.000000	88.957099
907.000000	89.026300
906.000000	89.080110
905.000000	89.246328
904.000000	89.281441
903.000000	89.248950
902.000000	89.268559
901.000000	89.276083
900.000000	89.323395
899.000000	89.334339
898.000000	89.357026
897.000000	89.349616
896.000000	89.381993
895.000000	89.369794
894.000000	89.283949
893.000000	89.235156
892.000000	89.219423
891.000000	89.171313
890.000000	89.136998
889.000000	89.095614
888.000000	89.054573
887.000000	88.951627
886.000000	88.800458
885.000000	88.719743
884.000000	88.644614
883.000000	88.514649
882.000000	88.301803
881.000000	88.197832
880.000000	88.089984
879.000000	87.910769
878.000000	87.641377
877.000000	87.455095
876.000000	87.303127
875.000000	87.042172
874.000000	86.803675
873.000000	86.469757
872.000000	86.226472
871.000000	85.907944
870.000000	85.698975
869.000000	85.430153
868.000000	85.007197
867.000000	84.671455
866.000000	84.231741
865.000000	83.901585
864.000000	83.325750
863.000000	82.711952
862.000000	82.177386
861.000000	81.700279
860.000000	81.014886
859.000000	80.451705
858.000000	82.204633
857.000000	82.434200
856.000000	82.294100
855.000000	81.885600
854.000000	82.681400
853.000000	82.659800
852.000000	82.410200
851.000000	82.544500
850.000000	82.292500
849.000000	82.461200
848.000000	82.184200
847.000000	82.145700
846.000000	82.132600
845.000000	82.165500
844.000000	82.226300
843.000000	81.972400
842.000000	81.707500
841.000000	81.836700
840.000000	81.778100
839.000000	81.656700
838.000000	81.648500
837.000000	81.533100
836.000000	81.391000
835.000000	81.215400
834.000000	81.162600
833.000000	80.949000
832.000000	80.871300
831.000000	80.820600
830.000000	80.613300
829.000000	80.811200
828.000000	80.538400
827.000000	80.261100
826.000000	80.179400
825.000000	80.178200
824.000000	79.964400
823.000000	79.742300
822.000000	79.556100
821.000000	79.480100
820.000000	79.243600
819.000000	79.117600
818.000000	79.171600
817.000000	78.795800
816.000000	78.838000
815.000000	78.651400
814.000000	78.479500
813.000000	78.256500
812.000000	78.131700
811.000000	77.922100
810.000000	77.835100
809.000000	77.692600
808.000000	77.547800
807.000000	77.342000
806.000000	77.293600
805.000000	77.198100
804.000000	76.984600
803.000000	76.872100
802.000000	76.679200
801.000000	76.559600
800.000000	76.462800
799.000000	76.214600
798.000000	76.067400
797.000000	75.936800
796.000000	75.773200
795.000000	75.515800
794.000000	75.327300
793.000000	75.214200
792.000000	75.057800
791.000000	74.905600
790.000000	74.735000
789.000000	74.645400
788.000000	74.558000
787.000000	74.361800
786.000000	74.147100
785.000000	73.995800
784.000000	73.880300
783.000000	73.764300
782.000000	73.673700
781.000000	73.517600
780.000000	73.273900
779.000000	73.117200
778.000000	72.976200
777.000000	72.786100
776.000000	72.601900
775.000000	72.461100
774.000000	72.331500
773.000000	72.229200
772.000000	72.160000
771.000000	71.982900
770.000000	71.810600
769.000000	71.583300
768.000000	71.413500
767.000000	71.366600
766.000000	71.226100
765.000000	70.978800
764.000000	70.783500
763.000000	70.651900
762.000000	70.561300
761.000000	70.370900
760.000000	70.148700
759.000000	70.043000
758.000000	69.924200
757.000000	69.702900
756.000000	69.595500
755.000000	69.476400
754.000000	69.206100
753.000000	69.044700
752.000000	68.886100
751.000000	68.664500
750.000000	68.535000
749.000000	68.412700
748.000000	68.227100
747.000000	68.028400
746.000000	67.850600
745.000000	67.707500
744.000000	67.537500
743.000000	67.328400
742.000000	67.093500
741.000000	66.873600
740.000000	66.631800
739.000000	66.361000
738.000000	66.134000
737.000000	65.843100
736.000000	65.546100
735.000000	65.409300
734.000000	65.155500
733.000000	64.834300
732.000000	64.594300
731.000000	64.307900
730.000000	64.011300
729.000000	63.727700
728.000000	63.421900
727.000000	63.178500
726.000000	62.889700
725.000000	62.614500
724.000000	62.374200
723.000000	62.106300
722.000000	61.843400
721.000000	61.625000
720.000000	61.345900
719.000000	61.087800
718.000000	60.865500
717.000000	60.683600
716.000000	60.443100
715.000000	60.194700
714.000000	59.956100
713.000000	59.715000
712.000000	59.485500
711.000000	59.239500
710.000000	59.025000
709.000000	58.828600
708.000000	58.639300
707.000000	58.375700
706.000000	58.129600
705.000000	57.911800
704.000000	57.673600
703.000000	57.411000
702.000000	57.127300
701.000000	56.903700
700.000000	56.666700
699.000000	56.397800
698.000000	56.188200
697.000000	55.871200
696.000000	55.609800
695.000000	55.379900
694.000000	55.152400
693.000000	54.989800
692.000000	54.785900
691.000000	54.621200
690.000000	54.471300
689.000000	54.358400
688.000000	54.245100
687.000000	54.160200
686.000000	54.099400
685.000000	54.029600
684.000000	53.956400
683.000000	53.904800
682.000000	53.882800
681.000000	53.819600
680.000000	53.760900
679.000000	53.661100
678.000000	53.589900
677.000000	53.501700
676.000000	53.370300
675.000000	53.209100
674.000000	52.978600
673.000000	52.798900
672.000000	52.573800
671.000000	52.338700
670.000000	52.063600
669.000000	51.753400
668.000000	51.433700
667.000000	51.103000
666.000000	50.776400
665.000000	50.462000
664.000000	50.133200
663.000000	49.821000
662.000000	49.508600
661.000000	49.237300
660.000000	48.983200
659.000000	48.737400
658.000000	48.482900
657.000000	48.311800
656.000000	48.177100
655.000000	48.028900
654.000000	47.915600
653.000000	47.841100
652.000000	47.786700
651.000000	47.766700
650.000000	47.762300
649.000000	47.797200
648.000000	47.801300
647.000000	47.865700
646.000000	47.961800
645.000000	48.070500
644.000000	48.208800
643.000000	48.340800
642.000000	48.509200
641.000000	48.660800
640.000000	48.814200
639.000000	49.049700
638.000000	49.270500
637.000000	49.500800
636.000000	49.711400
635.000000	49.968000
634.000000	50.266800
633.000000	50.538700
632.000000	50.800700
631.000000	51.138300
630.000000	51.459600
629.000000	51.786900
628.000000	52.160700
627.000000	52.543300
626.000000	52.913700
625.000000	53.342100
624.000000	53.711100
623.000000	54.221900
622.000000	54.679900
621.000000	55.163100
620.000000	55.647100
619.000000	56.159500
618.000000	56.664300
617.000000	57.170700
616.000000	57.606600
615.000000	58.117400
614.000000	58.643700
613.000000	59.120100
612.000000	59.555800
611.000000	60.062900
610.000000	60.513400
609.000000	60.893100
608.000000	61.254000
607.000000	61.651000
606.000000	62.009600
605.000000	62.299000
604.000000	62.637200
603.000000	62.912000
602.000000	63.234300
601.000000	63.539700
600.000000	63.826500
599.000000	64.071700
598.000000	64.343500
597.000000	64.573300
596.000000	64.793700
595.000000	64.979900
594.000000	65.229900
593.000000	65.393400
592.000000	65.525400
591.000000	65.725600
590.000000	65.857200
589.000000	65.950000
588.000000	66.005100
587.000000	66.078300
586.000000	66.086900
585.000000	66.081200
584.000000	66.119900
583.000000	66.089500
582.000000	66.051300
581.000000	65.983200
580.000000	65.899700
579.000000	65.849000
578.000000	65.789700
577.000000	65.721900
576.000000	65.633900
575.000000	65.581900
574.000000	65.513800
573.000000	65.467000
572.000000	65.422200
571.000000	65.341400
570.000000	65.331100
569.000000	65.306800
568.000000	65.239900
567.000000	65.136700
566.000000	65.074500
565.000000	64.953400
564.000000	64.793100
563.000000	64.598500
562.000000	64.445900
561.000000	64.238800
560.000000	63.959700
559.000000	63.668000
558.000000	63.361400
557.000000	63.039900
556.000000	62.702300
555.000000	62.290500
554.000000	61.906900
553.000000	61.468900
552.000000	60.997800
551.000000	60.492800
550.000000	59.962200
549.000000	59.339700
548.000000	58.708700
547.000000	58.018400
546.000000	57.266800
545.000000	56.485100
544.000000	55.654600
543.000000	54.727400
542.000000	53.782600
541.000000	52.841700
540.000000	51.831700
539.000000	50.820500
538.000000	49.786100
537.000000	48.748900
536.000000	47.685200
535.000000	46.619600
534.000000	45.542400
533.000000	44.490800
532.000000	43.471200
531.000000	42.469500
530.000000	41.514100
529.000000	40.594100
528.000000	39.720700
527.000000	38.877100
526.000000	38.087700
525.000000	37.326400
524.000000	36.592700
523.000000	35.899900
522.000000	35.247100
521.000000	34.618300
520.000000	34.029000
519.000000	33.453600
518.000000	32.933800
517.000000	32.442600
516.000000	31.998000
515.000000	31.582800
514.000000	31.174100
513.000000	30.775100
512.000000	30.381300
511.000000	30.023200
510.000000	29.676800
509.000000	29.344200
508.000000	29.026700
507.000000	28.724000
506.000000	28.452300
505.000000	28.159200
504.000000	27.852200
503.000000	27.546200
502.000000	27.257700
501.000000	26.963200
500.000000	26.668200
499.000000	26.377300
498.000000	26.090200
497.000000	25.822100
496.000000	25.547900
495.000000	25.278500
494.000000	25.004800
493.000000	24.712900
492.000000	24.439900
491.000000	24.165100
490.000000	23.885700
489.000000	23.624300
488.000000	23.357500
487.000000	23.096200
486.000000	22.835100
485.000000	22.591000
484.000000	22.316900
483.000000	22.046800
482.000000	21.802600
481.000000	21.545100
480.000000	21.275300
479.000000	21.005100
478.000000	20.744900
477.000000	20.473700
476.000000	20.205700
475.000000	19.938200
474.000000	19.674400
473.000000	19.408200
472.000000	19.148600
471.000000	18.875000
470.000000	18.600200
469.000000	18.336500
468.000000	18.076400
467.000000	17.801400
466.000000	17.526100
465.000000	17.260300
464.000000	16.972600
463.000000	16.679100
462.000000	16.398400
461.000000	16.099700
460.000000	15.798400
459.000000	15.489700
458.000000	15.175500
457.000000	14.868500
456.000000	14.560000
455.000000	14.234300
454.000000	13.902300
453.000000	13.566900
452.000000	13.222800
451.000000	12.889700
450.000000	12.542300
449.000000	12.187400
448.000000	11.866700
447.000000	11.540200
446.000000	11.212200
445.000000	10.886000
444.000000	10.580100
443.000000	10.283900
442.000000	9.965500
441.000000	9.666000
440.000000	9.398300
439.000000	9.123500
438.000000	8.862200
437.000000	8.625800
436.000000	8.392100
435.000000	8.164600
434.000000	7.953300
433.000000	7.753500
432.000000	7.561200
431.000000	7.383400
430.000000	7.223900
429.000000	7.073700
428.000000	6.932900
427.000000	6.802500
426.000000	6.685100
425.000000	6.581500
424.000000	6.479700
423.000000	6.380200
422.000000	6.298300
421.000000	6.242200
420.000000	6.185300
419.000000	6.115600
418.000000	6.056700
417.000000	6.006400
416.000000	5.964100
415.000000	5.917800
414.000000	5.872300
413.000000	5.839500
412.000000	5.803000
411.000000	5.776800
410.000000	5.760300
409.000000	5.747500
408.000000	5.731100
407.000000	5.707000
406.000000	5.688700
405.000000	5.677600
404.000000	5.671400
403.000000	5.659800
402.000000	5.647300
401.000000	5.638400
400.000000	5.633600
399.000000	5.620800
398.000000	5.614900
397.000000	5.605600
396.000000	5.615500
395.000000	5.617100
394.000000	5.607300
393.000000	5.586800
392.000000	5.596300
391.000000	5.598300
390.000000	5.598600
389.000000	5.595300
388.000000	5.589200
387.000000	5.575200
386.000000	5.579100
385.000000	5.570500
384.000000	5.549100
383.000000	5.541900
382.000000	5.539600
381.000000	5.526800
380.000000	5.533900
379.000000	5.522800
378.000000	5.520300
377.000000	5.527200
376.000000	5.472300
375.000000	5.204000
374.000000	5.219100
373.000000	5.243000
372.000000	5.287300
371.000000	5.277100
370.000000	5.292600
369.000000	5.342400
368.000000	5.299500
367.000000	5.307600
366.000000	5.317600
365.000000	5.331100
364.000000	5.407600
363.000000	5.415900
362.000000	5.325500
361.000000	5.396100
360.000000	5.355700
359.000000	5.263300
358.000000	5.306200
357.000000	5.334100
356.000000	5.378300
355.000000	5.366800
354.000000	5.354800
353.000000	5.365800
352.000000	5.330300
351.000000	5.344100
350.000000	5.364400
349.000000	5.373000
348.000000	5.376900
347.000000	5.309600
346.000000	5.322000
345.000000	5.540500
344.000000	5.308900
343.000000	5.405400
342.000000	5.425500
341.000000	5.433100
340.000000	5.499500
339.000000	5.415600
338.000000	5.367500
337.000000	5.220900
336.000000	5.402300
335.000000	5.293100
334.000000	5.340000
333.000000	5.328200
332.000000	5.553900
331.000000	5.427400
330.000000	5.519300
329.000000	5.320700
328.000000	5.425800
327.000000	5.480500
326.000000	5.539200
325.000000	5.651200
324.000000	5.543100
323.000000	5.601800
322.000000	5.422700
321.000000	5.643800
320.000000	5.823400
319.000000	5.814700
318.000000	5.764600
317.000000	5.465000
316.000000	5.468600
315.000000	5.549800
314.000000	5.478000
313.000000	5.506300
312.000000	5.428900
311.000000	5.463000
310.000000	5.438400
309.000000	5.470300
308.000000	5.473400
307.000000	5.525200
306.000000	5.556900
305.000000	5.487200
304.000000	5.435800
303.000000	5.491800
302.000000	5.533300
301.000000	5.554800
300.000000	5.517700
299.000000	5.462100
298.000000	5.524200
297.000000	5.523200
296.000000	5.560500
295.000000	5.622300
294.000000	5.530000
293.000000	5.547100
292.000000	5.597800
291.000000	5.575900
290.000000	5.657700
289.000000	5.589700
288.000000	5.599000
287.000000	5.586100
286.000000	5.612000
285.000000	5.614800
284.000000	5.624200
283.000000	5.614200
282.000000	5.664700
281.000000	5.704300
280.000000	5.707500
279.000000	5.709900
278.000000	5.711500
277.000000	5.696500
276.000000	5.712700
275.000000	5.702700
274.000000	5.723100
273.000000	5.763700
272.000000	5.799600
271.000000	5.807700
270.000000	5.810000
269.000000	5.855900
268.000000	5.918800
267.000000	5.890900
266.000000	5.880100
265.000000	5.997200
264.000000	5.978400
263.000000	6.022500
262.000000	6.054200
261.000000	6.046600
260.000000	6.122000
259.000000	6.190800
258.000000	6.102600
257.000000	6.155500
256.000000	6.232800
255.000000	6.186600
254.000000	6.157200
253.000000	6.231000
252.000000	6.228400
251.000000	6.266200
250.000000	6.238700
