PE UV       SUBTECH     SPECTRUM    ASCII       PEDS        4.00        
   -1
CICIMAUCR0250-1.ASC
24/05/30
14:50:06.00
24/05/30
14:50:06.00
Vinicio Soto Monge
C. resplendens, M Ventral
250,000000
1
Lambda 1050
1050L1511233
PerkinElmer UV WinLab 6.3.2.0749 / 2.02.05 Lambda 900 UV/VIS/NIR, Aug  7 2015 09:38:08

0
0
3350/servo 860,8/2
0
0
UV/VIS
1
1
1
DoubleDePol,CommonBeamDepol,RBeamAtt,SBeamAtt,60mm sphere, WB InGaAs Detector
0
0
0
0
Program
Program
3350/servo 860,8/2
3350/0,2 860,8/0,2
3350/0,2 860,8/0,2
0
15.00
 
 
 
0
 
860,8
319,2
860,8
Front
100
on
S:100 R:100
0
0
0
0
 
0
 
 
 
0
 
 
0
0
0
0
0
 
 
 
 
0
0


0
0
#HDR
-1
-1
#GR
nm
%R
1.0
0.0
2500,000000
-1,000000
2251
8
58,518500
4,181300
#DATA
2482.000000	5.587090
2481.000000	5.549925
2480.000000	5.474585
2479.000000	5.405963
2478.000000	5.498430
2477.000000	5.440666
2476.000000	5.423314
2475.000000	5.489138
2474.000000	5.471675
2473.000000	5.457458
2472.000000	5.462607
2471.000000	5.442233
2470.000000	5.424322
2469.000000	5.418724
2468.000000	5.400029
2467.000000	5.397791
2466.000000	5.390178
2465.000000	5.404731
2464.000000	5.398574
2463.000000	5.479063
2462.000000	5.449509
2461.000000	5.416821
2460.000000	5.436300
2459.000000	5.438539
2458.000000	5.504027
2457.000000	5.501004
2456.000000	5.494959
2455.000000	5.492385
2454.000000	5.520147
2453.000000	5.554738
2452.000000	5.567612
2451.000000	5.593695
2450.000000	5.589441
2449.000000	5.621122
2448.000000	5.608808
2447.000000	5.650564
2446.000000	5.641496
2445.000000	5.687841
2444.000000	5.695118
2443.000000	5.717507
2442.000000	5.732172
2441.000000	5.761837
2440.000000	5.781428
2439.000000	5.809862
2438.000000	5.816019
2437.000000	5.857887
2436.000000	5.877253
2435.000000	5.876470
2434.000000	5.891023
2433.000000	5.935129
2432.000000	5.937816
2431.000000	5.956399
2430.000000	5.967817
2429.000000	5.985169
2428.000000	6.005767
2427.000000	6.012372
2426.000000	6.030843
2425.000000	6.050993
2424.000000	6.065434
2423.000000	6.061628
2422.000000	6.079875
2421.000000	6.117265
2420.000000	6.114690
2419.000000	6.123645
2418.000000	6.140437
2417.000000	6.162938
2416.000000	6.173349
2415.000000	6.169207
2414.000000	6.191820
2413.000000	6.197865
2412.000000	6.199880
2411.000000	6.188574
2410.000000	6.217456
2409.000000	6.230106
2408.000000	6.237046
2407.000000	6.232792
2406.000000	6.255293
2405.000000	6.264137
2404.000000	6.288877
2403.000000	6.301303
2402.000000	6.308020
2401.000000	6.315296
2400.000000	6.308580
2399.000000	6.338133
2398.000000	6.351343
2397.000000	6.382240
2396.000000	6.413920
2395.000000	6.415376
2394.000000	6.422764
2393.000000	6.430824
2392.000000	6.417726
2391.000000	6.440899
2390.000000	6.464184
2389.000000	6.470229
2388.000000	6.464072
2387.000000	6.484446
2386.000000	6.493514
2385.000000	6.493626
2384.000000	6.498103
2383.000000	6.502917
2382.000000	6.513776
2381.000000	6.524634
2380.000000	6.525978
2379.000000	6.529336
2378.000000	6.512097
2377.000000	6.509522
2376.000000	6.512432
2375.000000	6.511985
2374.000000	6.500678
2373.000000	6.492954
2372.000000	6.485901
2371.000000	6.469333
2370.000000	6.466982
2369.000000	6.468662
2368.000000	6.463848
2367.000000	6.446944
2366.000000	6.431384
2365.000000	6.412465
2364.000000	6.394330
2363.000000	6.377202
2362.000000	6.353694
2361.000000	6.345186
2360.000000	6.336118
2359.000000	6.310035
2358.000000	6.295146
2357.000000	6.288429
2356.000000	6.277906
2355.000000	6.269399
2354.000000	6.249248
2353.000000	6.223501
2352.000000	6.211411
2351.000000	6.232345
2350.000000	6.249360
2349.000000	6.250704
2348.000000	6.266936
2347.000000	6.262682
2346.000000	6.253390
2345.000000	6.272757
2344.000000	6.286750
2343.000000	6.317647
2342.000000	6.342387
2341.000000	6.353582
2340.000000	6.355149
2339.000000	6.347760
2338.000000	6.361194
2337.000000	6.364664
2336.000000	6.359403
2335.000000	6.373620
2334.000000	6.387501
2333.000000	6.382464
2332.000000	6.355709
2331.000000	6.344178
2330.000000	6.336902
2329.000000	6.331081
2328.000000	6.316975
2327.000000	6.285519
2326.000000	6.265145
2325.000000	6.259995
2324.000000	6.220590
2323.000000	6.201560
2322.000000	6.190589
2321.000000	6.159020
2320.000000	6.124541
2319.000000	6.079315
2318.000000	6.052896
2317.000000	6.022447
2316.000000	5.980355
2315.000000	5.947107
2314.000000	5.922815
2313.000000	5.888224
2312.000000	5.864939
2311.000000	5.846692
2310.000000	5.827997
2309.000000	5.808407
2308.000000	5.777398
2307.000000	5.779637
2306.000000	5.778405
2305.000000	5.757919
2304.000000	5.750531
2303.000000	5.769226
2302.000000	5.766763
2301.000000	5.780756
2300.000000	5.816019
2299.000000	5.834490
2298.000000	5.844006
2297.000000	5.868522
2296.000000	5.897404
2295.000000	5.920688
2294.000000	5.970392
2293.000000	5.989983
2292.000000	5.999274
2291.000000	5.988191
2290.000000	6.023342
2289.000000	6.034537
2288.000000	6.036328
2287.000000	6.044388
2286.000000	6.045284
2285.000000	6.051441
2284.000000	6.051441
2283.000000	6.019088
2282.000000	6.006215
2281.000000	6.008342
2280.000000	5.967817
2279.000000	5.967146
2278.000000	5.962780
2277.000000	5.942853
2276.000000	5.926733
2275.000000	5.920017
2274.000000	5.916882
2273.000000	5.912964
2272.000000	5.898075
2271.000000	5.908598
2270.000000	5.881731
2269.000000	5.934010
2268.000000	5.925390
2267.000000	5.927517
2266.000000	5.959981
2265.000000	5.970728
2264.000000	6.022335
2263.000000	6.071255
2262.000000	6.123310
2261.000000	6.197082
2260.000000	6.266152
2259.000000	6.334999
2258.000000	6.394890
2257.000000	6.500678
2256.000000	6.588331
2255.000000	6.685724
2254.000000	6.775616
2253.000000	6.904913
2252.000000	6.963237
2251.000000	7.062981
2250.000000	7.175374
2249.000000	7.248139
2248.000000	7.347546
2247.000000	7.411803
2246.000000	7.504270
2245.000000	7.561698
2244.000000	7.630656
2243.000000	7.701966
2242.000000	7.795776
2241.000000	7.851861
2240.000000	7.908058
2239.000000	7.949365
2238.000000	8.010600
2237.000000	8.055042
2236.000000	8.077095
2235.000000	8.131613
2234.000000	8.182212
2233.000000	8.196989
2232.000000	8.243558
2231.000000	8.273672
2230.000000	8.259231
2229.000000	8.307032
2228.000000	8.313412
2227.000000	8.320241
2226.000000	8.336137
2225.000000	8.360318
2224.000000	8.337593
2223.000000	8.347668
2222.000000	8.355728
2221.000000	8.358862
2220.000000	8.366027
2219.000000	8.328413
2218.000000	8.307703
2217.000000	8.316883
2216.000000	8.319569
2215.000000	8.303225
2214.000000	8.294606
2213.000000	8.284754
2212.000000	8.245573
2211.000000	8.236058
2210.000000	8.244118
2209.000000	8.213893
2208.000000	8.209415
2207.000000	8.200683
2206.000000	8.204042
2205.000000	8.205497
2204.000000	8.195310
2203.000000	8.184787
2202.000000	8.189377
2201.000000	8.166652
2200.000000	8.162286
2199.000000	8.157024
2198.000000	8.130269
2197.000000	8.153442
2196.000000	8.139113
2195.000000	8.135979
2194.000000	8.140345
2193.000000	8.150308
2192.000000	8.130829
2191.000000	8.111687
2190.000000	8.099596
2189.000000	8.090977
2188.000000	8.074297
2187.000000	8.084596
2186.000000	8.090193
2185.000000	8.074521
2184.000000	8.078551
2183.000000	8.059072
2182.000000	8.059296
2181.000000	8.067356
2180.000000	8.037579
2179.000000	8.036347
2178.000000	8.030750
2177.000000	8.006234
2176.000000	8.008473
2175.000000	8.025041
2174.000000	8.013398
2173.000000	7.996830
2172.000000	8.012279
2171.000000	8.018884
2170.000000	8.023361
2169.000000	8.031086
2168.000000	8.026048
2167.000000	8.042728
2166.000000	8.038362
2165.000000	8.030638
2164.000000	8.058736
2163.000000	8.042728
2162.000000	8.055938
2161.000000	8.097357
2160.000000	8.083028
2159.000000	8.097805
2158.000000	8.112806
2157.000000	8.122433
2156.000000	8.140345
2155.000000	8.150532
2154.000000	8.166764
2153.000000	8.181541
2152.000000	8.178070
2151.000000	8.221057
2150.000000	8.257104
2149.000000	8.264268
2148.000000	8.285874
2147.000000	8.285874
2146.000000	8.321584
2145.000000	8.333898
2144.000000	8.355840
2143.000000	8.372296
2142.000000	8.399834
2141.000000	8.416514
2140.000000	8.405544
2139.000000	8.428716
2138.000000	8.443493
2137.000000	8.437784
2136.000000	8.462972
2135.000000	8.478420
2134.000000	8.499354
2133.000000	8.508645
2132.000000	8.502376
2131.000000	8.515250
2130.000000	8.512675
2129.000000	8.524094
2128.000000	8.524430
2127.000000	8.520176
2126.000000	8.514355
2125.000000	8.506854
2124.000000	8.510884
2123.000000	8.508757
2122.000000	8.496779
2121.000000	8.491518
2120.000000	8.509541
2119.000000	8.506966
2118.000000	8.482338
2117.000000	8.458494
2116.000000	8.466666
2115.000000	8.467114
2114.000000	8.449986
2113.000000	8.432858
2112.000000	8.429388
2111.000000	8.409686
2110.000000	8.390095
2109.000000	8.389535
2108.000000	8.360541
2107.000000	8.337481
2106.000000	8.337817
2105.000000	8.334122
2104.000000	8.331212
2103.000000	8.316435
2102.000000	8.283411
2101.000000	8.254753
2100.000000	8.241543
2099.000000	8.248820
2098.000000	8.240872
2097.000000	8.224416
2096.000000	8.217139
2095.000000	8.214117
2094.000000	8.214341
2093.000000	8.185906
2092.000000	8.169003
2091.000000	8.164861
2090.000000	8.158480
2089.000000	8.156689
2088.000000	8.152882
2087.000000	8.140457
2086.000000	8.129150
2085.000000	8.131837
2084.000000	8.118067
2083.000000	8.097246
2082.000000	8.087059
2081.000000	8.077767
2080.000000	8.059856
2079.000000	8.047318
2078.000000	8.051012
2077.000000	8.028959
2076.000000	8.002316
2075.000000	8.000189
2074.000000	7.988434
2073.000000	7.966605
2072.000000	7.946119
2071.000000	7.916006
2070.000000	7.891154
2069.000000	7.883541
2068.000000	7.876601
2067.000000	7.870668
2066.000000	7.850965
2065.000000	7.829920
2064.000000	7.808874
2063.000000	7.791746
2062.000000	7.776633
2061.000000	7.752117
2060.000000	7.740923
2059.000000	7.738572
2058.000000	7.738908
2057.000000	7.734542
2056.000000	7.738124
2055.000000	7.732415
2054.000000	7.732191
2053.000000	7.749431
2052.000000	7.767006
2051.000000	7.784694
2050.000000	7.819509
2049.000000	7.850406
2048.000000	7.878280
2047.000000	7.925185
2046.000000	7.953172
2045.000000	7.994480
2044.000000	8.033549
2043.000000	8.071498
2042.000000	8.131389
2041.000000	8.187586
2040.000000	8.219154
2039.000000	8.262813
2038.000000	8.314644
2037.000000	8.356623
2036.000000	8.416402
2035.000000	8.450882
2034.000000	8.474838
2033.000000	8.513347
2032.000000	8.539095
2031.000000	8.564058
2030.000000	8.599545
2029.000000	8.630666
2028.000000	8.655518
2027.000000	8.691453
2026.000000	8.706789
2025.000000	8.726827
2024.000000	8.756493
2023.000000	8.773285
2022.000000	8.796122
2021.000000	8.806309
2020.000000	8.824220
2019.000000	8.828586
2018.000000	8.840564
2017.000000	8.836758
2016.000000	8.865304
2015.000000	8.875603
2014.000000	8.881760
2013.000000	8.875603
2012.000000	8.872468
2011.000000	8.872692
2010.000000	8.866200
2009.000000	8.869558
2008.000000	8.842803
2007.000000	8.837653
2006.000000	8.834183
2005.000000	8.800152
2004.000000	8.799928
2003.000000	8.772501
2002.000000	8.764329
2001.000000	8.752463
2000.000000	8.716192
1999.000000	8.679027
1998.000000	8.646338
1997.000000	8.642196
1996.000000	8.594620
1995.000000	8.564842
1994.000000	8.539878
1993.000000	8.522303
1992.000000	8.456143
1991.000000	8.424686
1990.000000	8.406103
1989.000000	8.355392
1988.000000	8.316547
1987.000000	8.262141
1986.000000	8.255984
1985.000000	8.209863
1984.000000	8.154898
1983.000000	8.132956
1982.000000	8.084708
1981.000000	8.056609
1980.000000	7.996718
1979.000000	7.965150
1978.000000	7.922051
1977.000000	7.889587
1976.000000	7.845704
1975.000000	7.813687
1974.000000	7.773163
1973.000000	7.739132
1972.000000	7.709018
1971.000000	7.680024
1970.000000	7.620581
1969.000000	7.601551
1968.000000	7.574908
1967.000000	7.535839
1966.000000	7.503934
1965.000000	7.451879
1964.000000	7.433185
1963.000000	7.420871
1962.000000	7.371279
1961.000000	7.353927
1960.000000	7.315866
1959.000000	7.282394
1958.000000	7.247243
1957.000000	7.238735
1956.000000	7.235153
1955.000000	7.167986
1954.000000	7.165635
1953.000000	7.130372
1952.000000	7.103393
1951.000000	7.051226
1950.000000	7.051562
1949.000000	7.008127
1948.000000	6.991112
1947.000000	6.998836
1946.000000	6.961670
1945.000000	6.948796
1944.000000	6.934691
1943.000000	6.933460
1942.000000	6.905137
1941.000000	6.874128
1940.000000	6.894838
1939.000000	6.875808
1938.000000	6.862822
1937.000000	6.876927
1936.000000	6.869427
1935.000000	6.859911
1934.000000	6.881853
1933.000000	6.889913
1932.000000	6.898421
1931.000000	6.930885
1930.000000	6.944542
1929.000000	6.971409
1928.000000	6.973088
1927.000000	7.009359
1926.000000	7.044845
1925.000000	7.066339
1924.000000	7.113692
1923.000000	7.153433
1922.000000	7.181531
1921.000000	7.241982
1920.000000	7.315642
1919.000000	7.370495
1918.000000	7.395347
1917.000000	7.448521
1916.000000	7.535951
1915.000000	7.590916
1914.000000	7.665919
1913.000000	7.764543
1912.000000	7.831599
1911.000000	7.944440
1910.000000	8.032541
1909.000000	8.131277
1908.000000	8.193183
1907.000000	8.296173
1906.000000	8.408454
1905.000000	8.560140
1904.000000	8.694027
1903.000000	8.815824
1902.000000	8.950942
1901.000000	9.099046
1900.000000	9.240881
1899.000000	9.405889
1898.000000	9.596085
1897.000000	9.782026
1896.000000	9.930130
1895.000000	10.084615
1894.000000	10.271788
1893.000000	10.448326
1892.000000	10.649268
1891.000000	10.879428
1890.000000	11.147650
1889.000000	11.391243
1888.000000	11.606291
1887.000000	11.886602
1886.000000	12.172287
1885.000000	12.472973
1884.000000	12.812056
1883.000000	13.199276
1882.000000	13.610340
1881.000000	14.004612
1880.000000	14.432244
1879.000000	14.827860
1878.000000	15.212057
1877.000000	15.633420
1876.000000	16.035864
1875.000000	16.437189
1874.000000	16.800228
1873.000000	17.169649
1872.000000	17.564593
1871.000000	17.906251
1870.000000	18.242871
1869.000000	18.566281
1868.000000	18.846257
1867.000000	19.100598
1866.000000	19.314414
1865.000000	19.469234
1864.000000	19.633906
1863.000000	19.774062
1862.000000	19.885336
1861.000000	20.015976
1860.000000	20.127138
1859.000000	20.235390
1858.000000	20.350470
1857.000000	20.432862
1856.000000	20.483573
1855.000000	20.518500
1854.000000	20.563502
1853.000000	20.575816
1852.000000	20.568540
1851.000000	20.552196
1850.000000	20.527232
1849.000000	20.527456
1848.000000	20.508201
1847.000000	20.523314
1846.000000	20.513127
1845.000000	20.457602
1844.000000	20.418868
1843.000000	20.358642
1842.000000	20.332334
1841.000000	20.335693
1840.000000	20.329760
1839.000000	20.296736
1838.000000	20.259906
1837.000000	20.246584
1836.000000	20.218150
1835.000000	20.174043
1834.000000	20.115944
1833.000000	20.044075
1832.000000	19.981833
1831.000000	19.911643
1830.000000	19.857797
1829.000000	19.803504
1828.000000	19.721671
1827.000000	19.632675
1826.000000	19.575023
1825.000000	19.530692
1824.000000	19.457928
1823.000000	19.396470
1822.000000	19.360199
1821.000000	19.340833
1820.000000	19.339042
1819.000000	19.332885
1818.000000	19.285756
1817.000000	19.238850
1816.000000	19.227544
1815.000000	19.223066
1814.000000	19.222954
1813.000000	19.199334
1812.000000	19.184557
1811.000000	19.157354
1810.000000	19.123658
1809.000000	19.110561
1808.000000	19.075298
1807.000000	19.023915
1806.000000	18.985070
1805.000000	18.931672
1804.000000	18.872229
1803.000000	18.828346
1802.000000	18.776739
1801.000000	18.732297
1800.000000	18.696586
1799.000000	18.641733
1798.000000	18.586768
1797.000000	18.537847
1796.000000	18.487472
1795.000000	18.442806
1794.000000	18.408774
1793.000000	18.354480
1792.000000	18.292687
1791.000000	18.241192
1790.000000	18.188577
1789.000000	18.134619
1788.000000	18.079990
1787.000000	18.018644
1786.000000	17.961664
1785.000000	17.906139
1784.000000	17.832702
1783.000000	17.773707
1782.000000	17.713256
1781.000000	17.643738
1780.000000	17.553510
1779.000000	17.468431
1778.000000	17.414698
1777.000000	17.342717
1776.000000	17.258198
1775.000000	17.153305
1774.000000	17.057591
1773.000000	16.958967
1772.000000	16.845454
1771.000000	16.742241
1770.000000	16.641490
1769.000000	16.525178
1768.000000	16.417375
1767.000000	16.339461
1766.000000	16.243299
1765.000000	16.159676
1764.000000	16.100569
1763.000000	16.066649
1762.000000	16.055231
1761.000000	16.068217
1760.000000	16.091277
1759.000000	16.137399
1758.000000	16.203335
1757.000000	16.255725
1756.000000	16.328154
1755.000000	16.358715
1754.000000	16.385134
1753.000000	16.426778
1752.000000	16.453757
1751.000000	16.452973
1750.000000	16.433047
1749.000000	16.418606
1748.000000	16.376962
1747.000000	16.315840
1746.000000	16.252479
1745.000000	16.176468
1744.000000	16.057358
1743.000000	15.919553
1742.000000	15.776822
1741.000000	15.632077
1740.000000	15.457330
1739.000000	15.275754
1738.000000	15.100895
1737.000000	14.909916
1736.000000	14.743677
1735.000000	14.642926
1734.000000	14.567251
1733.000000	14.492135
1732.000000	14.466947
1731.000000	14.493031
1730.000000	14.555944
1729.000000	14.635985
1728.000000	14.711548
1727.000000	14.798530
1726.000000	14.881706
1725.000000	14.962754
1724.000000	15.019175
1723.000000	15.060259
1722.000000	15.095522
1721.000000	15.127650
1720.000000	15.172092
1719.000000	15.204892
1718.000000	15.246312
1717.000000	15.282807
1716.000000	15.304636
1715.000000	15.369340
1714.000000	15.448598
1713.000000	15.516101
1712.000000	15.595806
1711.000000	15.635659
1710.000000	15.676519
1709.000000	15.692303
1708.000000	15.691744
1707.000000	15.710327
1706.000000	15.683460
1705.000000	15.643271
1704.000000	15.592672
1703.000000	15.565245
1702.000000	15.480950
1701.000000	15.408745
1700.000000	15.287956
1699.000000	15.154405
1698.000000	15.022421
1697.000000	14.904878
1696.000000	14.822486
1695.000000	14.747259
1694.000000	14.745580
1693.000000	14.745132
1692.000000	14.849129
1691.000000	14.935999
1690.000000	15.065520
1689.000000	15.191123
1688.000000	15.275642
1687.000000	15.370236
1686.000000	15.408633
1685.000000	15.429791
1684.000000	15.491249
1683.000000	15.585395
1682.000000	15.740216
1681.000000	16.021759
1680.000000	16.358603
1679.000000	16.769555
1678.000000	17.274878
1677.000000	17.751542
1676.000000	18.195966
1675.000000	18.634680
1674.000000	19.019213
1673.000000	19.331653
1672.000000	19.665475
1671.000000	19.910188
1670.000000	20.124004
1669.000000	20.347783
1668.000000	20.516037
1667.000000	20.684179
1666.000000	20.808887
1665.000000	20.924303
1664.000000	21.026061
1663.000000	21.142596
1662.000000	21.213234
1661.000000	21.283648
1660.000000	21.376003
1659.000000	21.414848
1658.000000	21.458843
1657.000000	21.467686
1656.000000	21.508882
1655.000000	21.519405
1654.000000	21.516047
1653.000000	21.523547
1652.000000	21.499143
1651.000000	21.489068
1650.000000	21.480672
1649.000000	21.449551
1648.000000	21.417647
1647.000000	21.376786
1646.000000	21.328202
1645.000000	21.276595
1644.000000	21.229802
1643.000000	21.174053
1642.000000	21.118976
1641.000000	21.063899
1640.000000	20.995164
1639.000000	20.953073
1638.000000	20.904600
1637.000000	20.821089
1636.000000	20.743510
1635.000000	20.672873
1634.000000	20.609400
1633.000000	20.533613
1632.000000	20.450661
1631.000000	20.382934
1630.000000	20.306363
1629.000000	20.212217
1628.000000	20.142923
1627.000000	20.045530
1626.000000	19.980714
1625.000000	19.908956
1624.000000	19.811564
1623.000000	19.735441
1622.000000	19.667714
1621.000000	19.600882
1620.000000	19.507184
1619.000000	19.441472
1618.000000	19.370722
1617.000000	19.282845
1616.000000	19.201237
1615.000000	19.136084
1614.000000	19.047983
1613.000000	19.002309
1612.000000	18.926634
1611.000000	18.842339
1610.000000	18.780209
1609.000000	18.706437
1608.000000	18.669943
1607.000000	18.578260
1606.000000	18.527212
1605.000000	18.456575
1604.000000	18.393102
1603.000000	18.311046
1602.000000	18.246453
1601.000000	18.168763
1600.000000	18.109656
1599.000000	18.047302
1598.000000	17.977448
1597.000000	17.914982
1596.000000	17.854979
1595.000000	17.780424
1594.000000	17.740683
1593.000000	17.673852
1592.000000	17.611050
1591.000000	17.569966
1590.000000	17.534479
1589.000000	17.463954
1588.000000	17.405966
1587.000000	17.365106
1586.000000	17.319768
1585.000000	17.275661
1584.000000	17.247787
1583.000000	17.200546
1582.000000	17.176701
1581.000000	17.146924
1580.000000	17.087481
1579.000000	17.064420
1578.000000	17.039680
1577.000000	17.022888
1576.000000	17.011134
1575.000000	16.971281
1574.000000	16.955833
1573.000000	16.965012
1572.000000	16.955497
1571.000000	16.942511
1570.000000	16.939601
1569.000000	16.954042
1568.000000	16.971505
1567.000000	16.960870
1566.000000	16.967923
1565.000000	16.969938
1564.000000	16.980349
1563.000000	17.010350
1562.000000	16.999044
1561.000000	17.003074
1560.000000	17.004529
1559.000000	16.999268
1558.000000	17.007328
1557.000000	17.000835
1556.000000	16.976767
1555.000000	16.963781
1554.000000	16.949340
1553.000000	16.927846
1552.000000	16.933108
1551.000000	16.916540
1550.000000	16.899636
1549.000000	16.879934
1548.000000	16.857657
1547.000000	16.824856
1546.000000	16.797878
1545.000000	16.759592
1544.000000	16.755114
1543.000000	16.739778
1542.000000	16.707985
1541.000000	16.703955
1540.000000	16.699142
1539.000000	16.685932
1538.000000	16.664103
1537.000000	16.642273
1536.000000	16.634661
1535.000000	16.608914
1534.000000	16.589211
1533.000000	16.566934
1532.000000	16.535477
1531.000000	16.513424
1530.000000	16.493610
1529.000000	16.456891
1528.000000	16.440100
1527.000000	16.416031
1526.000000	16.368454
1525.000000	16.326811
1524.000000	16.292332
1523.000000	16.263114
1522.000000	16.227739
1521.000000	16.191245
1520.000000	16.152400
1519.000000	16.114338
1518.000000	16.056910
1517.000000	16.016274
1516.000000	15.993773
1515.000000	15.941606
1514.000000	15.897611
1513.000000	15.856863
1512.000000	15.817235
1511.000000	15.764956
1510.000000	15.700475
1509.000000	15.653010
1508.000000	15.604874
1507.000000	15.567820
1506.000000	15.530094
1505.000000	15.484644
1504.000000	15.429455
1503.000000	15.376281
1502.000000	15.332846
1501.000000	15.290643
1500.000000	15.253477
1499.000000	15.220341
1498.000000	15.187877
1497.000000	15.142875
1496.000000	15.100559
1495.000000	15.066192
1494.000000	15.040109
1493.000000	15.018951
1492.000000	14.989173
1491.000000	14.955366
1490.000000	14.938126
1489.000000	14.924021
1488.000000	14.899169
1487.000000	14.878683
1486.000000	14.865809
1485.000000	14.840174
1484.000000	14.819128
1483.000000	14.805135
1482.000000	14.799538
1481.000000	14.796851
1480.000000	14.782410
1479.000000	14.757670
1478.000000	14.752073
1477.000000	14.759909
1476.000000	14.770432
1475.000000	14.775357
1474.000000	14.761140
1473.000000	14.763715
1472.000000	14.784425
1471.000000	14.803232
1470.000000	14.794052
1469.000000	14.804463
1468.000000	14.818904
1467.000000	14.819240
1466.000000	14.826405
1465.000000	14.858309
1464.000000	14.877676
1463.000000	14.897490
1462.000000	14.914618
1461.000000	14.933089
1460.000000	14.983912
1459.000000	15.022197
1458.000000	15.057572
1457.000000	15.095857
1456.000000	15.145673
1455.000000	15.203549
1454.000000	15.257171
1453.000000	15.320196
1452.000000	15.388595
1451.000000	15.456434
1450.000000	15.519012
1449.000000	15.598605
1448.000000	15.642376
1447.000000	15.709767
1446.000000	15.823615
1445.000000	15.903657
1444.000000	15.988064
1443.000000	16.071575
1442.000000	16.155422
1441.000000	16.252815
1440.000000	16.333639
1439.000000	16.431032
1438.000000	16.530440
1437.000000	16.624698
1436.000000	16.729367
1435.000000	16.824521
1434.000000	16.915644
1433.000000	17.016619
1432.000000	17.152633
1431.000000	17.280363
1430.000000	17.400369
1429.000000	17.525412
1428.000000	17.655269
1427.000000	17.804044
1426.000000	17.951924
1425.000000	18.131037
1424.000000	18.333099
1423.000000	18.524078
1422.000000	18.708228
1421.000000	18.905476
1420.000000	19.122427
1419.000000	19.322810
1418.000000	19.568194
1417.000000	19.815370
1416.000000	19.991796
1415.000000	20.258786
1414.000000	20.521522
1413.000000	20.795565
1412.000000	21.063115
1411.000000	21.293051
1410.000000	21.591386
1409.000000	21.965732
1408.000000	22.369855
1407.000000	22.773867
1406.000000	23.143623
1405.000000	23.542373
1404.000000	24.008514
1403.000000	24.438385
1402.000000	24.839710
1401.000000	25.214168
1400.000000	25.710087
1399.000000	26.206565
1398.000000	26.567814
1397.000000	26.829654
1396.000000	27.168178
1395.000000	27.594466
1394.000000	27.979447
1393.000000	28.279013
1392.000000	28.550369
1391.000000	28.924379
1390.000000	29.307793
1389.000000	29.616875
1388.000000	30.026931
1387.000000	30.563934
1386.000000	31.040598
1385.000000	31.577153
1384.000000	32.161621
1383.000000	32.778665
1382.000000	33.448771
1381.000000	34.123355
1380.000000	34.608303
1379.000000	34.971006
1378.000000	35.248967
1377.000000	35.482038
1376.000000	35.707384
1375.000000	35.939671
1374.000000	36.222110
1373.000000	36.513840
1372.000000	36.909679
1371.000000	37.351976
1370.000000	37.835805
1369.000000	38.226943
1368.000000	38.624349
1367.000000	39.009330
1366.000000	39.331845
1365.000000	39.601298
1364.000000	39.885864
1363.000000	40.133375
1362.000000	40.361520
1361.000000	40.555410
1360.000000	40.776055
1359.000000	40.895053
1358.000000	41.003304
1357.000000	41.119616
1356.000000	41.321789
1355.000000	41.626505
1354.000000	42.097684
1353.000000	42.641627
1352.000000	43.151875
1351.000000	43.822989
1350.000000	44.467571
1349.000000	45.059092
1348.000000	45.598669
1347.000000	46.103096
1346.000000	46.633382
1345.000000	47.055528
1344.000000	47.511371
1343.000000	47.980199
1342.000000	48.378389
1341.000000	48.790461
1340.000000	49.209585
1339.000000	49.597028
1338.000000	50.001711
1337.000000	50.371356
1336.000000	50.749396
1335.000000	51.102024
1334.000000	51.453086
1333.000000	51.799333
1332.000000	52.149611
1331.000000	52.481977
1330.000000	52.805052
1329.000000	53.106409
1328.000000	53.398923
1327.000000	53.690877
1326.000000	53.946113
1325.000000	54.200117
1324.000000	54.488153
1323.000000	54.705663
1322.000000	54.938846
1321.000000	55.161506
1320.000000	55.371740
1319.000000	55.567756
1318.000000	55.763101
1317.000000	55.957998
1316.000000	56.139686
1315.000000	56.299320
1314.000000	56.460186
1313.000000	56.629896
1312.000000	56.778559
1311.000000	56.916812
1310.000000	57.069058
1309.000000	57.201378
1308.000000	57.287128
1307.000000	57.405790
1306.000000	57.518295
1305.000000	57.583896
1304.000000	57.661250
1303.000000	57.734574
1302.000000	57.793346
1301.000000	57.848087
1300.000000	57.883126
1299.000000	57.910217
1298.000000	57.950965
1297.000000	57.973690
1296.000000	57.982646
1295.000000	57.997199
1294.000000	58.017125
1293.000000	58.019028
1292.000000	58.011192
1291.000000	58.011416
1290.000000	57.991601
1289.000000	57.962943
1288.000000	57.933837
1287.000000	57.883462
1286.000000	57.838348
1285.000000	57.774651
1284.000000	57.706924
1283.000000	57.636174
1282.000000	57.544827
1281.000000	57.473629
1280.000000	57.415977
1279.000000	57.323062
1278.000000	57.249402
1277.000000	57.183019
1276.000000	57.100850
1275.000000	57.041407
1274.000000	56.993271
1273.000000	56.937186
1272.000000	56.890393
1271.000000	56.827368
1270.000000	56.768260
1269.000000	56.722475
1268.000000	56.664375
1267.000000	56.610753
1266.000000	56.542130
1265.000000	56.492874
1264.000000	56.419326
1263.000000	56.351823
1262.000000	56.296074
1261.000000	56.232265
1260.000000	56.156030
1259.000000	56.094348
1258.000000	56.012852
1257.000000	55.937400
1256.000000	55.876278
1255.000000	55.789296
1254.000000	55.692352
1253.000000	55.615445
1252.000000	55.512679
1251.000000	55.392449
1250.000000	55.290915
1249.000000	55.177626
1248.000000	55.042620
1247.000000	54.923174
1246.000000	54.792757
1245.000000	54.623048
1244.000000	54.463637
1243.000000	54.313070
1242.000000	54.130263
1241.000000	53.947456
1240.000000	53.765321
1239.000000	53.582178
1238.000000	53.388512
1237.000000	53.199436
1236.000000	53.002412
1235.000000	52.799455
1234.000000	52.585191
1233.000000	52.375629
1232.000000	52.166738
1231.000000	51.933780
1230.000000	51.697910
1229.000000	51.459354
1228.000000	51.219119
1227.000000	50.987952
1226.000000	50.738425
1225.000000	50.481510
1224.000000	50.234222
1223.000000	49.993539
1222.000000	49.747259
1221.000000	49.486874
1220.000000	49.246639
1219.000000	49.021180
1218.000000	48.783856
1217.000000	48.555823
1216.000000	48.344022
1215.000000	48.135579
1214.000000	47.936316
1213.000000	47.752501
1212.000000	47.557828
1211.000000	47.380618
1210.000000	47.210013
1209.000000	47.049371
1208.000000	46.880446
1207.000000	46.745887
1206.000000	46.624426
1205.000000	46.514608
1204.000000	46.438261
1203.000000	46.365832
1202.000000	46.312434
1201.000000	46.253439
1200.000000	46.198249
1199.000000	46.113954
1198.000000	46.020928
1197.000000	45.896332
1196.000000	45.730877
1195.000000	45.505978
1194.000000	45.212905
1193.000000	44.831506
1192.000000	44.391224
1191.000000	43.883775
1190.000000	43.346325
1189.000000	42.815255
1188.000000	42.340382
1187.000000	41.980365
1186.000000	41.751436
1185.000000	41.673634
1184.000000	41.738675
1183.000000	41.958871
1182.000000	42.341613
1181.000000	42.853652
1180.000000	43.458830
1179.000000	44.089867
1178.000000	44.695380
1177.000000	45.235965
1176.000000	45.714533
1175.000000	46.154591
1174.000000	46.562520
1173.000000	46.935747
1172.000000	47.339870
1171.000000	47.750934
1170.000000	48.159759
1169.000000	48.571271
1168.000000	48.991403
1167.000000	49.434371
1166.000000	49.886967
1165.000000	50.337212
1164.000000	50.794734
1163.000000	51.270950
1162.000000	51.761384
1161.000000	52.242973
1160.000000	52.709115
1159.000000	53.164173
1158.000000	53.618336
1157.000000	54.051342
1156.000000	54.483564
1155.000000	54.841677
1154.000000	55.130385
1153.000000	55.368605
1152.000000	55.559920
1151.000000	55.698061
1150.000000	55.811126
1149.000000	55.896876
1148.000000	55.972215
1147.000000	56.068377
1146.000000	56.197338
1145.000000	56.408803
1144.000000	56.680383
1143.000000	57.028534
1142.000000	57.444747
1141.000000	57.880103
1140.000000	58.348484
1139.000000	58.832760
1138.000000	59.332261
1137.000000	59.855719
1136.000000	60.397759
1135.000000	60.972935
1134.000000	61.566470
1133.000000	62.107056
1132.000000	62.572189
1131.000000	63.046055
1130.000000	63.468761
1129.000000	63.848816
1128.000000	64.183981
1127.000000	64.454778
1126.000000	64.662437
1125.000000	64.825765
1124.000000	64.968832
1123.000000	65.106637
1122.000000	65.204253
1121.000000	65.305564
1120.000000	65.369149
1119.000000	65.423219
1118.000000	65.471691
1117.000000	65.492065
1116.000000	65.508857
1115.000000	65.504939
1114.000000	65.500349
1113.000000	65.495088
1112.000000	65.485124
1111.000000	65.465422
1110.000000	65.453332
1109.000000	65.439786
1108.000000	65.422323
1107.000000	65.409897
1106.000000	65.376201
1105.000000	65.370940
1104.000000	65.346424
1103.000000	65.333102
1102.000000	65.308586
1101.000000	65.282055
1100.000000	65.252502
1099.000000	65.243322
1098.000000	65.198992
1097.000000	65.178953
1096.000000	65.133615
1095.000000	65.083576
1094.000000	65.026819
1093.000000	64.992228
1092.000000	64.943644
1091.000000	64.879163
1090.000000	64.813003
1089.000000	64.760389
1088.000000	64.702513
1087.000000	64.630980
1086.000000	64.537617
1085.000000	64.492503
1084.000000	64.429366
1083.000000	64.329511
1082.000000	64.250477
1081.000000	64.186108
1080.000000	64.106067
1079.000000	64.033191
1078.000000	63.954605
1077.000000	63.871205
1076.000000	63.828106
1075.000000	63.752655
1074.000000	63.666009
1073.000000	63.580035
1072.000000	63.498427
1071.000000	63.424319
1070.000000	63.359838
1069.000000	63.283155
1068.000000	63.207480
1067.000000	63.110312
1066.000000	63.038554
1065.000000	62.963103
1064.000000	62.868845
1063.000000	62.780520
1062.000000	62.694882
1061.000000	62.602974
1060.000000	62.516105
1059.000000	62.426548
1058.000000	62.330947
1057.000000	62.238703
1056.000000	62.157543
1055.000000	62.045709
1054.000000	61.954474
1053.000000	61.867828
1052.000000	61.782749
1051.000000	61.698230
1050.000000	61.603524
1049.000000	61.512065
1048.000000	61.424747
1047.000000	61.356573
1046.000000	61.295226
1045.000000	61.219103
1044.000000	61.129435
1043.000000	61.048834
1042.000000	60.965099
1041.000000	60.924463
1040.000000	60.834682
1039.000000	60.760462
1038.000000	60.676951
1037.000000	60.621762
1036.000000	60.536459
1035.000000	60.434141
1034.000000	60.335965
1033.000000	60.258163
1032.000000	60.164800
1031.000000	60.068191
1030.000000	59.977851
1029.000000	59.874190
1028.000000	59.786312
1027.000000	59.691271
1026.000000	59.585258
1025.000000	59.466148
1024.000000	59.368755
1023.000000	59.262519
1022.000000	59.145424
1021.000000	59.037397
1020.000000	58.926794
1019.000000	58.835783
1018.000000	58.736375
1017.000000	58.620287
1016.000000	58.520432
1015.000000	58.459310
1014.000000	58.379157
1013.000000	58.318370
1012.000000	58.243703
1011.000000	58.207992
1010.000000	58.176311
1009.000000	58.124481
1008.000000	58.075448
1007.000000	58.057985
1006.000000	58.048022
1005.000000	58.016005
1004.000000	57.995295
1003.000000	57.971003
1002.000000	57.932830
1001.000000	57.913911
1000.000000	57.885813
999.000000	57.875066
998.000000	57.833422
997.000000	57.814391
996.000000	57.795920
995.000000	57.771069
994.000000	57.759874
993.000000	57.723156
992.000000	57.716103
991.000000	57.710730
990.000000	57.685766
989.000000	57.674795
988.000000	57.664720
987.000000	57.659795
986.000000	57.657444
985.000000	57.639644
984.000000	57.640316
983.000000	57.645578
982.000000	57.659795
981.000000	57.643339
980.000000	57.637629
979.000000	57.631472
978.000000	57.635390
977.000000	57.638413
976.000000	57.640092
975.000000	57.631025
974.000000	57.634159
973.000000	57.646361
972.000000	57.663265
971.000000	57.653638
970.000000	57.636958
969.000000	57.638861
968.000000	57.642443
967.000000	57.656436
966.000000	57.644906
965.000000	57.653526
964.000000	57.679609
963.000000	57.690804
962.000000	57.693938
961.000000	57.719350
960.000000	57.743978
959.000000	57.764240
958.000000	57.781815
957.000000	57.793010
956.000000	57.804652
955.000000	57.828944
954.000000	57.833982
953.000000	57.823907
952.000000	57.819093
951.000000	57.820884
950.000000	57.822787
949.000000	57.822675
948.000000	57.813496
947.000000	57.799503
946.000000	57.811929
945.000000	57.820213
944.000000	57.782151
943.000000	57.762337
942.000000	57.765359
941.000000	57.745321
940.000000	57.716439
939.000000	57.688229
938.000000	57.691587
937.000000	57.663937
936.000000	57.632928
935.000000	57.613561
934.000000	57.584343
933.000000	57.558036
932.000000	57.545834
931.000000	57.519079
930.000000	57.482585
929.000000	57.469487
928.000000	57.432769
927.000000	57.384744
926.000000	57.359557
925.000000	57.321719
924.000000	57.297651
923.000000	57.265075
922.000000	57.220968
921.000000	57.171040
920.000000	57.122120
919.000000	57.071409
918.000000	57.016220
917.000000	56.952187
916.000000	56.894423
915.000000	56.838002
914.000000	56.821211
913.000000	56.754267
912.000000	56.675345
911.000000	56.578401
910.000000	56.496456
909.000000	56.445073
908.000000	56.388205
907.000000	56.347233
906.000000	56.303574
905.000000	56.271894
904.000000	56.268088
903.000000	56.260699
902.000000	56.243571
901.000000	56.245027
900.000000	56.236183
899.000000	56.191517
898.000000	56.189950
897.000000	56.186367
896.000000	56.184688
895.000000	56.202711
894.000000	56.187375
893.000000	56.142820
892.000000	56.108901
891.000000	56.053488
890.000000	56.021471
889.000000	55.999978
888.000000	55.968969
887.000000	55.938296
886.000000	55.873703
885.000000	55.797692
884.000000	55.706569
883.000000	55.627647
882.000000	55.540777
881.000000	55.464542
880.000000	55.315543
879.000000	55.189716
878.000000	55.089525
877.000000	54.962019
876.000000	54.797235
875.000000	54.604577
874.000000	54.481101
873.000000	54.296614
872.000000	54.101046
871.000000	53.987197
870.000000	53.964248
869.000000	53.987085
868.000000	54.022460
867.000000	54.051790
866.000000	54.073395
865.000000	54.082015
864.000000	54.087052
863.000000	54.128024
862.000000	54.153660
861.000000	54.176945
860.000000	54.198774
859.000000	54.226425
858.000000	54.211200
857.000000	53.369200
856.000000	54.861100
855.000000	54.403300
854.000000	54.737600
853.000000	54.581300
852.000000	54.649100
851.000000	54.346300
850.000000	54.622100
849.000000	54.675200
848.000000	54.332500
847.000000	54.478300
846.000000	54.417700
845.000000	54.118000
844.000000	54.473300
843.000000	54.361000
842.000000	54.394200
841.000000	54.398600
840.000000	54.471300
839.000000	54.367100
838.000000	54.385000
837.000000	54.363000
836.000000	54.220400
835.000000	54.334300
834.000000	54.280000
833.000000	54.327200
832.000000	54.246700
831.000000	54.046600
830.000000	54.161600
829.000000	53.883900
828.000000	53.778400
827.000000	53.785800
826.000000	53.841200
825.000000	53.692900
824.000000	53.604300
823.000000	53.608100
822.000000	53.640100
821.000000	53.552800
820.000000	53.492700
819.000000	53.397400
818.000000	53.289300
817.000000	53.334300
816.000000	53.200500
815.000000	53.097000
814.000000	53.002700
813.000000	52.954500
812.000000	52.784000
811.000000	52.820400
810.000000	52.528800
809.000000	52.470600
808.000000	52.308500
807.000000	52.146700
806.000000	52.257000
805.000000	52.090700
804.000000	51.973900
803.000000	51.917700
802.000000	51.869600
801.000000	51.674400
800.000000	51.583600
799.000000	51.553400
798.000000	51.374200
797.000000	51.286500
796.000000	51.217600
795.000000	51.071000
794.000000	50.864300
793.000000	50.850000
792.000000	50.736800
791.000000	50.649300
790.000000	50.476700
789.000000	50.369800
788.000000	50.293700
787.000000	50.157000
786.000000	49.931000
785.000000	49.842700
784.000000	49.812300
783.000000	49.646000
782.000000	49.566100
781.000000	49.361700
780.000000	49.215700
779.000000	49.064700
778.000000	48.865000
777.000000	48.810300
776.000000	48.625600
775.000000	48.555900
774.000000	48.352500
773.000000	48.194700
772.000000	48.117700
771.000000	47.897300
770.000000	47.797100
769.000000	47.608700
768.000000	47.453700
767.000000	47.278800
766.000000	47.117000
765.000000	47.074700
764.000000	46.760500
763.000000	46.687100
762.000000	46.510000
761.000000	46.319800
760.000000	46.103800
759.000000	46.040600
758.000000	45.759500
757.000000	45.552300
756.000000	45.449400
755.000000	45.309700
754.000000	45.135400
753.000000	44.881100
752.000000	44.751600
751.000000	44.500300
750.000000	44.302000
749.000000	44.177700
748.000000	43.938500
747.000000	43.778000
746.000000	43.602800
745.000000	43.319200
744.000000	43.154000
743.000000	42.932900
742.000000	42.757700
741.000000	42.545500
740.000000	42.383900
739.000000	42.198000
738.000000	41.980400
737.000000	41.730100
736.000000	41.537600
735.000000	41.317300
734.000000	41.122300
733.000000	40.925900
732.000000	40.722500
731.000000	40.565200
730.000000	40.311900
729.000000	40.134400
728.000000	39.893300
727.000000	39.672200
726.000000	39.473400
725.000000	39.304500
724.000000	39.121600
723.000000	38.938700
722.000000	38.676200
721.000000	38.413200
720.000000	38.246900
719.000000	38.002000
718.000000	37.821600
717.000000	37.601200
716.000000	37.357300
715.000000	37.183100
714.000000	36.968900
713.000000	36.804300
712.000000	36.626100
711.000000	36.433000
710.000000	36.177700
709.000000	36.006900
708.000000	35.813200
707.000000	35.630300
706.000000	35.425100
705.000000	35.285500
704.000000	35.105300
703.000000	34.876100
702.000000	34.698500
701.000000	34.494100
700.000000	34.315100
699.000000	34.154300
698.000000	34.010900
697.000000	33.822100
696.000000	33.658900
695.000000	33.537400
694.000000	33.370600
693.000000	33.220200
692.000000	33.038700
691.000000	32.886300
690.000000	32.712300
689.000000	32.569800
688.000000	32.409800
687.000000	32.238700
686.000000	32.097400
685.000000	31.972800
684.000000	31.840300
683.000000	31.724200
682.000000	31.571600
681.000000	31.400500
680.000000	31.251400
679.000000	31.154700
678.000000	31.003000
677.000000	30.874700
676.000000	30.769000
675.000000	30.639500
674.000000	30.508400
673.000000	30.418100
672.000000	30.288900
671.000000	30.153200
670.000000	30.037900
669.000000	29.930400
668.000000	29.851300
667.000000	29.769800
666.000000	29.644400
665.000000	29.576200
664.000000	29.504100
663.000000	29.391600
662.000000	29.315700
661.000000	29.236000
660.000000	29.143500
659.000000	29.088300
658.000000	29.044600
657.000000	28.955800
656.000000	28.862200
655.000000	28.809300
654.000000	28.770000
653.000000	28.726400
652.000000	28.681300
651.000000	28.627700
650.000000	28.582300
649.000000	28.575800
648.000000	28.557200
647.000000	28.502900
646.000000	28.470000
645.000000	28.473700
644.000000	28.457500
643.000000	28.407200
642.000000	28.397600
641.000000	28.416400
640.000000	28.393200
639.000000	28.371300
638.000000	28.370500
637.000000	28.357600
636.000000	28.357500
635.000000	28.355400
634.000000	28.360400
633.000000	28.383600
632.000000	28.394200
631.000000	28.407000
630.000000	28.421200
629.000000	28.425600
628.000000	28.456100
627.000000	28.475700
626.000000	28.479700
625.000000	28.510800
624.000000	28.543400
623.000000	28.569500
622.000000	28.592300
621.000000	28.629600
620.000000	28.694900
619.000000	28.735500
618.000000	28.772500
617.000000	28.821400
616.000000	28.833800
615.000000	28.864200
614.000000	28.913500
613.000000	28.975700
612.000000	29.043900
611.000000	29.080800
610.000000	29.135600
609.000000	29.178900
608.000000	29.223900
607.000000	29.252100
606.000000	29.292700
605.000000	29.335300
604.000000	29.371400
603.000000	29.399800
602.000000	29.445600
601.000000	29.500600
600.000000	29.517500
599.000000	29.531400
598.000000	29.556400
597.000000	29.569700
596.000000	29.576500
595.000000	29.564000
594.000000	29.578700
593.000000	29.572800
592.000000	29.561200
591.000000	29.546800
590.000000	29.512400
589.000000	29.482400
588.000000	29.478300
587.000000	29.432800
586.000000	29.393200
585.000000	29.363900
584.000000	29.307300
583.000000	29.231200
582.000000	29.181800
581.000000	29.102400
580.000000	29.022000
579.000000	28.945600
578.000000	28.860900
577.000000	28.768000
576.000000	28.689700
575.000000	28.583900
574.000000	28.462400
573.000000	28.337300
572.000000	28.215000
571.000000	28.069500
570.000000	27.926400
569.000000	27.789800
568.000000	27.672200
567.000000	27.514900
566.000000	27.338400
565.000000	27.186200
564.000000	27.017100
563.000000	26.828200
562.000000	26.642800
561.000000	26.442600
560.000000	26.258000
559.000000	26.030100
558.000000	25.824100
557.000000	25.627200
556.000000	25.425400
555.000000	25.207700
554.000000	24.988400
553.000000	24.757700
552.000000	24.499400
551.000000	24.259700
550.000000	24.012300
549.000000	23.780100
548.000000	23.536200
547.000000	23.283200
546.000000	23.029700
545.000000	22.768400
544.000000	22.500900
543.000000	22.225100
542.000000	21.959400
541.000000	21.707000
540.000000	21.446500
539.000000	21.158900
538.000000	20.905000
537.000000	20.649800
536.000000	20.384300
535.000000	20.119500
534.000000	19.849900
533.000000	19.585000
532.000000	19.316900
531.000000	19.068600
530.000000	18.815300
529.000000	18.546400
528.000000	18.296800
527.000000	18.063500
526.000000	17.816900
525.000000	17.577900
524.000000	17.335200
523.000000	17.081000
522.000000	16.858300
521.000000	16.636900
520.000000	16.408900
519.000000	16.209100
518.000000	15.993000
517.000000	15.792100
516.000000	15.593700
515.000000	15.412100
514.000000	15.236600
513.000000	15.033100
512.000000	14.879500
511.000000	14.715200
510.000000	14.561400
509.000000	14.417000
508.000000	14.271300
507.000000	14.128100
506.000000	14.000100
505.000000	13.878100
504.000000	13.769700
503.000000	13.651900
502.000000	13.586200
501.000000	13.475500
500.000000	13.378900
499.000000	13.271400
498.000000	13.208600
497.000000	13.143400
496.000000	13.052100
495.000000	12.989200
494.000000	12.926600
493.000000	12.858800
492.000000	12.776300
491.000000	12.748400
490.000000	12.693300
489.000000	12.642600
488.000000	12.584000
487.000000	12.555100
486.000000	12.496300
485.000000	12.438700
484.000000	12.379500
483.000000	12.341900
482.000000	12.301600
481.000000	12.221000
480.000000	12.139600
479.000000	12.050200
478.000000	11.966400
477.000000	11.903300
476.000000	11.821600
475.000000	11.745500
474.000000	11.668100
473.000000	11.601300
472.000000	11.522000
471.000000	11.434300
470.000000	11.358200
469.000000	11.268900
468.000000	11.195900
467.000000	11.124200
466.000000	11.051400
465.000000	10.962400
464.000000	10.895300
463.000000	10.806500
462.000000	10.715600
461.000000	10.637100
460.000000	10.573000
459.000000	10.509300
458.000000	10.406600
457.000000	10.333800
456.000000	10.241800
455.000000	10.151000
454.000000	10.070500
453.000000	9.978000
452.000000	9.889900
451.000000	9.801100
450.000000	9.696300
449.000000	9.597500
448.000000	9.516600
447.000000	9.428200
446.000000	9.306000
445.000000	9.230200
444.000000	9.144900
443.000000	9.039400
442.000000	8.929500
441.000000	8.834500
440.000000	8.722200
439.000000	8.634900
438.000000	8.536800
437.000000	8.422700
436.000000	8.317400
435.000000	8.231700
434.000000	8.102000
433.000000	8.003900
432.000000	7.921400
431.000000	7.821300
430.000000	7.731800
429.000000	7.619900
428.000000	7.525000
427.000000	7.423000
426.000000	7.364000
425.000000	7.257700
424.000000	7.155300
423.000000	7.070400
422.000000	6.965300
421.000000	6.887000
420.000000	6.794400
419.000000	6.704100
418.000000	6.639500
417.000000	6.552200
416.000000	6.464600
415.000000	6.390300
414.000000	6.305100
413.000000	6.252600
412.000000	6.166500
411.000000	6.095700
410.000000	6.012200
409.000000	5.954400
408.000000	5.879500
407.000000	5.802100
406.000000	5.759900
405.000000	5.699700
404.000000	5.634100
403.000000	5.581700
402.000000	5.512600
401.000000	5.473300
400.000000	5.405000
399.000000	5.342800
398.000000	5.304200
397.000000	5.253700
396.000000	5.204400
395.000000	5.156800
394.000000	5.118500
393.000000	5.077300
392.000000	5.035500
391.000000	5.005200
390.000000	4.967900
389.000000	4.931400
388.000000	4.907300
387.000000	4.858800
386.000000	4.815900
385.000000	4.788600
384.000000	4.773400
383.000000	4.758700
382.000000	4.733300
381.000000	4.704100
380.000000	4.682500
379.000000	4.675400
378.000000	4.635100
377.000000	4.592400
376.000000	4.580100
375.000000	4.499400
374.000000	4.311600
373.000000	4.195200
372.000000	4.234500
371.000000	4.255600
370.000000	4.353700
369.000000	4.394200
368.000000	4.449500
367.000000	4.469600
366.000000	4.454700
365.000000	4.404600
364.000000	4.397400
363.000000	4.533800
362.000000	4.476800
361.000000	4.401400
360.000000	4.406400
359.000000	4.354500
358.000000	4.307400
357.000000	4.348600
356.000000	4.460900
355.000000	4.272900
354.000000	4.319900
353.000000	4.329600
352.000000	4.327900
351.000000	4.389800
350.000000	4.308200
349.000000	4.248300
348.000000	4.269900
347.000000	4.393100
346.000000	4.487100
345.000000	4.432700
344.000000	4.338900
343.000000	4.373600
342.000000	4.308100
341.000000	4.313800
340.000000	4.357800
339.000000	4.275900
338.000000	4.485900
337.000000	4.475000
336.000000	4.400800
335.000000	4.527800
334.000000	4.580900
333.000000	4.702800
332.000000	4.691100
331.000000	4.766300
330.000000	4.830300
329.000000	4.512600
328.000000	4.456300
327.000000	4.756500
326.000000	5.143300
325.000000	5.039900
324.000000	4.684300
323.000000	4.812700
322.000000	4.818700
321.000000	4.509000
320.000000	4.738100
319.000000	5.014900
318.000000	5.425900
317.000000	5.126800
316.000000	4.411700
315.000000	4.251400
314.000000	4.284500
313.000000	4.219000
312.000000	4.181300
311.000000	4.237900
310.000000	4.251700
309.000000	4.268900
308.000000	4.238200
307.000000	4.219900
306.000000	4.230500
305.000000	4.230200
304.000000	4.233200
303.000000	4.289400
302.000000	4.307500
301.000000	4.255200
300.000000	4.223600
299.000000	4.242400
298.000000	4.245700
297.000000	4.262900
296.000000	4.284400
295.000000	4.252000
294.000000	4.266600
293.000000	4.306600
292.000000	4.287600
291.000000	4.276700
290.000000	4.296500
289.000000	4.333100
288.000000	4.318900
287.000000	4.323800
286.000000	4.337200
285.000000	4.340500
284.000000	4.318300
283.000000	4.320500
282.000000	4.344400
281.000000	4.379100
280.000000	4.372200
279.000000	4.380000
278.000000	4.358200
277.000000	4.371800
276.000000	4.368400
275.000000	4.388700
274.000000	4.390100
273.000000	4.411000
272.000000	4.405000
271.000000	4.432700
270.000000	4.435000
269.000000	4.452000
268.000000	4.440100
267.000000	4.469400
266.000000	4.482900
265.000000	4.512700
264.000000	4.535300
263.000000	4.549000
262.000000	4.556200
261.000000	4.584500
260.000000	4.611900
259.000000	4.665800
258.000000	4.651200
257.000000	4.630400
256.000000	4.681200
255.000000	4.664400
254.000000	4.673200
253.000000	4.692300
252.000000	4.659700
251.000000	4.710800
250.000000	4.716000
