PE UV       SUBTECH     SPECTRUM    ASCII       PEDS        4.00        
   -1
CICIMAUCR0233-1.ASC
24/06/14
12:09:47.00
24/06/14
12:09:47.00
Vinicio Soto Monge
C. resplendens. Sex F. Ventral
250,000000
1
Lambda 1050
1050L1511233
PerkinElmer UV WinLab 6.3.2.0749 / 2.02.05 Lambda 900 UV/VIS/NIR, Aug  7 2015 09:38:08

0
0
3350/servo 860,8/2
0
0
UV/VIS
1
1
1
DoubleDePol,CommonBeamDepol,RBeamAtt,SBeamAtt,60mm sphere, WB InGaAs Detector
0
0
0
0
Program
Program
3350/servo 860,8/2
3350/0,2 860,8/0,2
3350/0,2 860,8/0,2
0
15.00
 
 
 
0
 
860,8
319,2
860,8
Front
100
on
S:100 R:100
0
0
0
0
 
0
 
 
 
0
 
 
0
0
0
0
0
 
 
 
 
0
0


0
0
#HDR
-1
-1
#GR
nm
%R
1.0
0.0
2500,000000
-1,000000
2251
8
49,687100
4,221700
#DATA
2482.000000	5.040146
2481.000000	4.975120
2480.000000	5.024778
2479.000000	5.113315
2478.000000	5.015030
2477.000000	5.003103
2476.000000	5.019274
2475.000000	5.021682
2474.000000	5.016636
2473.000000	5.056087
2472.000000	4.981428
2471.000000	4.977873
2470.000000	4.988997
2469.000000	4.991979
2468.000000	4.986015
2467.000000	5.011016
2466.000000	4.995305
2465.000000	4.967666
2464.000000	4.974547
2463.000000	4.996451
2462.000000	4.989570
2461.000000	5.022026
2460.000000	5.003677
2459.000000	4.986015
2458.000000	5.009984
2457.000000	4.970877
2456.000000	5.009755
2455.000000	5.002300
2454.000000	5.020076
2453.000000	5.055858
2452.000000	5.045192
2451.000000	5.071799
2450.000000	5.063312
2449.000000	5.089804
2448.000000	5.102076
2447.000000	5.092557
2446.000000	5.111939
2445.000000	5.128453
2444.000000	5.129256
2443.000000	5.173753
2442.000000	5.185795
2441.000000	5.172951
2440.000000	5.183043
2439.000000	5.197837
2438.000000	5.216645
2437.000000	5.217219
2436.000000	5.242335
2435.000000	5.254606
2434.000000	5.247839
2433.000000	5.250248
2432.000000	5.257702
2431.000000	5.282933
2430.000000	5.287520
2429.000000	5.297727
2428.000000	5.313439
2427.000000	5.320893
2426.000000	5.313095
2425.000000	5.329953
2424.000000	5.358395
2423.000000	5.355643
2422.000000	5.374680
2421.000000	5.382249
2420.000000	5.372043
2419.000000	5.365276
2418.000000	5.397847
2417.000000	5.412182
2416.000000	5.424568
2415.000000	5.439592
2414.000000	5.428926
2413.000000	5.435234
2412.000000	5.437642
2411.000000	5.445555
2410.000000	5.460235
2409.000000	5.464019
2408.000000	5.468836
2407.000000	5.460579
2406.000000	5.465166
2405.000000	5.465510
2404.000000	5.485580
2403.000000	5.501521
2402.000000	5.505879
2401.000000	5.505420
2400.000000	5.519985
2399.000000	5.522967
2398.000000	5.523655
2397.000000	5.520329
2396.000000	5.527784
2395.000000	5.537532
2394.000000	5.533977
2393.000000	5.549918
2392.000000	5.559666
2391.000000	5.572281
2390.000000	5.560928
2389.000000	5.565859
2388.000000	5.560698
2387.000000	5.575951
2386.000000	5.581685
2385.000000	5.577213
2384.000000	5.588222
2383.000000	5.607948
2382.000000	5.593154
2381.000000	5.592810
2380.000000	5.605540
2379.000000	5.602214
2378.000000	5.599462
2377.000000	5.588911
2376.000000	5.590172
2375.000000	5.597971
2374.000000	5.580195
2373.000000	5.582259
2372.000000	5.591548
2371.000000	5.587190
2370.000000	5.571479
2369.000000	5.572281
2368.000000	5.579506
2367.000000	5.569988
2366.000000	5.550033
2365.000000	5.546019
2364.000000	5.549459
2363.000000	5.540514
2362.000000	5.525605
2361.000000	5.522623
2360.000000	5.526293
2359.000000	5.523426
2358.000000	5.509320
2357.000000	5.492690
2356.000000	5.486383
2355.000000	5.496590
2354.000000	5.498195
2353.000000	5.483172
2352.000000	5.475602
2351.000000	5.485695
2350.000000	5.495099
2349.000000	5.484777
2348.000000	5.495672
2347.000000	5.504503
2346.000000	5.495099
2345.000000	5.507026
2344.000000	5.517118
2343.000000	5.514366
2342.000000	5.522738
2341.000000	5.531912
2340.000000	5.521132
2339.000000	5.527325
2338.000000	5.540743
2337.000000	5.546821
2336.000000	5.554391
2335.000000	5.561386
2334.000000	5.565056
2333.000000	5.572396
2332.000000	5.562763
2331.000000	5.559207
2330.000000	5.548312
2329.000000	5.542005
2328.000000	5.546133
2327.000000	5.540973
2326.000000	5.524802
2325.000000	5.504388
2324.000000	5.506338
2323.000000	5.502209
2322.000000	5.479043
2321.000000	5.465969
2320.000000	5.470671
2319.000000	5.457712
2318.000000	5.424453
2317.000000	5.392686
2316.000000	5.369634
2315.000000	5.351285
2314.000000	5.343257
2313.000000	5.340619
2312.000000	5.325251
2311.000000	5.295548
2310.000000	5.281098
2309.000000	5.274102
2308.000000	5.284538
2307.000000	5.267909
2306.000000	5.253574
2305.000000	5.244972
2304.000000	5.254376
2303.000000	5.265042
2302.000000	5.270776
2301.000000	5.253000
2300.000000	5.243367
2299.000000	5.264813
2298.000000	5.296810
2297.000000	5.309998
2296.000000	5.321581
2295.000000	5.344174
2294.000000	5.353234
2293.000000	5.369520
2292.000000	5.376859
2291.000000	5.393259
2290.000000	5.405186
2289.000000	5.397847
2288.000000	5.406104
2287.000000	5.410462
2286.000000	5.415049
2285.000000	5.421127
2284.000000	5.396012
2283.000000	5.398191
2282.000000	5.381332
2281.000000	5.396241
2280.000000	5.407595
2279.000000	5.375827
2278.000000	5.373648
2277.000000	5.363900
2276.000000	5.368373
2275.000000	5.350023
2274.000000	5.320320
2273.000000	5.324449
2272.000000	5.346009
2271.000000	5.326857
2270.000000	5.323416
2269.000000	5.312521
2268.000000	5.323990
2267.000000	5.355528
2266.000000	5.383511
2265.000000	5.389245
2264.000000	5.401746
2263.000000	5.426288
2262.000000	5.454730
2261.000000	5.466542
2260.000000	5.528816
2259.000000	5.563795
2258.000000	5.597512
2257.000000	5.635472
2256.000000	5.706577
2255.000000	5.767933
2254.000000	5.820688
2253.000000	5.860483
2252.000000	5.890416
2251.000000	5.967484
2250.000000	6.003380
2249.000000	6.063818
2248.000000	6.090196
2247.000000	6.138937
2246.000000	6.194100
2245.000000	6.227129
2244.000000	6.277246
2243.000000	6.294793
2242.000000	6.306490
2241.000000	6.372548
2240.000000	6.398238
2239.000000	6.445717
2238.000000	6.464181
2237.000000	6.480237
2236.000000	6.510858
2235.000000	6.503403
2234.000000	6.539644
2233.000000	6.540790
2232.000000	6.571067
2231.000000	6.577375
2230.000000	6.579898
2229.000000	6.602491
2228.000000	6.589646
2227.000000	6.606619
2226.000000	6.624395
2225.000000	6.616711
2224.000000	6.640107
2223.000000	6.608454
2222.000000	6.594233
2221.000000	6.614762
2220.000000	6.601229
2219.000000	6.601114
2218.000000	6.596298
2217.000000	6.595495
2216.000000	6.565906
2215.000000	6.592628
2214.000000	6.547557
2213.000000	6.565792
2212.000000	6.565677
2211.000000	6.552718
2210.000000	6.548818
2209.000000	6.535859
2208.000000	6.528290
2207.000000	6.522212
2206.000000	6.536203
2205.000000	6.524505
2204.000000	6.522900
2203.000000	6.525537
2202.000000	6.526340
2201.000000	6.505124
2200.000000	6.514642
2199.000000	6.526225
2198.000000	6.498472
2197.000000	6.513954
2196.000000	6.518198
2195.000000	6.489641
2194.000000	6.495834
2193.000000	6.512349
2192.000000	6.491591
2191.000000	6.462920
2190.000000	6.470260
2189.000000	6.470718
2188.000000	6.477829
2187.000000	6.491247
2186.000000	6.482072
2185.000000	6.493426
2184.000000	6.477599
2183.000000	6.477943
2182.000000	6.459135
2181.000000	6.480466
2180.000000	6.476797
2179.000000	6.466590
2178.000000	6.464411
2177.000000	6.469342
2176.000000	6.442735
2175.000000	6.436198
2174.000000	6.438033
2173.000000	6.444685
2172.000000	6.448240
2171.000000	6.454433
2170.000000	6.466246
2169.000000	6.480466
2168.000000	6.461314
2167.000000	6.453516
2166.000000	6.473356
2165.000000	6.473815
2164.000000	6.471750
2163.000000	6.502371
2162.000000	6.493655
2161.000000	6.481155
2160.000000	6.518656
2159.000000	6.517051
2158.000000	6.528519
2157.000000	6.509138
2156.000000	6.530239
2155.000000	6.546525
2154.000000	6.549162
2153.000000	6.564759
2152.000000	6.569806
2151.000000	6.587582
2150.000000	6.604670
2149.000000	6.615106
2148.000000	6.629441
2147.000000	6.637584
2146.000000	6.640336
2145.000000	6.645153
2144.000000	6.656507
2143.000000	6.674627
2142.000000	6.682540
2141.000000	6.706624
2140.000000	6.704330
2139.000000	6.711097
2138.000000	6.721648
2137.000000	6.716143
2136.000000	6.733460
2135.000000	6.731969
2134.000000	6.721762
2133.000000	6.718092
2132.000000	6.736786
2131.000000	6.757658
2130.000000	6.766260
2129.000000	6.753874
2128.000000	6.765113
2127.000000	6.763851
2126.000000	6.765342
2125.000000	6.762131
2124.000000	6.748484
2123.000000	6.743094
2122.000000	6.742291
2121.000000	6.749975
2120.000000	6.746534
2119.000000	6.730478
2118.000000	6.733689
2117.000000	6.720042
2116.000000	6.711670
2115.000000	6.727038
2114.000000	6.721189
2113.000000	6.701692
2112.000000	6.685751
2111.000000	6.684260
2110.000000	6.683802
2109.000000	6.674971
2108.000000	6.661553
2107.000000	6.639878
2106.000000	6.642057
2105.000000	6.637813
2104.000000	6.629900
2103.000000	6.618546
2102.000000	6.608454
2101.000000	6.606963
2100.000000	6.602835
2099.000000	6.598935
2098.000000	6.586091
2097.000000	6.572443
2096.000000	6.569117
2095.000000	6.560401
2094.000000	6.554208
2093.000000	6.551227
2092.000000	6.555585
2091.000000	6.555126
2090.000000	6.550309
2089.000000	6.545836
2088.000000	6.545148
2087.000000	6.527831
2086.000000	6.518312
2085.000000	6.526455
2084.000000	6.526455
2083.000000	6.507073
2082.000000	6.497784
2081.000000	6.498472
2080.000000	6.491247
2079.000000	6.488609
2078.000000	6.502027
2077.000000	6.487003
2076.000000	6.448814
2075.000000	6.433446
2074.000000	6.419225
2073.000000	6.419340
2072.000000	6.403055
2071.000000	6.390095
2070.000000	6.398123
2069.000000	6.388834
2068.000000	6.365667
2067.000000	6.344336
2066.000000	6.344910
2065.000000	6.340437
2064.000000	6.339634
2063.000000	6.320941
2062.000000	6.300183
2061.000000	6.285503
2060.000000	6.277016
2059.000000	6.284930
2058.000000	6.269333
2057.000000	6.257635
2056.000000	6.246510
2055.000000	6.239973
2054.000000	6.248689
2053.000000	6.256259
2052.000000	6.258208
2051.000000	6.257750
2050.000000	6.269333
2049.000000	6.278163
2048.000000	6.284815
2047.000000	6.306605
2046.000000	6.313715
2045.000000	6.332524
2044.000000	6.350988
2043.000000	6.358901
2042.000000	6.381150
2041.000000	6.404201
2040.000000	6.406380
2039.000000	6.427941
2038.000000	6.439065
2037.000000	6.475535
2036.000000	6.483104
2035.000000	6.476452
2034.000000	6.493999
2033.000000	6.492738
2032.000000	6.515330
2031.000000	6.530469
2030.000000	6.543772
2029.000000	6.542167
2028.000000	6.541593
2027.000000	6.553520
2026.000000	6.559369
2025.000000	6.547442
2024.000000	6.558796
2023.000000	6.559599
2022.000000	6.549736
2021.000000	6.548589
2020.000000	6.561892
2019.000000	6.573705
2018.000000	6.563154
2017.000000	6.551227
2016.000000	6.558681
2015.000000	6.555814
2014.000000	6.552603
2013.000000	6.543543
2012.000000	6.544690
2011.000000	6.541134
2010.000000	6.507876
2009.000000	6.511431
2008.000000	6.498243
2007.000000	6.479549
2006.000000	6.465902
2005.000000	6.457644
2004.000000	6.466016
2003.000000	6.447208
2002.000000	6.422436
2001.000000	6.397894
2000.000000	6.410394
1999.000000	6.375301
1998.000000	6.400417
1997.000000	6.364865
1996.000000	6.342042
1995.000000	6.326331
1994.000000	6.328166
1993.000000	6.290664
1992.000000	6.250639
1991.000000	6.243185
1990.000000	6.241808
1989.000000	6.213596
1988.000000	6.185498
1987.000000	6.176782
1986.000000	6.174718
1985.000000	6.152355
1984.000000	6.132400
1983.000000	6.121734
1982.000000	6.088934
1981.000000	6.065080
1980.000000	6.057969
1979.000000	6.052809
1978.000000	6.018059
1977.000000	5.995466
1976.000000	5.984686
1975.000000	5.976429
1974.000000	5.956130
1973.000000	5.956703
1972.000000	5.908306
1971.000000	5.893168
1970.000000	5.885828
1969.000000	5.859336
1968.000000	5.873901
1967.000000	5.854175
1966.000000	5.855666
1965.000000	5.841101
1964.000000	5.808760
1963.000000	5.817820
1962.000000	5.797521
1961.000000	5.781351
1960.000000	5.780892
1959.000000	5.752450
1958.000000	5.739262
1957.000000	5.733413
1956.000000	5.729284
1955.000000	5.723779
1954.000000	5.677103
1953.000000	5.692700
1952.000000	5.693273
1951.000000	5.671254
1950.000000	5.671713
1949.000000	5.654739
1948.000000	5.622972
1947.000000	5.642698
1946.000000	5.625266
1945.000000	5.605310
1944.000000	5.613682
1943.000000	5.616091
1942.000000	5.612880
1941.000000	5.603934
1940.000000	5.617123
1939.000000	5.605999
1938.000000	5.610013
1937.000000	5.614256
1936.000000	5.602329
1935.000000	5.600838
1934.000000	5.598085
1933.000000	5.587420
1932.000000	5.589713
1931.000000	5.639830
1930.000000	5.649579
1929.000000	5.647400
1928.000000	5.643271
1927.000000	5.667125
1926.000000	5.680085
1925.000000	5.679052
1924.000000	5.696714
1923.000000	5.729858
1922.000000	5.742932
1921.000000	5.768965
1920.000000	5.806925
1919.000000	5.836055
1918.000000	5.828945
1917.000000	5.840643
1916.000000	5.891333
1915.000000	5.908536
1914.000000	5.930785
1913.000000	5.989732
1912.000000	6.034803
1911.000000	6.067029
1910.000000	6.094439
1909.000000	6.148570
1908.000000	6.173801
1907.000000	6.211990
1906.000000	6.271626
1905.000000	6.334473
1904.000000	6.375760
1903.000000	6.414982
1902.000000	6.511775
1901.000000	6.562236
1900.000000	6.597559
1899.000000	6.684949
1898.000000	6.749975
1897.000000	6.845736
1896.000000	6.912253
1895.000000	6.993679
1894.000000	7.068109
1893.000000	7.198620
1892.000000	7.284518
1891.000000	7.386931
1890.000000	7.510332
1889.000000	7.620773
1888.000000	7.764013
1887.000000	7.890395
1886.000000	8.035242
1885.000000	8.202222
1884.000000	8.383194
1883.000000	8.561872
1882.000000	8.754656
1881.000000	8.969001
1880.000000	9.203645
1879.000000	9.388746
1878.000000	9.611807
1877.000000	9.860672
1876.000000	10.098527
1875.000000	10.305303
1874.000000	10.545452
1873.000000	10.764040
1872.000000	10.985496
1871.000000	11.200643
1870.000000	11.423819
1869.000000	11.621305
1868.000000	11.812255
1867.000000	11.960427
1866.000000	12.100686
1865.000000	12.217090
1864.000000	12.348404
1863.000000	12.452996
1862.000000	12.548413
1861.000000	12.665047
1860.000000	12.794411
1859.000000	12.903705
1858.000000	12.994191
1857.000000	13.080434
1856.000000	13.139840
1855.000000	13.203720
1854.000000	13.266337
1853.000000	13.308082
1852.000000	13.339276
1851.000000	13.349369
1850.000000	13.382054
1849.000000	13.404876
1848.000000	13.430794
1847.000000	13.453158
1846.000000	13.444671
1845.000000	13.438937
1844.000000	13.414968
1843.000000	13.413592
1842.000000	13.434923
1841.000000	13.453846
1840.000000	13.455681
1839.000000	13.459466
1838.000000	13.441804
1837.000000	13.425060
1836.000000	13.411642
1835.000000	13.387214
1834.000000	13.368406
1833.000000	13.324712
1832.000000	13.300972
1831.000000	13.266911
1830.000000	13.240877
1829.000000	13.218973
1828.000000	13.184911
1827.000000	13.141675
1826.000000	13.095687
1825.000000	13.066786
1824.000000	13.042703
1823.000000	13.017931
1822.000000	12.999811
1821.000000	12.972516
1820.000000	12.954511
1819.000000	12.941551
1818.000000	12.922170
1817.000000	12.911045
1816.000000	12.894416
1815.000000	12.881342
1814.000000	12.873429
1813.000000	12.855882
1812.000000	12.849345
1811.000000	12.823426
1810.000000	12.802095
1809.000000	12.785351
1808.000000	12.760235
1807.000000	12.734317
1806.000000	12.715164
1805.000000	12.692228
1804.000000	12.670667
1803.000000	12.637752
1802.000000	12.601742
1801.000000	12.572612
1800.000000	12.534307
1799.000000	12.499902
1798.000000	12.461253
1797.000000	12.439578
1796.000000	12.427536
1795.000000	12.405058
1794.000000	12.380630
1793.000000	12.351042
1792.000000	12.297943
1791.000000	12.255968
1790.000000	12.238651
1789.000000	12.205851
1788.000000	12.159175
1787.000000	12.140596
1786.000000	12.132224
1785.000000	12.086924
1784.000000	12.045408
1783.000000	12.010888
1782.000000	11.981414
1781.000000	11.941848
1780.000000	11.902970
1779.000000	11.867189
1778.000000	11.828999
1777.000000	11.801360
1776.000000	11.755371
1775.000000	11.697456
1774.000000	11.647912
1773.000000	11.607658
1772.000000	11.566830
1771.000000	11.516713
1770.000000	11.459830
1769.000000	11.405355
1768.000000	11.369229
1767.000000	11.312231
1766.000000	11.267046
1765.000000	11.229314
1764.000000	11.204772
1763.000000	11.190895
1762.000000	11.183785
1761.000000	11.196744
1760.000000	11.221287
1759.000000	11.233787
1758.000000	11.266587
1757.000000	11.306841
1756.000000	11.344228
1755.000000	11.387120
1754.000000	11.421640
1753.000000	11.452261
1752.000000	11.465105
1751.000000	11.469005
1750.000000	11.476000
1749.000000	11.478065
1748.000000	11.478868
1747.000000	11.459371
1746.000000	11.432420
1745.000000	11.394345
1744.000000	11.350994
1743.000000	11.296634
1742.000000	11.239980
1741.000000	11.173922
1740.000000	11.092037
1739.000000	10.980679
1738.000000	10.881018
1737.000000	10.789844
1736.000000	10.732273
1735.000000	10.652108
1734.000000	10.593275
1733.000000	10.551530
1732.000000	10.563228
1731.000000	10.574467
1730.000000	10.571485
1729.000000	10.602794
1728.000000	10.666788
1727.000000	10.716217
1726.000000	10.756930
1725.000000	10.808767
1724.000000	10.845351
1723.000000	10.891569
1722.000000	10.926089
1721.000000	10.957283
1720.000000	10.979532
1719.000000	11.004763
1718.000000	11.031828
1717.000000	11.064972
1716.000000	11.086762
1715.000000	11.124034
1714.000000	11.176674
1713.000000	11.211882
1712.000000	11.252481
1711.000000	11.303745
1710.000000	11.320488
1709.000000	11.332416
1708.000000	11.344802
1707.000000	11.354435
1706.000000	11.341361
1705.000000	11.308791
1704.000000	11.287345
1703.000000	11.259706
1702.000000	11.235163
1701.000000	11.161880
1700.000000	11.082519
1699.000000	11.014625
1698.000000	10.953613
1697.000000	10.889275
1696.000000	10.816336
1695.000000	10.793055
1694.000000	10.782046
1693.000000	10.801198
1692.000000	10.807964
1691.000000	10.889849
1690.000000	10.918864
1689.000000	10.998799
1688.000000	11.093758
1687.000000	11.147430
1686.000000	11.186078
1685.000000	11.193762
1684.000000	11.246517
1683.000000	11.308332
1682.000000	11.380124
1681.000000	11.536668
1680.000000	11.716608
1679.000000	11.967193
1678.000000	12.201264
1677.000000	12.470772
1676.000000	12.726403
1675.000000	13.003595
1674.000000	13.234570
1673.000000	13.431941
1672.000000	13.602592
1671.000000	13.753172
1670.000000	13.911436
1669.000000	14.014652
1668.000000	14.129566
1667.000000	14.217758
1666.000000	14.278197
1665.000000	14.348269
1664.000000	14.418800
1663.000000	14.468229
1662.000000	14.495409
1661.000000	14.536237
1660.000000	14.551604
1659.000000	14.596216
1658.000000	14.618695
1657.000000	14.629934
1656.000000	14.654591
1655.000000	14.640714
1654.000000	14.642320
1653.000000	14.639223
1652.000000	14.624429
1651.000000	14.627181
1650.000000	14.599313
1649.000000	14.581766
1648.000000	14.535893
1647.000000	14.543118
1646.000000	14.489445
1645.000000	14.451141
1644.000000	14.428777
1643.000000	14.388867
1642.000000	14.365930
1641.000000	14.330493
1640.000000	14.275789
1639.000000	14.271201
1638.000000	14.218676
1637.000000	14.154682
1636.000000	14.108923
1635.000000	14.070160
1634.000000	14.016143
1633.000000	13.972219
1632.000000	13.954099
1631.000000	13.885747
1630.000000	13.841823
1629.000000	13.801225
1628.000000	13.750878
1627.000000	13.700876
1626.000000	13.644566
1625.000000	13.596513
1624.000000	13.531143
1623.000000	13.500293
1622.000000	13.462333
1621.000000	13.404761
1620.000000	13.343978
1619.000000	13.297990
1618.000000	13.253263
1617.000000	13.221610
1616.000000	13.146492
1615.000000	13.114610
1614.000000	13.053598
1613.000000	13.018160
1612.000000	12.988113
1611.000000	12.951987
1610.000000	12.893613
1609.000000	12.848886
1608.000000	12.814366
1607.000000	12.756565
1606.000000	12.730188
1605.000000	12.673075
1604.000000	12.639587
1603.000000	12.604150
1602.000000	12.546578
1601.000000	12.502196
1600.000000	12.476162
1599.000000	12.413315
1598.000000	12.384071
1597.000000	12.327073
1596.000000	12.286933
1595.000000	12.249431
1594.000000	12.203443
1593.000000	12.175804
1592.000000	12.129930
1591.000000	12.111122
1590.000000	12.061120
1589.000000	12.035660
1588.000000	12.002516
1587.000000	11.986116
1586.000000	11.938063
1585.000000	11.894025
1584.000000	11.879230
1583.000000	11.832439
1582.000000	11.808700
1581.000000	11.779684
1580.000000	11.770624
1579.000000	11.740577
1578.000000	11.726471
1577.000000	11.710644
1576.000000	11.674519
1575.000000	11.647568
1574.000000	11.633462
1573.000000	11.617062
1572.000000	11.606855
1571.000000	11.577381
1570.000000	11.578299
1569.000000	11.581854
1568.000000	11.563046
1567.000000	11.546302
1566.000000	11.543435
1565.000000	11.538389
1564.000000	11.519695
1563.000000	11.526003
1562.000000	11.512470
1561.000000	11.508800
1560.000000	11.505474
1559.000000	11.490107
1558.000000	11.486322
1557.000000	11.476344
1556.000000	11.445150
1555.000000	11.425081
1554.000000	11.418544
1553.000000	11.404781
1552.000000	11.401456
1551.000000	11.382189
1550.000000	11.353518
1549.000000	11.326223
1548.000000	11.296978
1547.000000	11.293423
1546.000000	11.279087
1545.000000	11.249384
1544.000000	11.232640
1543.000000	11.220828
1542.000000	11.208671
1541.000000	11.182409
1540.000000	11.157981
1539.000000	11.136994
1538.000000	11.133094
1537.000000	11.108896
1536.000000	11.081372
1535.000000	11.066577
1534.000000	11.043411
1533.000000	11.025635
1532.000000	11.008547
1531.000000	10.981826
1530.000000	10.961068
1529.000000	10.931938
1528.000000	10.901661
1527.000000	10.870582
1526.000000	10.838700
1525.000000	10.819318
1524.000000	10.804524
1523.000000	10.774591
1522.000000	10.738351
1521.000000	10.705551
1520.000000	10.680550
1519.000000	10.652452
1518.000000	10.627107
1517.000000	10.590982
1516.000000	10.551530
1515.000000	10.525267
1514.000000	10.482834
1513.000000	10.437534
1512.000000	10.408060
1511.000000	10.372049
1510.000000	10.328813
1509.000000	10.314019
1508.000000	10.289018
1507.000000	10.255186
1506.000000	10.208165
1505.000000	10.160686
1504.000000	10.137520
1503.000000	10.115042
1502.000000	10.087861
1501.000000	10.045887
1500.000000	10.005748
1499.000000	9.983269
1498.000000	9.969393
1497.000000	9.935217
1496.000000	9.876728
1495.000000	9.841978
1494.000000	9.818697
1493.000000	9.802871
1492.000000	9.793582
1491.000000	9.767319
1490.000000	9.747134
1489.000000	9.732799
1488.000000	9.703440
1487.000000	9.687499
1486.000000	9.665479
1485.000000	9.653552
1484.000000	9.634400
1483.000000	9.608940
1482.000000	9.589558
1481.000000	9.575108
1480.000000	9.550795
1479.000000	9.537950
1478.000000	9.536115
1477.000000	9.530152
1476.000000	9.518913
1475.000000	9.514555
1474.000000	9.510197
1473.000000	9.500334
1472.000000	9.500563
1471.000000	9.496664
1470.000000	9.502971
1469.000000	9.499646
1468.000000	9.491732
1467.000000	9.488292
1466.000000	9.493797
1465.000000	9.515472
1464.000000	9.506985
1463.000000	9.520404
1462.000000	9.516963
1461.000000	9.529808
1460.000000	9.542423
1459.000000	9.555038
1458.000000	9.567424
1457.000000	9.586920
1456.000000	9.606646
1455.000000	9.638872
1454.000000	9.666626
1453.000000	9.686810
1452.000000	9.709403
1451.000000	9.727294
1450.000000	9.768351
1449.000000	9.795072
1448.000000	9.821679
1447.000000	9.869044
1446.000000	9.899550
1445.000000	9.957809
1444.000000	9.980632
1443.000000	10.022033
1442.000000	10.076393
1441.000000	10.101624
1440.000000	10.150594
1439.000000	10.184884
1438.000000	10.247846
1437.000000	10.293261
1436.000000	10.344754
1435.000000	10.394986
1434.000000	10.456801
1433.000000	10.520565
1432.000000	10.557264
1431.000000	10.637543
1430.000000	10.717020
1429.000000	10.764843
1428.000000	10.860604
1427.000000	10.937328
1426.000000	11.026209
1425.000000	11.112451
1424.000000	11.203740
1423.000000	11.319571
1422.000000	11.436549
1421.000000	11.535980
1420.000000	11.653646
1419.000000	11.807667
1418.000000	11.940128
1417.000000	12.060546
1416.000000	12.186355
1415.000000	12.337050
1414.000000	12.507012
1413.000000	12.685691
1412.000000	12.846822
1411.000000	13.037083
1410.000000	13.225395
1409.000000	13.453731
1408.000000	13.697780
1407.000000	13.939419
1406.000000	14.198835
1405.000000	14.436461
1404.000000	14.717438
1403.000000	15.009309
1402.000000	15.301869
1401.000000	15.614040
1400.000000	15.966121
1399.000000	16.298820
1398.000000	16.550322
1397.000000	16.807330
1396.000000	17.115831
1395.000000	17.493372
1394.000000	17.822516
1393.000000	18.129181
1392.000000	18.445710
1391.000000	18.798479
1390.000000	19.181295
1389.000000	19.526036
1388.000000	19.968488
1387.000000	20.460713
1386.000000	20.946631
1385.000000	21.481060
1384.000000	21.999777
1383.000000	22.618155
1382.000000	23.171965
1381.000000	23.744928
1380.000000	24.170178
1379.000000	24.573178
1378.000000	24.861609
1377.000000	25.125957
1376.000000	25.358651
1375.000000	25.631256
1374.000000	25.881841
1373.000000	26.194241
1372.000000	26.510426
1371.000000	26.879136
1370.000000	27.225024
1369.000000	27.582036
1368.000000	27.904069
1367.000000	28.228855
1366.000000	28.500428
1365.000000	28.732549
1364.000000	28.974418
1363.000000	29.175689
1362.000000	29.378795
1361.000000	29.587520
1360.000000	29.773997
1359.000000	29.862877
1358.000000	30.020224
1357.000000	30.149818
1356.000000	30.306591
1355.000000	30.545134
1354.000000	30.892169
1353.000000	31.270971
1352.000000	31.660210
1351.000000	32.153582
1350.000000	32.609223
1349.000000	33.062684
1348.000000	33.521307
1347.000000	33.958598
1346.000000	34.389582
1345.000000	34.730653
1344.000000	35.140879
1343.000000	35.524269
1342.000000	35.874858
1341.000000	36.253087
1340.000000	36.651157
1339.000000	37.031220
1338.000000	37.400275
1337.000000	37.757057
1336.000000	38.127029
1335.000000	38.522231
1334.000000	38.869036
1333.000000	39.256784
1332.000000	39.606342
1331.000000	39.956588
1330.000000	40.297888
1329.000000	40.663158
1328.000000	40.985306
1327.000000	41.314335
1326.000000	41.625818
1325.000000	41.942920
1324.000000	42.247407
1323.000000	42.535379
1322.000000	42.794222
1321.000000	43.085635
1320.000000	43.332091
1319.000000	43.584626
1318.000000	43.849661
1317.000000	44.110798
1316.000000	44.318147
1315.000000	44.537997
1314.000000	44.771379
1313.000000	44.979073
1312.000000	45.169907
1311.000000	45.362118
1310.000000	45.550430
1309.000000	45.719933
1308.000000	45.892877
1307.000000	46.030957
1306.000000	46.184405
1305.000000	46.317553
1304.000000	46.444623
1303.000000	46.564469
1302.000000	46.657478
1301.000000	46.742459
1300.000000	46.833403
1299.000000	46.903361
1298.000000	46.969075
1297.000000	47.035821
1296.000000	47.104632
1295.000000	47.160483
1294.000000	47.206701
1293.000000	47.256015
1292.000000	47.279869
1291.000000	47.294434
1290.000000	47.312325
1289.000000	47.324252
1288.000000	47.339276
1287.000000	47.345354
1286.000000	47.323793
1285.000000	47.289159
1284.000000	47.265304
1283.000000	47.227000
1282.000000	47.177686
1281.000000	47.138464
1280.000000	47.071947
1279.000000	47.026990
1278.000000	46.987195
1277.000000	46.933293
1276.000000	46.885355
1275.000000	46.839367
1274.000000	46.790511
1273.000000	46.734201
1272.000000	46.690736
1271.000000	46.654496
1270.000000	46.623990
1269.000000	46.583277
1268.000000	46.543711
1267.000000	46.482240
1266.000000	46.426962
1265.000000	46.375698
1264.000000	46.305167
1263.000000	46.239683
1262.000000	46.189336
1261.000000	46.143462
1260.000000	46.080615
1259.000000	46.003548
1258.000000	45.934852
1257.000000	45.854917
1256.000000	45.782436
1255.000000	45.702272
1254.000000	45.615571
1253.000000	45.540452
1252.000000	45.455471
1251.000000	45.358678
1250.000000	45.252595
1249.000000	45.145021
1248.000000	45.051668
1247.000000	44.946044
1246.000000	44.830900
1245.000000	44.709335
1244.000000	44.554970
1243.000000	44.411041
1242.000000	44.279728
1241.000000	44.120202
1240.000000	43.971456
1239.000000	43.833032
1238.000000	43.673392
1237.000000	43.515013
1236.000000	43.365235
1235.000000	43.196764
1234.000000	43.022902
1233.000000	42.843077
1232.000000	42.641004
1231.000000	42.446614
1230.000000	42.268853
1229.000000	42.064256
1228.000000	41.838328
1227.000000	41.626391
1226.000000	41.424891
1225.000000	41.217657
1224.000000	41.008243
1223.000000	40.795045
1222.000000	40.566020
1221.000000	40.334473
1220.000000	40.107283
1219.000000	39.897525
1218.000000	39.693846
1217.000000	39.478698
1216.000000	39.282359
1215.000000	39.096914
1214.000000	38.908603
1213.000000	38.728434
1212.000000	38.560192
1211.000000	38.396422
1210.000000	38.222332
1209.000000	38.056039
1208.000000	37.906835
1207.000000	37.780912
1206.000000	37.664966
1205.000000	37.545121
1204.000000	37.447295
1203.000000	37.382498
1202.000000	37.322863
1201.000000	37.262653
1200.000000	37.206573
1199.000000	37.133978
1198.000000	37.047276
1197.000000	36.944634
1196.000000	36.823183
1195.000000	36.653221
1194.000000	36.415136
1193.000000	36.149183
1192.000000	35.831508
1191.000000	35.431030
1190.000000	35.015758
1189.000000	34.618607
1188.000000	34.250814
1187.000000	33.941510
1186.000000	33.765126
1185.000000	33.672232
1184.000000	33.709045
1183.000000	33.885315
1182.000000	34.192669
1181.000000	34.584660
1180.000000	35.045806
1179.000000	35.543306
1178.000000	36.046770
1177.000000	36.529477
1176.000000	36.965277
1175.000000	37.339607
1174.000000	37.684118
1173.000000	38.012574
1172.000000	38.344012
1171.000000	38.694602
1170.000000	39.040260
1169.000000	39.389015
1168.000000	39.739376
1167.000000	40.119554
1166.000000	40.497668
1165.000000	40.874750
1164.000000	41.271902
1163.000000	41.675018
1162.000000	42.103134
1161.000000	42.519209
1160.000000	42.966478
1159.000000	43.374524
1158.000000	43.777640
1157.000000	44.193026
1156.000000	44.587311
1155.000000	44.960952
1154.000000	45.281036
1153.000000	45.567747
1152.000000	45.826360
1151.000000	46.038526
1150.000000	46.206080
1149.000000	46.368129
1148.000000	46.556211
1147.000000	46.720898
1146.000000	46.933293
1145.000000	47.227803
1144.000000	47.553047
1143.000000	47.935634
1142.000000	48.379807
1141.000000	48.864004
1140.000000	49.355885
1139.000000	49.888937
1138.000000	50.431509
1137.000000	50.982452
1136.000000	51.590509
1135.000000	52.183312
1134.000000	52.853756
1133.000000	53.460092
1132.000000	53.959542
1131.000000	54.457043
1130.000000	54.906376
1129.000000	55.292518
1128.000000	55.614322
1127.000000	55.941287
1126.000000	56.133039
1125.000000	56.324333
1124.000000	56.461266
1123.000000	56.590859
1122.000000	56.715980
1121.000000	56.800043
1120.000000	56.868510
1119.000000	56.904750
1118.000000	56.955670
1117.000000	56.975281
1116.000000	56.983309
1115.000000	56.976772
1114.000000	56.973217
1113.000000	56.973331
1112.000000	56.967597
1111.000000	56.953950
1110.000000	56.935944
1109.000000	56.906815
1108.000000	56.904980
1107.000000	56.886974
1106.000000	56.842018
1105.000000	56.846491
1104.000000	56.817361
1103.000000	56.777680
1102.000000	56.782726
1101.000000	56.746371
1100.000000	56.733412
1099.000000	56.700268
1098.000000	56.659784
1097.000000	56.637880
1096.000000	56.598314
1095.000000	56.565973
1094.000000	56.518149
1093.000000	56.455646
1092.000000	56.415622
1091.000000	56.342912
1090.000000	56.280294
1089.000000	56.224672
1088.000000	56.168592
1087.000000	56.103566
1086.000000	56.041521
1085.000000	55.969729
1084.000000	55.882110
1083.000000	55.787496
1082.000000	55.725795
1081.000000	55.646893
1080.000000	55.564664
1079.000000	55.478307
1078.000000	55.399289
1077.000000	55.313849
1076.000000	55.240566
1075.000000	55.163957
1074.000000	55.064296
1073.000000	54.984247
1072.000000	54.900871
1071.000000	54.808206
1070.000000	54.708316
1069.000000	54.625514
1068.000000	54.543744
1067.000000	54.431010
1066.000000	54.349240
1065.000000	54.250038
1064.000000	54.151868
1063.000000	54.044294
1062.000000	53.965162
1061.000000	53.849789
1060.000000	53.729142
1059.000000	53.649436
1058.000000	53.535899
1057.000000	53.413989
1056.000000	53.305383
1055.000000	53.193910
1054.000000	53.082781
1053.000000	52.990919
1052.000000	52.863390
1051.000000	52.765335
1050.000000	52.664183
1049.000000	52.552595
1048.000000	52.429883
1047.000000	52.341691
1046.000000	52.245815
1045.000000	52.147416
1044.000000	52.056471
1043.000000	51.950159
1042.000000	51.855429
1041.000000	51.744759
1040.000000	51.668379
1039.000000	51.560117
1038.000000	51.449217
1037.000000	51.344396
1036.000000	51.249552
1035.000000	51.129248
1034.000000	51.018578
1033.000000	50.914674
1032.000000	50.803545
1031.000000	50.673607
1030.000000	50.554565
1029.000000	50.431968
1028.000000	50.303292
1027.000000	50.192507
1026.000000	50.068762
1025.000000	49.951670
1024.000000	49.833086
1023.000000	49.712897
1022.000000	49.597983
1021.000000	49.446141
1020.000000	49.325264
1019.000000	49.228814
1018.000000	49.100253
1017.000000	48.972495
1016.000000	48.865953
1015.000000	48.780972
1014.000000	48.683032
1013.000000	48.591170
1012.000000	48.514217
1011.000000	48.420061
1010.000000	48.363177
1009.000000	48.318680
1008.000000	48.245282
1007.000000	48.190577
1006.000000	48.137937
1005.000000	48.088967
1004.000000	48.041947
1003.000000	48.002266
1002.000000	47.956392
1001.000000	47.920955
1000.000000	47.869576
999.000000	47.815674
998.000000	47.790788
997.000000	47.751451
996.000000	47.706495
995.000000	47.672663
994.000000	47.641469
993.000000	47.619908
992.000000	47.600297
991.000000	47.557176
990.000000	47.510155
989.000000	47.493641
988.000000	47.492150
987.000000	47.472424
986.000000	47.448799
985.000000	47.437216
984.000000	47.427124
983.000000	47.413132
982.000000	47.421046
981.000000	47.412100
980.000000	47.413591
979.000000	47.407513
978.000000	47.406825
977.000000	47.422078
976.000000	47.434005
975.000000	47.421504
974.000000	47.419784
973.000000	47.441345
972.000000	47.469213
971.000000	47.474259
970.000000	47.467952
969.000000	47.483434
968.000000	47.498228
967.000000	47.518642
966.000000	47.543758
965.000000	47.566580
964.000000	47.596513
963.000000	47.616582
962.000000	47.649956
961.000000	47.693765
960.000000	47.727482
959.000000	47.773471
958.000000	47.814642
957.000000	47.849392
956.000000	47.899738
955.000000	47.937813
954.000000	47.973136
953.000000	48.017289
952.000000	48.072682
951.000000	48.125207
950.000000	48.160071
949.000000	48.193215
948.000000	48.246085
947.000000	48.288862
946.000000	48.320056
945.000000	48.343910
944.000000	48.379921
943.000000	48.405381
942.000000	48.413982
941.000000	48.420290
940.000000	48.452402
939.000000	48.475339
938.000000	48.461118
937.000000	48.473504
936.000000	48.477862
935.000000	48.499308
934.000000	48.534860
933.000000	48.552980
932.000000	48.559058
931.000000	48.586353
930.000000	48.610895
929.000000	48.609519
928.000000	48.606193
927.000000	48.615368
926.000000	48.610895
925.000000	48.594610
924.000000	48.598395
923.000000	48.592661
922.000000	48.572247
921.000000	48.570182
920.000000	48.588647
919.000000	48.572247
918.000000	48.553783
917.000000	48.534630
916.000000	48.523162
915.000000	48.495179
914.000000	48.460315
913.000000	48.436231
912.000000	48.420405
911.000000	48.397812
910.000000	48.374646
909.000000	48.362719
908.000000	48.357214
907.000000	48.350333
906.000000	48.352626
905.000000	48.342649
904.000000	48.347924
903.000000	48.334850
902.000000	48.336341
901.000000	48.356755
900.000000	48.379807
899.000000	48.432561
898.000000	48.456072
897.000000	48.466852
896.000000	48.454351
895.000000	48.477288
894.000000	48.489903
893.000000	48.500225
892.000000	48.497931
891.000000	48.474192
890.000000	48.455039
889.000000	48.426024
888.000000	48.428203
887.000000	48.425451
886.000000	48.421552
885.000000	48.394486
884.000000	48.370173
883.000000	48.319368
882.000000	48.290238
881.000000	48.245855
880.000000	48.199293
879.000000	48.146653
878.000000	48.069815
877.000000	47.997564
876.000000	47.961782
875.000000	47.892972
874.000000	47.802371
873.000000	47.708559
872.000000	47.605917
871.000000	47.538712
870.000000	47.542038
869.000000	47.596283
868.000000	47.667961
867.000000	47.709706
866.000000	47.750304
865.000000	47.805123
864.000000	47.866135
863.000000	47.884600
862.000000	47.931735
861.000000	47.972448
860.000000	48.027840
859.000000	48.064883
858.000000	48.112133
857.000000	47.288100
856.000000	48.741600
855.000000	48.306700
854.000000	48.562800
853.000000	48.434300
852.000000	48.865600
851.000000	48.636200
850.000000	48.923100
849.000000	48.752200
848.000000	48.529000
847.000000	48.783200
846.000000	49.218400
845.000000	49.215700
844.000000	49.011400
843.000000	48.915200
842.000000	49.191900
841.000000	49.248700
840.000000	49.332700
839.000000	49.193900
838.000000	49.057300
837.000000	49.216200
836.000000	49.253200
835.000000	49.098800
834.000000	48.891100
833.000000	49.008500
832.000000	48.985800
831.000000	48.912900
830.000000	49.153300
829.000000	48.911200
828.000000	48.825300
827.000000	48.759300
826.000000	48.837900
825.000000	48.829100
824.000000	48.830600
823.000000	48.862200
822.000000	48.901700
821.000000	48.839600
820.000000	48.936500
819.000000	48.706600
818.000000	48.674900
817.000000	48.648800
816.000000	48.461100
815.000000	48.605100
814.000000	48.396600
813.000000	48.489900
812.000000	48.465200
811.000000	48.528000
810.000000	48.183800
809.000000	48.091900
808.000000	48.086300
807.000000	48.020700
806.000000	48.097200
805.000000	47.945100
804.000000	47.843000
803.000000	47.695300
802.000000	47.724000
801.000000	47.605400
800.000000	47.614500
799.000000	47.555000
798.000000	47.375500
797.000000	47.428400
796.000000	47.228900
795.000000	47.285800
794.000000	47.187200
793.000000	47.040400
792.000000	46.851800
791.000000	46.807300
790.000000	46.669900
789.000000	46.782800
788.000000	46.689800
787.000000	46.602900
786.000000	46.363100
785.000000	46.251200
784.000000	46.275300
783.000000	46.102900
782.000000	46.095700
781.000000	45.972800
780.000000	45.680800
779.000000	45.802600
778.000000	45.680200
777.000000	45.584900
776.000000	45.389900
775.000000	45.320800
774.000000	45.250800
773.000000	45.098500
772.000000	45.014200
771.000000	44.936500
770.000000	44.840300
769.000000	44.607100
768.000000	44.524800
767.000000	44.511200
766.000000	44.400100
765.000000	44.249100
764.000000	44.113400
763.000000	44.033200
762.000000	43.902300
761.000000	43.761300
760.000000	43.654200
759.000000	43.419500
758.000000	43.330900
757.000000	43.176700
756.000000	43.076100
755.000000	42.919200
754.000000	42.706700
753.000000	42.612500
752.000000	42.578500
751.000000	42.377600
750.000000	42.339600
749.000000	42.123100
748.000000	41.985400
747.000000	41.884900
746.000000	41.752900
745.000000	41.646800
744.000000	41.460200
743.000000	41.152100
742.000000	41.059600
741.000000	40.872200
740.000000	40.692700
739.000000	40.515700
738.000000	40.381900
737.000000	40.211600
736.000000	40.080800
735.000000	39.885000
734.000000	39.746300
733.000000	39.544800
732.000000	39.369300
731.000000	39.226000
730.000000	39.020200
729.000000	38.850000
728.000000	38.636200
727.000000	38.409600
726.000000	38.194300
725.000000	38.009500
724.000000	37.791200
723.000000	37.607300
722.000000	37.393900
721.000000	37.174200
720.000000	36.953700
719.000000	36.723600
718.000000	36.537800
717.000000	36.327500
716.000000	36.099900
715.000000	35.892700
714.000000	35.690400
713.000000	35.424500
712.000000	35.169500
711.000000	34.950300
710.000000	34.708100
709.000000	34.506600
708.000000	34.297100
707.000000	34.033200
706.000000	33.836400
705.000000	33.572400
704.000000	33.360900
703.000000	33.153900
702.000000	32.953400
701.000000	32.722800
700.000000	32.502600
699.000000	32.306300
698.000000	32.065500
697.000000	31.854000
696.000000	31.640000
695.000000	31.434000
694.000000	31.196100
693.000000	30.959400
692.000000	30.779000
691.000000	30.562800
690.000000	30.376500
689.000000	30.199200
688.000000	29.980000
687.000000	29.800300
686.000000	29.631500
685.000000	29.427900
684.000000	29.247800
683.000000	29.069800
682.000000	28.882200
681.000000	28.724900
680.000000	28.554000
679.000000	28.354700
678.000000	28.191200
677.000000	28.023600
676.000000	27.855800
675.000000	27.727700
674.000000	27.560600
673.000000	27.389800
672.000000	27.243500
671.000000	27.109900
670.000000	26.962300
669.000000	26.828000
668.000000	26.691500
667.000000	26.567200
666.000000	26.442500
665.000000	26.324000
664.000000	26.197800
663.000000	26.079600
662.000000	25.978500
661.000000	25.875800
660.000000	25.775500
659.000000	25.659100
658.000000	25.530000
657.000000	25.421900
656.000000	25.348500
655.000000	25.260500
654.000000	25.165700
653.000000	25.064600
652.000000	24.964400
651.000000	24.898600
650.000000	24.843800
649.000000	24.747800
648.000000	24.676900
647.000000	24.631600
646.000000	24.584600
645.000000	24.519900
644.000000	24.440700
643.000000	24.371800
642.000000	24.309100
641.000000	24.271300
640.000000	24.235500
639.000000	24.205500
638.000000	24.169400
637.000000	24.130700
636.000000	24.087700
635.000000	24.052400
634.000000	24.029900
633.000000	24.016800
632.000000	24.011000
631.000000	23.986100
630.000000	23.943000
629.000000	23.930000
628.000000	23.919900
627.000000	23.921300
626.000000	23.929000
625.000000	23.932700
624.000000	23.939000
623.000000	23.939600
622.000000	23.950700
621.000000	23.980400
620.000000	23.991700
619.000000	24.010200
618.000000	24.035800
617.000000	24.042900
616.000000	24.060000
615.000000	24.095200
614.000000	24.131800
613.000000	24.169700
612.000000	24.214600
611.000000	24.258100
610.000000	24.297400
609.000000	24.352700
608.000000	24.386600
607.000000	24.428600
606.000000	24.471100
605.000000	24.530400
604.000000	24.580300
603.000000	24.635300
602.000000	24.710300
601.000000	24.736200
600.000000	24.763100
599.000000	24.841700
598.000000	24.896400
597.000000	24.942900
596.000000	24.973000
595.000000	25.017100
594.000000	25.062500
593.000000	25.107400
592.000000	25.139500
591.000000	25.178200
590.000000	25.211700
589.000000	25.229400
588.000000	25.289200
587.000000	25.316200
586.000000	25.329100
585.000000	25.347600
584.000000	25.373100
583.000000	25.385600
582.000000	25.406100
581.000000	25.396400
580.000000	25.408700
579.000000	25.384700
578.000000	25.376700
577.000000	25.382600
576.000000	25.356200
575.000000	25.329200
574.000000	25.301300
573.000000	25.272200
572.000000	25.223600
571.000000	25.170400
570.000000	25.139000
569.000000	25.095100
568.000000	25.014900
567.000000	24.948800
566.000000	24.878500
565.000000	24.814400
564.000000	24.732200
563.000000	24.650600
562.000000	24.545200
561.000000	24.460900
560.000000	24.359000
559.000000	24.239300
558.000000	24.132000
557.000000	24.029100
556.000000	23.896000
555.000000	23.770600
554.000000	23.629300
553.000000	23.483400
552.000000	23.336200
551.000000	23.198800
550.000000	23.038400
549.000000	22.867200
548.000000	22.714500
547.000000	22.533200
546.000000	22.365000
545.000000	22.203300
544.000000	22.022600
543.000000	21.819100
542.000000	21.613800
541.000000	21.412100
540.000000	21.218600
539.000000	21.002800
538.000000	20.806200
537.000000	20.588500
536.000000	20.377600
535.000000	20.174400
534.000000	19.959200
533.000000	19.722000
532.000000	19.488600
531.000000	19.261300
530.000000	19.030100
529.000000	18.806200
528.000000	18.561700
527.000000	18.333300
526.000000	18.088400
525.000000	17.856500
524.000000	17.612100
523.000000	17.383600
522.000000	17.131800
521.000000	16.895600
520.000000	16.662300
519.000000	16.428300
518.000000	16.200500
517.000000	15.973600
516.000000	15.751200
515.000000	15.516200
514.000000	15.304100
513.000000	15.088200
512.000000	14.877400
511.000000	14.680600
510.000000	14.510900
509.000000	14.316700
508.000000	14.139600
507.000000	13.977000
506.000000	13.785300
505.000000	13.617600
504.000000	13.460900
503.000000	13.318800
502.000000	13.188400
501.000000	13.038600
500.000000	12.888100
499.000000	12.783700
498.000000	12.662800
497.000000	12.553600
496.000000	12.420300
495.000000	12.326900
494.000000	12.213400
493.000000	12.134700
492.000000	12.034900
491.000000	11.930700
490.000000	11.849600
489.000000	11.777300
488.000000	11.722500
487.000000	11.645300
486.000000	11.563700
485.000000	11.509200
484.000000	11.448900
483.000000	11.383700
482.000000	11.307600
481.000000	11.234900
480.000000	11.158900
479.000000	11.078900
478.000000	11.011000
477.000000	10.947900
476.000000	10.884000
475.000000	10.815400
474.000000	10.751900
473.000000	10.699300
472.000000	10.624800
471.000000	10.567200
470.000000	10.493900
469.000000	10.453800
468.000000	10.387000
467.000000	10.337400
466.000000	10.277100
465.000000	10.223400
464.000000	10.171100
463.000000	10.141200
462.000000	10.075300
461.000000	10.049100
460.000000	9.993100
459.000000	9.949700
458.000000	9.919300
457.000000	9.863600
456.000000	9.799400
455.000000	9.778700
454.000000	9.751900
453.000000	9.705500
452.000000	9.659100
451.000000	9.611000
450.000000	9.586500
449.000000	9.521500
448.000000	9.491200
447.000000	9.446000
446.000000	9.418200
445.000000	9.353100
444.000000	9.307800
443.000000	9.273500
442.000000	9.218800
441.000000	9.161500
440.000000	9.119100
439.000000	9.078800
438.000000	9.015100
437.000000	8.970100
436.000000	8.905900
435.000000	8.875300
434.000000	8.819100
433.000000	8.759600
432.000000	8.700900
431.000000	8.643600
430.000000	8.596900
429.000000	8.547400
428.000000	8.519000
427.000000	8.453700
426.000000	8.400500
425.000000	8.339300
424.000000	8.278800
423.000000	8.237500
422.000000	8.183900
421.000000	8.111000
420.000000	8.066300
419.000000	8.013300
418.000000	7.963900
417.000000	7.921200
416.000000	7.850400
415.000000	7.783800
414.000000	7.729200
413.000000	7.675000
412.000000	7.615600
411.000000	7.558800
410.000000	7.464800
409.000000	7.435800
408.000000	7.359500
407.000000	7.297800
406.000000	7.228900
405.000000	7.162700
404.000000	7.107800
403.000000	7.059100
402.000000	6.966300
401.000000	6.894200
400.000000	6.828600
399.000000	6.749800
398.000000	6.680200
397.000000	6.624900
396.000000	6.566300
395.000000	6.497200
394.000000	6.404700
393.000000	6.327300
392.000000	6.268900
391.000000	6.189000
390.000000	6.122200
389.000000	6.057900
388.000000	6.001300
387.000000	5.932700
386.000000	5.864800
385.000000	5.805900
384.000000	5.730300
383.000000	5.662800
382.000000	5.613100
381.000000	5.566800
380.000000	5.495700
379.000000	5.437200
378.000000	5.366000
377.000000	5.310600
376.000000	5.321900
375.000000	5.171100
374.000000	4.815900
373.000000	4.878800
372.000000	4.801800
371.000000	4.849800
370.000000	4.939500
369.000000	4.789500
368.000000	4.763000
367.000000	4.947500
366.000000	4.884100
365.000000	4.715600
364.000000	4.735600
363.000000	4.684600
362.000000	4.634100
361.000000	4.592900
360.000000	4.665600
359.000000	4.654200
358.000000	4.648700
357.000000	4.656600
356.000000	4.675700
355.000000	4.528000
354.000000	4.481300
353.000000	4.561600
352.000000	4.612000
351.000000	4.537900
350.000000	4.486900
349.000000	4.474200
348.000000	4.428200
347.000000	4.377100
346.000000	4.404400
345.000000	4.390400
344.000000	4.402800
343.000000	4.491200
342.000000	4.549700
341.000000	4.513200
340.000000	4.502100
339.000000	4.445800
338.000000	4.535000
337.000000	4.520500
336.000000	4.447700
335.000000	4.437100
334.000000	4.439000
333.000000	4.576600
332.000000	4.742400
331.000000	4.858700
330.000000	4.683400
329.000000	4.821600
328.000000	4.849600
327.000000	4.758700
326.000000	4.731800
325.000000	4.666400
324.000000	4.753700
323.000000	4.672600
322.000000	4.882500
321.000000	4.808900
320.000000	4.907100
319.000000	5.459600
318.000000	5.132400
317.000000	4.679000
316.000000	4.457100
315.000000	4.284200
314.000000	4.221700
313.000000	4.258400
312.000000	4.279300
311.000000	4.252700
310.000000	4.256200
309.000000	4.266900
308.000000	4.272700
307.000000	4.296100
306.000000	4.294400
305.000000	4.278500
304.000000	4.285500
303.000000	4.319400
302.000000	4.316700
301.000000	4.330000
300.000000	4.315100
299.000000	4.323600
298.000000	4.330200
297.000000	4.340900
296.000000	4.355000
295.000000	4.383300
294.000000	4.334200
293.000000	4.342300
292.000000	4.358200
291.000000	4.356000
290.000000	4.360300
289.000000	4.376000
288.000000	4.371900
287.000000	4.368100
286.000000	4.378200
285.000000	4.351600
284.000000	4.379700
283.000000	4.359900
282.000000	4.336200
281.000000	4.440700
280.000000	4.432500
279.000000	4.421800
278.000000	4.432500
277.000000	4.438400
276.000000	4.484500
275.000000	4.498600
274.000000	4.474900
273.000000	4.514900
272.000000	4.483900
271.000000	4.493100
270.000000	4.538500
269.000000	4.574700
268.000000	4.551200
267.000000	4.513300
266.000000	4.527000
265.000000	4.584000
264.000000	4.623600
263.000000	4.611000
262.000000	4.645300
261.000000	4.672900
260.000000	4.688100
259.000000	4.726200
258.000000	4.693100
257.000000	4.723400
256.000000	4.720300
255.000000	4.718900
254.000000	4.764000
253.000000	4.785700
252.000000	4.782000
251.000000	4.768100
250.000000	4.782400
