PE UV       SUBTECH     SPECTRUM    ASCII       PEDS        4.00        
   -1
CICIMAUCR0247-2.ASC
24/06/27
14:19:16.00
24/06/27
14:19:16.00
Vinicio Soto Monge
C. resplendens. Sex M. Ventral
250,000000
1
Lambda 1050
1050L1511233
PerkinElmer UV WinLab 6.3.2.0749 / 2.02.05 Lambda 900 UV/VIS/NIR, Aug  7 2015 09:38:08

0
0
3350/servo 860,8/2
0
0
UV/VIS
1
1
1
DoubleDePol,CommonBeamDepol,RBeamAtt,SBeamAtt,60mm sphere, WB InGaAs Detector
0
0
0
0
Program
Program
3350/servo 860,8/2
3350/0,2 860,8/0,2
3350/0,2 860,8/0,2
0
15.00
 
 
 
0
 
860,8
319,2
860,8
Front
100
on
S:100 R:100
0
0
0
0
 
0
 
 
 
0
 
 
0
0
0
0
0
 
 
 
 
0
0


0
0
#HDR
-1
-1
#GR
nm
%R
1.0
0.0
2500,000000
-1,000000
2251
8
67,093700
4,185900
#DATA
2482.000000	8.112995
2481.000000	8.052118
2480.000000	8.099626
2479.000000	8.055433
2478.000000	7.990911
2477.000000	8.020299
2476.000000	8.075541
2475.000000	8.067918
2474.000000	8.017648
2473.000000	8.015659
2472.000000	8.095649
2471.000000	8.080955
2470.000000	8.027812
2469.000000	8.041070
2468.000000	8.077530
2467.000000	8.084159
2466.000000	8.139179
2465.000000	8.099074
2464.000000	8.100841
2463.000000	8.111116
2462.000000	8.178180
2461.000000	8.182157
2460.000000	8.164259
2459.000000	8.190775
2458.000000	8.234084
2457.000000	8.246790
2456.000000	8.312196
2455.000000	8.332193
2454.000000	8.341142
2453.000000	8.408979
2452.000000	8.444112
2451.000000	8.456376
2450.000000	8.536587
2449.000000	8.564097
2448.000000	8.604755
2447.000000	8.649611
2446.000000	8.693362
2445.000000	8.725181
2444.000000	8.774236
2443.000000	8.835665
2442.000000	8.885051
2441.000000	8.923167
2440.000000	8.953219
2439.000000	8.985480
2438.000000	9.054974
2437.000000	9.088781
2436.000000	9.151646
2435.000000	9.184570
2434.000000	9.222797
2433.000000	9.262903
2432.000000	9.303892
2431.000000	9.341788
2430.000000	9.397582
2429.000000	9.429401
2428.000000	9.470390
2427.000000	9.509722
2426.000000	9.557009
2425.000000	9.591479
2424.000000	9.641197
2423.000000	9.673458
2422.000000	9.708371
2421.000000	9.722070
2420.000000	9.752674
2419.000000	9.793332
2418.000000	9.832001
2417.000000	9.863268
2416.000000	9.895529
2415.000000	9.927127
2414.000000	9.939833
2413.000000	9.982921
2412.000000	10.009768
2411.000000	10.032749
2410.000000	10.037279
2409.000000	10.065231
2408.000000	10.105778
2407.000000	10.134393
2406.000000	10.158700
2405.000000	10.180465
2404.000000	10.195159
2403.000000	10.223001
2402.000000	10.232060
2401.000000	10.269293
2400.000000	10.274707
2399.000000	10.288959
2398.000000	10.324314
2397.000000	10.350277
2396.000000	10.336798
2395.000000	10.316138
2394.000000	10.337461
2393.000000	10.362651
2392.000000	10.382759
2391.000000	10.403420
2390.000000	10.416015
2389.000000	10.403199
2388.000000	10.413584
2387.000000	10.425295
2386.000000	10.432808
2385.000000	10.446950
2384.000000	10.445735
2383.000000	10.447723
2382.000000	10.450375
2381.000000	10.446287
2380.000000	10.458882
2379.000000	10.455457
2378.000000	10.440652
2377.000000	10.432145
2376.000000	10.428168
2375.000000	10.413916
2374.000000	10.402094
2373.000000	10.412479
2372.000000	10.398669
2371.000000	10.386516
2370.000000	10.391377
2369.000000	10.379224
2368.000000	10.359447
2367.000000	10.340665
2366.000000	10.331827
2365.000000	10.320999
2364.000000	10.314702
2363.000000	10.290837
2362.000000	10.259350
2361.000000	10.246644
2360.000000	10.218802
2359.000000	10.197921
2358.000000	10.185437
2357.000000	10.160025
2356.000000	10.139917
2355.000000	10.130195
2354.000000	10.124008
2353.000000	10.112186
2352.000000	10.096166
2351.000000	10.088874
2350.000000	10.103016
2349.000000	10.113070
2348.000000	10.106220
2347.000000	10.112739
2346.000000	10.118042
2345.000000	10.131742
2344.000000	10.165881
2343.000000	10.190077
2342.000000	10.198805
2341.000000	10.218802
2340.000000	10.227199
2339.000000	10.248301
2338.000000	10.280121
2337.000000	10.286197
2336.000000	10.289733
2335.000000	10.289622
2334.000000	10.299234
2333.000000	10.299676
2332.000000	10.303764
2331.000000	10.292605
2330.000000	10.283766
2329.000000	10.263769
2328.000000	10.268299
2327.000000	10.260123
2326.000000	10.237032
2325.000000	10.216372
2324.000000	10.195270
2323.000000	10.163671
2322.000000	10.126880
2321.000000	10.097271
2320.000000	10.061695
2319.000000	10.008332
2318.000000	9.963918
2317.000000	9.920609
2316.000000	9.858517
2315.000000	9.803717
2314.000000	9.749360
2313.000000	9.714226
2312.000000	9.669812
2311.000000	9.627386
2310.000000	9.585182
2309.000000	9.526184
2308.000000	9.484532
2307.000000	9.452823
2306.000000	9.416695
2305.000000	9.408298
2304.000000	9.403437
2303.000000	9.392278
2302.000000	9.394930
2301.000000	9.410177
2300.000000	9.450945
2299.000000	9.466523
2298.000000	9.493149
2297.000000	9.541320
2296.000000	9.594131
2295.000000	9.639761
2294.000000	9.684064
2293.000000	9.719087
2292.000000	9.768805
2291.000000	9.794879
2290.000000	9.845038
2289.000000	9.857081
2288.000000	9.904257
2287.000000	9.914532
2286.000000	9.920388
2285.000000	9.940496
2284.000000	9.950991
2283.000000	9.949113
2282.000000	9.919946
2281.000000	9.916521
2280.000000	9.914421
2279.000000	9.897186
2278.000000	9.865367
2277.000000	9.839072
2276.000000	9.810236
2275.000000	9.792780
2274.000000	9.786261
2273.000000	9.761844
2272.000000	9.754221
2271.000000	9.750575
2270.000000	9.737759
2269.000000	9.752895
2268.000000	9.773666
2267.000000	9.817196
2266.000000	9.841945
2265.000000	9.904589
2264.000000	9.956074
2263.000000	10.025788
2262.000000	10.115390
2261.000000	10.228083
2260.000000	10.339008
2259.000000	10.467831
2258.000000	10.618309
2257.000000	10.743266
2256.000000	10.872641
2255.000000	11.034941
2254.000000	11.198456
2253.000000	11.348161
2252.000000	11.490131
2251.000000	11.619397
2250.000000	11.800920
2249.000000	11.941786
2248.000000	12.077460
2247.000000	12.191036
2246.000000	12.318865
2245.000000	12.435867
2244.000000	12.550769
2243.000000	12.658159
2242.000000	12.735607
2241.000000	12.798583
2240.000000	12.906635
2239.000000	12.986404
2238.000000	13.046175
2237.000000	13.089816
2236.000000	13.139754
2235.000000	13.181186
2234.000000	13.232118
2233.000000	13.252889
2232.000000	13.272224
2231.000000	13.283824
2230.000000	13.315533
2229.000000	13.322714
2228.000000	13.306473
2227.000000	13.310009
2226.000000	13.297303
2225.000000	13.315202
2224.000000	13.299844
2223.000000	13.268136
2222.000000	13.235764
2221.000000	13.206376
2220.000000	13.157432
2219.000000	13.150582
2218.000000	13.095340
2217.000000	13.039988
2216.000000	13.041425
2215.000000	12.980769
2214.000000	12.942542
2213.000000	12.942763
2212.000000	12.880893
2211.000000	12.834821
2210.000000	12.806648
2209.000000	12.787534
2208.000000	12.754610
2207.000000	12.725332
2206.000000	12.706771
2205.000000	12.674289
2204.000000	12.655839
2203.000000	12.623577
2202.000000	12.631311
2201.000000	12.590654
2200.000000	12.574523
2199.000000	12.546460
2198.000000	12.533423
2197.000000	12.536627
2196.000000	12.514310
2195.000000	12.494312
2194.000000	12.491992
2193.000000	12.476414
2192.000000	12.445147
2191.000000	12.424266
2190.000000	12.410456
2189.000000	12.393994
2188.000000	12.398965
2187.000000	12.374549
2186.000000	12.354220
2185.000000	12.340188
2184.000000	12.323837
2183.000000	12.323174
2182.000000	12.287819
2181.000000	12.316434
2180.000000	12.281632
2179.000000	12.261966
2178.000000	12.270584
2177.000000	12.240201
2176.000000	12.227054
2175.000000	12.214017
2174.000000	12.232688
2173.000000	12.224181
2172.000000	12.231915
2171.000000	12.227496
2170.000000	12.232025
2169.000000	12.235450
2168.000000	12.249703
2167.000000	12.250476
2166.000000	12.242521
2165.000000	12.259204
2164.000000	12.287488
2163.000000	12.293233
2162.000000	12.340630
2161.000000	12.347812
2160.000000	12.375985
2159.000000	12.382945
2158.000000	12.402943
2157.000000	12.456638
2156.000000	12.468570
2155.000000	12.513536
2154.000000	12.549996
2153.000000	12.601702
2152.000000	12.642691
2151.000000	12.672190
2150.000000	12.721686
2149.000000	12.758588
2148.000000	12.806869
2147.000000	12.849073
2146.000000	12.882771
2145.000000	12.938786
2144.000000	12.971710
2143.000000	13.008169
2142.000000	13.041646
2141.000000	13.082524
2140.000000	13.128927
2139.000000	13.168591
2138.000000	13.213668
2137.000000	13.223722
2136.000000	13.241509
2135.000000	13.276422
2134.000000	13.300728
2133.000000	13.339397
2132.000000	13.356964
2131.000000	13.382596
2130.000000	13.400274
2129.000000	13.418282
2128.000000	13.439053
2127.000000	13.464796
2126.000000	13.455405
2125.000000	13.453637
2124.000000	13.471867
2123.000000	13.462144
2122.000000	13.457946
2121.000000	13.451538
2120.000000	13.457835
2119.000000	13.436512
2118.000000	13.434081
2117.000000	13.418614
2116.000000	13.413642
2115.000000	13.405356
2114.000000	13.384143
2113.000000	13.379061
2112.000000	13.358842
2111.000000	13.323930
2110.000000	13.297414
2109.000000	13.283824
2108.000000	13.263606
2107.000000	13.232781
2106.000000	13.211900
2105.000000	13.195659
2104.000000	13.168591
2103.000000	13.127601
2102.000000	13.111029
2101.000000	13.091363
2100.000000	13.052473
2099.000000	13.024742
2098.000000	13.010379
2097.000000	13.004081
2096.000000	12.967622
2095.000000	12.937570
2094.000000	12.907298
2093.000000	12.882329
2092.000000	12.848742
2091.000000	12.821784
2090.000000	12.808195
2089.000000	12.786871
2088.000000	12.764664
2087.000000	12.742347
2086.000000	12.712295
2085.000000	12.684564
2084.000000	12.655397
2083.000000	12.625677
2082.000000	12.588333
2081.000000	12.549443
2080.000000	12.504256
2079.000000	12.467907
2078.000000	12.432663
2077.000000	12.372339
2076.000000	12.326599
2075.000000	12.275335
2074.000000	12.215232
2073.000000	12.163857
2072.000000	12.094142
2071.000000	12.039343
2070.000000	11.993382
2069.000000	11.929302
2068.000000	11.861686
2067.000000	11.796280
2066.000000	11.741480
2065.000000	11.680936
2064.000000	11.614425
2063.000000	11.559625
2062.000000	11.506483
2061.000000	11.450689
2060.000000	11.397215
2059.000000	11.346393
2058.000000	11.311370
2057.000000	11.278667
2056.000000	11.245632
2055.000000	11.232264
2054.000000	11.211493
2053.000000	11.212377
2052.000000	11.214587
2051.000000	11.218895
2050.000000	11.229060
2049.000000	11.254802
2048.000000	11.275684
2047.000000	11.308829
2046.000000	11.331478
2045.000000	11.382521
2044.000000	11.427929
2043.000000	11.467261
2042.000000	11.507919
2041.000000	11.547141
2040.000000	11.591444
2039.000000	11.646575
2038.000000	11.685797
2037.000000	11.708777
2036.000000	11.735735
2035.000000	11.768217
2034.000000	11.784127
2033.000000	11.811085
2032.000000	11.845445
2031.000000	11.862459
2030.000000	11.858924
2029.000000	11.870967
2028.000000	11.893837
2027.000000	11.888975
2026.000000	11.895052
2025.000000	11.887539
2024.000000	11.880800
2023.000000	11.886324
2022.000000	11.882346
2021.000000	11.885329
2020.000000	11.875165
2019.000000	11.874834
2018.000000	11.865884
2017.000000	11.853068
2016.000000	11.823238
2015.000000	11.805671
2014.000000	11.783133
2013.000000	11.787552
2012.000000	11.744353
2011.000000	11.717285
2010.000000	11.689995
2009.000000	11.667678
2008.000000	11.637405
2007.000000	11.596748
2006.000000	11.560178
2005.000000	11.523055
2004.000000	11.476984
2003.000000	11.450137
2002.000000	11.400640
2001.000000	11.345399
2000.000000	11.307834
1999.000000	11.270712
1998.000000	11.203428
1997.000000	11.144540
1996.000000	11.108412
1995.000000	11.055822
1994.000000	11.014944
1993.000000	10.945560
1992.000000	10.886783
1991.000000	10.839717
1990.000000	10.790442
1989.000000	10.737410
1988.000000	10.660403
1987.000000	10.612343
1986.000000	10.519316
1985.000000	10.494900
1984.000000	10.437117
1983.000000	10.386626
1982.000000	10.305532
1981.000000	10.241010
1980.000000	10.205876
1979.000000	10.144889
1978.000000	10.060038
1977.000000	10.022805
1976.000000	9.964581
1975.000000	9.917184
1974.000000	9.859069
1973.000000	9.793663
1972.000000	9.735881
1971.000000	9.697212
1970.000000	9.650146
1969.000000	9.599434
1968.000000	9.542646
1967.000000	9.515357
1966.000000	9.461662
1965.000000	9.409514
1964.000000	9.374933
1963.000000	9.317150
1962.000000	9.270747
1961.000000	9.224123
1960.000000	9.178273
1959.000000	9.130654
1958.000000	9.085025
1957.000000	9.051217
1956.000000	8.996970
1955.000000	8.965261
1954.000000	8.922062
1953.000000	8.890354
1952.000000	8.844945
1951.000000	8.809480
1950.000000	8.757884
1949.000000	8.749488
1948.000000	8.708499
1947.000000	8.704853
1946.000000	8.653367
1945.000000	8.636353
1944.000000	8.609174
1943.000000	8.590613
1942.000000	8.569732
1941.000000	8.544542
1940.000000	8.542774
1939.000000	8.512391
1938.000000	8.506756
1937.000000	8.513938
1936.000000	8.516479
1935.000000	8.514269
1934.000000	8.506314
1933.000000	8.525649
1932.000000	8.536808
1931.000000	8.557579
1930.000000	8.549292
1929.000000	8.590171
1928.000000	8.651047
1927.000000	8.701428
1926.000000	8.734131
1925.000000	8.769154
1924.000000	8.806718
1923.000000	8.873892
1922.000000	8.895436
1921.000000	9.009565
1920.000000	9.089555
1919.000000	9.142587
1918.000000	9.241911
1917.000000	9.302014
1916.000000	9.381893
1915.000000	9.451276
1914.000000	9.544303
1913.000000	9.674563
1912.000000	9.809352
1911.000000	9.943479
1910.000000	10.069429
1909.000000	10.185547
1908.000000	10.282220
1907.000000	10.406182
1906.000000	10.569034
1905.000000	10.764920
1904.000000	10.985224
1903.000000	11.186966
1902.000000	11.386277
1901.000000	11.586583
1900.000000	11.841578
1899.000000	12.054700
1898.000000	12.392005
1897.000000	12.653739
1896.000000	12.928953
1895.000000	13.185605
1894.000000	13.453858
1893.000000	13.771386
1892.000000	14.132998
1891.000000	14.539133
1890.000000	15.014211
1889.000000	15.463435
1888.000000	15.882608
1887.000000	16.333931
1886.000000	16.781609
1885.000000	17.299222
1884.000000	17.824348
1883.000000	18.401512
1882.000000	18.963760
1881.000000	19.513745
1880.000000	20.045500
1879.000000	20.547315
1878.000000	21.081279
1877.000000	21.577680
1876.000000	22.102143
1875.000000	22.633014
1874.000000	23.128973
1873.000000	23.621728
1872.000000	24.162874
1871.000000	24.661042
1870.000000	25.131700
1869.000000	25.617052
1868.000000	26.062299
1867.000000	26.413635
1866.000000	26.727628
1865.000000	26.991131
1864.000000	27.235077
1863.000000	27.462341
1862.000000	27.642649
1861.000000	27.875216
1860.000000	28.121041
1859.000000	28.363662
1858.000000	28.619872
1857.000000	28.814765
1856.000000	28.967231
1855.000000	29.080145
1854.000000	29.203776
1853.000000	29.345083
1852.000000	29.458771
1851.000000	29.534230
1850.000000	29.582401
1849.000000	29.608033
1848.000000	29.658082
1847.000000	29.795302
1846.000000	29.916281
1845.000000	29.942024
1844.000000	29.894074
1843.000000	29.837396
1842.000000	29.802042
1841.000000	29.856510
1840.000000	29.919706
1839.000000	29.943128
1838.000000	29.936389
1837.000000	29.925562
1836.000000	29.940477
1835.000000	29.940587
1834.000000	29.902139
1833.000000	29.839937
1832.000000	29.759947
1831.000000	29.698519
1830.000000	29.656977
1829.000000	29.636980
1828.000000	29.609801
1827.000000	29.559310
1826.000000	29.512244
1825.000000	29.476337
1824.000000	29.418334
1823.000000	29.357126
1822.000000	29.292273
1821.000000	29.277026
1820.000000	29.312159
1819.000000	29.332488
1818.000000	29.301553
1817.000000	29.230733
1816.000000	29.188197
1815.000000	29.151407
1814.000000	29.134834
1813.000000	29.119808
1812.000000	29.082686
1811.000000	29.040261
1810.000000	29.015954
1809.000000	28.989217
1808.000000	28.936185
1807.000000	28.879397
1806.000000	28.845258
1805.000000	28.803716
1804.000000	28.753115
1803.000000	28.706381
1802.000000	28.658541
1801.000000	28.611918
1800.000000	28.573138
1799.000000	28.525741
1798.000000	28.477239
1797.000000	28.420671
1796.000000	28.359353
1795.000000	28.324772
1794.000000	28.282457
1793.000000	28.227436
1792.000000	28.177830
1791.000000	28.127228
1790.000000	28.087454
1789.000000	28.045360
1788.000000	28.009895
1787.000000	27.973546
1786.000000	27.923166
1785.000000	27.890905
1784.000000	27.863837
1783.000000	27.825941
1782.000000	27.779648
1781.000000	27.713469
1780.000000	27.669939
1779.000000	27.641103
1778.000000	27.590170
1777.000000	27.534818
1776.000000	27.479355
1775.000000	27.407099
1774.000000	27.339705
1773.000000	27.290098
1772.000000	27.229443
1771.000000	27.161606
1770.000000	27.086809
1769.000000	27.011901
1768.000000	26.948263
1767.000000	26.879874
1766.000000	26.815021
1765.000000	26.764972
1764.000000	26.709951
1763.000000	26.671613
1762.000000	26.650843
1761.000000	26.643330
1760.000000	26.647418
1759.000000	26.676254
1758.000000	26.717685
1757.000000	26.760773
1756.000000	26.812700
1755.000000	26.877333
1754.000000	26.925393
1753.000000	26.970360
1752.000000	27.012233
1751.000000	27.036429
1750.000000	27.059409
1749.000000	27.058746
1748.000000	27.064602
1747.000000	27.053001
1746.000000	27.016431
1745.000000	26.976657
1744.000000	26.915781
1743.000000	26.849933
1742.000000	26.780329
1741.000000	26.658466
1740.000000	26.549972
1739.000000	26.426672
1738.000000	26.296413
1737.000000	26.175986
1736.000000	26.055118
1735.000000	25.939442
1734.000000	25.849509
1733.000000	25.788854
1732.000000	25.741346
1731.000000	25.712399
1730.000000	25.722453
1729.000000	25.743224
1728.000000	25.787196
1727.000000	25.856359
1726.000000	25.893039
1725.000000	25.959218
1724.000000	26.022636
1723.000000	26.086053
1722.000000	26.150907
1721.000000	26.208910
1720.000000	26.299285
1719.000000	26.403471
1718.000000	26.496608
1717.000000	26.596043
1716.000000	26.708736
1715.000000	26.834024
1714.000000	26.934342
1713.000000	27.069463
1712.000000	27.190995
1711.000000	27.281259
1710.000000	27.371524
1709.000000	27.443006
1708.000000	27.502999
1707.000000	27.549402
1706.000000	27.573156
1705.000000	27.570946
1704.000000	27.548407
1703.000000	27.511616
1702.000000	27.471732
1701.000000	27.390969
1700.000000	27.323906
1699.000000	27.234967
1698.000000	27.132659
1697.000000	27.033225
1696.000000	26.932022
1695.000000	26.870925
1694.000000	26.817451
1693.000000	26.794360
1692.000000	26.799000
1691.000000	26.861976
1690.000000	26.937657
1689.000000	27.024607
1688.000000	27.134206
1687.000000	27.253196
1686.000000	27.379368
1685.000000	27.505208
1684.000000	27.597793
1683.000000	27.748271
1682.000000	27.944047
1681.000000	28.182249
1680.000000	28.462434
1679.000000	28.799076
1678.000000	29.132182
1677.000000	29.534672
1676.000000	29.900040
1675.000000	30.273031
1674.000000	30.636962
1673.000000	30.923445
1672.000000	31.220423
1671.000000	31.492764
1670.000000	31.717266
1669.000000	31.942762
1668.000000	32.141632
1667.000000	32.352323
1666.000000	32.479820
1665.000000	32.605661
1664.000000	32.708078
1663.000000	32.822870
1662.000000	32.911036
1661.000000	32.978430
1660.000000	33.082285
1659.000000	33.131781
1658.000000	33.191331
1657.000000	33.219284
1656.000000	33.259389
1655.000000	33.297948
1654.000000	33.309659
1653.000000	33.290214
1652.000000	33.295186
1651.000000	33.299826
1650.000000	33.268780
1649.000000	33.230332
1648.000000	33.198292
1647.000000	33.179841
1646.000000	33.123716
1645.000000	33.082947
1644.000000	33.012017
1643.000000	32.968156
1642.000000	32.918659
1641.000000	32.843199
1640.000000	32.801878
1639.000000	32.755034
1638.000000	32.709404
1637.000000	32.650185
1636.000000	32.573620
1635.000000	32.516832
1634.000000	32.465347
1633.000000	32.389224
1632.000000	32.306583
1631.000000	32.242503
1630.000000	32.163618
1629.000000	32.088931
1628.000000	31.994689
1627.000000	31.914699
1626.000000	31.806647
1625.000000	31.718371
1624.000000	31.656390
1623.000000	31.556844
1622.000000	31.469673
1621.000000	31.373001
1620.000000	31.306379
1619.000000	31.215120
1618.000000	31.140323
1617.000000	31.032713
1616.000000	30.960125
1615.000000	30.891736
1614.000000	30.806222
1613.000000	30.717725
1612.000000	30.639835
1611.000000	30.533550
1610.000000	30.467371
1609.000000	30.367163
1608.000000	30.290598
1607.000000	30.189506
1606.000000	30.090623
1605.000000	29.999585
1604.000000	29.908547
1603.000000	29.813200
1602.000000	29.705700
1601.000000	29.616982
1600.000000	29.518984
1599.000000	29.411815
1598.000000	29.312933
1597.000000	29.210405
1596.000000	29.100584
1595.000000	29.020595
1594.000000	28.924364
1593.000000	28.852550
1592.000000	28.768251
1591.000000	28.680417
1590.000000	28.593135
1589.000000	28.504197
1588.000000	28.402110
1587.000000	28.327203
1586.000000	28.240142
1585.000000	28.162141
1584.000000	28.092205
1583.000000	28.007133
1582.000000	27.913775
1581.000000	27.857208
1580.000000	27.791912
1579.000000	27.723192
1578.000000	27.648726
1577.000000	27.581994
1576.000000	27.527747
1575.000000	27.473058
1574.000000	27.419142
1573.000000	27.368762
1572.000000	27.332855
1571.000000	27.279933
1570.000000	27.253086
1569.000000	27.219831
1568.000000	27.182598
1567.000000	27.156413
1566.000000	27.124926
1565.000000	27.074435
1564.000000	27.057089
1563.000000	27.023723
1562.000000	26.983728
1561.000000	26.945501
1560.000000	26.903628
1559.000000	26.859214
1558.000000	26.800437
1557.000000	26.750830
1556.000000	26.693821
1555.000000	26.620128
1554.000000	26.550745
1553.000000	26.493515
1552.000000	26.429766
1551.000000	26.338065
1550.000000	26.259953
1549.000000	26.160740
1548.000000	26.071801
1547.000000	26.004738
1546.000000	25.914362
1545.000000	25.839897
1544.000000	25.767088
1543.000000	25.703229
1542.000000	25.644121
1541.000000	25.572086
1540.000000	25.503365
1539.000000	25.454974
1538.000000	25.402273
1537.000000	25.333000
1536.000000	25.272898
1535.000000	25.208707
1534.000000	25.143080
1533.000000	25.078889
1532.000000	25.013041
1531.000000	24.934267
1530.000000	24.857592
1529.000000	24.780695
1528.000000	24.707997
1527.000000	24.631433
1526.000000	24.549123
1525.000000	24.477088
1524.000000	24.391684
1523.000000	24.310811
1522.000000	24.230710
1521.000000	24.137905
1520.000000	24.055926
1519.000000	23.979030
1518.000000	23.898709
1517.000000	23.811538
1516.000000	23.727791
1515.000000	23.639294
1514.000000	23.540965
1513.000000	23.457329
1512.000000	23.372809
1511.000000	23.280887
1510.000000	23.195594
1509.000000	23.112511
1508.000000	23.013850
1507.000000	22.901378
1506.000000	22.822603
1505.000000	22.741509
1504.000000	22.652128
1503.000000	22.565399
1502.000000	22.452043
1501.000000	22.369733
1500.000000	22.300460
1499.000000	22.219697
1498.000000	22.144569
1497.000000	22.062038
1496.000000	21.987130
1495.000000	21.914874
1494.000000	21.842950
1493.000000	21.775776
1492.000000	21.691809
1491.000000	21.621652
1490.000000	21.572708
1489.000000	21.513158
1488.000000	21.467307
1487.000000	21.412839
1486.000000	21.363343
1485.000000	21.308543
1484.000000	21.250760
1483.000000	21.197397
1482.000000	21.137184
1481.000000	21.106470
1480.000000	21.063381
1479.000000	21.016757
1478.000000	20.979966
1477.000000	20.954334
1476.000000	20.914118
1475.000000	20.891469
1474.000000	20.853021
1473.000000	20.843299
1472.000000	20.839542
1471.000000	20.831035
1470.000000	20.813910
1469.000000	20.792698
1468.000000	20.782975
1467.000000	20.766403
1466.000000	20.775794
1465.000000	20.781097
1464.000000	20.785516
1463.000000	20.799768
1462.000000	20.821202
1461.000000	20.823412
1460.000000	20.849154
1459.000000	20.877770
1458.000000	20.908373
1457.000000	20.942181
1456.000000	20.997865
1455.000000	21.059846
1454.000000	21.103928
1453.000000	21.155303
1452.000000	21.218389
1451.000000	21.306112
1450.000000	21.362790
1449.000000	21.423887
1448.000000	21.500673
1447.000000	21.573813
1446.000000	21.650930
1445.000000	21.743515
1444.000000	21.807374
1443.000000	21.885707
1442.000000	21.966138
1441.000000	22.053310
1440.000000	22.163351
1439.000000	22.283556
1438.000000	22.372606
1437.000000	22.486293
1436.000000	22.616663
1435.000000	22.731013
1434.000000	22.848677
1433.000000	22.993631
1432.000000	23.152837
1431.000000	23.287958
1430.000000	23.449595
1429.000000	23.600515
1428.000000	23.764030
1427.000000	23.946879
1426.000000	24.129618
1425.000000	24.363622
1424.000000	24.560171
1423.000000	24.788871
1422.000000	25.035911
1421.000000	25.248149
1420.000000	25.507453
1419.000000	25.783992
1418.000000	26.066387
1417.000000	26.391318
1416.000000	26.640126
1415.000000	26.946827
1414.000000	27.283358
1413.000000	27.671485
1412.000000	28.051658
1411.000000	28.379130
1410.000000	28.759634
1409.000000	29.206096
1408.000000	29.677859
1407.000000	30.160007
1406.000000	30.611662
1405.000000	31.076464
1404.000000	31.611092
1403.000000	32.100974
1402.000000	32.629856
1401.000000	33.106038
1400.000000	33.722976
1399.000000	34.401342
1398.000000	34.948896
1397.000000	35.348845
1396.000000	35.856626
1395.000000	36.527147
1394.000000	37.236449
1393.000000	37.761465
1392.000000	38.300401
1391.000000	38.995340
1390.000000	39.654924
1389.000000	40.214963
1388.000000	40.852340
1387.000000	41.637543
1386.000000	42.352258
1385.000000	43.075702
1384.000000	43.678608
1383.000000	44.385921
1382.000000	45.113231
1381.000000	45.781101
1380.000000	46.397597
1379.000000	46.778653
1378.000000	47.251852
1377.000000	47.601752
1376.000000	47.944360
1375.000000	48.238577
1374.000000	48.550912
1373.000000	48.853415
1372.000000	49.162547
1371.000000	49.483058
1370.000000	49.875826
1369.000000	50.174793
1368.000000	50.441609
1367.000000	50.759469
1366.000000	51.041643
1365.000000	51.291998
1364.000000	51.534619
1363.000000	51.735035
1362.000000	51.911035
1361.000000	52.135647
1360.000000	52.386775
1359.000000	52.534822
1358.000000	52.615696
1357.000000	52.745624
1356.000000	52.917867
1355.000000	53.107787
1354.000000	53.329527
1353.000000	53.633024
1352.000000	53.874540
1351.000000	54.211624
1350.000000	54.593564
1349.000000	54.927776
1348.000000	55.289939
1347.000000	55.665140
1346.000000	56.010289
1345.000000	56.298318
1344.000000	56.621702
1343.000000	56.983534
1342.000000	57.259853
1341.000000	57.577934
1340.000000	57.904080
1339.000000	58.223707
1338.000000	58.526210
1337.000000	58.821310
1336.000000	59.118731
1335.000000	59.417477
1334.000000	59.699872
1333.000000	59.978952
1332.000000	60.281897
1331.000000	60.561530
1330.000000	60.823816
1329.000000	61.091406
1328.000000	61.369603
1327.000000	61.619184
1326.000000	61.874842
1325.000000	62.109287
1324.000000	62.331137
1323.000000	62.566908
1322.000000	62.817705
1321.000000	63.040770
1320.000000	63.225387
1319.000000	63.423484
1318.000000	63.604676
1317.000000	63.817024
1316.000000	64.000537
1315.000000	64.188248
1314.000000	64.388664
1313.000000	64.548643
1312.000000	64.707297
1311.000000	64.866835
1310.000000	65.011457
1309.000000	65.150776
1308.000000	65.258387
1307.000000	65.399142
1306.000000	65.529512
1305.000000	65.632483
1304.000000	65.738988
1303.000000	65.829805
1302.000000	65.922722
1301.000000	66.007352
1300.000000	66.095075
1299.000000	66.170756
1298.000000	66.245664
1297.000000	66.322229
1296.000000	66.378685
1295.000000	66.422879
1294.000000	66.476021
1293.000000	66.506625
1292.000000	66.550818
1291.000000	66.567612
1290.000000	66.600425
1289.000000	66.619981
1288.000000	66.637658
1287.000000	66.645171
1286.000000	66.656440
1285.000000	66.644287
1284.000000	66.626830
1283.000000	66.632023
1282.000000	66.607606
1281.000000	66.581090
1280.000000	66.562750
1279.000000	66.549824
1278.000000	66.524302
1277.000000	66.488948
1276.000000	66.475800
1275.000000	66.463315
1274.000000	66.458344
1273.000000	66.439783
1272.000000	66.418017
1271.000000	66.411057
1270.000000	66.405422
1269.000000	66.412935
1268.000000	66.407190
1267.000000	66.389955
1266.000000	66.369736
1265.000000	66.354048
1264.000000	66.342336
1263.000000	66.314495
1262.000000	66.298806
1261.000000	66.281129
1260.000000	66.242681
1259.000000	66.212408
1258.000000	66.195063
1257.000000	66.163464
1256.000000	66.118056
1255.000000	66.072647
1254.000000	66.023814
1253.000000	65.984813
1252.000000	65.930566
1251.000000	65.877645
1250.000000	65.815885
1249.000000	65.740093
1248.000000	65.662865
1247.000000	65.586080
1246.000000	65.492390
1245.000000	65.397927
1244.000000	65.317274
1243.000000	65.240599
1242.000000	65.148456
1241.000000	65.058854
1240.000000	64.966711
1239.000000	64.866614
1238.000000	64.782647
1237.000000	64.692934
1236.000000	64.599245
1235.000000	64.519144
1234.000000	64.416064
1233.000000	64.311215
1232.000000	64.229789
1231.000000	64.124499
1230.000000	64.017220
1229.000000	63.925077
1228.000000	63.811611
1227.000000	63.687538
1226.000000	63.574735
1225.000000	63.463368
1224.000000	63.339848
1223.000000	63.202186
1222.000000	63.076456
1221.000000	62.953047
1220.000000	62.821572
1219.000000	62.683468
1218.000000	62.543044
1217.000000	62.402178
1216.000000	62.268272
1215.000000	62.150718
1214.000000	62.039793
1213.000000	61.918814
1212.000000	61.784246
1211.000000	61.656527
1210.000000	61.537095
1209.000000	61.415453
1208.000000	61.289613
1207.000000	61.167861
1206.000000	61.055720
1205.000000	60.922920
1204.000000	60.820833
1203.000000	60.738081
1202.000000	60.645607
1201.000000	60.541090
1200.000000	60.471265
1199.000000	60.402102
1198.000000	60.330730
1197.000000	60.234941
1196.000000	60.117056
1195.000000	60.001601
1194.000000	59.868911
1193.000000	59.715671
1192.000000	59.516028
1191.000000	59.326218
1190.000000	59.127348
1189.000000	58.898207
1188.000000	58.678124
1187.000000	58.478592
1186.000000	58.346012
1185.000000	58.282705
1184.000000	58.278838
1183.000000	58.344907
1182.000000	58.473399
1181.000000	58.665640
1180.000000	58.921629
1179.000000	59.203471
1178.000000	59.501886
1177.000000	59.803395
1176.000000	60.082696
1175.000000	60.335260
1174.000000	60.562634
1173.000000	60.799731
1172.000000	61.021250
1171.000000	61.228847
1170.000000	61.450808
1169.000000	61.677630
1168.000000	61.913843
1167.000000	62.152155
1166.000000	62.399416
1165.000000	62.676618
1164.000000	62.947080
1163.000000	63.229365
1162.000000	63.515406
1161.000000	63.799237
1160.000000	64.082073
1159.000000	64.367009
1158.000000	64.660563
1157.000000	64.950029
1156.000000	65.217619
1155.000000	65.490843
1154.000000	65.756776
1153.000000	66.004369
1152.000000	66.215612
1151.000000	66.423100
1150.000000	66.628930
1149.000000	66.803161
1148.000000	66.984464
1147.000000	67.193940
1146.000000	67.401427
1145.000000	67.624935
1144.000000	67.864462
1143.000000	68.131831
1142.000000	68.427152
1141.000000	68.730097
1140.000000	69.066629
1139.000000	69.423158
1138.000000	69.784106
1137.000000	70.151573
1136.000000	70.533181
1135.000000	70.955890
1134.000000	71.366113
1133.000000	71.790479
1132.000000	72.107676
1131.000000	72.402555
1130.000000	72.675669
1129.000000	72.934200
1128.000000	73.150084
1127.000000	73.367183
1126.000000	73.502083
1125.000000	73.665929
1124.000000	73.751001
1123.000000	73.839830
1122.000000	73.902363
1121.000000	73.974619
1120.000000	74.018039
1119.000000	74.043450
1118.000000	74.067425
1117.000000	74.081456
1116.000000	74.127196
1115.000000	74.105763
1114.000000	74.108635
1113.000000	74.097145
1112.000000	74.081235
1111.000000	74.059912
1110.000000	74.060575
1109.000000	74.044113
1108.000000	74.028314
1107.000000	74.020138
1106.000000	74.013841
1105.000000	73.978376
1104.000000	73.983900
1103.000000	73.966996
1102.000000	73.938712
1101.000000	73.915069
1100.000000	73.907445
1099.000000	73.896397
1098.000000	73.886454
1097.000000	73.841156
1096.000000	73.834416
1095.000000	73.801050
1094.000000	73.773982
1093.000000	73.744483
1092.000000	73.694545
1091.000000	73.671785
1090.000000	73.620963
1089.000000	73.566605
1088.000000	73.530367
1087.000000	73.487057
1086.000000	73.425187
1085.000000	73.381767
1084.000000	73.336248
1083.000000	73.256700
1082.000000	73.214827
1081.000000	73.180798
1080.000000	73.104896
1079.000000	73.025569
1078.000000	72.987453
1077.000000	72.930996
1076.000000	72.859624
1075.000000	72.774110
1074.000000	72.686276
1073.000000	72.657219
1072.000000	72.583416
1071.000000	72.501327
1070.000000	72.438462
1069.000000	72.353390
1068.000000	72.270859
1067.000000	72.195952
1066.000000	72.134744
1065.000000	72.047684
1064.000000	71.976864
1063.000000	71.888477
1062.000000	71.799318
1061.000000	71.721427
1060.000000	71.644752
1059.000000	71.534048
1058.000000	71.436491
1057.000000	71.348878
1056.000000	71.268667
1055.000000	71.159952
1054.000000	71.075985
1053.000000	70.988482
1052.000000	70.910260
1051.000000	70.811157
1050.000000	70.718461
1049.000000	70.614386
1048.000000	70.544119
1047.000000	70.434520
1046.000000	70.347901
1045.000000	70.271005
1044.000000	70.196760
1043.000000	70.094895
1042.000000	69.988610
1041.000000	69.908731
1040.000000	69.822443
1039.000000	69.736156
1038.000000	69.649979
1037.000000	69.553859
1036.000000	69.454645
1035.000000	69.360403
1034.000000	69.258317
1033.000000	69.153137
1032.000000	69.062983
1031.000000	68.959239
1030.000000	68.839365
1029.000000	68.760922
1028.000000	68.644473
1027.000000	68.547137
1026.000000	68.428810
1025.000000	68.319431
1024.000000	68.212152
1023.000000	68.084765
1022.000000	67.967874
1021.000000	67.855623
1020.000000	67.752764
1019.000000	67.655428
1018.000000	67.571350
1017.000000	67.436893
1016.000000	67.343755
1015.000000	67.262550
1014.000000	67.201232
1013.000000	67.078485
1012.000000	66.962257
1011.000000	66.895415
1010.000000	66.817193
1009.000000	66.715990
1008.000000	66.649259
1007.000000	66.563634
1006.000000	66.515022
1005.000000	66.437573
1004.000000	66.370068
1003.000000	66.301568
1002.000000	66.242902
1001.000000	66.179595
1000.000000	66.100047
999.000000	66.017074
998.000000	65.953988
997.000000	65.904492
996.000000	65.846930
995.000000	65.774785
994.000000	65.686398
993.000000	65.629610
992.000000	65.583428
991.000000	65.521337
990.000000	65.454494
989.000000	65.394502
988.000000	65.334068
987.000000	65.277500
986.000000	65.242367
985.000000	65.196185
984.000000	65.142490
983.000000	65.111444
982.000000	65.051894
981.000000	64.996652
980.000000	64.966270
979.000000	64.924286
978.000000	64.871475
977.000000	64.845180
976.000000	64.814797
975.000000	64.784525
974.000000	64.736796
973.000000	64.701331
972.000000	64.664098
971.000000	64.626534
970.000000	64.590737
969.000000	64.581346
968.000000	64.584109
967.000000	64.546102
966.000000	64.500031
965.000000	64.468985
964.000000	64.461804
963.000000	64.458268
962.000000	64.431531
961.000000	64.410871
960.000000	64.389990
959.000000	64.387559
958.000000	64.401811
957.000000	64.383692
956.000000	64.360159
955.000000	64.349663
954.000000	64.361817
953.000000	64.373970
952.000000	64.362148
951.000000	64.371539
950.000000	64.373086
949.000000	64.351763
948.000000	64.353751
947.000000	64.360933
946.000000	64.332207
945.000000	64.303481
944.000000	64.290113
943.000000	64.251554
942.000000	64.210013
941.000000	64.185927
940.000000	64.147700
939.000000	64.096657
938.000000	64.039869
937.000000	63.988384
936.000000	63.968718
935.000000	63.927397
934.000000	63.859671
933.000000	63.801888
932.000000	63.748746
931.000000	63.712618
930.000000	63.654283
929.000000	63.575950
928.000000	63.509439
927.000000	63.466130
926.000000	63.392327
925.000000	63.302284
924.000000	63.227266
923.000000	63.157772
922.000000	63.068612
921.000000	63.012266
920.000000	62.962990
919.000000	62.866428
918.000000	62.761358
917.000000	62.679159
916.000000	62.584033
915.000000	62.479627
914.000000	62.377319
913.000000	62.287496
912.000000	62.193696
911.000000	62.086528
910.000000	61.988308
909.000000	61.882134
908.000000	61.783473
907.000000	61.683264
906.000000	61.593331
905.000000	61.492792
904.000000	61.405731
903.000000	61.313477
902.000000	61.191725
901.000000	61.085993
900.000000	61.003020
899.000000	60.927118
898.000000	60.839836
897.000000	60.742280
896.000000	60.612573
895.000000	60.519435
894.000000	60.425856
893.000000	60.318135
892.000000	60.168210
891.000000	60.057948
890.000000	59.950779
889.000000	59.817094
888.000000	59.665180
887.000000	59.515917
886.000000	59.349751
885.000000	59.182369
884.000000	59.015981
883.000000	58.864067
882.000000	58.687184
881.000000	58.509416
880.000000	58.336400
879.000000	58.174874
878.000000	57.986831
877.000000	57.765976
876.000000	57.517610
875.000000	57.327358
874.000000	57.074020
873.000000	56.798365
872.000000	56.556186
871.000000	56.432555
870.000000	56.379744
869.000000	56.355659
868.000000	56.334888
867.000000	56.312350
866.000000	56.299092
865.000000	56.265394
864.000000	56.238657
863.000000	56.205292
862.000000	56.148724
861.000000	56.124749
860.000000	56.107183
859.000000	56.063100
858.000000	56.035700
857.000000	55.532600
856.000000	56.362300
855.000000	56.212200
854.000000	56.384500
853.000000	55.678400
852.000000	56.279800
851.000000	56.242900
850.000000	56.491600
849.000000	56.227700
848.000000	56.081600
847.000000	56.496800
846.000000	56.428600
845.000000	55.936700
844.000000	56.124200
843.000000	56.503300
842.000000	56.230200
841.000000	56.005900
840.000000	55.759900
839.000000	55.757400
838.000000	55.736000
837.000000	55.593800
836.000000	55.641000
835.000000	55.471000
834.000000	55.496600
833.000000	55.364600
832.000000	55.369300
831.000000	55.245500
830.000000	55.031200
829.000000	54.986700
828.000000	54.974800
827.000000	54.826700
826.000000	54.982800
825.000000	54.758100
824.000000	54.445900
823.000000	54.410600
822.000000	54.585000
821.000000	54.423800
820.000000	54.327200
819.000000	54.093100
818.000000	54.153300
817.000000	53.954200
816.000000	53.777900
815.000000	53.761700
814.000000	53.717200
813.000000	53.521200
812.000000	53.483800
811.000000	53.237500
810.000000	53.276500
809.000000	53.171700
808.000000	53.023900
807.000000	52.936700
806.000000	52.832200
805.000000	52.714900
804.000000	52.640800
803.000000	52.531400
802.000000	52.367200
801.000000	52.390200
800.000000	52.258400
799.000000	51.906900
798.000000	51.961600
797.000000	51.852000
796.000000	51.754000
795.000000	51.583900
794.000000	51.366900
793.000000	51.265300
792.000000	51.222000
791.000000	51.133800
790.000000	50.838900
789.000000	50.726900
788.000000	50.667700
787.000000	50.453800
786.000000	50.562000
785.000000	50.349800
784.000000	50.223100
783.000000	50.048900
782.000000	49.898000
781.000000	49.876900
780.000000	49.512500
779.000000	49.501200
778.000000	49.358100
777.000000	49.158200
776.000000	48.953600
775.000000	48.856200
774.000000	48.588800
773.000000	48.535400
772.000000	48.420800
771.000000	48.367400
770.000000	48.139800
769.000000	47.974800
768.000000	47.788200
767.000000	47.771300
766.000000	47.636000
765.000000	47.407700
764.000000	47.264100
763.000000	47.053000
762.000000	46.882000
761.000000	46.709700
760.000000	46.589500
759.000000	46.346800
758.000000	46.217600
757.000000	46.011100
756.000000	45.847800
755.000000	45.767000
754.000000	45.488100
753.000000	45.430200
752.000000	45.226400
751.000000	45.123600
750.000000	44.921400
749.000000	44.711300
748.000000	44.622100
747.000000	44.379600
746.000000	44.138600
745.000000	44.080900
744.000000	43.921200
743.000000	43.688700
742.000000	43.494300
741.000000	43.332600
740.000000	43.060100
739.000000	42.872800
738.000000	42.657900
737.000000	42.499900
736.000000	42.331200
735.000000	42.208200
734.000000	41.981500
733.000000	41.800700
732.000000	41.547500
731.000000	41.355000
730.000000	41.219700
729.000000	40.996700
728.000000	40.736800
727.000000	40.520900
726.000000	40.364700
725.000000	40.172800
724.000000	39.950300
723.000000	39.717000
722.000000	39.507400
721.000000	39.255000
720.000000	39.053500
719.000000	38.848300
718.000000	38.662600
717.000000	38.444800
716.000000	38.247400
715.000000	37.997100
714.000000	37.787700
713.000000	37.602500
712.000000	37.351000
711.000000	37.148500
710.000000	36.878200
709.000000	36.657600
708.000000	36.469800
707.000000	36.211100
706.000000	35.970300
705.000000	35.750400
704.000000	35.535900
703.000000	35.336000
702.000000	35.089400
701.000000	34.839200
700.000000	34.687200
699.000000	34.461800
698.000000	34.232500
697.000000	33.993600
696.000000	33.756000
695.000000	33.556200
694.000000	33.299600
693.000000	33.077400
692.000000	32.886900
691.000000	32.679700
690.000000	32.440800
689.000000	32.238500
688.000000	32.046000
687.000000	31.850500
686.000000	31.642800
685.000000	31.442400
684.000000	31.248200
683.000000	31.060700
682.000000	30.831700
681.000000	30.622700
680.000000	30.449500
679.000000	30.244200
678.000000	30.035600
677.000000	29.842500
676.000000	29.635500
675.000000	29.457500
674.000000	29.274000
673.000000	29.085000
672.000000	28.895900
671.000000	28.728700
670.000000	28.589400
669.000000	28.432900
668.000000	28.261900
667.000000	28.085100
666.000000	27.929200
665.000000	27.768400
664.000000	27.589700
663.000000	27.447600
662.000000	27.298600
661.000000	27.141100
660.000000	26.960000
659.000000	26.786100
658.000000	26.664000
657.000000	26.554600
656.000000	26.418400
655.000000	26.275700
654.000000	26.144200
653.000000	26.033100
652.000000	25.911500
651.000000	25.784200
650.000000	25.669800
649.000000	25.562300
648.000000	25.464900
647.000000	25.352700
646.000000	25.249300
645.000000	25.154800
644.000000	25.055000
643.000000	24.937000
642.000000	24.828000
641.000000	24.736400
640.000000	24.677800
639.000000	24.611900
638.000000	24.522000
637.000000	24.458700
636.000000	24.402900
635.000000	24.345900
634.000000	24.264100
633.000000	24.195100
632.000000	24.150100
631.000000	24.097600
630.000000	24.042900
629.000000	23.989900
628.000000	23.947400
627.000000	23.909300
626.000000	23.879700
625.000000	23.866700
624.000000	23.832600
623.000000	23.814200
622.000000	23.795800
621.000000	23.753600
620.000000	23.732100
619.000000	23.746600
618.000000	23.733300
617.000000	23.720800
616.000000	23.717000
615.000000	23.728100
614.000000	23.742000
613.000000	23.758100
612.000000	23.787400
611.000000	23.797400
610.000000	23.809300
609.000000	23.842300
608.000000	23.864400
607.000000	23.894200
606.000000	23.923100
605.000000	23.972500
604.000000	24.035200
603.000000	24.070300
602.000000	24.105400
601.000000	24.165600
600.000000	24.204500
599.000000	24.236400
598.000000	24.277400
597.000000	24.326500
596.000000	24.358000
595.000000	24.413300
594.000000	24.460900
593.000000	24.495200
592.000000	24.516500
591.000000	24.568000
590.000000	24.593400
589.000000	24.632200
588.000000	24.653000
587.000000	24.673200
586.000000	24.683800
585.000000	24.685800
584.000000	24.708500
583.000000	24.731200
582.000000	24.741300
581.000000	24.718700
580.000000	24.717800
579.000000	24.705400
578.000000	24.672700
577.000000	24.654900
576.000000	24.637000
575.000000	24.600200
574.000000	24.575700
573.000000	24.560300
572.000000	24.504400
571.000000	24.466800
570.000000	24.414300
569.000000	24.347800
568.000000	24.271800
567.000000	24.200400
566.000000	24.121700
565.000000	24.049300
564.000000	23.980900
563.000000	23.895200
562.000000	23.818900
561.000000	23.717600
560.000000	23.602600
559.000000	23.501000
558.000000	23.403300
557.000000	23.265600
556.000000	23.158900
555.000000	23.051000
554.000000	22.916200
553.000000	22.786100
552.000000	22.647800
551.000000	22.514700
550.000000	22.368500
549.000000	22.190400
548.000000	22.044900
547.000000	21.888000
546.000000	21.716200
545.000000	21.546900
544.000000	21.361500
543.000000	21.173900
542.000000	20.994700
541.000000	20.803000
540.000000	20.596500
539.000000	20.415500
538.000000	20.209900
537.000000	20.014200
536.000000	19.816900
535.000000	19.617400
534.000000	19.415000
533.000000	19.185500
532.000000	18.967400
531.000000	18.760200
530.000000	18.547200
529.000000	18.339000
528.000000	18.110300
527.000000	17.906500
526.000000	17.688000
525.000000	17.481200
524.000000	17.259900
523.000000	17.046000
522.000000	16.830600
521.000000	16.622000
520.000000	16.413700
519.000000	16.214700
518.000000	16.016400
517.000000	15.834900
516.000000	15.623600
515.000000	15.438800
514.000000	15.252500
513.000000	15.087500
512.000000	14.904200
511.000000	14.733100
510.000000	14.568000
509.000000	14.379600
508.000000	14.229400
507.000000	14.082300
506.000000	13.933300
505.000000	13.793300
504.000000	13.662800
503.000000	13.513000
502.000000	13.367800
501.000000	13.240100
500.000000	13.123300
499.000000	13.019100
498.000000	12.897500
497.000000	12.780500
496.000000	12.680000
495.000000	12.590300
494.000000	12.482700
493.000000	12.392700
492.000000	12.280900
491.000000	12.193200
490.000000	12.110200
489.000000	12.035400
488.000000	11.943000
487.000000	11.864600
486.000000	11.792200
485.000000	11.713100
484.000000	11.639800
483.000000	11.581000
482.000000	11.492500
481.000000	11.407100
480.000000	11.307200
479.000000	11.229000
478.000000	11.150500
477.000000	11.076600
476.000000	11.007600
475.000000	10.948600
474.000000	10.874500
473.000000	10.802800
472.000000	10.724800
471.000000	10.649900
470.000000	10.598200
469.000000	10.547900
468.000000	10.487300
467.000000	10.425000
466.000000	10.360800
465.000000	10.325300
464.000000	10.253900
463.000000	10.217300
462.000000	10.150900
461.000000	10.100900
460.000000	10.056000
459.000000	10.009800
458.000000	9.952600
457.000000	9.901800
456.000000	9.845600
455.000000	9.820000
454.000000	9.744800
453.000000	9.704200
452.000000	9.669400
451.000000	9.631700
450.000000	9.581800
449.000000	9.531500
448.000000	9.514100
447.000000	9.460700
446.000000	9.394300
445.000000	9.365900
444.000000	9.332300
443.000000	9.288500
442.000000	9.235600
441.000000	9.205800
440.000000	9.144900
439.000000	9.097800
438.000000	9.067100
437.000000	9.017200
436.000000	8.972200
435.000000	8.905000
434.000000	8.874900
433.000000	8.834000
432.000000	8.787800
431.000000	8.739100
430.000000	8.706400
429.000000	8.662100
428.000000	8.627500
427.000000	8.583000
426.000000	8.541000
425.000000	8.496000
424.000000	8.442100
423.000000	8.387900
422.000000	8.348100
421.000000	8.313400
420.000000	8.265300
419.000000	8.220000
418.000000	8.175400
417.000000	8.133800
416.000000	8.086100
415.000000	8.022100
414.000000	7.964100
413.000000	7.943500
412.000000	7.891600
411.000000	7.865900
410.000000	7.796000
409.000000	7.729900
408.000000	7.691000
407.000000	7.634500
406.000000	7.596000
405.000000	7.535100
404.000000	7.509700
403.000000	7.442200
402.000000	7.394500
401.000000	7.341400
400.000000	7.284600
399.000000	7.222800
398.000000	7.169500
397.000000	7.113700
396.000000	7.054900
395.000000	7.014600
394.000000	6.952600
393.000000	6.870100
392.000000	6.816300
391.000000	6.741000
390.000000	6.696300
389.000000	6.642500
388.000000	6.568100
387.000000	6.488100
386.000000	6.440300
385.000000	6.404500
384.000000	6.331900
383.000000	6.271800
382.000000	6.218400
381.000000	6.160600
380.000000	6.110800
379.000000	6.043700
378.000000	5.984100
377.000000	5.941200
376.000000	5.949800
375.000000	5.677600
374.000000	5.290600
373.000000	5.590800
372.000000	5.520600
371.000000	5.457900
370.000000	5.324500
369.000000	5.363900
368.000000	5.366700
367.000000	5.260800
366.000000	5.297500
365.000000	5.258300
364.000000	5.100700
363.000000	5.152200
362.000000	5.112600
361.000000	4.987500
360.000000	5.019300
359.000000	4.965800
358.000000	4.960600
357.000000	5.026200
356.000000	5.075800
355.000000	4.951600
354.000000	4.868000
353.000000	4.958500
352.000000	4.807300
351.000000	4.769700
350.000000	5.037300
349.000000	4.990700
348.000000	4.810200
347.000000	4.699300
346.000000	4.619500
345.000000	4.606000
344.000000	4.469500
343.000000	4.376000
342.000000	4.557600
341.000000	4.653000
340.000000	4.763600
339.000000	4.868600
338.000000	4.828600
337.000000	4.947800
336.000000	5.107400
335.000000	4.929900
334.000000	4.837900
333.000000	5.057500
332.000000	5.052100
331.000000	4.659800
330.000000	4.701000
329.000000	4.850700
328.000000	4.956400
327.000000	4.744900
326.000000	4.525400
325.000000	4.668300
324.000000	4.767800
323.000000	4.746400
322.000000	4.785000
321.000000	4.710400
320.000000	4.973500
319.000000	4.675000
318.000000	4.621000
317.000000	5.156700
316.000000	4.702100
315.000000	4.263200
314.000000	4.256700
313.000000	4.269700
312.000000	4.273000
311.000000	4.257400
310.000000	4.294000
309.000000	4.279000
308.000000	4.185900
307.000000	4.243400
306.000000	4.317500
305.000000	4.318200
304.000000	4.292300
303.000000	4.299300
302.000000	4.249100
301.000000	4.256400
300.000000	4.298800
299.000000	4.313000
298.000000	4.314600
297.000000	4.267600
296.000000	4.296800
295.000000	4.318800
294.000000	4.287300
293.000000	4.267100
292.000000	4.288000
291.000000	4.290300
290.000000	4.299800
289.000000	4.291800
288.000000	4.299800
287.000000	4.260200
286.000000	4.285900
285.000000	4.258000
284.000000	4.269900
283.000000	4.292200
282.000000	4.289300
281.000000	4.298700
280.000000	4.294000
279.000000	4.345800
278.000000	4.370300
277.000000	4.335500
276.000000	4.325700
275.000000	4.331200
274.000000	4.327600
273.000000	4.316900
272.000000	4.356200
271.000000	4.372700
270.000000	4.388200
269.000000	4.373200
268.000000	4.396200
267.000000	4.414200
266.000000	4.464500
265.000000	4.489800
264.000000	4.485900
263.000000	4.511800
262.000000	4.514700
261.000000	4.527700
260.000000	4.587500
259.000000	4.610500
258.000000	4.606600
257.000000	4.564900
256.000000	4.579300
255.000000	4.578300
254.000000	4.599800
253.000000	4.661700
252.000000	4.624100
251.000000	4.603000
250.000000	4.655600
