PE UV       SUBTECH     SPECTRUM    ASCII       PEDS        4.00        
   -1
CICIMAUCR0233-3.Sample.ASC
24/06/13
17:34:49.00
24/06/13
17:34:49.00
Vinicio Soto Monge
C. resplendens. Sex F. Dorsal.
250,000000
1
Lambda 1050
1050L1511233
PerkinElmer UV WinLab 6.3.2.0749 / 2.02.05 Lambda 900 UV/VIS/NIR, Aug  7 2015 09:38:08

0
0
3350/servo 860,8/2
0
0
UV/VIS
1
1
1
DoubleDePol,CommonBeamDepol,RBeamAtt,SBeamAtt,60mm sphere, WB InGaAs Detector
0
0
0
0
Program
Program
3350/servo 860,8/2
3350/0,2 860,8/0,2
3350/0,2 860,8/0,2
0
15.00
 
 
 
0
 
860,8
319,2
860,8
Front
100
on
S:100 R:100
0
0
0
0
 
0
 
 
 
0
 
 
0
0
0
0
0
 
 
 
 
0
0


0
0
#HDR
-1
-1
#GR
nm
%R
1.0
0.0
2500,000000
-1,000000
2251
8
88,468100
5,541400
#DATA
2482.000000	6.133591
2481.000000	6.135189
2480.000000	6.168745
2479.000000	6.089915
2478.000000	6.018010
2477.000000	6.089915
2476.000000	6.090448
2475.000000	6.142859
2474.000000	6.128691
2473.000000	6.064029
2472.000000	6.133058
2471.000000	6.101633
2470.000000	6.064029
2469.000000	6.081500
2468.000000	6.098331
2467.000000	6.102166
2466.000000	6.071699
2465.000000	6.102485
2464.000000	6.068077
2463.000000	6.131034
2462.000000	6.104722
2461.000000	6.097905
2460.000000	6.147972
2459.000000	6.155003
2458.000000	6.164697
2457.000000	6.171728
2456.000000	6.214338
2455.000000	6.229465
2454.000000	6.226269
2453.000000	6.265152
2452.000000	6.283687
2451.000000	6.273780
2450.000000	6.292955
2449.000000	6.280491
2448.000000	6.314899
2447.000000	6.337909
2446.000000	6.384355
2445.000000	6.384248
2444.000000	6.428137
2443.000000	6.455089
2442.000000	6.462226
2441.000000	6.469683
2440.000000	6.484596
2439.000000	6.551176
2438.000000	6.578766
2437.000000	6.602948
2436.000000	6.625318
2435.000000	6.632242
2434.000000	6.659620
2433.000000	6.681138
2432.000000	6.712457
2431.000000	6.732164
2430.000000	6.750700
2429.000000	6.749635
2428.000000	6.757092
2427.000000	6.791713
2426.000000	6.825162
2425.000000	6.851155
2424.000000	6.877467
2423.000000	6.876508
2422.000000	6.906655
2421.000000	6.925830
2420.000000	6.961197
2419.000000	6.958001
2418.000000	6.965777
2417.000000	6.979732
2416.000000	7.007429
2415.000000	7.017656
2414.000000	7.043648
2413.000000	7.068575
2412.000000	7.080400
2411.000000	7.092011
2410.000000	7.102557
2409.000000	7.117578
2408.000000	7.139735
2407.000000	7.151773
2406.000000	7.169776
2405.000000	7.187566
2404.000000	7.200136
2403.000000	7.223572
2402.000000	7.231774
2401.000000	7.234331
2400.000000	7.251056
2399.000000	7.253612
2398.000000	7.260536
2397.000000	7.278646
2396.000000	7.283653
2395.000000	7.290577
2394.000000	7.296542
2393.000000	7.308687
2392.000000	7.316356
2391.000000	7.335957
2390.000000	7.347995
2389.000000	7.348314
2388.000000	7.346184
2387.000000	7.364080
2386.000000	7.385173
2385.000000	7.393162
2384.000000	7.401258
2383.000000	7.404241
2382.000000	7.405413
2381.000000	7.406691
2380.000000	7.394973
2379.000000	7.393056
2378.000000	7.414787
2377.000000	7.428209
2376.000000	7.425866
2375.000000	7.422457
2374.000000	7.419581
2373.000000	7.424694
2372.000000	7.414148
2371.000000	7.408289
2370.000000	7.424481
2369.000000	7.416385
2368.000000	7.398915
2367.000000	7.409674
2366.000000	7.404561
2365.000000	7.389114
2364.000000	7.377609
2363.000000	7.365465
2362.000000	7.355665
2361.000000	7.342136
2360.000000	7.323813
2359.000000	7.319446
2358.000000	7.304852
2357.000000	7.280244
2356.000000	7.280244
2355.000000	7.288873
2354.000000	7.256382
2353.000000	7.237314
2352.000000	7.231561
2351.000000	7.224317
2350.000000	7.231135
2349.000000	7.238272
2348.000000	7.237846
2347.000000	7.238912
2346.000000	7.254997
2345.000000	7.254038
2344.000000	7.258939
2343.000000	7.286316
2342.000000	7.291323
2341.000000	7.298140
2340.000000	7.316569
2339.000000	7.334892
2338.000000	7.360991
2337.000000	7.366744
2336.000000	7.375479
2335.000000	7.389434
2334.000000	7.381338
2333.000000	7.363548
2332.000000	7.372922
2331.000000	7.367170
2330.000000	7.355026
2329.000000	7.365891
2328.000000	7.345012
2327.000000	7.326476
2326.000000	7.314226
2325.000000	7.293453
2324.000000	7.276622
2323.000000	7.246795
2322.000000	7.218458
2321.000000	7.175209
2320.000000	7.150281
2319.000000	7.126419
2318.000000	7.090626
2317.000000	7.055899
2316.000000	7.008388
2315.000000	6.968973
2314.000000	6.920184
2313.000000	6.849131
2312.000000	6.807798
2311.000000	6.776160
2310.000000	6.745161
2309.000000	6.695093
2308.000000	6.667609
2307.000000	6.656211
2306.000000	6.641297
2305.000000	6.602095
2304.000000	6.584305
2303.000000	6.587714
2302.000000	6.601030
2301.000000	6.607741
2300.000000	6.634799
2299.000000	6.648647
2298.000000	6.663135
2297.000000	6.711498
2296.000000	6.716398
2295.000000	6.746013
2294.000000	6.794482
2293.000000	6.822925
2292.000000	6.847320
2291.000000	6.872353
2290.000000	6.897920
2289.000000	6.919651
2288.000000	6.937761
2287.000000	6.954485
2286.000000	6.944152
2285.000000	6.959386
2284.000000	6.948094
2283.000000	6.930837
2282.000000	6.929132
2281.000000	6.909957
2280.000000	6.888758
2279.000000	6.875762
2278.000000	6.850409
2277.000000	6.842313
2276.000000	6.825482
2275.000000	6.800235
2274.000000	6.761033
2273.000000	6.757198
2272.000000	6.756452
2271.000000	6.768383
2270.000000	6.759542
2269.000000	6.740580
2268.000000	6.728116
2267.000000	6.757837
2266.000000	6.779249
2265.000000	6.797785
2264.000000	6.835176
2263.000000	6.883965
2262.000000	6.935417
2261.000000	7.014673
2260.000000	7.070173
2259.000000	7.138990
2258.000000	7.234331
2257.000000	7.304425
2256.000000	7.412124
2255.000000	7.516733
2254.000000	7.608879
2253.000000	7.694952
2252.000000	7.794448
2251.000000	7.887872
2250.000000	7.985770
2249.000000	8.064280
2248.000000	8.163243
2247.000000	8.270409
2246.000000	8.324098
2245.000000	8.395152
2244.000000	8.476858
2243.000000	8.536406
2242.000000	8.597552
2241.000000	8.664558
2240.000000	8.702694
2239.000000	8.748820
2238.000000	8.781950
2237.000000	8.818276
2236.000000	8.865254
2235.000000	8.879528
2234.000000	8.932685
2233.000000	8.959317
2232.000000	8.972313
2231.000000	9.003312
2230.000000	9.009597
2229.000000	9.053486
2228.000000	9.044964
2227.000000	9.051569
2226.000000	9.045603
2225.000000	9.054126
2224.000000	9.037720
2223.000000	9.062754
2222.000000	9.061902
2221.000000	9.043793
2220.000000	9.043260
2219.000000	9.017800
2218.000000	9.010343
2217.000000	9.010130
2216.000000	8.985203
2215.000000	8.971461
2214.000000	8.954310
2213.000000	8.932366
2212.000000	8.915961
2211.000000	8.894229
2210.000000	8.889968
2209.000000	8.888796
2208.000000	8.879209
2207.000000	8.857371
2206.000000	8.860460
2205.000000	8.832231
2204.000000	8.819021
2203.000000	8.806451
2202.000000	8.805705
2201.000000	8.783228
2200.000000	8.778435
2199.000000	8.772469
2198.000000	8.755958
2197.000000	8.780246
2196.000000	8.758195
2195.000000	8.728687
2194.000000	8.726237
2193.000000	8.716543
2192.000000	8.708766
2191.000000	8.695663
2190.000000	8.702588
2189.000000	8.720910
2188.000000	8.696835
2187.000000	8.666049
2186.000000	8.676382
2185.000000	8.672334
2184.000000	8.662427
2183.000000	8.646661
2182.000000	8.652307
2181.000000	8.642081
2180.000000	8.636435
2179.000000	8.622586
2178.000000	8.633665
2177.000000	8.636541
2176.000000	8.597765
2175.000000	8.608844
2174.000000	8.618325
2173.000000	8.626741
2172.000000	8.626741
2171.000000	8.634411
2170.000000	8.624184
2169.000000	8.621308
2168.000000	8.624823
2167.000000	8.637180
2166.000000	8.641867
2165.000000	8.668925
2164.000000	8.663705
2163.000000	8.685117
2162.000000	8.709192
2161.000000	8.699072
2160.000000	8.740085
2159.000000	8.752016
2158.000000	8.780352
2157.000000	8.794840
2156.000000	8.809221
2155.000000	8.824454
2154.000000	8.825200
2153.000000	8.859714
2152.000000	8.876865
2151.000000	8.911060
2150.000000	8.921606
2149.000000	8.922352
2148.000000	8.958784
2147.000000	8.979663
2146.000000	8.972420
2145.000000	8.992234
2144.000000	9.008639
2143.000000	9.042727
2142.000000	9.044006
2141.000000	9.053380
2140.000000	9.074792
2139.000000	9.084379
2138.000000	9.086403
2137.000000	9.098760
2136.000000	9.110159
2135.000000	9.120172
2134.000000	9.127522
2133.000000	9.120811
2132.000000	9.117189
2131.000000	9.136045
2130.000000	9.110052
2129.000000	9.118787
2128.000000	9.123368
2127.000000	9.105471
2126.000000	9.100252
2125.000000	9.105045
2124.000000	9.093540
2123.000000	9.077668
2122.000000	9.051675
2121.000000	9.043686
2120.000000	9.043260
2119.000000	9.029731
2118.000000	8.997134
2117.000000	8.985522
2116.000000	8.972100
2115.000000	8.956547
2114.000000	8.914789
2113.000000	8.896573
2112.000000	8.871539
2111.000000	8.857797
2110.000000	8.839368
2109.000000	8.804960
2108.000000	8.779287
2107.000000	8.770126
2106.000000	8.755425
2105.000000	8.733480
2104.000000	8.706636
2103.000000	8.675743
2102.000000	8.640270
2101.000000	8.636115
2100.000000	8.615023
2099.000000	8.581041
2098.000000	8.580508
2097.000000	8.553983
2096.000000	8.521918
2095.000000	8.511053
2094.000000	8.506153
2093.000000	8.494328
2092.000000	8.470147
2091.000000	8.453528
2090.000000	8.425938
2089.000000	8.402822
2088.000000	8.390358
2087.000000	8.363513
2086.000000	8.351902
2085.000000	8.352967
2084.000000	8.331768
2083.000000	8.298532
2082.000000	8.281381
2081.000000	8.265722
2080.000000	8.244843
2079.000000	8.235255
2078.000000	8.211713
2077.000000	8.180074
2076.000000	8.142897
2075.000000	8.116158
2074.000000	8.109767
2073.000000	8.084733
2072.000000	8.057675
2071.000000	8.025930
2070.000000	7.997488
2069.000000	7.970324
2068.000000	7.944970
2067.000000	7.926221
2066.000000	7.887126
2065.000000	7.856873
2064.000000	7.836206
2063.000000	7.808403
2062.000000	7.783902
2061.000000	7.766432
2060.000000	7.740119
2059.000000	7.704326
2058.000000	7.691224
2057.000000	7.674606
2056.000000	7.654792
2055.000000	7.629971
2054.000000	7.619957
2053.000000	7.626669
2052.000000	7.625923
2051.000000	7.618892
2050.000000	7.614311
2049.000000	7.624112
2048.000000	7.628906
2047.000000	7.637854
2046.000000	7.659372
2045.000000	7.668747
2044.000000	7.672901
2043.000000	7.683660
2042.000000	7.704540
2041.000000	7.721584
2040.000000	7.745765
2039.000000	7.761638
2038.000000	7.769521
2037.000000	7.792104
2036.000000	7.804675
2035.000000	7.797963
2034.000000	7.801905
2033.000000	7.811918
2032.000000	7.835035
2031.000000	7.850375
2030.000000	7.843450
2029.000000	7.826726
2028.000000	7.828110
2027.000000	7.836526
2026.000000	7.845261
2025.000000	7.834076
2024.000000	7.836846
2023.000000	7.848564
2022.000000	7.811492
2021.000000	7.805314
2020.000000	7.787098
2019.000000	7.797963
2018.000000	7.796898
2017.000000	7.769734
2016.000000	7.743102
2015.000000	7.740972
2014.000000	7.735965
2013.000000	7.735965
2012.000000	7.702835
2011.000000	7.688880
2010.000000	7.664912
2009.000000	7.660864
2008.000000	7.626456
2007.000000	7.595563
2006.000000	7.584058
2005.000000	7.562646
2004.000000	7.547626
2003.000000	7.511939
2002.000000	7.486586
2001.000000	7.460061
2000.000000	7.440140
1999.000000	7.398808
1998.000000	7.371750
1997.000000	7.354386
1996.000000	7.308473
1995.000000	7.277261
1994.000000	7.252334
1993.000000	7.218139
1992.000000	7.204077
1991.000000	7.173078
1990.000000	7.150175
1989.000000	7.130041
1988.000000	7.072197
1987.000000	7.036511
1986.000000	7.025006
1985.000000	6.993474
1984.000000	6.950544
1983.000000	6.920823
1982.000000	6.909957
1981.000000	6.872673
1980.000000	6.858611
1979.000000	6.802791
1978.000000	6.769449
1977.000000	6.748676
1976.000000	6.708089
1975.000000	6.680499
1974.000000	6.653548
1973.000000	6.645984
1972.000000	6.614346
1971.000000	6.574718
1970.000000	6.550643
1969.000000	6.510695
1968.000000	6.485236
1967.000000	6.461800
1966.000000	6.461480
1965.000000	6.439216
1964.000000	6.412691
1963.000000	6.385846
1962.000000	6.350586
1961.000000	6.351119
1960.000000	6.339081
1959.000000	6.297642
1958.000000	6.279426
1957.000000	6.243740
1956.000000	6.239692
1955.000000	6.226269
1954.000000	6.190370
1953.000000	6.181102
1952.000000	6.181848
1951.000000	6.156494
1950.000000	6.154577
1949.000000	6.115908
1948.000000	6.106107
1947.000000	6.091726
1946.000000	6.102059
1945.000000	6.088211
1944.000000	6.061366
1943.000000	6.073191
1942.000000	6.055081
1941.000000	6.032284
1940.000000	6.033882
1939.000000	6.052631
1938.000000	6.054016
1937.000000	6.050074
1936.000000	6.032817
1935.000000	6.042830
1934.000000	6.041339
1933.000000	6.024082
1932.000000	6.075428
1931.000000	6.061046
1930.000000	6.087678
1929.000000	6.077345
1928.000000	6.101100
1927.000000	6.127839
1926.000000	6.140196
1925.000000	6.177480
1924.000000	6.204538
1923.000000	6.198359
1922.000000	6.227122
1921.000000	6.277935
1920.000000	6.305632
1919.000000	6.346644
1918.000000	6.384568
1917.000000	6.427818
1916.000000	6.461374
1915.000000	6.480655
1914.000000	6.545423
1913.000000	6.602415
1912.000000	6.662709
1911.000000	6.713522
1910.000000	6.785960
1909.000000	6.814403
1908.000000	6.869264
1907.000000	6.954272
1906.000000	7.023195
1905.000000	7.148470
1904.000000	7.216648
1903.000000	7.337875
1902.000000	7.420966
1901.000000	7.519396
1900.000000	7.638386
1899.000000	7.769201
1898.000000	7.923665
1897.000000	8.060552
1896.000000	8.189981
1895.000000	8.337840
1894.000000	8.496246
1893.000000	8.660084
1892.000000	8.852684
1891.000000	9.092475
1890.000000	9.347500
1889.000000	9.609875
1888.000000	9.861384
1887.000000	10.133560
1886.000000	10.409890
1885.000000	10.690268
1884.000000	11.024442
1883.000000	11.375448
1882.000000	11.741580
1881.000000	12.094183
1880.000000	12.442738
1879.000000	12.795980
1878.000000	13.123337
1877.000000	13.502039
1876.000000	13.864017
1875.000000	14.244530
1874.000000	14.607786
1873.000000	14.955702
1872.000000	15.315016
1871.000000	15.645781
1870.000000	15.966213
1869.000000	16.269282
1868.000000	16.565958
1867.000000	16.801808
1866.000000	16.993769
1865.000000	17.168047
1864.000000	17.366719
1863.000000	17.543234
1862.000000	17.716766
1861.000000	17.890298
1860.000000	18.051366
1859.000000	18.186122
1858.000000	18.355286
1857.000000	18.478538
1856.000000	18.582295
1855.000000	18.674760
1854.000000	18.762538
1853.000000	18.839450
1852.000000	18.889198
1851.000000	18.944059
1850.000000	19.015219
1849.000000	19.056232
1848.000000	19.102251
1847.000000	19.139962
1846.000000	19.175648
1845.000000	19.182679
1844.000000	19.159882
1843.000000	19.140601
1842.000000	19.161161
1841.000000	19.207287
1840.000000	19.230509
1839.000000	19.227420
1838.000000	19.223798
1837.000000	19.208245
1836.000000	19.197167
1835.000000	19.175648
1834.000000	19.162332
1833.000000	19.120361
1832.000000	19.081905
1831.000000	19.063263
1830.000000	19.031624
1829.000000	18.991464
1828.000000	18.948001
1827.000000	18.921689
1826.000000	18.885896
1825.000000	18.843711
1824.000000	18.792578
1823.000000	18.763816
1822.000000	18.764349
1821.000000	18.740274
1820.000000	18.724721
1819.000000	18.707677
1818.000000	18.669220
1817.000000	18.632149
1816.000000	18.611803
1815.000000	18.602961
1814.000000	18.575584
1813.000000	18.554278
1812.000000	18.551402
1811.000000	18.537447
1810.000000	18.498458
1809.000000	18.465648
1808.000000	18.440721
1807.000000	18.413663
1806.000000	18.382131
1805.000000	18.345379
1804.000000	18.304473
1803.000000	18.265804
1802.000000	18.230650
1801.000000	18.207427
1800.000000	18.171528
1799.000000	18.124976
1798.000000	18.089716
1797.000000	18.039648
1796.000000	17.998103
1795.000000	17.970299
1794.000000	17.942283
1793.000000	17.915225
1792.000000	17.877088
1791.000000	17.828512
1790.000000	17.796022
1789.000000	17.762466
1788.000000	17.719535
1787.000000	17.681825
1786.000000	17.652743
1785.000000	17.624940
1784.000000	17.589999
1783.000000	17.558148
1782.000000	17.530770
1781.000000	17.491355
1780.000000	17.442460
1779.000000	17.414869
1778.000000	17.366613
1777.000000	17.317930
1776.000000	17.289487
1775.000000	17.256464
1774.000000	17.205438
1773.000000	17.162295
1772.000000	17.124797
1771.000000	17.071960
1770.000000	17.014755
1769.000000	16.957976
1768.000000	16.910359
1767.000000	16.876910
1766.000000	16.818853
1765.000000	16.767933
1764.000000	16.742899
1763.000000	16.718718
1762.000000	16.722020
1761.000000	16.749291
1760.000000	16.755682
1759.000000	16.783060
1758.000000	16.818107
1757.000000	16.858907
1756.000000	16.921864
1755.000000	16.957870
1754.000000	17.015927
1753.000000	17.074197
1752.000000	17.109777
1751.000000	17.148446
1750.000000	17.160164
1749.000000	17.171775
1748.000000	17.167088
1747.000000	17.165384
1746.000000	17.152388
1745.000000	17.134917
1744.000000	17.095928
1743.000000	17.046394
1742.000000	16.987804
1741.000000	16.928256
1740.000000	16.832062
1739.000000	16.737466
1738.000000	16.630087
1737.000000	16.528141
1736.000000	16.432694
1735.000000	16.345768
1734.000000	16.260440
1733.000000	16.201531
1732.000000	16.186191
1731.000000	16.181930
1730.000000	16.187789
1729.000000	16.212077
1728.000000	16.258096
1727.000000	16.307844
1726.000000	16.350135
1725.000000	16.430883
1724.000000	16.477115
1723.000000	16.531763
1722.000000	16.595466
1721.000000	16.624229
1720.000000	16.650967
1719.000000	16.701354
1718.000000	16.753765
1717.000000	16.817574
1716.000000	16.864020
1715.000000	16.916538
1714.000000	16.985460
1713.000000	17.057153
1712.000000	17.122454
1711.000000	17.185091
1710.000000	17.231963
1709.000000	17.258382
1708.000000	17.282031
1707.000000	17.301631
1706.000000	17.296944
1705.000000	17.294494
1704.000000	17.257849
1703.000000	17.218008
1702.000000	17.171243
1701.000000	17.104983
1700.000000	17.040109
1699.000000	16.952650
1698.000000	16.878081
1697.000000	16.770277
1696.000000	16.701673
1695.000000	16.628490
1694.000000	16.590673
1693.000000	16.577463
1692.000000	16.579061
1691.000000	16.631685
1690.000000	16.699010
1689.000000	16.765696
1688.000000	16.830251
1687.000000	16.926125
1686.000000	16.975660
1685.000000	17.015607
1684.000000	17.060988
1683.000000	17.146955
1682.000000	17.233241
1681.000000	17.376200
1680.000000	17.546110
1679.000000	17.778232
1678.000000	18.053070
1677.000000	18.319707
1676.000000	18.585704
1675.000000	18.899105
1674.000000	19.142092
1673.000000	19.350458
1672.000000	19.556161
1671.000000	19.770280
1670.000000	19.902160
1669.000000	20.048314
1668.000000	20.160061
1667.000000	20.236760
1666.000000	20.329971
1665.000000	20.390371
1664.000000	20.458549
1663.000000	20.522997
1662.000000	20.559216
1661.000000	20.606088
1660.000000	20.646248
1659.000000	20.671921
1658.000000	20.704732
1657.000000	20.718687
1656.000000	20.743614
1655.000000	20.742549
1654.000000	20.732855
1653.000000	20.749899
1652.000000	20.739246
1651.000000	20.711336
1650.000000	20.698660
1649.000000	20.684065
1648.000000	20.632613
1647.000000	20.613864
1646.000000	20.588085
1645.000000	20.554103
1644.000000	20.512131
1643.000000	20.474421
1642.000000	20.413275
1641.000000	20.397189
1640.000000	20.345311
1639.000000	20.301848
1638.000000	20.278092
1637.000000	20.213644
1636.000000	20.163470
1635.000000	20.103495
1634.000000	20.067276
1633.000000	20.014545
1632.000000	19.933266
1631.000000	19.890442
1630.000000	19.825141
1629.000000	19.764634
1628.000000	19.713182
1627.000000	19.660451
1626.000000	19.601116
1625.000000	19.531234
1624.000000	19.496826
1623.000000	19.402124
1622.000000	19.340232
1621.000000	19.299006
1620.000000	19.252454
1619.000000	19.202386
1618.000000	19.128776
1617.000000	19.081905
1616.000000	19.013195
1615.000000	18.949599
1614.000000	18.914658
1613.000000	18.876521
1612.000000	18.827839
1611.000000	18.751459
1610.000000	18.708316
1609.000000	18.652815
1608.000000	18.582827
1607.000000	18.528286
1606.000000	18.477579
1605.000000	18.428364
1604.000000	18.375633
1603.000000	18.304154
1602.000000	18.272409
1601.000000	18.206149
1600.000000	18.152140
1599.000000	18.109423
1598.000000	18.032511
1597.000000	17.973282
1596.000000	17.936743
1595.000000	17.867927
1594.000000	17.829364
1593.000000	17.784623
1592.000000	17.716340
1591.000000	17.658815
1590.000000	17.627070
1589.000000	17.585099
1588.000000	17.528640
1587.000000	17.462806
1586.000000	17.415295
1585.000000	17.365974
1584.000000	17.329222
1583.000000	17.287570
1582.000000	17.234094
1581.000000	17.186796
1580.000000	17.154305
1579.000000	17.107007
1578.000000	17.083145
1577.000000	17.035315
1576.000000	16.990574
1575.000000	16.964901
1574.000000	16.934221
1573.000000	16.905033
1572.000000	16.887669
1571.000000	16.837921
1570.000000	16.804578
1569.000000	16.785084
1568.000000	16.780929
1567.000000	16.742367
1566.000000	16.726707
1565.000000	16.700821
1564.000000	16.660341
1563.000000	16.653097
1562.000000	16.643936
1561.000000	16.596105
1560.000000	16.569580
1559.000000	16.538368
1558.000000	16.516637
1557.000000	16.474772
1556.000000	16.470937
1555.000000	16.434398
1554.000000	16.379643
1553.000000	16.344809
1552.000000	16.325528
1551.000000	16.278656
1550.000000	16.253196
1549.000000	16.204407
1548.000000	16.136550
1547.000000	16.093406
1546.000000	16.065177
1545.000000	16.018305
1544.000000	15.986134
1543.000000	15.963870
1542.000000	15.919129
1541.000000	15.875240
1540.000000	15.828794
1539.000000	15.794919
1538.000000	15.767435
1537.000000	15.722480
1536.000000	15.689351
1535.000000	15.649403
1534.000000	15.620215
1533.000000	15.585061
1532.000000	15.527537
1531.000000	15.488868
1530.000000	15.439759
1529.000000	15.376375
1528.000000	15.331528
1527.000000	15.295735
1526.000000	15.249609
1525.000000	15.195919
1524.000000	15.144573
1523.000000	15.089712
1522.000000	15.035703
1521.000000	14.979990
1520.000000	14.925235
1519.000000	14.880920
1518.000000	14.832344
1517.000000	14.766297
1516.000000	14.703873
1515.000000	14.652633
1514.000000	14.592978
1513.000000	14.540248
1512.000000	14.480273
1511.000000	14.413907
1510.000000	14.362987
1509.000000	14.320803
1508.000000	14.257952
1507.000000	14.189775
1506.000000	14.119468
1505.000000	14.045432
1504.000000	14.003567
1503.000000	13.956908
1502.000000	13.893311
1501.000000	13.828437
1500.000000	13.774108
1499.000000	13.727343
1498.000000	13.681536
1497.000000	13.618899
1496.000000	13.567660
1495.000000	13.527712
1494.000000	13.479029
1493.000000	13.421292
1492.000000	13.376444
1491.000000	13.334260
1490.000000	13.291010
1489.000000	13.252873
1488.000000	13.214417
1487.000000	13.177133
1486.000000	13.164350
1485.000000	13.132392
1484.000000	13.078383
1483.000000	13.034281
1482.000000	12.984107
1481.000000	12.972708
1480.000000	12.954599
1479.000000	12.919338
1478.000000	12.882054
1477.000000	12.855955
1476.000000	12.846687
1475.000000	12.822932
1474.000000	12.811001
1473.000000	12.815794
1472.000000	12.800348
1471.000000	12.791080
1470.000000	12.784476
1469.000000	12.766899
1468.000000	12.737391
1467.000000	12.745593
1466.000000	12.741865
1465.000000	12.747724
1464.000000	12.774036
1463.000000	12.766473
1462.000000	12.760294
1461.000000	12.763490
1460.000000	12.780321
1459.000000	12.788843
1458.000000	12.814623
1457.000000	12.837100
1456.000000	12.868312
1455.000000	12.903572
1454.000000	12.927221
1453.000000	12.965997
1452.000000	13.002962
1451.000000	13.056119
1450.000000	13.103629
1449.000000	13.139742
1448.000000	13.181394
1447.000000	13.217826
1446.000000	13.289731
1445.000000	13.338414
1444.000000	13.407550
1443.000000	13.455061
1442.000000	13.486167
1441.000000	13.556048
1440.000000	13.619431
1439.000000	13.680045
1438.000000	13.756531
1437.000000	13.835041
1436.000000	13.922180
1435.000000	13.998666
1434.000000	14.072063
1433.000000	14.149188
1432.000000	14.252093
1431.000000	14.344452
1430.000000	14.439261
1429.000000	14.533430
1428.000000	14.637187
1427.000000	14.735724
1426.000000	14.870800
1425.000000	14.999271
1424.000000	15.152989
1423.000000	15.300848
1422.000000	15.446150
1421.000000	15.595181
1420.000000	15.749751
1419.000000	15.952685
1418.000000	16.129519
1417.000000	16.305181
1416.000000	16.484252
1415.000000	16.711154
1414.000000	16.952757
1413.000000	17.191163
1412.000000	17.405495
1411.000000	17.639214
1410.000000	17.895198
1409.000000	18.206043
1408.000000	18.513905
1407.000000	18.813564
1406.000000	19.157006
1405.000000	19.472751
1404.000000	19.843251
1403.000000	20.195428
1402.000000	20.580202
1401.000000	20.932273
1400.000000	21.352307
1399.000000	21.784379
1398.000000	22.154453
1397.000000	22.485005
1396.000000	22.862216
1395.000000	23.326885
1394.000000	23.769290
1393.000000	24.123811
1392.000000	24.518918
1391.000000	24.995199
1390.000000	25.425247
1389.000000	25.895668
1388.000000	26.378873
1387.000000	26.928444
1386.000000	27.453195
1385.000000	27.980075
1384.000000	28.529646
1383.000000	29.102866
1382.000000	29.684928
1381.000000	30.224059
1380.000000	30.696079
1379.000000	31.018002
1378.000000	31.399154
1377.000000	31.691677
1376.000000	31.970244
1375.000000	32.207479
1374.000000	32.457284
1373.000000	32.728074
1372.000000	33.026029
1371.000000	33.300442
1370.000000	33.635255
1369.000000	33.932145
1368.000000	34.210073
1367.000000	34.461369
1366.000000	34.728964
1365.000000	34.935946
1364.000000	35.150597
1363.000000	35.336699
1362.000000	35.520457
1361.000000	35.723284
1360.000000	35.872315
1359.000000	35.961051
1358.000000	36.073544
1357.000000	36.176448
1356.000000	36.314400
1355.000000	36.504231
1354.000000	36.717497
1353.000000	37.004267
1352.000000	37.276229
1351.000000	37.662708
1350.000000	38.051637
1349.000000	38.408927
1348.000000	38.771118
1347.000000	39.098474
1346.000000	39.455019
1345.000000	39.742747
1344.000000	40.078732
1343.000000	40.395543
1342.000000	40.681993
1341.000000	40.996353
1340.000000	41.309861
1339.000000	41.600146
1338.000000	41.895118
1337.000000	42.216935
1336.000000	42.517447
1335.000000	42.817745
1334.000000	43.084595
1333.000000	43.384574
1332.000000	43.684233
1331.000000	43.978034
1330.000000	44.265762
1329.000000	44.529522
1328.000000	44.787423
1327.000000	45.050970
1326.000000	45.321335
1325.000000	45.574016
1324.000000	45.842783
1323.000000	46.058819
1322.000000	46.271659
1321.000000	46.491530
1320.000000	46.712466
1319.000000	46.927117
1318.000000	47.123020
1317.000000	47.333303
1316.000000	47.549446
1315.000000	47.720741
1314.000000	47.903434
1313.000000	48.070894
1312.000000	48.233347
1311.000000	48.409329
1310.000000	48.567095
1309.000000	48.720813
1308.000000	48.861641
1307.000000	48.999913
1306.000000	49.116346
1305.000000	49.226175
1304.000000	49.331850
1303.000000	49.436033
1302.000000	49.539577
1301.000000	49.632788
1300.000000	49.694573
1299.000000	49.773722
1298.000000	49.836253
1297.000000	49.908692
1296.000000	49.951302
1295.000000	50.012981
1294.000000	50.062942
1293.000000	50.094048
1292.000000	50.131439
1291.000000	50.163077
1290.000000	50.201214
1289.000000	50.211334
1288.000000	50.211121
1287.000000	50.219536
1286.000000	50.220815
1285.000000	50.199722
1284.000000	50.161905
1283.000000	50.134208
1282.000000	50.124408
1281.000000	50.089148
1280.000000	50.054740
1279.000000	50.020331
1278.000000	49.982621
1277.000000	49.950663
1276.000000	49.906028
1275.000000	49.881421
1274.000000	49.857452
1273.000000	49.838171
1272.000000	49.811859
1271.000000	49.778836
1270.000000	49.752523
1269.000000	49.729407
1268.000000	49.690099
1267.000000	49.657928
1266.000000	49.631722
1265.000000	49.609991
1264.000000	49.567487
1263.000000	49.524024
1262.000000	49.494622
1261.000000	49.455527
1260.000000	49.416751
1259.000000	49.367962
1258.000000	49.324925
1257.000000	49.280504
1256.000000	49.235017
1255.000000	49.191554
1254.000000	49.129662
1253.000000	49.068835
1252.000000	49.016850
1251.000000	48.950591
1250.000000	48.881029
1249.000000	48.814343
1248.000000	48.741692
1247.000000	48.668295
1246.000000	48.591170
1245.000000	48.486667
1244.000000	48.388982
1243.000000	48.295026
1242.000000	48.193506
1241.000000	48.105941
1240.000000	47.988655
1239.000000	47.872115
1238.000000	47.778265
1237.000000	47.663323
1236.000000	47.546783
1235.000000	47.424384
1234.000000	47.297617
1233.000000	47.184060
1232.000000	47.058784
1231.000000	46.929354
1230.000000	46.788846
1229.000000	46.649722
1228.000000	46.498028
1227.000000	46.352939
1226.000000	46.222976
1225.000000	46.067980
1224.000000	45.912664
1223.000000	45.757774
1222.000000	45.596067
1221.000000	45.445971
1220.000000	45.290442
1219.000000	45.129374
1218.000000	44.982260
1217.000000	44.828755
1216.000000	44.692295
1215.000000	44.551040
1214.000000	44.416710
1213.000000	44.280356
1212.000000	44.149968
1211.000000	44.025225
1210.000000	43.877153
1209.000000	43.760080
1208.000000	43.638107
1207.000000	43.526680
1206.000000	43.431339
1205.000000	43.336424
1204.000000	43.257381
1203.000000	43.181534
1202.000000	43.106965
1201.000000	43.050932
1200.000000	43.004913
1199.000000	42.945045
1198.000000	42.883792
1197.000000	42.812632
1196.000000	42.713882
1195.000000	42.576356
1194.000000	42.422319
1193.000000	42.232488
1192.000000	41.999621
1191.000000	41.717964
1190.000000	41.418731
1189.000000	41.125357
1188.000000	40.846789
1187.000000	40.593789
1186.000000	40.422281
1185.000000	40.329816
1184.000000	40.316606
1183.000000	40.417168
1182.000000	40.616159
1181.000000	40.886630
1180.000000	41.221870
1179.000000	41.600252
1178.000000	42.003988
1177.000000	42.391852
1176.000000	42.740833
1175.000000	43.067018
1174.000000	43.360392
1173.000000	43.622874
1172.000000	43.876407
1171.000000	44.133030
1170.000000	44.410958
1169.000000	44.700604
1168.000000	44.985030
1167.000000	45.264023
1166.000000	45.575614
1165.000000	45.895620
1164.000000	46.211152
1163.000000	46.519653
1162.000000	46.867569
1161.000000	47.217828
1160.000000	47.558075
1159.000000	47.893740
1158.000000	48.237821
1157.000000	48.576895
1156.000000	48.903932
1155.000000	49.214883
1154.000000	49.503251
1153.000000	49.770846
1152.000000	49.996256
1151.000000	50.204409
1150.000000	50.373893
1149.000000	50.546253
1148.000000	50.707002
1147.000000	50.903437
1146.000000	51.083787
1145.000000	51.314204
1144.000000	51.571892
1143.000000	51.889341
1142.000000	52.230866
1141.000000	52.587943
1140.000000	53.006167
1139.000000	53.431102
1138.000000	53.867115
1137.000000	54.328162
1136.000000	54.832566
1135.000000	55.337396
1134.000000	55.854157
1133.000000	56.332142
1132.000000	56.743548
1131.000000	57.135566
1130.000000	57.556665
1129.000000	57.913530
1128.000000	58.198808
1127.000000	58.458733
1126.000000	58.675834
1125.000000	58.847129
1124.000000	59.005108
1123.000000	59.139864
1122.000000	59.247137
1121.000000	59.335767
1120.000000	59.400642
1119.000000	59.480963
1118.000000	59.542855
1117.000000	59.589513
1116.000000	59.626904
1115.000000	59.660780
1114.000000	59.664721
1113.000000	59.661738
1112.000000	59.685068
1111.000000	59.678676
1110.000000	59.700195
1109.000000	59.722459
1108.000000	59.724589
1107.000000	59.735774
1106.000000	59.731407
1105.000000	59.737159
1104.000000	59.732579
1103.000000	59.748877
1102.000000	59.754843
1101.000000	59.740994
1100.000000	59.765708
1099.000000	59.730235
1098.000000	59.741207
1097.000000	59.725974
1096.000000	59.719689
1095.000000	59.707119
1094.000000	59.675693
1093.000000	59.655879
1092.000000	59.638622
1091.000000	59.623069
1090.000000	59.586424
1089.000000	59.552549
1088.000000	59.544346
1087.000000	59.500457
1086.000000	59.461362
1085.000000	59.398724
1084.000000	59.371666
1083.000000	59.345248
1082.000000	59.301572
1081.000000	59.253102
1080.000000	59.175764
1079.000000	59.141462
1078.000000	59.097360
1077.000000	59.046867
1076.000000	58.988170
1075.000000	58.966332
1074.000000	58.916371
1073.000000	58.857995
1072.000000	58.818047
1071.000000	58.740389
1070.000000	58.700122
1069.000000	58.645368
1068.000000	58.595833
1067.000000	58.542356
1066.000000	58.465657
1065.000000	58.429225
1064.000000	58.359876
1063.000000	58.304589
1062.000000	58.211059
1061.000000	58.158008
1060.000000	58.094305
1059.000000	58.029431
1058.000000	57.953797
1057.000000	57.890200
1056.000000	57.799014
1055.000000	57.737974
1054.000000	57.656800
1053.000000	57.575840
1052.000000	57.522896
1051.000000	57.422016
1050.000000	57.343612
1049.000000	57.264676
1048.000000	57.197990
1047.000000	57.127896
1046.000000	57.076337
1045.000000	57.006988
1044.000000	56.931354
1043.000000	56.842404
1042.000000	56.796385
1041.000000	56.727782
1040.000000	56.648526
1039.000000	56.587806
1038.000000	56.529642
1037.000000	56.434514
1036.000000	56.344818
1035.000000	56.298586
1034.000000	56.207079
1033.000000	56.130913
1032.000000	56.037809
1031.000000	55.975384
1030.000000	55.879723
1029.000000	55.792265
1028.000000	55.713648
1027.000000	55.621396
1026.000000	55.556095
1025.000000	55.473004
1024.000000	55.379900
1023.000000	55.284559
1022.000000	55.209777
1021.000000	55.132758
1020.000000	55.043382
1019.000000	54.959652
1018.000000	54.869957
1017.000000	54.813285
1016.000000	54.741912
1015.000000	54.677889
1014.000000	54.623028
1013.000000	54.569658
1012.000000	54.514797
1011.000000	54.460575
1010.000000	54.426593
1009.000000	54.390587
1008.000000	54.356072
1007.000000	54.338389
1006.000000	54.324860
1005.000000	54.308029
1004.000000	54.289600
1003.000000	54.259985
1002.000000	54.239106
1001.000000	54.208853
1000.000000	54.200330
999.000000	54.188932
998.000000	54.171781
997.000000	54.168159
996.000000	54.154844
995.000000	54.160170
994.000000	54.137799
993.000000	54.123631
992.000000	54.137373
991.000000	54.148132
990.000000	54.154737
989.000000	54.164644
988.000000	54.176149
987.000000	54.195537
986.000000	54.219292
985.000000	54.249333
984.000000	54.285232
983.000000	54.321025
982.000000	54.371945
981.000000	54.430854
980.000000	54.480069
979.000000	54.533120
978.000000	54.602255
977.000000	54.665958
976.000000	54.742658
975.000000	54.820315
974.000000	54.887640
973.000000	54.955924
972.000000	55.044661
971.000000	55.130308
970.000000	55.208392
969.000000	55.299792
968.000000	55.385759
967.000000	55.477478
966.000000	55.566748
965.000000	55.668161
964.000000	55.771811
963.000000	55.874397
962.000000	55.997328
961.000000	56.112803
960.000000	56.229237
959.000000	56.355471
958.000000	56.487457
957.000000	56.631695
956.000000	56.755798
955.000000	56.884802
954.000000	57.025737
953.000000	57.171891
952.000000	57.318898
951.000000	57.460472
950.000000	57.612805
949.000000	57.767056
948.000000	57.912997
947.000000	58.057660
946.000000	58.202749
945.000000	58.350715
944.000000	58.501237
943.000000	58.655914
942.000000	58.809845
941.000000	58.956958
940.000000	59.108226
939.000000	59.246604
938.000000	59.391800
937.000000	59.550098
936.000000	59.707119
935.000000	59.868081
934.000000	60.013383
933.000000	60.163159
932.000000	60.319008
931.000000	60.480502
930.000000	60.644021
929.000000	60.796567
928.000000	60.948367
927.000000	61.130421
926.000000	61.301397
925.000000	61.456073
924.000000	61.624279
923.000000	61.795041
922.000000	61.982741
921.000000	62.184929
920.000000	62.380085
919.000000	62.577586
918.000000	62.764753
917.000000	62.958951
916.000000	63.155919
915.000000	63.353206
914.000000	63.561892
913.000000	63.767062
912.000000	63.975215
911.000000	64.190080
910.000000	64.394717
909.000000	64.594348
908.000000	64.798773
907.000000	64.998830
906.000000	65.213694
905.000000	65.426960
904.000000	65.629041
903.000000	65.854132
902.000000	66.053870
901.000000	66.240185
900.000000	66.440135
899.000000	66.636038
898.000000	66.839823
897.000000	67.053942
896.000000	67.251336
895.000000	67.407717
894.000000	67.598080
893.000000	67.814862
892.000000	68.007781
891.000000	68.190048
890.000000	68.365391
889.000000	68.557672
888.000000	68.748142
887.000000	68.944044
886.000000	69.158376
885.000000	69.361948
884.000000	69.556572
883.000000	69.783474
882.000000	70.006434
881.000000	70.223429
880.000000	70.476430
879.000000	70.713132
878.000000	70.938755
877.000000	71.178334
876.000000	71.408431
875.000000	71.620952
874.000000	71.830277
873.000000	72.041306
872.000000	72.220271
871.000000	72.386453
870.000000	72.560411
869.000000	72.805209
868.000000	73.128198
867.000000	73.471320
866.000000	73.814336
865.000000	74.161826
864.000000	74.519436
863.000000	74.879070
862.000000	75.234229
861.000000	75.612612
860.000000	76.003565
859.000000	76.365010
858.000000	76.752767
857.000000	75.987000
856.000000	77.135000
855.000000	77.136300
854.000000	77.516900
853.000000	77.823300
852.000000	78.809000
851.000000	79.109100
850.000000	79.907400
849.000000	79.932800
848.000000	79.955400
847.000000	80.422100
846.000000	80.908400
845.000000	81.783300
844.000000	81.724500
843.000000	82.167200
842.000000	82.581500
841.000000	82.927000
840.000000	83.111800
839.000000	83.295300
838.000000	83.743300
837.000000	83.866900
836.000000	84.023400
835.000000	84.181200
834.000000	84.042700
833.000000	84.109900
832.000000	84.273900
831.000000	84.231700
830.000000	84.310200
829.000000	84.388200
828.000000	84.236300
827.000000	84.421300
826.000000	84.477400
825.000000	84.418600
824.000000	84.737400
823.000000	84.681400
822.000000	84.595500
821.000000	84.623900
820.000000	84.767600
819.000000	85.153900
818.000000	85.020900
817.000000	85.376200
816.000000	85.306100
815.000000	85.471300
814.000000	85.839100
813.000000	86.101600
812.000000	86.330500
811.000000	86.458700
810.000000	86.780500
809.000000	86.762200
808.000000	87.111500
807.000000	87.373800
806.000000	87.544500
805.000000	87.698000
804.000000	87.944400
803.000000	87.974800
802.000000	88.021600
801.000000	88.348400
800.000000	88.299800
799.000000	88.468100
798.000000	88.354600
797.000000	88.268800
796.000000	88.339700
795.000000	88.264300
794.000000	88.224500
793.000000	87.991800
792.000000	88.266700
791.000000	87.956200
790.000000	88.130200
789.000000	88.036200
788.000000	87.858300
787.000000	87.739000
786.000000	87.577100
785.000000	87.577700
784.000000	87.496000
783.000000	87.439800
782.000000	87.531600
781.000000	87.183700
780.000000	87.321600
779.000000	87.383200
778.000000	87.238500
777.000000	87.327400
776.000000	87.155500
775.000000	87.139300
774.000000	87.101800
773.000000	87.074800
772.000000	87.107700
771.000000	87.109800
770.000000	86.937300
769.000000	86.919900
768.000000	86.965900
767.000000	86.909900
766.000000	86.879000
765.000000	86.688400
764.000000	86.485700
763.000000	86.223100
762.000000	86.118500
761.000000	85.854300
760.000000	85.598600
759.000000	85.364800
758.000000	85.060800
757.000000	84.580800
756.000000	84.166100
755.000000	83.793800
754.000000	83.427100
753.000000	82.833600
752.000000	82.511200
751.000000	81.934000
750.000000	81.344800
749.000000	80.939000
748.000000	80.414700
747.000000	79.877800
746.000000	79.276400
745.000000	78.754500
744.000000	78.258000
743.000000	77.763700
742.000000	77.316700
741.000000	76.824000
740.000000	76.380300
739.000000	76.064600
738.000000	75.675900
737.000000	75.360300
736.000000	75.006900
735.000000	74.814300
734.000000	74.606900
733.000000	74.367300
732.000000	74.273500
731.000000	74.140000
730.000000	74.060100
729.000000	74.035700
728.000000	74.072700
727.000000	74.177400
726.000000	74.187500
725.000000	74.256000
724.000000	74.404400
723.000000	74.546500
722.000000	74.642300
721.000000	74.785700
720.000000	74.985000
719.000000	75.202800
718.000000	75.406300
717.000000	75.432400
716.000000	75.556400
715.000000	75.756900
714.000000	75.929900
713.000000	76.002900
712.000000	76.192200
711.000000	76.198600
710.000000	76.314700
709.000000	76.442400
708.000000	76.491000
707.000000	76.472500
706.000000	76.460700
705.000000	76.431300
704.000000	76.382900
703.000000	76.323200
702.000000	76.197000
701.000000	76.014000
700.000000	75.893400
699.000000	75.691400
698.000000	75.523500
697.000000	75.333000
696.000000	75.194900
695.000000	75.011400
694.000000	74.802000
693.000000	74.646300
692.000000	74.503600
691.000000	74.309800
690.000000	74.115600
689.000000	73.864000
688.000000	73.649500
687.000000	73.465500
686.000000	73.335400
685.000000	73.098100
684.000000	72.870100
683.000000	72.686700
682.000000	72.437300
681.000000	72.178400
680.000000	71.913300
679.000000	71.571400
678.000000	71.281200
677.000000	70.994700
676.000000	70.612500
675.000000	70.197500
674.000000	69.669000
673.000000	69.113500
672.000000	68.511000
671.000000	67.905600
670.000000	67.153100
669.000000	66.326200
668.000000	65.564900
667.000000	64.784600
666.000000	63.969700
665.000000	63.118900
664.000000	62.232400
663.000000	61.386800
662.000000	60.531000
661.000000	59.717700
660.000000	59.007300
659.000000	58.298700
658.000000	57.580700
657.000000	57.029300
656.000000	56.563700
655.000000	56.155300
654.000000	55.829600
653.000000	55.575100
652.000000	55.452600
651.000000	55.438000
650.000000	55.484400
649.000000	55.653200
648.000000	55.989100
647.000000	56.345900
646.000000	56.774200
645.000000	57.315900
644.000000	57.972000
643.000000	58.708700
642.000000	59.482100
641.000000	60.312600
640.000000	61.174200
639.000000	62.056500
638.000000	62.980100
637.000000	63.901500
636.000000	64.844600
635.000000	65.809500
634.000000	66.799100
633.000000	67.786900
632.000000	68.756800
631.000000	69.732100
630.000000	70.717300
629.000000	71.716800
628.000000	72.634200
627.000000	73.528700
626.000000	74.442100
625.000000	75.270800
624.000000	76.075000
623.000000	76.828800
622.000000	77.548100
621.000000	78.313900
620.000000	79.026800
619.000000	79.657300
618.000000	80.269300
617.000000	80.891100
616.000000	81.488400
615.000000	82.052600
614.000000	82.580300
613.000000	83.127700
612.000000	83.653900
611.000000	84.105700
610.000000	84.538600
609.000000	84.898800
608.000000	85.226300
607.000000	85.542100
606.000000	85.861900
605.000000	86.164500
604.000000	86.425200
603.000000	86.649900
602.000000	86.886900
601.000000	87.129700
600.000000	87.331200
599.000000	87.509600
598.000000	87.692400
597.000000	87.853700
596.000000	87.992600
595.000000	88.068200
594.000000	88.155700
593.000000	88.199300
592.000000	88.272000
591.000000	88.331700
590.000000	88.353600
589.000000	88.333600
588.000000	88.270400
587.000000	88.181800
586.000000	88.115300
585.000000	88.017800
584.000000	87.930700
583.000000	87.824700
582.000000	87.702500
581.000000	87.590300
580.000000	87.474200
579.000000	87.331300
578.000000	87.218200
577.000000	87.107500
576.000000	86.987900
575.000000	86.857400
574.000000	86.719100
573.000000	86.599400
572.000000	86.436800
571.000000	86.264800
570.000000	86.050200
569.000000	85.831200
568.000000	85.545400
567.000000	85.234000
566.000000	84.914400
565.000000	84.597300
564.000000	84.216300
563.000000	83.798200
562.000000	83.373900
561.000000	82.949000
560.000000	82.544700
559.000000	82.120800
558.000000	81.669200
557.000000	81.213600
556.000000	80.811000
555.000000	80.310900
554.000000	79.841500
553.000000	79.339200
552.000000	78.811700
551.000000	78.216300
550.000000	77.571000
549.000000	76.919200
548.000000	76.204500
547.000000	75.470700
546.000000	74.653300
545.000000	73.859300
544.000000	73.013400
543.000000	72.076600
542.000000	71.115500
541.000000	70.120900
540.000000	69.049900
539.000000	67.949800
538.000000	66.842800
537.000000	65.664200
536.000000	64.449700
535.000000	63.218000
534.000000	61.936400
533.000000	60.650600
532.000000	59.355100
531.000000	58.015600
530.000000	56.676600
529.000000	55.341800
528.000000	54.058800
527.000000	52.788200
526.000000	51.498900
525.000000	50.246900
524.000000	49.054900
523.000000	47.898400
522.000000	46.740600
521.000000	45.681800
520.000000	44.690100
519.000000	43.714700
518.000000	42.825400
517.000000	42.005800
516.000000	41.216900
515.000000	40.426100
514.000000	39.701200
513.000000	38.956500
512.000000	38.279800
511.000000	37.659000
510.000000	37.029300
509.000000	36.424300
508.000000	35.833600
507.000000	35.324000
506.000000	34.762900
505.000000	34.203200
504.000000	33.667300
503.000000	33.191500
502.000000	32.715200
501.000000	32.231000
500.000000	31.838900
499.000000	31.444100
498.000000	31.068200
497.000000	30.731000
496.000000	30.441700
495.000000	30.172600
494.000000	29.954600
493.000000	29.825200
492.000000	29.652100
491.000000	29.503800
490.000000	29.397600
489.000000	29.322900
488.000000	29.214200
487.000000	29.159500
486.000000	29.062100
485.000000	29.016900
484.000000	28.947500
483.000000	28.804100
482.000000	28.646800
481.000000	28.466200
480.000000	28.261400
479.000000	28.033000
478.000000	27.789000
477.000000	27.484500
476.000000	27.188800
475.000000	26.856200
474.000000	26.493300
473.000000	26.119000
472.000000	25.758000
471.000000	25.363000
470.000000	24.945000
469.000000	24.568100
468.000000	24.235700
467.000000	23.902200
466.000000	23.554200
465.000000	23.300700
464.000000	23.001100
463.000000	22.805200
462.000000	22.595100
461.000000	22.499300
460.000000	22.418100
459.000000	22.316800
458.000000	22.317000
457.000000	22.320100
456.000000	22.334800
455.000000	22.408900
454.000000	22.509700
453.000000	22.611600
452.000000	22.692500
451.000000	22.797900
450.000000	22.889900
449.000000	22.987900
448.000000	23.113300
447.000000	23.161500
446.000000	23.249000
445.000000	23.276400
444.000000	23.319100
443.000000	23.342100
442.000000	23.280700
441.000000	23.288500
440.000000	23.219800
439.000000	23.133200
438.000000	23.088600
437.000000	23.033500
436.000000	22.934600
435.000000	22.772700
434.000000	22.692100
433.000000	22.579200
432.000000	22.419300
431.000000	22.261100
430.000000	22.071000
429.000000	21.906900
428.000000	21.733300
427.000000	21.526600
426.000000	21.335400
425.000000	21.164400
424.000000	20.937400
423.000000	20.724000
422.000000	20.487700
421.000000	20.202100
420.000000	19.942300
419.000000	19.668700
418.000000	19.385600
417.000000	19.108700
416.000000	18.813600
415.000000	18.475300
414.000000	18.119000
413.000000	17.758600
412.000000	17.383500
411.000000	17.040900
410.000000	16.648500
409.000000	16.213900
408.000000	15.822600
407.000000	15.418900
406.000000	15.014700
405.000000	14.610700
404.000000	14.185900
403.000000	13.764900
402.000000	13.362500
401.000000	12.969100
400.000000	12.567700
399.000000	12.183600
398.000000	11.826600
397.000000	11.462800
396.000000	11.122500
395.000000	10.806100
394.000000	10.500600
393.000000	10.195800
392.000000	9.903700
391.000000	9.636500
390.000000	9.403200
389.000000	9.180100
388.000000	8.965500
387.000000	8.771800
386.000000	8.555500
385.000000	8.369200
384.000000	8.208900
383.000000	8.048700
382.000000	7.899100
381.000000	7.785200
380.000000	7.675000
379.000000	7.547400
378.000000	7.415100
377.000000	7.325800
376.000000	7.250200
375.000000	7.076100
374.000000	6.816900
373.000000	6.851600
372.000000	6.919000
371.000000	6.818300
370.000000	6.746000
369.000000	6.696100
368.000000	6.704500
367.000000	6.794500
366.000000	6.561800
365.000000	6.530200
364.000000	6.447600
363.000000	6.334000
362.000000	6.323200
361.000000	6.315400
360.000000	6.270600
359.000000	6.224600
358.000000	6.261500
357.000000	6.223300
356.000000	6.221600
355.000000	6.194000
354.000000	6.081300
353.000000	6.114000
352.000000	6.096400
351.000000	5.990900
350.000000	5.882000
349.000000	5.811700
348.000000	5.853400
347.000000	6.037800
346.000000	6.070500
345.000000	5.922500
344.000000	5.871600
343.000000	5.964900
342.000000	6.026700
341.000000	5.870700
340.000000	5.771900
339.000000	5.904800
338.000000	5.901700
337.000000	5.780100
336.000000	5.635800
335.000000	5.692800
334.000000	5.804400
333.000000	5.973800
332.000000	6.043800
331.000000	5.846600
330.000000	5.798400
329.000000	5.819100
328.000000	5.724600
327.000000	5.730200
326.000000	5.810800
325.000000	5.964400
324.000000	6.289800
323.000000	6.363500
322.000000	6.061900
321.000000	6.144700
320.000000	6.489500
319.000000	6.633000
318.000000	6.263900
317.000000	6.012600
316.000000	5.788700
315.000000	5.575400
314.000000	5.581200
313.000000	5.587800
312.000000	5.574700
311.000000	5.591400
310.000000	5.602600
309.000000	5.594600
308.000000	5.561500
307.000000	5.541400
306.000000	5.561100
305.000000	5.593900
304.000000	5.610900
303.000000	5.595900
302.000000	5.577800
301.000000	5.625200
300.000000	5.637100
299.000000	5.627800
298.000000	5.649800
297.000000	5.644800
296.000000	5.649800
295.000000	5.685600
294.000000	5.694700
293.000000	5.675500
292.000000	5.648400
291.000000	5.679000
290.000000	5.702100
289.000000	5.716100
288.000000	5.728800
287.000000	5.717800
286.000000	5.686600
285.000000	5.711900
284.000000	5.726500
283.000000	5.740600
282.000000	5.777900
281.000000	5.771700
280.000000	5.752600
279.000000	5.796900
278.000000	5.792200
277.000000	5.782700
276.000000	5.804200
275.000000	5.810800
274.000000	5.819500
273.000000	5.850900
272.000000	5.897200
271.000000	5.929200
270.000000	5.949100
269.000000	5.968800
268.000000	5.998100
267.000000	6.007000
266.000000	6.038700
265.000000	6.022900
264.000000	6.054600
263.000000	6.090400
262.000000	6.088400
261.000000	6.163600
260.000000	6.206300
259.000000	6.238900
258.000000	6.196900
257.000000	6.235200
256.000000	6.231000
255.000000	6.213900
254.000000	6.280200
253.000000	6.254200
252.000000	6.303600
251.000000	6.300500
250.000000	6.282300
