PE UV       SUBTECH     SPECTRUM    ASCII       PEDS        4.00        
   -1
CICIMAUCR0006-1.Sample.ASC
24/04/12
09:51:50.00
24/04/12
09:51:50.00
Vinicio Soto Monge
C. kalinini
250,000000
1
Lambda 1050
1050L1511233
PerkinElmer UV WinLab 6.3.2.0749 / 2.02.05 Lambda 900 UV/VIS/NIR, Aug  7 2015 09:38:08

0
0
3350/servo 860,8/2
0
0
UV/VIS
1
1
1
DoubleDePol,CommonBeamDepol,RBeamAtt,SBeamAtt,60mm sphere, WB InGaAs Detector
0
0
0
0
Program
Program
3350/servo 860,8/2
3350/0,2 860,8/0,2
3350/0,2 860,8/0,2
0
15.00
 
 
 
0
 
860,8
319,2
860,8
Front
100
on
S:100 R:100
0
0
0
0
 
0
 
 
 
0
 
 
0
0
0
0
0
 
 
 
 
0
0


0
0
#HDR
-1
-1
#GR
nm
%R
1.0
0.0
2500,000000
-1,000000
2251
8
44,260600
2,230600
#DATA
2482.000000	7.319080
2481.000000	7.305716
2480.000000	7.287300
2479.000000	7.338555
2478.000000	7.330896
2477.000000	7.357134
2476.000000	7.353386
2475.000000	7.393070
2474.000000	7.389648
2473.000000	7.417353
2472.000000	7.424198
2471.000000	7.430147
2470.000000	7.479528
2469.000000	7.506337
2468.000000	7.567941
2467.000000	7.588313
2466.000000	7.608277
2465.000000	7.646169
2464.000000	7.687972
2463.000000	7.740286
2462.000000	7.765955
2461.000000	7.820388
2460.000000	7.884926
2459.000000	7.932025
2458.000000	8.005526
2457.000000	8.067619
2456.000000	8.118304
2455.000000	8.201747
2454.000000	8.248765
2453.000000	8.277774
2452.000000	8.374010
2451.000000	8.440748
2450.000000	8.495345
2449.000000	8.541059
2448.000000	8.588403
2447.000000	8.647155
2446.000000	8.713404
2445.000000	8.759607
2444.000000	8.830908
2443.000000	8.877763
2442.000000	8.912639
2441.000000	8.979866
2440.000000	9.029818
2439.000000	9.089548
2438.000000	9.151478
2437.000000	9.186028
2436.000000	9.240543
2435.000000	9.270775
2434.000000	9.332297
2433.000000	9.378012
2432.000000	9.432771
2431.000000	9.478078
2430.000000	9.514013
2429.000000	9.549949
2428.000000	9.552394
2427.000000	9.493397
2426.000000	9.439127
2425.000000	9.416148
2424.000000	9.404821
2423.000000	9.438882
2422.000000	9.468136
2421.000000	9.498368
2420.000000	9.485982
2419.000000	9.477344
2418.000000	9.505702
2417.000000	9.496005
2416.000000	9.474981
2415.000000	9.483863
2414.000000	9.507250
2413.000000	9.507332
2412.000000	9.498123
2411.000000	9.517110
2410.000000	9.513850
2409.000000	9.487367
2408.000000	9.490708
2407.000000	9.505539
2406.000000	9.508635
2405.000000	9.515562
2404.000000	9.492093
2403.000000	9.474981
2402.000000	9.501057
2401.000000	9.523221
2400.000000	9.518658
2399.000000	9.494049
2398.000000	9.509043
2397.000000	9.500731
2396.000000	9.483374
2395.000000	9.485982
2394.000000	9.479952
2393.000000	9.456402
2392.000000	9.451920
2391.000000	9.433423
2390.000000	9.418837
2389.000000	9.412236
2388.000000	9.412725
2387.000000	9.396835
2386.000000	9.370922
2385.000000	9.371330
2384.000000	9.341750
2383.000000	9.312415
2382.000000	9.302066
2381.000000	9.287480
2380.000000	9.282509
2379.000000	9.260181
2378.000000	9.239484
2377.000000	9.225712
2376.000000	9.171850
2375.000000	9.139418
2374.000000	9.133225
2373.000000	9.116764
2372.000000	9.079525
2371.000000	9.040981
2370.000000	9.016698
2369.000000	8.993719
2368.000000	8.948086
2367.000000	8.903676
2366.000000	8.880941
2365.000000	8.851687
2364.000000	8.801573
2363.000000	8.752355
2362.000000	8.722123
2361.000000	8.689447
2360.000000	8.647318
2359.000000	8.610323
2358.000000	8.581395
2357.000000	8.559638
2356.000000	8.527858
2355.000000	8.501945
2354.000000	8.501375
2353.000000	8.500723
2352.000000	8.480025
2351.000000	8.464950
2350.000000	8.473262
2349.000000	8.486625
2348.000000	8.482796
2347.000000	8.476195
2346.000000	8.480514
2345.000000	8.467558
2344.000000	8.464787
2343.000000	8.478151
2342.000000	8.458431
2341.000000	8.449793
2340.000000	8.442052
2339.000000	8.415895
2338.000000	8.406442
2337.000000	8.377107
2336.000000	8.345572
2335.000000	8.340519
2334.000000	8.295294
2333.000000	8.269707
2332.000000	8.260010
2331.000000	8.234994
2330.000000	8.185939
2329.000000	8.157825
2328.000000	8.136476
2327.000000	8.129712
2326.000000	8.091577
2325.000000	8.049285
2324.000000	8.005771
2323.000000	7.976598
2322.000000	7.959079
2321.000000	7.905216
2320.000000	7.870747
2319.000000	7.849071
2318.000000	7.818106
2317.000000	7.764977
2316.000000	7.736701
2315.000000	7.677867
2314.000000	7.643561
2313.000000	7.622537
2312.000000	7.606322
2311.000000	7.606892
2310.000000	7.573890
2309.000000	7.569815
2308.000000	7.595158
2307.000000	7.599151
2306.000000	7.616915
2305.000000	7.656110
2304.000000	7.681778
2303.000000	7.704106
2302.000000	7.742323
2301.000000	7.798712
2300.000000	7.817862
2299.000000	7.854612
2298.000000	7.912631
2297.000000	7.942700
2296.000000	7.952560
2295.000000	7.981406
2294.000000	8.008867
2293.000000	8.007563
2292.000000	8.035514
2291.000000	8.046107
2290.000000	8.045862
2289.000000	8.017994
2288.000000	8.007482
2287.000000	7.992814
2286.000000	7.991348
2285.000000	7.946856
2284.000000	7.905868
2283.000000	7.884192
2282.000000	7.841574
2281.000000	7.804905
2280.000000	7.782578
2279.000000	7.767014
2278.000000	7.743872
2277.000000	7.704513
2276.000000	7.683245
2275.000000	7.675667
2274.000000	7.634598
2273.000000	7.638916
2272.000000	7.645680
2271.000000	7.674037
2270.000000	7.699950
2269.000000	7.722522
2268.000000	7.760250
2267.000000	7.817210
2266.000000	7.892178
2265.000000	7.939440
2264.000000	8.033395
2263.000000	8.133461
2262.000000	8.234016
2261.000000	8.344023
2260.000000	8.440015
2259.000000	8.536251
2258.000000	8.668179
2257.000000	8.780712
2256.000000	8.878741
2255.000000	8.975873
2254.000000	9.097778
2253.000000	9.231580
2252.000000	9.316245
2251.000000	9.427637
2250.000000	9.489404
2249.000000	9.588819
2248.000000	9.680736
2247.000000	9.750163
2246.000000	9.811930
2245.000000	9.884127
2244.000000	9.970259
2243.000000	10.000083
2242.000000	10.071873
2241.000000	10.132092
2240.000000	10.165502
2239.000000	10.238025
2238.000000	10.254812
2237.000000	10.294170
2236.000000	10.355693
2235.000000	10.390569
2234.000000	10.438402
2233.000000	10.427972
2232.000000	10.441743
2231.000000	10.469774
2230.000000	10.498458
2229.000000	10.531379
2228.000000	10.559084
2227.000000	10.518911
2226.000000	10.543683
2225.000000	10.556395
2224.000000	10.550854
2223.000000	10.556314
2222.000000	10.554928
2221.000000	10.543928
2220.000000	10.542705
2219.000000	10.532682
2218.000000	10.535942
2217.000000	10.533660
2216.000000	10.515081
2215.000000	10.494628
2214.000000	10.473360
2213.000000	10.478249
2212.000000	10.440276
2211.000000	10.415260
2210.000000	10.405237
2209.000000	10.401896
2208.000000	10.384295
2207.000000	10.375412
2206.000000	10.373701
2205.000000	10.368079
2204.000000	10.366204
2203.000000	10.349744
2202.000000	10.336706
2201.000000	10.290014
2200.000000	10.293029
2199.000000	10.288466
2198.000000	10.282436
2197.000000	10.268420
2196.000000	10.255464
2195.000000	10.250900
2194.000000	10.256767
2193.000000	10.240633
2192.000000	10.243811
2191.000000	10.228980
2190.000000	10.213824
2189.000000	10.198015
2188.000000	10.203149
2187.000000	10.191578
2186.000000	10.169576
2185.000000	10.158005
2184.000000	10.142197
2183.000000	10.142523
2182.000000	10.112454
2181.000000	10.104876
2180.000000	10.097216
2179.000000	10.112454
2178.000000	10.104957
2177.000000	10.096808
2176.000000	10.089882
2175.000000	10.086134
2174.000000	10.090289
2173.000000	10.082956
2172.000000	10.076681
2171.000000	10.083933
2170.000000	10.083689
2169.000000	10.103409
2168.000000	10.109765
2167.000000	10.113676
2166.000000	10.124514
2165.000000	10.152627
2164.000000	10.136900
2163.000000	10.133070
2162.000000	10.134618
2161.000000	10.140404
2160.000000	10.153116
2159.000000	10.145619
2158.000000	10.154990
2157.000000	10.166235
2156.000000	10.184488
2155.000000	10.198423
2154.000000	10.199808
2153.000000	10.208201
2152.000000	10.202253
2151.000000	10.217328
2150.000000	10.218468
2149.000000	10.219691
2148.000000	10.214720
2147.000000	10.216594
2146.000000	10.209994
2145.000000	10.200052
2144.000000	10.209912
2143.000000	10.222135
2142.000000	10.216268
2141.000000	10.208609
2140.000000	10.224091
2139.000000	10.222624
2138.000000	10.214720
2137.000000	10.213987
2136.000000	10.208446
2135.000000	10.188237
2134.000000	10.161509
2133.000000	10.147167
2132.000000	10.137307
2131.000000	10.117832
2130.000000	10.094690
2129.000000	10.069836
2128.000000	10.050931
2127.000000	10.027137
2126.000000	9.997802
2125.000000	9.994624
2124.000000	9.959014
2123.000000	9.923323
2122.000000	9.900343
2121.000000	9.872638
2120.000000	9.842406
2119.000000	9.814212
2118.000000	9.786587
2117.000000	9.766542
2116.000000	9.731665
2115.000000	9.701108
2114.000000	9.671691
2113.000000	9.636244
2112.000000	9.628095
2111.000000	9.605686
2110.000000	9.573010
2109.000000	9.548727
2108.000000	9.532348
2107.000000	9.501709
2106.000000	9.484760
2105.000000	9.472537
2104.000000	9.455832
2103.000000	9.434727
2102.000000	9.416637
2101.000000	9.412888
2100.000000	9.397080
2099.000000	9.376871
2098.000000	9.377115
2097.000000	9.382412
2096.000000	9.373204
2095.000000	9.354299
2094.000000	9.339305
2093.000000	9.332542
2092.000000	9.330505
2091.000000	9.320400
2090.000000	9.303614
2089.000000	9.307525
2088.000000	9.299377
2087.000000	9.286746
2086.000000	9.300599
2085.000000	9.288294
2084.000000	9.276968
2083.000000	9.273382
2082.000000	9.271345
2081.000000	9.273708
2080.000000	9.261811
2079.000000	9.244210
2078.000000	9.240054
2077.000000	9.248773
2076.000000	9.242662
2075.000000	9.228076
2074.000000	9.228565
2073.000000	9.234024
2072.000000	9.232476
2071.000000	9.238099
2070.000000	9.233128
2069.000000	9.247388
2068.000000	9.261567
2067.000000	9.256433
2066.000000	9.252685
2065.000000	9.258878
2064.000000	9.270775
2063.000000	9.280961
2062.000000	9.293102
2061.000000	9.298969
2060.000000	9.318526
2059.000000	9.331157
2058.000000	9.353729
2057.000000	9.381190
2056.000000	9.393576
2055.000000	9.421852
2054.000000	9.461128
2053.000000	9.486960
2052.000000	9.526318
2051.000000	9.568365
2050.000000	9.629806
2049.000000	9.666150
2048.000000	9.715775
2047.000000	9.791477
2046.000000	9.866852
2045.000000	9.917863
2044.000000	9.969526
2043.000000	10.025426
2042.000000	10.085563
2041.000000	10.158168
2040.000000	10.193941
2039.000000	10.242752
2038.000000	10.302808
2037.000000	10.355693
2036.000000	10.400999
2035.000000	10.442232
2034.000000	10.486479
2033.000000	10.531216
2032.000000	10.581086
2031.000000	10.603820
2030.000000	10.637475
2029.000000	10.673410
2028.000000	10.710161
2027.000000	10.753757
2026.000000	10.785781
2025.000000	10.785862
2024.000000	10.806968
2023.000000	10.844370
2022.000000	10.862542
2021.000000	10.876965
2020.000000	10.883402
2019.000000	10.903856
2018.000000	10.926101
2017.000000	10.932132
2016.000000	10.943540
2015.000000	10.943703
2014.000000	10.939384
2013.000000	10.931317
2012.000000	10.930013
2011.000000	10.944518
2010.000000	10.945169
2009.000000	10.944762
2008.000000	10.920560
2007.000000	10.914612
2006.000000	10.906789
2005.000000	10.882099
2004.000000	10.857897
2003.000000	10.842985
2002.000000	10.817805
2001.000000	10.784151
2000.000000	10.776980
1999.000000	10.750090
1998.000000	10.711709
1997.000000	10.688567
1996.000000	10.662247
1995.000000	10.634215
1994.000000	10.580923
1993.000000	10.517200
1992.000000	10.488353
1991.000000	10.462278
1990.000000	10.423001
1989.000000	10.384295
1988.000000	10.343144
1987.000000	10.297755
1986.000000	10.253834
1985.000000	10.211053
1984.000000	10.159879
1983.000000	10.116936
1982.000000	10.075703
1981.000000	10.033004
1980.000000	9.975393
1979.000000	9.924300
1978.000000	9.883883
1977.000000	9.840124
1976.000000	9.808996
1975.000000	9.749674
1974.000000	9.704856
1973.000000	9.648548
1972.000000	9.625080
1971.000000	9.582707
1970.000000	9.543430
1969.000000	9.470092
1968.000000	9.463899
1967.000000	9.409629
1966.000000	9.370922
1965.000000	9.324964
1964.000000	9.294813
1963.000000	9.256841
1962.000000	9.208356
1961.000000	9.157915
1960.000000	9.124424
1959.000000	9.078221
1958.000000	9.047582
1957.000000	8.995186
1956.000000	8.982392
1955.000000	8.935863
1954.000000	8.901231
1953.000000	8.855110
1952.000000	8.807277
1951.000000	8.790409
1950.000000	8.751703
1949.000000	8.734672
1948.000000	8.686513
1947.000000	8.668586
1946.000000	8.648866
1945.000000	8.629228
1944.000000	8.618471
1943.000000	8.583921
1942.000000	8.578706
1941.000000	8.591581
1940.000000	8.581558
1939.000000	8.596551
1938.000000	8.570639
1937.000000	8.550267
1936.000000	8.563631
1935.000000	8.563875
1934.000000	8.584247
1933.000000	8.617005
1932.000000	8.647644
1931.000000	8.687491
1930.000000	8.727664
1929.000000	8.778104
1928.000000	8.796683
1927.000000	8.843294
1926.000000	8.876378
1925.000000	8.941649
1924.000000	8.993963
1923.000000	9.101689
1922.000000	9.161990
1921.000000	9.231335
1920.000000	9.309970
1919.000000	9.376871
1918.000000	9.434727
1917.000000	9.521673
1916.000000	9.669654
1915.000000	9.792536
1914.000000	9.901240
1913.000000	10.016381
1912.000000	10.117180
1911.000000	10.199075
1910.000000	10.313808
1909.000000	10.445491
1908.000000	10.586301
1907.000000	10.749112
1906.000000	10.941828
1905.000000	11.118737
1904.000000	11.260443
1903.000000	11.399459
1902.000000	11.577183
1901.000000	11.734615
1900.000000	11.865972
1899.000000	12.017701
1898.000000	12.167637
1897.000000	12.297202
1896.000000	12.450642
1895.000000	12.629831
1894.000000	12.779849
1893.000000	12.962706
1892.000000	13.154689
1891.000000	13.319374
1890.000000	13.484793
1889.000000	13.649478
1888.000000	13.807889
1887.000000	13.978930
1886.000000	14.179714
1885.000000	14.387261
1884.000000	14.606380
1883.000000	14.861027
1882.000000	15.083975
1881.000000	15.301627
1880.000000	15.508278
1879.000000	15.729108
1878.000000	15.947167
1877.000000	16.181523
1876.000000	16.432585
1875.000000	16.633776
1874.000000	16.810358
1873.000000	17.008127
1872.000000	17.169879
1871.000000	17.268071
1870.000000	17.338394
1869.000000	17.374819
1868.000000	17.371315
1867.000000	17.355669
1866.000000	17.345728
1865.000000	17.330327
1864.000000	17.331712
1863.000000	17.366181
1862.000000	17.406680
1861.000000	17.440660
1860.000000	17.481322
1859.000000	17.514162
1858.000000	17.505361
1857.000000	17.477574
1856.000000	17.473255
1855.000000	17.447750
1854.000000	17.408310
1853.000000	17.367241
1852.000000	17.325601
1851.000000	17.305473
1850.000000	17.332609
1849.000000	17.340676
1848.000000	17.295695
1847.000000	17.251040
1846.000000	17.183732
1845.000000	17.115446
1844.000000	17.086681
1843.000000	17.077554
1842.000000	17.063539
1841.000000	17.049441
1840.000000	17.061257
1839.000000	17.066717
1838.000000	17.032411
1837.000000	16.976347
1836.000000	16.899913
1835.000000	16.823396
1834.000000	16.754132
1833.000000	16.707114
1832.000000	16.657407
1831.000000	16.594581
1830.000000	16.547156
1829.000000	16.522791
1828.000000	16.489544
1827.000000	16.429488
1826.000000	16.375870
1825.000000	16.324289
1824.000000	16.301228
1823.000000	16.323474
1822.000000	16.329422
1821.000000	16.303998
1820.000000	16.288760
1819.000000	16.268226
1818.000000	16.246306
1817.000000	16.215096
1816.000000	16.191791
1815.000000	16.171826
1814.000000	16.166611
1813.000000	16.181116
1812.000000	16.164574
1811.000000	16.130431
1810.000000	16.107207
1809.000000	16.098244
1808.000000	16.087976
1807.000000	16.056522
1806.000000	16.021401
1805.000000	15.998259
1804.000000	15.982451
1803.000000	15.966072
1802.000000	15.943500
1801.000000	15.910742
1800.000000	15.877495
1799.000000	15.840337
1798.000000	15.824610
1797.000000	15.813528
1796.000000	15.786719
1795.000000	15.763984
1794.000000	15.742390
1793.000000	15.713625
1792.000000	15.687060
1791.000000	15.661636
1790.000000	15.635479
1789.000000	15.610300
1788.000000	15.589031
1787.000000	15.565808
1786.000000	15.546088
1785.000000	15.497603
1784.000000	15.459060
1783.000000	15.422065
1782.000000	15.393544
1781.000000	15.363313
1780.000000	15.332185
1779.000000	15.290708
1778.000000	15.245645
1777.000000	15.201479
1776.000000	15.152995
1775.000000	15.104836
1774.000000	15.025712
1773.000000	14.962560
1772.000000	14.912119
1771.000000	14.852634
1770.000000	14.791518
1769.000000	14.733418
1768.000000	14.683711
1767.000000	14.637997
1766.000000	14.593260
1765.000000	14.556510
1764.000000	14.554799
1763.000000	14.541516
1762.000000	14.563518
1761.000000	14.606624
1760.000000	14.627078
1759.000000	14.656983
1758.000000	14.688274
1757.000000	14.723558
1756.000000	14.758435
1755.000000	14.764546
1754.000000	14.784347
1753.000000	14.793230
1752.000000	14.772613
1751.000000	14.765117
1750.000000	14.737900
1749.000000	14.720217
1748.000000	14.673199
1747.000000	14.632700
1746.000000	14.577859
1745.000000	14.516826
1744.000000	14.436805
1743.000000	14.360452
1742.000000	14.263075
1741.000000	14.153231
1740.000000	14.033689
1739.000000	13.936231
1738.000000	13.841136
1737.000000	13.776761
1736.000000	13.704808
1735.000000	13.665042
1734.000000	13.636522
1733.000000	13.645241
1732.000000	13.644344
1731.000000	13.697311
1730.000000	13.753944
1729.000000	13.801207
1728.000000	13.849692
1727.000000	13.889294
1726.000000	13.928571
1725.000000	13.959862
1724.000000	13.991235
1723.000000	14.010058
1722.000000	14.006228
1721.000000	14.033852
1720.000000	14.034993
1719.000000	14.049416
1718.000000	14.062047
1717.000000	14.085434
1716.000000	14.106131
1715.000000	14.142882
1714.000000	14.182322
1713.000000	14.215405
1712.000000	14.237814
1711.000000	14.240014
1710.000000	14.256556
1709.000000	14.245067
1708.000000	14.243192
1707.000000	14.222332
1706.000000	14.214835
1705.000000	14.182403
1704.000000	14.166839
1703.000000	14.127236
1702.000000	14.078507
1701.000000	14.023666
1700.000000	13.950817
1699.000000	13.892554
1698.000000	13.833231
1697.000000	13.801696
1696.000000	13.782058
1695.000000	13.801451
1694.000000	13.858492
1693.000000	13.899725
1692.000000	13.989849
1691.000000	14.074107
1690.000000	14.136281
1689.000000	14.198863
1688.000000	14.226243
1687.000000	14.257290
1686.000000	14.257290
1685.000000	14.273587
1684.000000	14.326065
1683.000000	14.446991
1682.000000	14.616158
1681.000000	14.848804
1680.000000	15.109644
1679.000000	15.379610
1678.000000	15.638983
1677.000000	15.880103
1676.000000	16.082435
1675.000000	16.258121
1674.000000	16.396160
1673.000000	16.544222
1672.000000	16.661645
1671.000000	16.760081
1670.000000	16.851672
1669.000000	16.916373
1668.000000	16.989711
1667.000000	17.053434
1666.000000	17.103956
1665.000000	17.139403
1664.000000	17.167842
1663.000000	17.215349
1662.000000	17.241017
1661.000000	17.268071
1660.000000	17.277686
1659.000000	17.293576
1658.000000	17.302214
1657.000000	17.314030
1656.000000	17.308407
1655.000000	17.307837
1654.000000	17.323401
1653.000000	17.300992
1652.000000	17.271330
1651.000000	17.265789
1650.000000	17.255522
1649.000000	17.219016
1648.000000	17.197340
1647.000000	17.173220
1646.000000	17.144211
1645.000000	17.127995
1644.000000	17.098985
1643.000000	17.056612
1642.000000	17.036077
1641.000000	16.995334
1640.000000	16.958013
1639.000000	16.921670
1638.000000	16.870088
1637.000000	16.844502
1636.000000	16.806366
1635.000000	16.778090
1634.000000	16.751688
1633.000000	16.716974
1632.000000	16.664741
1631.000000	16.618294
1630.000000	16.582684
1629.000000	16.536155
1628.000000	16.487507
1627.000000	16.436089
1626.000000	16.396160
1625.000000	16.355498
1624.000000	16.298620
1623.000000	16.254699
1622.000000	16.211429
1621.000000	16.162537
1620.000000	16.124320
1619.000000	16.081620
1618.000000	16.032158
1617.000000	15.986362
1616.000000	15.941789
1615.000000	15.888333
1614.000000	15.844656
1613.000000	15.804565
1612.000000	15.763903
1611.000000	15.722426
1610.000000	15.676223
1609.000000	15.637190
1608.000000	15.594817
1607.000000	15.555622
1606.000000	15.505752
1605.000000	15.464682
1604.000000	15.419946
1603.000000	15.368772
1602.000000	15.330066
1601.000000	15.292745
1600.000000	15.246949
1599.000000	15.211176
1598.000000	15.189582
1597.000000	15.144927
1596.000000	15.094813
1595.000000	15.047143
1594.000000	15.022045
1593.000000	14.997273
1592.000000	14.960359
1591.000000	14.932246
1590.000000	14.912038
1589.000000	14.889792
1588.000000	14.869420
1587.000000	14.842937
1586.000000	14.816453
1585.000000	14.806186
1584.000000	14.779132
1583.000000	14.761939
1582.000000	14.747189
1581.000000	14.737167
1580.000000	14.737655
1579.000000	14.736515
1578.000000	14.735374
1577.000000	14.736270
1576.000000	14.738715
1575.000000	14.736433
1574.000000	14.731462
1573.000000	14.725595
1572.000000	14.731055
1571.000000	14.742463
1570.000000	14.743685
1569.000000	14.750204
1568.000000	14.765117
1567.000000	14.778562
1566.000000	14.787607
1565.000000	14.797385
1564.000000	14.804882
1563.000000	14.803986
1562.000000	14.812623
1561.000000	14.824602
1560.000000	14.834136
1559.000000	14.836418
1558.000000	14.839677
1557.000000	14.840329
1556.000000	14.837070
1555.000000	14.824928
1554.000000	14.812460
1553.000000	14.816046
1552.000000	14.818328
1551.000000	14.813357
1550.000000	14.784266
1549.000000	14.770821
1548.000000	14.775547
1547.000000	14.766176
1546.000000	14.764709
1545.000000	14.763324
1544.000000	14.756642
1543.000000	14.750286
1542.000000	14.752405
1541.000000	14.764220
1540.000000	14.759494
1539.000000	14.763731
1538.000000	14.766094
1537.000000	14.757620
1536.000000	14.746130
1535.000000	14.748167
1534.000000	14.754279
1533.000000	14.745234
1532.000000	14.726818
1531.000000	14.725758
1530.000000	14.719402
1529.000000	14.707016
1528.000000	14.715572
1527.000000	14.703268
1526.000000	14.684118
1525.000000	14.675318
1524.000000	14.667088
1523.000000	14.659591
1522.000000	14.643293
1521.000000	14.630419
1520.000000	14.620722
1519.000000	14.599372
1518.000000	14.569792
1517.000000	14.563844
1516.000000	14.552843
1515.000000	14.540212
1514.000000	14.513648
1513.000000	14.501506
1512.000000	14.487164
1511.000000	14.459785
1510.000000	14.432894
1509.000000	14.423116
1508.000000	14.408122
1507.000000	14.379113
1506.000000	14.379031
1505.000000	14.369823
1504.000000	14.343095
1503.000000	14.319220
1502.000000	14.309686
1501.000000	14.282958
1500.000000	14.277906
1499.000000	14.277824
1498.000000	14.267720
1497.000000	14.254927
1496.000000	14.251097
1495.000000	14.256556
1494.000000	14.257779
1493.000000	14.258838
1492.000000	14.247674
1491.000000	14.253460
1490.000000	14.257127
1489.000000	14.244822
1488.000000	14.247511
1487.000000	14.248082
1486.000000	14.240829
1485.000000	14.240829
1484.000000	14.243681
1483.000000	14.270165
1482.000000	14.281573
1481.000000	14.293062
1480.000000	14.299500
1479.000000	14.321909
1478.000000	14.339103
1477.000000	14.356459
1476.000000	14.365749
1475.000000	14.370475
1474.000000	14.414967
1473.000000	14.430368
1472.000000	14.437457
1471.000000	14.474127
1470.000000	14.496454
1469.000000	14.493031
1468.000000	14.530597
1467.000000	14.549176
1466.000000	14.562377
1465.000000	14.603854
1464.000000	14.630744
1463.000000	14.680289
1462.000000	14.702453
1461.000000	14.750612
1460.000000	14.782881
1459.000000	14.836988
1458.000000	14.873494
1457.000000	14.936728
1456.000000	14.991243
1455.000000	15.021393
1454.000000	15.077375
1453.000000	15.132949
1452.000000	15.190234
1451.000000	15.259335
1450.000000	15.308064
1449.000000	15.349052
1448.000000	15.408049
1447.000000	15.502818
1446.000000	15.581209
1445.000000	15.633360
1444.000000	15.694883
1443.000000	15.783215
1442.000000	15.840826
1441.000000	15.903408
1440.000000	15.950915
1439.000000	16.045114
1438.000000	16.123179
1437.000000	16.174597
1436.000000	16.258121
1435.000000	16.320785
1434.000000	16.428592
1433.000000	16.508531
1432.000000	16.569809
1431.000000	16.659526
1430.000000	16.758288
1429.000000	16.868948
1428.000000	16.941878
1427.000000	17.055716
1426.000000	17.199948
1425.000000	17.327475
1424.000000	17.471462
1423.000000	17.568187
1422.000000	17.692781
1421.000000	17.860970
1420.000000	18.012455
1419.000000	18.139085
1418.000000	18.260664
1417.000000	18.369042
1416.000000	18.483123
1415.000000	18.648705
1414.000000	18.803286
1413.000000	18.935784
1412.000000	19.046443
1411.000000	19.229218
1410.000000	19.405149
1409.000000	19.581731
1408.000000	19.801501
1407.000000	20.000411
1406.000000	20.210485
1405.000000	20.420721
1404.000000	20.622238
1403.000000	20.822533
1402.000000	21.003272
1401.000000	21.250829
1400.000000	21.451287
1399.000000	21.577021
1398.000000	21.644656
1397.000000	21.755722
1396.000000	21.928964
1395.000000	22.043697
1394.000000	22.098946
1393.000000	22.150608
1392.000000	22.263549
1391.000000	22.328657
1390.000000	22.384639
1389.000000	22.524226
1388.000000	22.688748
1387.000000	22.841374
1386.000000	23.004755
1385.000000	23.209939
1384.000000	23.417731
1383.000000	23.613544
1382.000000	23.812536
1381.000000	23.922380
1380.000000	23.972169
1379.000000	23.969724
1378.000000	23.962879
1377.000000	24.016660
1376.000000	24.075250
1375.000000	24.185501
1374.000000	24.312866
1373.000000	24.479832
1372.000000	24.673690
1371.000000	24.872355
1370.000000	25.013980
1369.000000	25.158538
1368.000000	25.317030
1367.000000	25.434290
1366.000000	25.512436
1365.000000	25.638333
1364.000000	25.718516
1363.000000	25.772868
1362.000000	25.875623
1361.000000	25.985305
1360.000000	26.002580
1359.000000	26.010077
1358.000000	26.051391
1357.000000	26.124077
1356.000000	26.287703
1355.000000	26.539090
1354.000000	26.790803
1353.000000	27.015463
1352.000000	27.291704
1351.000000	27.551729
1350.000000	27.775574
1349.000000	27.997870
1348.000000	28.218537
1347.000000	28.411661
1346.000000	28.576183
1345.000000	28.741032
1344.000000	28.902783
1343.000000	29.050519
1342.000000	29.180083
1341.000000	29.349495
1340.000000	29.490304
1339.000000	29.614572
1338.000000	29.754567
1337.000000	29.876064
1336.000000	29.993568
1335.000000	30.099664
1334.000000	30.205027
1333.000000	30.322205
1332.000000	30.413471
1331.000000	30.493083
1330.000000	30.576770
1329.000000	30.670969
1328.000000	30.756042
1327.000000	30.827424
1326.000000	30.897259
1325.000000	30.966686
1324.000000	31.030327
1323.000000	31.102362
1322.000000	31.158180
1321.000000	31.202346
1320.000000	31.247001
1319.000000	31.303716
1318.000000	31.354319
1317.000000	31.391070
1316.000000	31.421628
1315.000000	31.469053
1314.000000	31.506619
1313.000000	31.542065
1312.000000	31.574823
1311.000000	31.587535
1310.000000	31.598862
1309.000000	31.613285
1308.000000	31.630642
1307.000000	31.655577
1306.000000	31.669593
1305.000000	31.673585
1304.000000	31.673178
1303.000000	31.675948
1302.000000	31.673422
1301.000000	31.656799
1300.000000	31.645961
1299.000000	31.650606
1298.000000	31.637813
1297.000000	31.625671
1296.000000	31.623715
1295.000000	31.606603
1294.000000	31.593565
1293.000000	31.585661
1292.000000	31.563089
1291.000000	31.542962
1290.000000	31.518679
1289.000000	31.477691
1288.000000	31.449822
1287.000000	31.417961
1286.000000	31.375424
1285.000000	31.333866
1284.000000	31.296953
1283.000000	31.250423
1282.000000	31.204872
1281.000000	31.162417
1280.000000	31.118415
1279.000000	31.089405
1278.000000	31.060070
1277.000000	31.014763
1276.000000	30.989665
1275.000000	30.956500
1274.000000	30.919423
1273.000000	30.890006
1272.000000	30.848285
1271.000000	30.824246
1270.000000	30.787577
1269.000000	30.758894
1268.000000	30.737544
1267.000000	30.709839
1266.000000	30.668769
1265.000000	30.636582
1264.000000	30.615803
1263.000000	30.589890
1262.000000	30.561125
1261.000000	30.535457
1260.000000	30.507914
1259.000000	30.472304
1258.000000	30.427894
1257.000000	30.398966
1256.000000	30.362460
1255.000000	30.331006
1254.000000	30.287573
1253.000000	30.257830
1252.000000	30.226376
1251.000000	30.178951
1250.000000	30.130385
1249.000000	30.088500
1248.000000	30.036593
1247.000000	29.975152
1246.000000	29.929601
1245.000000	29.871908
1244.000000	29.797429
1243.000000	29.701600
1242.000000	29.627447
1241.000000	29.575377
1240.000000	29.503750
1239.000000	29.421529
1238.000000	29.322849
1237.000000	29.248614
1236.000000	29.162808
1235.000000	29.072521
1234.000000	28.983374
1233.000000	28.880619
1232.000000	28.785686
1231.000000	28.685213
1230.000000	28.594762
1229.000000	28.495430
1228.000000	28.385341
1227.000000	28.294890
1226.000000	28.195802
1225.000000	28.090602
1224.000000	27.987847
1223.000000	27.883951
1222.000000	27.797983
1221.000000	27.710629
1220.000000	27.617978
1219.000000	27.536572
1218.000000	27.458589
1217.000000	27.378814
1216.000000	27.301645
1215.000000	27.247620
1214.000000	27.175096
1213.000000	27.108521
1212.000000	27.064763
1211.000000	27.016278
1210.000000	26.976920
1209.000000	26.928191
1208.000000	26.889484
1207.000000	26.865853
1206.000000	26.843281
1205.000000	26.826739
1204.000000	26.809464
1203.000000	26.807427
1202.000000	26.807345
1201.000000	26.796100
1200.000000	26.763668
1199.000000	26.736533
1198.000000	26.671507
1197.000000	26.618133
1196.000000	26.528497
1195.000000	26.385324
1194.000000	26.246715
1193.000000	26.064021
1192.000000	25.850199
1191.000000	25.656179
1190.000000	25.447490
1189.000000	25.297147
1188.000000	25.179398
1187.000000	25.135395
1186.000000	25.133521
1185.000000	25.197325
1184.000000	25.323875
1183.000000	25.496709
1182.000000	25.712649
1181.000000	25.933805
1180.000000	26.165717
1179.000000	26.371879
1178.000000	26.563455
1177.000000	26.718199
1176.000000	26.871802
1175.000000	27.002344
1174.000000	27.138916
1173.000000	27.281844
1172.000000	27.407741
1171.000000	27.572508
1170.000000	27.728230
1169.000000	27.898375
1168.000000	28.034621
1167.000000	28.184068
1166.000000	28.370184
1165.000000	28.515150
1164.000000	28.689369
1163.000000	28.844194
1162.000000	29.009042
1161.000000	29.165905
1160.000000	29.328227
1159.000000	29.476370
1158.000000	29.608705
1157.000000	29.720668
1156.000000	29.841432
1155.000000	29.909066
1154.000000	29.965292
1153.000000	29.994301
1152.000000	29.982486
1151.000000	29.979226
1150.000000	29.974745
1149.000000	29.948098
1148.000000	29.942231
1147.000000	29.979552
1146.000000	30.029259
1145.000000	30.121421
1144.000000	30.249356
1143.000000	30.386254
1142.000000	30.518589
1141.000000	30.660947
1140.000000	30.808112
1139.000000	30.952751
1138.000000	31.120615
1137.000000	31.269817
1136.000000	31.445829
1135.000000	31.631783
1134.000000	31.795979
1133.000000	31.897512
1132.000000	32.014120
1131.000000	32.101637
1130.000000	32.221748
1129.000000	32.303154
1128.000000	32.374373
1127.000000	32.416258
1126.000000	32.433859
1125.000000	32.463357
1124.000000	32.486581
1123.000000	32.503775
1122.000000	32.519094
1121.000000	32.525939
1120.000000	32.535066
1119.000000	32.528547
1118.000000	32.514694
1117.000000	32.504182
1116.000000	32.486337
1115.000000	32.467269
1114.000000	32.428155
1113.000000	32.412428
1112.000000	32.391160
1111.000000	32.372907
1110.000000	32.357587
1109.000000	32.334526
1108.000000	32.305110
1107.000000	32.283678
1106.000000	32.263551
1105.000000	32.229653
1104.000000	32.190131
1103.000000	32.165441
1102.000000	32.139772
1101.000000	32.119482
1100.000000	32.079717
1099.000000	32.043862
1098.000000	32.016320
1097.000000	31.988125
1096.000000	31.956182
1095.000000	31.911038
1094.000000	31.864917
1093.000000	31.835500
1092.000000	31.802498
1091.000000	31.762243
1090.000000	31.716122
1089.000000	31.668289
1088.000000	31.644495
1087.000000	31.599921
1086.000000	31.555755
1085.000000	31.512486
1084.000000	31.474105
1083.000000	31.427658
1082.000000	31.386833
1081.000000	31.349756
1080.000000	31.301190
1079.000000	31.247001
1078.000000	31.203487
1077.000000	31.162010
1076.000000	31.120696
1075.000000	31.071722
1074.000000	31.031875
1073.000000	30.993332
1072.000000	30.947210
1071.000000	30.908015
1070.000000	30.876643
1069.000000	30.826039
1068.000000	30.784481
1067.000000	30.744389
1066.000000	30.700223
1065.000000	30.650353
1064.000000	30.597794
1063.000000	30.558517
1062.000000	30.517285
1061.000000	30.479719
1060.000000	30.429686
1059.000000	30.377616
1058.000000	30.327583
1057.000000	30.278202
1056.000000	30.238029
1055.000000	30.183759
1054.000000	30.136741
1053.000000	30.091190
1052.000000	30.044905
1051.000000	30.001472
1050.000000	29.962196
1049.000000	29.915830
1048.000000	29.861070
1047.000000	29.819756
1046.000000	29.790828
1045.000000	29.746581
1044.000000	29.701274
1043.000000	29.658820
1042.000000	29.629240
1041.000000	29.589556
1040.000000	29.551664
1039.000000	29.515973
1038.000000	29.477104
1037.000000	29.423159
1036.000000	29.372800
1035.000000	29.339065
1034.000000	29.297343
1033.000000	29.248451
1032.000000	29.207789
1031.000000	29.165253
1030.000000	29.119702
1029.000000	29.068039
1028.000000	29.022732
1027.000000	28.980603
1026.000000	28.927229
1025.000000	28.876300
1024.000000	28.821296
1023.000000	28.769634
1022.000000	28.724082
1021.000000	28.687658
1020.000000	28.649114
1019.000000	28.610815
1018.000000	28.564205
1017.000000	28.512624
1016.000000	28.456642
1015.000000	28.404327
1014.000000	28.364806
1013.000000	28.335715
1012.000000	28.307032
1011.000000	28.286905
1010.000000	28.262784
1009.000000	28.231412
1008.000000	28.205988
1007.000000	28.185698
1006.000000	28.160274
1005.000000	28.126783
1004.000000	28.096714
1003.000000	28.063060
1002.000000	28.017590
1001.000000	28.000722
1000.000000	27.984262
999.000000	27.950608
998.000000	27.915976
997.000000	27.903019
996.000000	27.890226
995.000000	27.860809
994.000000	27.827562
993.000000	27.798798
992.000000	27.773129
991.000000	27.766447
990.000000	27.741675
989.000000	27.718288
988.000000	27.696857
987.000000	27.672656
986.000000	27.657255
985.000000	27.641609
984.000000	27.626697
983.000000	27.595162
982.000000	27.576012
981.000000	27.557026
980.000000	27.539832
979.000000	27.525898
978.000000	27.521579
977.000000	27.495666
976.000000	27.478717
975.000000	27.454515
974.000000	27.448729
973.000000	27.448648
972.000000	27.419557
971.000000	27.392992
970.000000	27.367405
969.000000	27.352249
968.000000	27.332040
967.000000	27.291785
966.000000	27.287711
965.000000	27.292682
964.000000	27.295534
963.000000	27.269214
962.000000	27.251205
961.000000	27.242812
960.000000	27.229529
959.000000	27.235152
958.000000	27.221218
957.000000	27.205328
956.000000	27.208832
955.000000	27.182267
954.000000	27.153258
953.000000	27.129463
952.000000	27.125959
951.000000	27.121722
950.000000	27.136797
949.000000	27.113247
948.000000	27.063540
947.000000	27.047732
946.000000	27.049769
945.000000	27.063052
944.000000	27.072260
943.000000	27.058896
942.000000	27.041376
941.000000	27.011715
940.000000	27.020026
939.000000	27.035835
938.000000	27.068430
937.000000	27.103225
936.000000	27.084809
935.000000	27.107054
934.000000	27.127752
933.000000	27.149917
932.000000	27.187319
931.000000	27.176563
930.000000	27.139731
929.000000	27.147391
928.000000	27.169636
927.000000	27.196527
926.000000	27.243871
925.000000	27.277933
924.000000	27.250390
923.000000	27.284778
922.000000	27.326580
921.000000	27.374006
920.000000	27.407090
919.000000	27.448566
918.000000	27.491347
917.000000	27.466005
916.000000	27.490695
915.000000	27.542114
914.000000	27.630119
913.000000	27.664181
912.000000	27.651469
911.000000	27.681782
910.000000	27.754387
909.000000	27.817947
908.000000	27.887374
907.000000	27.968779
906.000000	28.041792
905.000000	28.116923
904.000000	28.209573
903.000000	28.299291
902.000000	28.388193
901.000000	28.450693
900.000000	28.561271
899.000000	28.668753
898.000000	28.734350
897.000000	28.840201
896.000000	28.929592
895.000000	29.116035
894.000000	29.212189
893.000000	29.331242
892.000000	29.415907
891.000000	29.542701
890.000000	29.647574
889.000000	29.745196
888.000000	29.896436
887.000000	30.089723
886.000000	30.212035
885.000000	30.350237
884.000000	30.440198
883.000000	30.586304
882.000000	30.723692
881.000000	30.949003
880.000000	31.105703
879.000000	31.341852
878.000000	31.486736
877.000000	31.637405
876.000000	31.793534
875.000000	31.974354
874.000000	32.252306
873.000000	32.448201
872.000000	32.685980
871.000000	32.898987
870.000000	33.178650
869.000000	33.406732
868.000000	33.679062
867.000000	33.903721
866.000000	34.191615
865.000000	34.418067
864.000000	34.691049
863.000000	34.927931
862.000000	35.213625
861.000000	35.447411
860.000000	35.759832
859.000000	36.066630
858.000000	35.232367
857.000000	35.501100
856.000000	35.113800
855.000000	35.082200
854.000000	35.083900
853.000000	35.172300
852.000000	35.383200
851.000000	35.554100
850.000000	35.196700
849.000000	35.427300
848.000000	35.368200
847.000000	35.701900
846.000000	35.750400
845.000000	35.655900
844.000000	35.802900
843.000000	35.758300
842.000000	35.840600
841.000000	35.797700
840.000000	36.039300
839.000000	35.998100
838.000000	35.971300
837.000000	35.975300
836.000000	36.069500
835.000000	35.971800
834.000000	36.010300
833.000000	36.087600
832.000000	36.100100
831.000000	36.102400
830.000000	36.013100
829.000000	36.110300
828.000000	36.247200
827.000000	36.323200
826.000000	36.243100
825.000000	36.250100
824.000000	36.261700
823.000000	36.394600
822.000000	36.402900
821.000000	36.432300
820.000000	36.470600
819.000000	36.482300
818.000000	36.486400
817.000000	36.495300
816.000000	36.594000
815.000000	36.658100
814.000000	36.636800
813.000000	36.725700
812.000000	36.742000
811.000000	36.838500
810.000000	36.920700
809.000000	36.985400
808.000000	36.983300
807.000000	37.122700
806.000000	37.138000
805.000000	37.124600
804.000000	37.135000
803.000000	37.172900
802.000000	37.205900
801.000000	37.313000
800.000000	37.443200
799.000000	37.497600
798.000000	37.452200
797.000000	37.433000
796.000000	37.499900
795.000000	37.529400
794.000000	37.658900
793.000000	37.657200
792.000000	37.649700
791.000000	37.688700
790.000000	37.723200
789.000000	37.788200
788.000000	37.887500
787.000000	37.912400
786.000000	37.960400
785.000000	37.937400
784.000000	37.960700
783.000000	38.001300
782.000000	38.030600
781.000000	38.065900
780.000000	38.138000
779.000000	38.152600
778.000000	38.142400
777.000000	38.217000
776.000000	38.212400
775.000000	38.184700
774.000000	38.177400
773.000000	38.172800
772.000000	38.152600
771.000000	38.170400
770.000000	38.163500
769.000000	38.126900
768.000000	38.075600
767.000000	38.053600
766.000000	38.009900
765.000000	37.994900
764.000000	38.051600
763.000000	38.043300
762.000000	37.995100
761.000000	37.994700
760.000000	38.038400
759.000000	37.991100
758.000000	37.931900
757.000000	37.872300
756.000000	37.787200
755.000000	37.752500
754.000000	37.765600
753.000000	37.698700
752.000000	37.641300
751.000000	37.565800
750.000000	37.458600
749.000000	37.418500
748.000000	37.418300
747.000000	37.363900
746.000000	37.296100
745.000000	37.241600
744.000000	37.180200
743.000000	37.137400
742.000000	37.056700
741.000000	36.997600
740.000000	36.958800
739.000000	36.871400
738.000000	36.791100
737.000000	36.747100
736.000000	36.681500
735.000000	36.549400
734.000000	36.441900
733.000000	36.364300
732.000000	36.251000
731.000000	36.173400
730.000000	36.070800
729.000000	35.941700
728.000000	35.831400
727.000000	35.721900
726.000000	35.611000
725.000000	35.471400
724.000000	35.362700
723.000000	35.239500
722.000000	35.085200
721.000000	34.936300
720.000000	34.836400
719.000000	34.755100
718.000000	34.613400
717.000000	34.489200
716.000000	34.397600
715.000000	34.254000
714.000000	34.135500
713.000000	34.027600
712.000000	33.905200
711.000000	33.763600
710.000000	33.623800
709.000000	33.493800
708.000000	33.364400
707.000000	33.228000
706.000000	33.090300
705.000000	32.933400
704.000000	32.776200
703.000000	32.615900
702.000000	32.464000
701.000000	32.323500
700.000000	32.186900
699.000000	32.024200
698.000000	31.860700
697.000000	31.689300
696.000000	31.551200
695.000000	31.424700
694.000000	31.294500
693.000000	31.152600
692.000000	30.974100
691.000000	30.794300
690.000000	30.624200
689.000000	30.440200
688.000000	30.305300
687.000000	30.194800
686.000000	30.041900
685.000000	29.832900
684.000000	29.677200
683.000000	29.508900
682.000000	29.334100
681.000000	29.147200
680.000000	28.963600
679.000000	28.771700
678.000000	28.616700
677.000000	28.441600
676.000000	28.292900
675.000000	28.121900
674.000000	27.946300
673.000000	27.785000
672.000000	27.613900
671.000000	27.428700
670.000000	27.277300
669.000000	27.124600
668.000000	26.997200
667.000000	26.913400
666.000000	26.760700
665.000000	26.641100
664.000000	26.552900
663.000000	26.426500
662.000000	26.329500
661.000000	26.234700
660.000000	26.135300
659.000000	26.066100
658.000000	25.948000
657.000000	25.850800
656.000000	25.708100
655.000000	25.643200
654.000000	25.518500
653.000000	25.430000
652.000000	25.352000
651.000000	25.253800
650.000000	25.132100
649.000000	25.017600
648.000000	24.931600
647.000000	24.829700
646.000000	24.698000
645.000000	24.597800
644.000000	24.493000
643.000000	24.434300
642.000000	24.343700
641.000000	24.226900
640.000000	24.141900
639.000000	24.035900
638.000000	23.950000
637.000000	23.864800
636.000000	23.784200
635.000000	23.673400
634.000000	23.546300
633.000000	23.482100
632.000000	23.370800
631.000000	23.261600
630.000000	23.133100
629.000000	23.050800
628.000000	22.928900
627.000000	22.828800
626.000000	22.698900
625.000000	22.598400
624.000000	22.522300
623.000000	22.435100
622.000000	22.313000
621.000000	22.222300
620.000000	22.150300
619.000000	22.058200
618.000000	21.950600
617.000000	21.894300
616.000000	21.856900
615.000000	21.797200
614.000000	21.723500
613.000000	21.658800
612.000000	21.588900
611.000000	21.516300
610.000000	21.442300
609.000000	21.331700
608.000000	21.227600
607.000000	21.140000
606.000000	21.039400
605.000000	20.963300
604.000000	20.868100
603.000000	20.757300
602.000000	20.654200
601.000000	20.573000
600.000000	20.478500
599.000000	20.402700
598.000000	20.354000
597.000000	20.292000
596.000000	20.258100
595.000000	20.203200
594.000000	20.152900
593.000000	20.120800
592.000000	20.114500
591.000000	20.085100
590.000000	20.074100
589.000000	20.053500
588.000000	20.042200
587.000000	20.039800
586.000000	20.032500
585.000000	20.024900
584.000000	20.016700
583.000000	19.968000
582.000000	19.963400
581.000000	19.938200
580.000000	19.910300
579.000000	19.893200
578.000000	19.877600
577.000000	19.856600
576.000000	19.822100
575.000000	19.822600
574.000000	19.817200
573.000000	19.838900
572.000000	19.848300
571.000000	19.875500
570.000000	19.885000
569.000000	19.889300
568.000000	19.906400
567.000000	19.927600
566.000000	19.919700
565.000000	19.952000
564.000000	19.966100
563.000000	19.973800
562.000000	19.996300
561.000000	20.040500
560.000000	20.071600
559.000000	20.116000
558.000000	20.179600
557.000000	20.232200
556.000000	20.299700
555.000000	20.342700
554.000000	20.356600
553.000000	20.396100
552.000000	20.423900
551.000000	20.438500
550.000000	20.471400
549.000000	20.503800
548.000000	20.546300
547.000000	20.594300
546.000000	20.607100
545.000000	20.612200
544.000000	20.646100
543.000000	20.673500
542.000000	20.654500
541.000000	20.661800
540.000000	20.670000
539.000000	20.647800
538.000000	20.622100
537.000000	20.590500
536.000000	20.572000
535.000000	20.560900
534.000000	20.525100
533.000000	20.500700
532.000000	20.449000
531.000000	20.399000
530.000000	20.328900
529.000000	20.260900
528.000000	20.194800
527.000000	20.128300
526.000000	20.039800
525.000000	19.932200
524.000000	19.807900
523.000000	19.681500
522.000000	19.549900
521.000000	19.448900
520.000000	19.328200
519.000000	19.232600
518.000000	19.089100
517.000000	18.935700
516.000000	18.797100
515.000000	18.670600
514.000000	18.514800
513.000000	18.360400
512.000000	18.222600
511.000000	18.093900
510.000000	17.967100
509.000000	17.832600
508.000000	17.690700
507.000000	17.556200
506.000000	17.439600
505.000000	17.314300
504.000000	17.194300
503.000000	17.084400
502.000000	16.954100
501.000000	16.807300
500.000000	16.686000
499.000000	16.533000
498.000000	16.390600
497.000000	16.263800
496.000000	16.147900
495.000000	16.026600
494.000000	15.887300
493.000000	15.742100
492.000000	15.601300
491.000000	15.462600
490.000000	15.330200
489.000000	15.162600
488.000000	14.987500
487.000000	14.832500
486.000000	14.679700
485.000000	14.517700
484.000000	14.342200
483.000000	14.140800
482.000000	13.869100
481.000000	13.559300
480.000000	13.264700
479.000000	13.044100
478.000000	12.848300
477.000000	12.648100
476.000000	12.452800
475.000000	12.253900
474.000000	12.053600
473.000000	11.844000
472.000000	11.649000
471.000000	11.464600
470.000000	11.278700
469.000000	11.093900
468.000000	10.916900
467.000000	10.747000
466.000000	10.589900
465.000000	10.420500
464.000000	10.255500
463.000000	10.112300
462.000000	9.968500
461.000000	9.833600
460.000000	9.700600
459.000000	9.568400
458.000000	9.443800
457.000000	9.320700
456.000000	9.198700
455.000000	9.081800
454.000000	8.983100
453.000000	8.883800
452.000000	8.779600
451.000000	8.688300
450.000000	8.610400
449.000000	8.535000
448.000000	8.451200
447.000000	8.375600
446.000000	8.315000
445.000000	8.280900
444.000000	8.240100
443.000000	8.170100
442.000000	8.119600
441.000000	8.085000
440.000000	8.049000
439.000000	8.015400
438.000000	7.987900
437.000000	7.967100
436.000000	7.952900
435.000000	7.934600
434.000000	7.923600
433.000000	7.916200
432.000000	7.900800
431.000000	7.883800
430.000000	7.865800
429.000000	7.853900
428.000000	7.834100
427.000000	7.809400
426.000000	7.787600
425.000000	7.755300
424.000000	7.736900
423.000000	7.706000
422.000000	7.658600
421.000000	7.613800
420.000000	7.552700
419.000000	7.491800
418.000000	7.437600
417.000000	7.385500
416.000000	7.323500
415.000000	7.247700
414.000000	7.177600
413.000000	7.102100
412.000000	7.026700
411.000000	6.964200
410.000000	6.887500
409.000000	6.806900
408.000000	6.720600
407.000000	6.632100
406.000000	6.540600
405.000000	6.445700
404.000000	6.347300
403.000000	6.253200
402.000000	6.154600
401.000000	6.049500
400.000000	5.947000
399.000000	5.839300
398.000000	5.741600
397.000000	5.645600
396.000000	5.547700
395.000000	5.429900
394.000000	5.316200
393.000000	5.213600
392.000000	5.117000
391.000000	4.996400
390.000000	4.885500
389.000000	4.794400
388.000000	4.676700
387.000000	4.574800
386.000000	4.471600
385.000000	4.377900
384.000000	4.282400
383.000000	4.183200
382.000000	4.086500
381.000000	3.996800
380.000000	3.911300
379.000000	3.818900
378.000000	3.740100
377.000000	3.675600
376.000000	3.707300
375.000000	3.393100
374.000000	3.158600
373.000000	3.336200
372.000000	3.257900
371.000000	3.217500
370.000000	3.202300
369.000000	3.169400
368.000000	3.099200
367.000000	3.147500
366.000000	3.012000
365.000000	2.999500
364.000000	2.934300
363.000000	2.909000
362.000000	2.924500
361.000000	2.966500
360.000000	2.861600
359.000000	2.787900
358.000000	2.764600
357.000000	2.796300
356.000000	2.792500
355.000000	2.769100
354.000000	2.846000
353.000000	2.693500
352.000000	2.700100
351.000000	2.708700
350.000000	2.670000
349.000000	2.690300
348.000000	2.605900
347.000000	2.579100
346.000000	2.624200
345.000000	2.603500
344.000000	2.619200
343.000000	2.598700
342.000000	2.521400
341.000000	2.502600
340.000000	2.512800
339.000000	2.482200
338.000000	2.478800
337.000000	2.605400
336.000000	2.653100
335.000000	2.502600
334.000000	2.436400
333.000000	2.374800
332.000000	2.452000
331.000000	2.442100
330.000000	2.679000
329.000000	2.610600
328.000000	2.656800
327.000000	2.517800
326.000000	2.752400
325.000000	2.914800
324.000000	2.610700
323.000000	2.506200
322.000000	2.664900
321.000000	2.524600
320.000000	2.769000
319.000000	2.999600
318.000000	2.761000
317.000000	3.147800
316.000000	2.429000
315.000000	2.314500
314.000000	2.294700
313.000000	2.312000
312.000000	2.264400
311.000000	2.306700
310.000000	2.277600
309.000000	2.264000
308.000000	2.309100
307.000000	2.303300
306.000000	2.318400
305.000000	2.370300
304.000000	2.275900
303.000000	2.273700
302.000000	2.299900
301.000000	2.325000
300.000000	2.295200
299.000000	2.270400
298.000000	2.312400
297.000000	2.316100
296.000000	2.230600
295.000000	2.318400
294.000000	2.321500
293.000000	2.314400
292.000000	2.273300
291.000000	2.288200
290.000000	2.261200
289.000000	2.266500
288.000000	2.265700
287.000000	2.316000
286.000000	2.308600
285.000000	2.292900
284.000000	2.354200
283.000000	2.282100
282.000000	2.297200
281.000000	2.285500
280.000000	2.277900
279.000000	2.351800
278.000000	2.300600
277.000000	2.304200
276.000000	2.317600
275.000000	2.306300
274.000000	2.294700
273.000000	2.331500
272.000000	2.304400
271.000000	2.280800
270.000000	2.324300
269.000000	2.358200
268.000000	2.337400
267.000000	2.333000
266.000000	2.369700
265.000000	2.394300
264.000000	2.366700
263.000000	2.368900
262.000000	2.427300
261.000000	2.409600
260.000000	2.350600
259.000000	2.377700
258.000000	2.379500
257.000000	2.408700
256.000000	2.403000
255.000000	2.403200
254.000000	2.398700
253.000000	2.361300
252.000000	2.380400
251.000000	2.426300
250.000000	2.460900
