PE UV       SUBTECH     SPECTRUM    ASCII       PEDS        4.00        
   -1
CICIMAUCR0253-3.ASC
24/06/27
11:10:49.00
24/06/27
11:10:49.00
Vinicio Soto Monge
C. resplendens. Sex M. Ventral
250,000000
1
Lambda 1050
1050L1511233
PerkinElmer UV WinLab 6.3.2.0749 / 2.02.05 Lambda 900 UV/VIS/NIR, Aug  7 2015 09:38:08

0
0
3350/servo 860,8/2
0
0
UV/VIS
1
1
1
DoubleDePol,CommonBeamDepol,RBeamAtt,SBeamAtt,60mm sphere, WB InGaAs Detector
0
0
0
0
Program
Program
3350/servo 860,8/2
3350/0,2 860,8/0,2
3350/0,2 860,8/0,2
0
15.00
 
 
 
0
 
860,8
319,2
860,8
Front
100
on
S:100 R:100
0
0
0
0
 
0
 
 
 
0
 
 
0
0
0
0
0
 
 
 
 
0
0


0
0
#HDR
-1
-1
#GR
nm
%R
1.0
0.0
2500,000000
-1,000000
2251
8
63,618000
4,515400
#DATA
2482.000000	6.497617
2481.000000	6.477841
2480.000000	6.499790
2479.000000	6.557814
2478.000000	6.505984
2477.000000	6.473820
2476.000000	6.499790
2475.000000	6.508700
2474.000000	6.511308
2473.000000	6.530432
2472.000000	6.489033
2471.000000	6.507722
2470.000000	6.530867
2469.000000	6.514785
2468.000000	6.530867
2467.000000	6.560531
2466.000000	6.544775
2465.000000	6.487620
2464.000000	6.511308
2463.000000	6.557705
2462.000000	6.579220
2461.000000	6.585414
2460.000000	6.600191
2459.000000	6.607145
2458.000000	6.626270
2457.000000	6.659737
2456.000000	6.708851
2455.000000	6.709720
2454.000000	6.721129
2453.000000	6.737971
2452.000000	6.795778
2451.000000	6.837286
2450.000000	6.837503
2449.000000	6.878577
2448.000000	6.904872
2447.000000	6.939209
2446.000000	6.989953
2445.000000	7.019617
2444.000000	7.054605
2443.000000	7.073403
2442.000000	7.093396
2441.000000	7.144249
2440.000000	7.175978
2439.000000	7.210966
2438.000000	7.239869
2437.000000	7.288657
2436.000000	7.297785
2435.000000	7.346356
2434.000000	7.368631
2433.000000	7.396448
2432.000000	7.420896
2431.000000	7.439911
2430.000000	7.480876
2429.000000	7.520754
2428.000000	7.543355
2427.000000	7.555525
2426.000000	7.596707
2425.000000	7.631804
2424.000000	7.646147
2423.000000	7.673638
2422.000000	7.716993
2421.000000	7.709278
2420.000000	7.721883
2419.000000	7.752633
2418.000000	7.777625
2417.000000	7.790773
2416.000000	7.812722
2415.000000	7.841408
2414.000000	7.851622
2413.000000	7.864226
2412.000000	7.874766
2411.000000	7.894108
2410.000000	7.920621
2409.000000	7.938550
2408.000000	7.970930
2407.000000	7.971365
2406.000000	7.962237
2405.000000	8.000703
2404.000000	8.022978
2403.000000	8.034387
2402.000000	8.039277
2401.000000	8.056554
2400.000000	8.080459
2399.000000	8.102082
2398.000000	8.110883
2397.000000	8.134571
2396.000000	8.162714
2395.000000	8.172059
2394.000000	8.181512
2393.000000	8.195094
2392.000000	8.207264
2391.000000	8.219108
2390.000000	8.225628
2389.000000	8.235733
2388.000000	8.239753
2387.000000	8.248229
2386.000000	8.263659
2385.000000	8.269309
2384.000000	8.272895
2383.000000	8.275720
2382.000000	8.274742
2381.000000	8.274090
2380.000000	8.283109
2379.000000	8.295496
2378.000000	8.280175
2377.000000	8.274090
2376.000000	8.283869
2375.000000	8.273547
2374.000000	8.263224
2373.000000	8.262246
2372.000000	8.251597
2371.000000	8.243231
2370.000000	8.227692
2369.000000	8.215196
2368.000000	8.217261
2367.000000	8.205417
2366.000000	8.199875
2365.000000	8.178252
2364.000000	8.157172
2363.000000	8.143699
2362.000000	8.134245
2361.000000	8.117838
2360.000000	8.084805
2359.000000	8.064160
2358.000000	8.055358
2357.000000	8.045362
2356.000000	8.032540
2355.000000	8.017219
2354.000000	8.000051
2353.000000	7.992010
2352.000000	7.983426
2351.000000	7.991793
2350.000000	7.992336
2349.000000	7.995813
2348.000000	7.992227
2347.000000	7.995813
2346.000000	8.014394
2345.000000	8.032757
2344.000000	8.047318
2343.000000	8.048404
2342.000000	8.058401
2341.000000	8.083610
2340.000000	8.107080
2339.000000	8.108384
2338.000000	8.105885
2337.000000	8.127400
2336.000000	8.128595
2335.000000	8.124140
2334.000000	8.135006
2333.000000	8.134028
2332.000000	8.135114
2331.000000	8.125226
2330.000000	8.117294
2329.000000	8.107624
2328.000000	8.105016
2327.000000	8.080676
2326.000000	8.037321
2325.000000	8.017002
2324.000000	7.998312
2323.000000	7.984186
2322.000000	7.966040
2321.000000	7.936159
2320.000000	7.907038
2319.000000	7.862053
2318.000000	7.815656
2317.000000	7.763717
2316.000000	7.729380
2315.000000	7.693197
2314.000000	7.656361
2313.000000	7.599967
2312.000000	7.559871
2311.000000	7.528903
2310.000000	7.485222
2309.000000	7.465881
2308.000000	7.435130
2307.000000	7.413833
2306.000000	7.398078
2305.000000	7.393840
2304.000000	7.395361
2303.000000	7.396665
2302.000000	7.414594
2301.000000	7.425025
2300.000000	7.439042
2299.000000	7.458709
2298.000000	7.504129
2297.000000	7.537379
2296.000000	7.568781
2295.000000	7.605400
2294.000000	7.629957
2293.000000	7.658751
2292.000000	7.695478
2291.000000	7.722643
2290.000000	7.743723
2289.000000	7.760891
2288.000000	7.783710
2287.000000	7.792620
2286.000000	7.792837
2285.000000	7.800769
2284.000000	7.794358
2283.000000	7.776430
2282.000000	7.775343
2281.000000	7.765346
2280.000000	7.747635
2279.000000	7.740789
2278.000000	7.723730
2277.000000	7.690045
2276.000000	7.676680
2275.000000	7.673312
2274.000000	7.647668
2273.000000	7.619960
2272.000000	7.632565
2271.000000	7.629631
2270.000000	7.636911
2269.000000	7.646364
2268.000000	7.666358
2267.000000	7.687981
2266.000000	7.728511
2265.000000	7.754154
2264.000000	7.808376
2263.000000	7.869659
2262.000000	7.965171
2261.000000	8.041015
2260.000000	8.111644
2259.000000	8.211611
2258.000000	8.317988
2257.000000	8.428821
2256.000000	8.545521
2255.000000	8.670153
2254.000000	8.797937
2253.000000	8.918984
2252.000000	9.011127
2251.000000	9.141844
2250.000000	9.279190
2249.000000	9.381221
2248.000000	9.484882
2247.000000	9.578220
2246.000000	9.691335
2245.000000	9.769352
2244.000000	9.844219
2243.000000	9.946033
2242.000000	9.993843
2241.000000	10.070665
2240.000000	10.153898
2239.000000	10.193341
2238.000000	10.238870
2237.000000	10.278422
2236.000000	10.361438
2235.000000	10.372195
2234.000000	10.405336
2233.000000	10.432935
2232.000000	10.450973
2231.000000	10.492046
2230.000000	10.475639
2229.000000	10.495197
2228.000000	10.492372
2227.000000	10.510518
2226.000000	10.514756
2225.000000	10.487808
2224.000000	10.493024
2223.000000	10.467163
2222.000000	10.463686
2221.000000	10.442389
2220.000000	10.430002
2219.000000	10.401750
2218.000000	10.377954
2217.000000	10.341118
2216.000000	10.307977
2215.000000	10.291026
2214.000000	10.272663
2213.000000	10.233871
2212.000000	10.202252
2211.000000	10.185844
2210.000000	10.161396
2209.000000	10.128472
2208.000000	10.135861
2207.000000	10.140424
2206.000000	10.104241
2205.000000	10.087942
2204.000000	10.053931
2203.000000	10.029374
2202.000000	10.048281
2201.000000	10.019269
2200.000000	10.027744
2199.000000	10.005795
2198.000000	9.996342
2197.000000	9.976023
2196.000000	9.974067
2195.000000	9.979282
2194.000000	9.967764
2193.000000	9.951466
2192.000000	9.967438
2191.000000	9.936797
2190.000000	9.953421
2189.000000	9.929842
2188.000000	9.911913
2187.000000	9.926691
2186.000000	9.921258
2185.000000	9.891703
2184.000000	9.890399
2183.000000	9.882358
2182.000000	9.881380
2181.000000	9.863234
2180.000000	9.871601
2179.000000	9.827376
2178.000000	9.847044
2177.000000	9.828246
2176.000000	9.837264
2175.000000	9.823791
2174.000000	9.818466
2173.000000	9.825638
2172.000000	9.822704
2171.000000	9.828463
2170.000000	9.825095
2169.000000	9.840850
2168.000000	9.838242
2167.000000	9.839655
2166.000000	9.836830
2165.000000	9.868232
2164.000000	9.880837
2163.000000	9.893550
2162.000000	9.903438
2161.000000	9.922236
2160.000000	9.937666
2159.000000	9.954943
2158.000000	9.977978
2157.000000	10.018943
2156.000000	10.006665
2155.000000	10.046651
2154.000000	10.074903
2153.000000	10.118692
2152.000000	10.168241
2151.000000	10.190299
2150.000000	10.224309
2149.000000	10.245933
2148.000000	10.274836
2147.000000	10.297111
2146.000000	10.334055
2145.000000	10.375563
2144.000000	10.408813
2143.000000	10.422830
2142.000000	10.447496
2141.000000	10.490308
2140.000000	10.519211
2139.000000	10.543225
2138.000000	10.566804
2137.000000	10.595164
2136.000000	10.597772
2135.000000	10.628740
2134.000000	10.654383
2133.000000	10.677093
2132.000000	10.692414
2131.000000	10.710886
2130.000000	10.750982
2129.000000	10.742615
2128.000000	10.742289
2127.000000	10.746635
2126.000000	10.755763
2125.000000	10.747505
2124.000000	10.760000
2123.000000	10.779450
2122.000000	10.786405
2121.000000	10.782819
2120.000000	10.802921
2119.000000	10.775213
2118.000000	10.755871
2117.000000	10.753589
2116.000000	10.757393
2115.000000	10.749243
2114.000000	10.722839
2113.000000	10.715667
2112.000000	10.710126
2111.000000	10.699151
2110.000000	10.688394
2109.000000	10.661229
2108.000000	10.651015
2107.000000	10.645908
2106.000000	10.636455
2105.000000	10.618526
2104.000000	10.602118
2103.000000	10.604509
2102.000000	10.582125
2101.000000	10.563544
2100.000000	10.558328
2099.000000	10.538661
2098.000000	10.505629
2097.000000	10.486505
2096.000000	10.488134
2095.000000	10.483788
2094.000000	10.467598
2093.000000	10.458796
2092.000000	10.447279
2091.000000	10.431306
2090.000000	10.422721
2089.000000	10.429132
2088.000000	10.418918
2087.000000	10.397404
2086.000000	10.388276
2085.000000	10.371869
2084.000000	10.363285
2083.000000	10.341662
2082.000000	10.319169
2081.000000	10.304500
2080.000000	10.275162
2079.000000	10.249518
2078.000000	10.230612
2077.000000	10.194754
2076.000000	10.167480
2075.000000	10.134883
2074.000000	10.091745
2073.000000	10.070230
2072.000000	10.034373
2071.000000	9.993191
2070.000000	9.954943
2069.000000	9.906589
2068.000000	9.863234
2067.000000	9.829224
2066.000000	9.787607
2065.000000	9.761855
2064.000000	9.722520
2063.000000	9.683946
2062.000000	9.653956
2061.000000	9.622553
2060.000000	9.589956
2059.000000	9.570940
2058.000000	9.557032
2057.000000	9.520305
2056.000000	9.498356
2055.000000	9.502267
2054.000000	9.507809
2053.000000	9.511503
2052.000000	9.516719
2051.000000	9.537473
2050.000000	9.569636
2049.000000	9.582458
2048.000000	9.619185
2047.000000	9.659606
2046.000000	9.711002
2045.000000	9.768918
2044.000000	9.815424
2043.000000	9.859757
2042.000000	9.907132
2041.000000	9.952009
2040.000000	10.006447
2039.000000	10.065232
2038.000000	10.112825
2037.000000	10.152268
2036.000000	10.179868
2035.000000	10.217464
2034.000000	10.263753
2033.000000	10.311346
2032.000000	10.351332
2031.000000	10.379692
2030.000000	10.388276
2029.000000	10.413051
2028.000000	10.442498
2027.000000	10.465859
2026.000000	10.497045
2025.000000	10.500087
2024.000000	10.521602
2023.000000	10.541595
2022.000000	10.559958
2021.000000	10.563109
2020.000000	10.555286
2019.000000	10.562675
2018.000000	10.564087
2017.000000	10.583755
2016.000000	10.584298
2015.000000	10.576801
2014.000000	10.573541
2013.000000	10.577453
2012.000000	10.543877
2011.000000	10.551266
2010.000000	10.542030
2009.000000	10.552026
2008.000000	10.518776
2007.000000	10.500196
2006.000000	10.479985
2005.000000	10.448148
2004.000000	10.423265
2003.000000	10.403271
2002.000000	10.379584
2001.000000	10.348398
2000.000000	10.311780
1999.000000	10.270816
1998.000000	10.255386
1997.000000	10.223331
1996.000000	10.169436
1995.000000	10.126516
1994.000000	10.084791
1993.000000	10.065775
1992.000000	10.027744
1991.000000	9.982542
1990.000000	9.930603
1989.000000	9.882141
1988.000000	9.857366
1987.000000	9.792714
1986.000000	9.741427
1985.000000	9.704483
1984.000000	9.653739
1983.000000	9.605059
1982.000000	9.555293
1981.000000	9.512699
1980.000000	9.487490
1979.000000	9.442831
1978.000000	9.388392
1977.000000	9.344168
1976.000000	9.281797
1975.000000	9.234748
1974.000000	9.213125
1973.000000	9.153688
1972.000000	9.119678
1971.000000	9.077626
1970.000000	9.028512
1969.000000	8.987656
1968.000000	8.971140
1967.000000	8.927894
1966.000000	8.860416
1965.000000	8.828688
1964.000000	8.795112
1963.000000	8.762731
1962.000000	8.734697
1961.000000	8.691451
1960.000000	8.637882
1959.000000	8.631471
1958.000000	8.599851
1957.000000	8.545956
1956.000000	8.498254
1955.000000	8.460984
1954.000000	8.446532
1953.000000	8.406002
1952.000000	8.366776
1951.000000	8.341567
1950.000000	8.333853
1949.000000	8.287020
1948.000000	8.268983
1947.000000	8.218456
1946.000000	8.200745
1945.000000	8.178361
1944.000000	8.153695
1943.000000	8.123923
1942.000000	8.133702
1941.000000	8.118490
1940.000000	8.101756
1939.000000	8.110231
1938.000000	8.084696
1937.000000	8.076221
1936.000000	8.081980
1935.000000	8.077090
1934.000000	8.103603
1933.000000	8.113057
1932.000000	8.128378
1931.000000	8.148371
1930.000000	8.152283
1929.000000	8.185315
1928.000000	8.232039
1927.000000	8.275285
1926.000000	8.281913
1925.000000	8.323530
1924.000000	8.377316
1923.000000	8.402634
1922.000000	8.478370
1921.000000	8.566058
1920.000000	8.592679
1919.000000	8.672653
1918.000000	8.736110
1917.000000	8.836511
1916.000000	8.888016
1915.000000	8.992111
1914.000000	9.095012
1913.000000	9.214320
1912.000000	9.272235
1911.000000	9.391217
1910.000000	9.492379
1909.000000	9.610058
1908.000000	9.739036
1907.000000	9.864538
1906.000000	10.011011
1905.000000	10.173239
1904.000000	10.349376
1903.000000	10.504216
1902.000000	10.677745
1901.000000	10.847254
1900.000000	11.039798
1899.000000	11.269830
1898.000000	11.500623
1897.000000	11.712618
1896.000000	11.944062
1895.000000	12.162359
1894.000000	12.401518
1893.000000	12.672624
1892.000000	12.926126
1891.000000	13.251127
1890.000000	13.561784
1889.000000	13.860380
1888.000000	14.212654
1887.000000	14.561994
1886.000000	14.897534
1885.000000	15.266433
1884.000000	15.648806
1883.000000	16.073773
1882.000000	16.505803
1881.000000	16.929466
1880.000000	17.354759
1879.000000	17.728330
1878.000000	18.122112
1877.000000	18.521435
1876.000000	18.938361
1875.000000	19.332904
1874.000000	19.712668
1873.000000	20.090369
1872.000000	20.472632
1871.000000	20.807955
1870.000000	21.165228
1869.000000	21.495661
1868.000000	21.810013
1867.000000	22.078945
1866.000000	22.291265
1865.000000	22.482397
1864.000000	22.675377
1863.000000	22.842386
1862.000000	22.984513
1861.000000	23.166952
1860.000000	23.336026
1859.000000	23.498689
1858.000000	23.633861
1857.000000	23.744911
1856.000000	23.851724
1855.000000	23.939194
1854.000000	24.004499
1853.000000	24.078930
1852.000000	24.105661
1851.000000	24.145213
1850.000000	24.174985
1849.000000	24.216711
1848.000000	24.243332
1847.000000	24.273539
1846.000000	24.288752
1845.000000	24.256371
1844.000000	24.241702
1843.000000	24.225295
1842.000000	24.216711
1841.000000	24.229858
1840.000000	24.232032
1839.000000	24.231706
1838.000000	24.192154
1837.000000	24.178136
1836.000000	24.148907
1835.000000	24.102835
1834.000000	24.070564
1833.000000	24.015908
1832.000000	23.963208
1831.000000	23.926590
1830.000000	23.893340
1829.000000	23.842705
1828.000000	23.788810
1827.000000	23.732415
1826.000000	23.679933
1825.000000	23.652225
1824.000000	23.604849
1823.000000	23.545087
1822.000000	23.521616
1821.000000	23.514771
1820.000000	23.500102
1819.000000	23.479782
1818.000000	23.441534
1817.000000	23.397310
1816.000000	23.370254
1815.000000	23.361778
1814.000000	23.338634
1813.000000	23.331897
1812.000000	23.318532
1811.000000	23.283761
1810.000000	23.253119
1809.000000	23.213784
1808.000000	23.181621
1807.000000	23.148806
1806.000000	23.115121
1805.000000	23.071766
1804.000000	23.011569
1803.000000	22.967127
1802.000000	22.927575
1801.000000	22.890522
1800.000000	22.844668
1799.000000	22.785883
1798.000000	22.738073
1797.000000	22.699499
1796.000000	22.670487
1795.000000	22.636150
1794.000000	22.586493
1793.000000	22.547810
1792.000000	22.501739
1791.000000	22.456102
1790.000000	22.416332
1789.000000	22.367979
1788.000000	22.306369
1787.000000	22.274858
1786.000000	22.258124
1785.000000	22.207706
1784.000000	22.164677
1783.000000	22.112847
1782.000000	22.048520
1781.000000	22.001362
1780.000000	21.952139
1779.000000	21.895202
1778.000000	21.832940
1777.000000	21.765028
1776.000000	21.705374
1775.000000	21.644959
1774.000000	21.573570
1773.000000	21.488815
1772.000000	21.407647
1771.000000	21.339517
1770.000000	21.254763
1769.000000	21.166749
1768.000000	21.099380
1767.000000	21.020711
1766.000000	20.941824
1765.000000	20.882713
1764.000000	20.837185
1763.000000	20.802523
1762.000000	20.793721
1761.000000	20.793178
1760.000000	20.818930
1759.000000	20.851854
1758.000000	20.886951
1757.000000	20.928893
1756.000000	20.990612
1755.000000	21.023970
1754.000000	21.054830
1753.000000	21.092861
1752.000000	21.118721
1751.000000	21.126545
1750.000000	21.133282
1749.000000	21.102314
1748.000000	21.087536
1747.000000	21.065587
1746.000000	21.005390
1745.000000	20.942911
1744.000000	20.871304
1743.000000	20.776770
1742.000000	20.667350
1741.000000	20.550541
1740.000000	20.415152
1739.000000	20.260747
1738.000000	20.115904
1737.000000	19.978015
1736.000000	19.851644
1735.000000	19.733205
1734.000000	19.657361
1733.000000	19.620743
1732.000000	19.579452
1731.000000	19.545985
1730.000000	19.566739
1729.000000	19.602270
1728.000000	19.677245
1727.000000	19.727337
1726.000000	19.773518
1725.000000	19.836323
1724.000000	19.891413
1723.000000	19.920969
1722.000000	19.974538
1721.000000	20.024956
1720.000000	20.061031
1719.000000	20.150131
1718.000000	20.237385
1717.000000	20.297691
1716.000000	20.388856
1715.000000	20.474697
1714.000000	20.589767
1713.000000	20.672131
1712.000000	20.769599
1711.000000	20.858265
1710.000000	20.909769
1709.000000	20.972031
1708.000000	20.999305
1707.000000	21.018103
1706.000000	21.004629
1705.000000	20.998327
1704.000000	20.968228
1703.000000	20.925416
1702.000000	20.858047
1701.000000	20.780139
1700.000000	20.699731
1699.000000	20.609326
1698.000000	20.493386
1697.000000	20.401678
1696.000000	20.318662
1695.000000	20.239884
1694.000000	20.220434
1693.000000	20.213371
1692.000000	20.243904
1691.000000	20.313881
1690.000000	20.389182
1689.000000	20.479043
1688.000000	20.572708
1687.000000	20.659201
1686.000000	20.719181
1685.000000	20.811433
1684.000000	20.894448
1683.000000	21.033315
1682.000000	21.207931
1681.000000	21.436985
1680.000000	21.725150
1679.000000	22.092853
1678.000000	22.460231
1677.000000	22.878135
1676.000000	23.226497
1675.000000	23.573012
1674.000000	23.899425
1673.000000	24.189763
1672.000000	24.424033
1671.000000	24.688075
1670.000000	24.899744
1669.000000	25.097287
1668.000000	25.259950
1667.000000	25.432827
1666.000000	25.574736
1665.000000	25.678289
1664.000000	25.795641
1663.000000	25.885937
1662.000000	25.964280
1661.000000	26.057293
1660.000000	26.112926
1659.000000	26.164866
1658.000000	26.212350
1657.000000	26.260377
1656.000000	26.308948
1655.000000	26.310143
1654.000000	26.330680
1653.000000	26.348609
1652.000000	26.340133
1651.000000	26.300798
1650.000000	26.298408
1649.000000	26.265593
1648.000000	26.256900
1647.000000	26.214088
1646.000000	26.171711
1645.000000	26.110536
1644.000000	26.072070
1643.000000	26.029476
1642.000000	25.996009
1641.000000	25.935377
1640.000000	25.883112
1639.000000	25.827043
1638.000000	25.791946
1637.000000	25.736639
1636.000000	25.675029
1635.000000	25.617222
1634.000000	25.554851
1633.000000	25.489113
1632.000000	25.429241
1631.000000	25.359373
1630.000000	25.271576
1629.000000	25.222788
1628.000000	25.139664
1627.000000	25.076533
1626.000000	24.975697
1625.000000	24.925387
1624.000000	24.840742
1623.000000	24.776307
1622.000000	24.660910
1621.000000	24.600713
1620.000000	24.545079
1619.000000	24.476515
1618.000000	24.399041
1617.000000	24.330042
1616.000000	24.251699
1615.000000	24.197369
1614.000000	24.136303
1613.000000	24.054373
1612.000000	23.968967
1611.000000	23.911269
1610.000000	23.833577
1609.000000	23.775010
1608.000000	23.721224
1607.000000	23.638316
1606.000000	23.554975
1605.000000	23.470112
1604.000000	23.404699
1603.000000	23.335700
1602.000000	23.240080
1601.000000	23.192595
1600.000000	23.091977
1599.000000	23.030476
1598.000000	22.952567
1597.000000	22.885198
1596.000000	22.812831
1595.000000	22.734379
1594.000000	22.682222
1593.000000	22.604965
1592.000000	22.546289
1591.000000	22.480007
1590.000000	22.408726
1589.000000	22.344400
1588.000000	22.290396
1587.000000	22.247041
1586.000000	22.180324
1585.000000	22.134687
1584.000000	22.079705
1583.000000	21.999189
1582.000000	21.938992
1581.000000	21.905633
1580.000000	21.887596
1579.000000	21.832071
1578.000000	21.802407
1577.000000	21.759269
1576.000000	21.715479
1575.000000	21.686793
1574.000000	21.657238
1573.000000	21.625400
1572.000000	21.600191
1571.000000	21.592259
1570.000000	21.574765
1569.000000	21.561400
1568.000000	21.554772
1567.000000	21.534452
1566.000000	21.537060
1565.000000	21.537821
1564.000000	21.525651
1563.000000	21.504680
1562.000000	21.494357
1561.000000	21.475776
1560.000000	21.470995
1559.000000	21.458391
1558.000000	21.423620
1557.000000	21.397650
1556.000000	21.367334
1555.000000	21.324848
1554.000000	21.300835
1553.000000	21.267802
1552.000000	21.204671
1551.000000	21.156426
1550.000000	21.097533
1549.000000	21.050701
1548.000000	21.020167
1547.000000	20.966924
1546.000000	20.916506
1545.000000	20.874129
1544.000000	20.833816
1543.000000	20.793178
1542.000000	20.764383
1541.000000	20.709184
1540.000000	20.686692
1539.000000	20.652464
1538.000000	20.618562
1537.000000	20.601503
1536.000000	20.569013
1535.000000	20.533264
1534.000000	20.477305
1533.000000	20.441556
1532.000000	20.407980
1531.000000	20.362234
1530.000000	20.319314
1529.000000	20.275742
1528.000000	20.236842
1527.000000	20.180556
1526.000000	20.126009
1525.000000	20.078851
1524.000000	20.025825
1523.000000	19.976711
1522.000000	19.938028
1521.000000	19.880004
1520.000000	19.812744
1519.000000	19.746027
1518.000000	19.694740
1517.000000	19.652254
1516.000000	19.592926
1515.000000	19.530773
1514.000000	19.480572
1513.000000	19.411790
1512.000000	19.337793
1511.000000	19.267925
1510.000000	19.197079
1509.000000	19.146987
1508.000000	19.091354
1507.000000	19.023224
1506.000000	18.962375
1505.000000	18.902938
1504.000000	18.832527
1503.000000	18.772438
1502.000000	18.717783
1501.000000	18.660954
1500.000000	18.602604
1499.000000	18.548491
1498.000000	18.493401
1497.000000	18.439614
1496.000000	18.400823
1495.000000	18.362684
1494.000000	18.304008
1493.000000	18.263260
1492.000000	18.236856
1491.000000	18.197847
1490.000000	18.174051
1489.000000	18.131782
1488.000000	18.092556
1487.000000	18.086363
1486.000000	18.069629
1485.000000	18.023883
1484.000000	17.988461
1483.000000	17.959992
1482.000000	17.944127
1481.000000	17.928046
1480.000000	17.894253
1479.000000	17.871543
1478.000000	17.854049
1477.000000	17.854918
1476.000000	17.854483
1475.000000	17.839706
1474.000000	17.845139
1473.000000	17.855679
1472.000000	17.862959
1471.000000	17.881648
1470.000000	17.874585
1469.000000	17.863828
1468.000000	17.866219
1467.000000	17.883495
1466.000000	17.905227
1465.000000	17.904358
1464.000000	17.920440
1463.000000	17.942498
1462.000000	17.964990
1461.000000	17.993676
1460.000000	18.029316
1459.000000	18.069846
1458.000000	18.092013
1457.000000	18.150037
1456.000000	18.189915
1455.000000	18.234465
1454.000000	18.283254
1453.000000	18.359750
1452.000000	18.414840
1451.000000	18.476559
1450.000000	18.544579
1449.000000	18.592281
1448.000000	18.637483
1447.000000	18.712458
1446.000000	18.801124
1445.000000	18.884901
1444.000000	18.945641
1443.000000	19.016813
1442.000000	19.080379
1441.000000	19.176543
1440.000000	19.264014
1439.000000	19.346051
1438.000000	19.448626
1437.000000	19.564674
1436.000000	19.667031
1435.000000	19.757436
1434.000000	19.856859
1433.000000	19.974646
1432.000000	20.101669
1431.000000	20.226302
1430.000000	20.357888
1429.000000	20.485998
1428.000000	20.627907
1427.000000	20.789483
1426.000000	20.930849
1425.000000	21.112202
1424.000000	21.303334
1423.000000	21.500659
1422.000000	21.683533
1421.000000	21.880967
1420.000000	22.083509
1419.000000	22.319082
1418.000000	22.573237
1417.000000	22.817394
1416.000000	23.034822
1415.000000	23.286586
1414.000000	23.584095
1413.000000	23.909639
1412.000000	24.193240
1411.000000	24.453479
1410.000000	24.797713
1409.000000	25.146509
1408.000000	25.560502
1407.000000	25.943744
1406.000000	26.326551
1405.000000	26.713378
1404.000000	27.180179
1403.000000	27.561574
1402.000000	27.973176
1401.000000	28.378693
1400.000000	28.900801
1399.000000	29.382054
1398.000000	29.750735
1397.000000	30.112571
1396.000000	30.512329
1395.000000	31.028136
1394.000000	31.497110
1393.000000	31.881873
1392.000000	32.279675
1391.000000	32.772446
1390.000000	33.268259
1389.000000	33.687141
1388.000000	34.228265
1387.000000	34.837410
1386.000000	35.410588
1385.000000	36.005498
1384.000000	36.611275
1383.000000	37.205533
1382.000000	37.861728
1381.000000	38.435775
1380.000000	38.947127
1379.000000	39.289730
1378.000000	39.627226
1377.000000	39.880837
1376.000000	40.173240
1375.000000	40.417723
1374.000000	40.664489
1373.000000	40.970691
1372.000000	41.301777
1371.000000	41.671545
1370.000000	42.012518
1369.000000	42.355012
1368.000000	42.666539
1367.000000	42.972089
1366.000000	43.262210
1365.000000	43.476269
1364.000000	43.728033
1363.000000	43.928727
1362.000000	44.154195
1361.000000	44.348587
1360.000000	44.519291
1359.000000	44.603719
1358.000000	44.768990
1357.000000	44.883083
1356.000000	45.052700
1355.000000	45.278277
1354.000000	45.633485
1353.000000	45.960550
1352.000000	46.298372
1351.000000	46.748331
1350.000000	47.205461
1349.000000	47.622822
1348.000000	48.013887
1347.000000	48.433095
1346.000000	48.849369
1345.000000	49.166655
1344.000000	49.570759
1343.000000	49.918252
1342.000000	50.259986
1341.000000	50.593897
1340.000000	50.945410
1339.000000	51.295402
1338.000000	51.626813
1337.000000	51.965613
1336.000000	52.283225
1335.000000	52.622568
1334.000000	52.955609
1333.000000	53.260508
1332.000000	53.560408
1331.000000	53.852593
1330.000000	54.155427
1329.000000	54.442070
1328.000000	54.718283
1327.000000	54.987106
1326.000000	55.239305
1325.000000	55.508454
1324.000000	55.733596
1323.000000	55.981340
1322.000000	56.212350
1321.000000	56.445207
1320.000000	56.652421
1319.000000	56.863546
1318.000000	57.062175
1317.000000	57.273409
1316.000000	57.459217
1315.000000	57.658498
1314.000000	57.824747
1313.000000	58.010555
1312.000000	58.165829
1311.000000	58.325885
1310.000000	58.473987
1309.000000	58.606878
1308.000000	58.735422
1307.000000	58.858207
1306.000000	58.979580
1305.000000	59.083567
1304.000000	59.186250
1303.000000	59.272091
1302.000000	59.354672
1301.000000	59.433450
1300.000000	59.493648
1299.000000	59.554171
1298.000000	59.612847
1297.000000	59.677065
1296.000000	59.708793
1295.000000	59.752583
1294.000000	59.802566
1293.000000	59.821147
1292.000000	59.842444
1291.000000	59.855049
1290.000000	59.882540
1289.000000	59.893406
1288.000000	59.897317
1287.000000	59.870696
1286.000000	59.867219
1285.000000	59.831470
1284.000000	59.805174
1283.000000	59.783008
1282.000000	59.735089
1281.000000	59.698579
1280.000000	59.649574
1279.000000	59.615889
1278.000000	59.590572
1277.000000	59.548412
1276.000000	59.511576
1275.000000	59.475719
1274.000000	59.447467
1273.000000	59.418238
1272.000000	59.387053
1271.000000	59.375317
1270.000000	59.365864
1269.000000	59.343372
1268.000000	59.318489
1267.000000	59.299038
1266.000000	59.282305
1265.000000	59.249490
1264.000000	59.215371
1263.000000	59.193530
1262.000000	59.157455
1261.000000	59.111818
1260.000000	59.075200
1259.000000	59.042494
1258.000000	58.999247
1257.000000	58.951002
1256.000000	58.902758
1255.000000	58.839409
1254.000000	58.768237
1253.000000	58.714342
1252.000000	58.649798
1251.000000	58.570477
1250.000000	58.478877
1249.000000	58.399664
1248.000000	58.314149
1247.000000	58.206033
1246.000000	58.103676
1245.000000	57.998602
1244.000000	57.873535
1243.000000	57.751076
1242.000000	57.644264
1241.000000	57.522674
1240.000000	57.394021
1239.000000	57.277212
1238.000000	57.158122
1237.000000	57.029360
1236.000000	56.904619
1235.000000	56.769664
1234.000000	56.641229
1233.000000	56.517683
1232.000000	56.376426
1231.000000	56.226041
1230.000000	56.084132
1229.000000	55.932443
1228.000000	55.771301
1227.000000	55.605596
1226.000000	55.441194
1225.000000	55.272772
1224.000000	55.093701
1223.000000	54.921367
1222.000000	54.745448
1221.000000	54.563660
1220.000000	54.390131
1219.000000	54.223230
1218.000000	54.046115
1217.000000	53.878019
1216.000000	53.709271
1215.000000	53.546173
1214.000000	53.402308
1213.000000	53.251489
1212.000000	53.079916
1211.000000	52.939528
1210.000000	52.798488
1209.000000	52.645387
1208.000000	52.512496
1207.000000	52.393080
1206.000000	52.268447
1205.000000	52.160114
1204.000000	52.058300
1203.000000	51.962571
1202.000000	51.886727
1201.000000	51.826421
1200.000000	51.766875
1199.000000	51.697442
1198.000000	51.603777
1197.000000	51.479362
1196.000000	51.346146
1195.000000	51.192719
1194.000000	50.994307
1193.000000	50.757212
1192.000000	50.473937
1191.000000	50.154152
1190.000000	49.821219
1189.000000	49.477204
1188.000000	49.166655
1187.000000	48.925866
1186.000000	48.778198
1185.000000	48.712133
1184.000000	48.738754
1183.000000	48.878925
1182.000000	49.127212
1181.000000	49.474053
1180.000000	49.861749
1179.000000	50.284869
1178.000000	50.726678
1177.000000	51.124915
1176.000000	51.490337
1175.000000	51.831419
1174.000000	52.140012
1173.000000	52.426547
1172.000000	52.747309
1171.000000	53.046883
1170.000000	53.333744
1169.000000	53.661787
1168.000000	53.978855
1167.000000	54.305051
1166.000000	54.654065
1165.000000	55.012098
1164.000000	55.369153
1163.000000	55.729685
1162.000000	56.100757
1161.000000	56.512685
1160.000000	56.882561
1159.000000	57.256567
1158.000000	57.625466
1157.000000	57.997190
1156.000000	58.348051
1155.000000	58.677289
1154.000000	58.973603
1153.000000	59.240797
1152.000000	59.465287
1151.000000	59.666416
1150.000000	59.851789
1149.000000	60.009563
1148.000000	60.173204
1147.000000	60.366291
1146.000000	60.557858
1145.000000	60.789846
1144.000000	61.093223
1143.000000	61.397143
1142.000000	61.746049
1141.000000	62.146785
1140.000000	62.558061
1139.000000	62.987483
1138.000000	63.445591
1137.000000	63.927061
1136.000000	64.428524
1135.000000	64.940962
1134.000000	65.486541
1133.000000	65.998870
1132.000000	66.419817
1131.000000	66.810774
1130.000000	67.184997
1129.000000	67.524232
1128.000000	67.824566
1127.000000	68.062965
1126.000000	68.275503
1125.000000	68.443056
1124.000000	68.573990
1123.000000	68.717312
1122.000000	68.812932
1121.000000	68.903772
1120.000000	68.966142
1119.000000	69.007759
1118.000000	69.045355
1117.000000	69.096860
1116.000000	69.111529
1115.000000	69.116962
1114.000000	69.113050
1113.000000	69.126958
1112.000000	69.120439
1111.000000	69.109464
1110.000000	69.095556
1109.000000	69.105661
1108.000000	69.110333
1107.000000	69.091101
1106.000000	69.081865
1105.000000	69.080235
1104.000000	69.075780
1103.000000	69.084798
1102.000000	69.065131
1101.000000	69.073063
1100.000000	69.037423
1099.000000	69.033402
1098.000000	69.015582
1097.000000	69.013300
1096.000000	68.968533
1095.000000	68.950604
1094.000000	68.917680
1093.000000	68.892254
1092.000000	68.860308
1091.000000	68.815432
1090.000000	68.779357
1089.000000	68.747411
1088.000000	68.680259
1087.000000	68.622018
1086.000000	68.582140
1085.000000	68.517161
1084.000000	68.464136
1083.000000	68.400244
1082.000000	68.343306
1081.000000	68.284413
1080.000000	68.223238
1079.000000	68.164996
1078.000000	68.077199
1077.000000	68.010700
1076.000000	67.948112
1075.000000	67.902475
1074.000000	67.813483
1073.000000	67.738617
1072.000000	67.686351
1071.000000	67.599750
1070.000000	67.521841
1069.000000	67.454146
1068.000000	67.371782
1067.000000	67.297894
1066.000000	67.219551
1065.000000	67.136643
1064.000000	67.062320
1063.000000	66.984194
1062.000000	66.882706
1061.000000	66.804472
1060.000000	66.727975
1059.000000	66.635832
1058.000000	66.544124
1057.000000	66.457087
1056.000000	66.344625
1055.000000	66.277365
1054.000000	66.175985
1053.000000	66.071238
1052.000000	65.989091
1051.000000	65.907162
1050.000000	65.813606
1049.000000	65.724614
1048.000000	65.649965
1047.000000	65.563798
1046.000000	65.479152
1045.000000	65.387118
1044.000000	65.295844
1043.000000	65.204353
1042.000000	65.142199
1041.000000	65.057988
1040.000000	64.953349
1039.000000	64.867182
1038.000000	64.787209
1037.000000	64.704628
1036.000000	64.610203
1035.000000	64.501978
1034.000000	64.406792
1033.000000	64.313237
1032.000000	64.179477
1031.000000	64.099504
1030.000000	64.002905
1029.000000	63.901091
1028.000000	63.796018
1027.000000	63.684316
1026.000000	63.567290
1025.000000	63.467540
1024.000000	63.350623
1023.000000	63.228924
1022.000000	63.134499
1021.000000	63.023884
1020.000000	62.899686
1019.000000	62.789831
1018.000000	62.678130
1017.000000	62.564472
1016.000000	62.465592
1015.000000	62.373666
1014.000000	62.282175
1013.000000	62.196225
1012.000000	62.106472
1011.000000	62.056272
1010.000000	61.974125
1009.000000	61.901323
1008.000000	61.845798
1007.000000	61.774844
1006.000000	61.717037
1005.000000	61.674116
1004.000000	61.628153
1003.000000	61.575997
1002.000000	61.522319
1001.000000	61.440064
1000.000000	61.393884
999.000000	61.356288
998.000000	61.311194
997.000000	61.249475
996.000000	61.173522
995.000000	61.125712
994.000000	61.089746
993.000000	61.046934
992.000000	60.992170
991.000000	60.949358
990.000000	60.899918
989.000000	60.866994
988.000000	60.828094
987.000000	60.793758
986.000000	60.748773
985.000000	60.697920
984.000000	60.688032
983.000000	60.670646
982.000000	60.629791
981.000000	60.596215
980.000000	60.559488
979.000000	60.534496
978.000000	60.515372
977.000000	60.494944
976.000000	60.462998
975.000000	60.443440
974.000000	60.415623
973.000000	60.398563
972.000000	60.368030
971.000000	60.340322
970.000000	60.326305
969.000000	60.319025
968.000000	60.291425
967.000000	60.266433
966.000000	60.246440
965.000000	60.244050
964.000000	60.249700
963.000000	60.228620
962.000000	60.231662
961.000000	60.227968
960.000000	60.204824
959.000000	60.216993
958.000000	60.233944
957.000000	60.219058
956.000000	60.204063
955.000000	60.203194
954.000000	60.207105
953.000000	60.219167
952.000000	60.230250
951.000000	60.211995
950.000000	60.192219
949.000000	60.190263
948.000000	60.186569
947.000000	60.183309
946.000000	60.164511
945.000000	60.135173
944.000000	60.126263
943.000000	60.110616
942.000000	60.072042
941.000000	60.035206
940.000000	60.010323
939.000000	59.963926
938.000000	59.918941
937.000000	59.876346
936.000000	59.825385
935.000000	59.794851
934.000000	59.757907
933.000000	59.704664
932.000000	59.648813
931.000000	59.592528
930.000000	59.567753
929.000000	59.517661
928.000000	59.438014
927.000000	59.383358
926.000000	59.353260
925.000000	59.287303
924.000000	59.202114
923.000000	59.136593
922.000000	59.075961
921.000000	59.008049
920.000000	58.966215
919.000000	58.898954
918.000000	58.807572
917.000000	58.724230
916.000000	58.637520
915.000000	58.590796
914.000000	58.505173
913.000000	58.402815
912.000000	58.298176
911.000000	58.212879
910.000000	58.154094
909.000000	58.070752
908.000000	58.003057
907.000000	57.927974
906.000000	57.869298
905.000000	57.817467
904.000000	57.768679
903.000000	57.724020
902.000000	57.665127
901.000000	57.638070
900.000000	57.605907
899.000000	57.528433
898.000000	57.486599
897.000000	57.455740
896.000000	57.417492
895.000000	57.378374
894.000000	57.317416
893.000000	57.250156
892.000000	57.211473
891.000000	57.131500
890.000000	57.082060
889.000000	57.032511
888.000000	56.958732
887.000000	56.865610
886.000000	56.779335
885.000000	56.698492
884.000000	56.606566
883.000000	56.515727
882.000000	56.418694
881.000000	56.320901
880.000000	56.215392
879.000000	56.111623
878.000000	55.962868
877.000000	55.776300
876.000000	55.598315
875.000000	55.447822
874.000000	55.237566
873.000000	55.010468
872.000000	54.878338
871.000000	54.820749
870.000000	54.818358
869.000000	54.812490
868.000000	54.829115
867.000000	54.840525
866.000000	54.843893
865.000000	54.838025
864.000000	54.825530
863.000000	54.842589
862.000000	54.822487
861.000000	54.802276
860.000000	54.783152
859.000000	54.792606
858.000000	54.779567
857.000000	54.072200
856.000000	55.170600
855.000000	55.095900
854.000000	54.845300
853.000000	55.413600
852.000000	55.391600
851.000000	55.329500
850.000000	55.102900
849.000000	55.100400
848.000000	55.201500
847.000000	54.944200
846.000000	55.090900
845.000000	55.207800
844.000000	55.283500
843.000000	55.049400
842.000000	55.104000
841.000000	54.943700
840.000000	55.155400
839.000000	55.097700
838.000000	54.869600
837.000000	54.983300
836.000000	55.034300
835.000000	54.977400
834.000000	54.784300
833.000000	54.875900
832.000000	54.610000
831.000000	54.657500
830.000000	54.794200
829.000000	54.350800
828.000000	54.348800
827.000000	54.550700
826.000000	54.458300
825.000000	54.365200
824.000000	54.355900
823.000000	54.236500
822.000000	54.020300
821.000000	54.104700
820.000000	53.933700
819.000000	54.024500
818.000000	53.883500
817.000000	53.847000
816.000000	53.640600
815.000000	53.485200
814.000000	53.661700
813.000000	53.448700
812.000000	53.621800
811.000000	53.275000
810.000000	53.048000
809.000000	52.984200
808.000000	53.004000
807.000000	52.896100
806.000000	52.668600
805.000000	52.680900
804.000000	52.724500
803.000000	52.637200
802.000000	52.172500
801.000000	52.222600
800.000000	52.083800
799.000000	51.976400
798.000000	51.869900
797.000000	51.701000
796.000000	51.541600
795.000000	51.547800
794.000000	51.392200
793.000000	51.221300
792.000000	51.109300
791.000000	50.956600
790.000000	50.891500
789.000000	50.713500
788.000000	50.611300
787.000000	50.560200
786.000000	50.342100
785.000000	50.188300
784.000000	50.065500
783.000000	50.000700
782.000000	49.897000
781.000000	49.513000
780.000000	49.425400
779.000000	49.425800
778.000000	49.202600
777.000000	49.029500
776.000000	48.801400
775.000000	48.664400
774.000000	48.487800
773.000000	48.367700
772.000000	48.261500
771.000000	47.979500
770.000000	47.924900
769.000000	47.761300
768.000000	47.644400
767.000000	47.453700
766.000000	47.300400
765.000000	47.030900
764.000000	47.073600
763.000000	46.832200
762.000000	46.546000
761.000000	46.421300
760.000000	46.159200
759.000000	46.020700
758.000000	45.740900
757.000000	45.531300
756.000000	45.447900
755.000000	45.215900
754.000000	44.995500
753.000000	44.868600
752.000000	44.740200
751.000000	44.479600
750.000000	44.261000
749.000000	44.133300
748.000000	43.940300
747.000000	43.731500
746.000000	43.456200
745.000000	43.264400
744.000000	43.055700
743.000000	42.862200
742.000000	42.628600
741.000000	42.443600
740.000000	42.205600
739.000000	42.002200
738.000000	41.764800
737.000000	41.575400
736.000000	41.283700
735.000000	41.052500
734.000000	40.867900
733.000000	40.634800
732.000000	40.320400
731.000000	40.013300
730.000000	39.890900
729.000000	39.669300
728.000000	39.395000
727.000000	39.124400
726.000000	38.934600
725.000000	38.698200
724.000000	38.464000
723.000000	38.126900
722.000000	37.872800
721.000000	37.719400
720.000000	37.401900
719.000000	37.174900
718.000000	36.992500
717.000000	36.753600
716.000000	36.468900
715.000000	36.251400
714.000000	36.012600
713.000000	35.788900
712.000000	35.528000
711.000000	35.359800
710.000000	35.134200
709.000000	34.946500
708.000000	34.685600
707.000000	34.453900
706.000000	34.227100
705.000000	34.028000
704.000000	33.865600
703.000000	33.631200
702.000000	33.416500
701.000000	33.179500
700.000000	33.009700
699.000000	32.837900
698.000000	32.641300
697.000000	32.445000
696.000000	32.231600
695.000000	32.031800
694.000000	31.895600
693.000000	31.704200
692.000000	31.540600
691.000000	31.380900
690.000000	31.177500
689.000000	30.997400
688.000000	30.847500
687.000000	30.673600
686.000000	30.481800
685.000000	30.336000
684.000000	30.168700
683.000000	29.995600
682.000000	29.851700
681.000000	29.718400
680.000000	29.572500
679.000000	29.435800
678.000000	29.273700
677.000000	29.150400
676.000000	29.024600
675.000000	28.888600
674.000000	28.753900
673.000000	28.623600
672.000000	28.474500
671.000000	28.359500
670.000000	28.257600
669.000000	28.146400
668.000000	28.033600
667.000000	27.908100
666.000000	27.775200
665.000000	27.684600
664.000000	27.592000
663.000000	27.482500
662.000000	27.358300
661.000000	27.251200
660.000000	27.149200
659.000000	27.041600
658.000000	26.935700
657.000000	26.849000
656.000000	26.758200
655.000000	26.632600
654.000000	26.531600
653.000000	26.452400
652.000000	26.371700
651.000000	26.282500
650.000000	26.192200
649.000000	26.108700
648.000000	26.044500
647.000000	25.976800
646.000000	25.903600
645.000000	25.837900
644.000000	25.762300
643.000000	25.692300
642.000000	25.625100
641.000000	25.576600
640.000000	25.539200
639.000000	25.486100
638.000000	25.437700
637.000000	25.404100
636.000000	25.347300
635.000000	25.303300
634.000000	25.257500
633.000000	25.239400
632.000000	25.229900
631.000000	25.181200
630.000000	25.136200
629.000000	25.119100
628.000000	25.102000
627.000000	25.082200
626.000000	25.058900
625.000000	25.048100
624.000000	25.054800
623.000000	25.055000
622.000000	25.052700
621.000000	25.054700
620.000000	25.064200
619.000000	25.083100
618.000000	25.099800
617.000000	25.125900
616.000000	25.160400
615.000000	25.175500
614.000000	25.228600
613.000000	25.279100
612.000000	25.327000
611.000000	25.399400
610.000000	25.464100
609.000000	25.523300
608.000000	25.594700
607.000000	25.665700
606.000000	25.745200
605.000000	25.819200
604.000000	25.916900
603.000000	26.017500
602.000000	26.102100
601.000000	26.185300
600.000000	26.286100
599.000000	26.412800
598.000000	26.507200
597.000000	26.586200
596.000000	26.687900
595.000000	26.799100
594.000000	26.923700
593.000000	27.028500
592.000000	27.136800
591.000000	27.220900
590.000000	27.321800
589.000000	27.427000
588.000000	27.527400
587.000000	27.645800
586.000000	27.729300
585.000000	27.795000
584.000000	27.882000
583.000000	27.980300
582.000000	28.043700
581.000000	28.127400
580.000000	28.197700
579.000000	28.235300
578.000000	28.310700
577.000000	28.346000
576.000000	28.409700
575.000000	28.458800
574.000000	28.472900
573.000000	28.492600
572.000000	28.507400
571.000000	28.516600
570.000000	28.544600
569.000000	28.553500
568.000000	28.568300
567.000000	28.536100
566.000000	28.526800
565.000000	28.503900
564.000000	28.448400
563.000000	28.412200
562.000000	28.372700
561.000000	28.334700
560.000000	28.277800
559.000000	28.221100
558.000000	28.162900
557.000000	28.095300
556.000000	28.003700
555.000000	27.915500
554.000000	27.820800
553.000000	27.695000
552.000000	27.585300
551.000000	27.465600
550.000000	27.360000
549.000000	27.201800
548.000000	27.076700
547.000000	26.937700
546.000000	26.773400
545.000000	26.590700
544.000000	26.388200
543.000000	26.209900
542.000000	26.006400
541.000000	25.811800
540.000000	25.590200
539.000000	25.364200
538.000000	25.126900
537.000000	24.888600
536.000000	24.658100
535.000000	24.383900
534.000000	24.113600
533.000000	23.825300
532.000000	23.537100
531.000000	23.268900
530.000000	22.957400
529.000000	22.647600
528.000000	22.355000
527.000000	22.036700
526.000000	21.718400
525.000000	21.397100
524.000000	21.060300
523.000000	20.741500
522.000000	20.433000
521.000000	20.081300
520.000000	19.766100
519.000000	19.437900
518.000000	19.125600
517.000000	18.819600
516.000000	18.516400
515.000000	18.215400
514.000000	17.928100
513.000000	17.643100
512.000000	17.379000
511.000000	17.113600
510.000000	16.849600
509.000000	16.604600
508.000000	16.343200
507.000000	16.149700
506.000000	15.908200
505.000000	15.726700
504.000000	15.524200
503.000000	15.309700
502.000000	15.137300
501.000000	14.949100
500.000000	14.753400
499.000000	14.596700
498.000000	14.447500
497.000000	14.330100
496.000000	14.183900
495.000000	14.055000
494.000000	13.883000
493.000000	13.781900
492.000000	13.659400
491.000000	13.549800
490.000000	13.454400
489.000000	13.322500
488.000000	13.243400
487.000000	13.158600
486.000000	13.064400
485.000000	12.972500
484.000000	12.902700
483.000000	12.821000
482.000000	12.746300
481.000000	12.649800
480.000000	12.546300
479.000000	12.462900
478.000000	12.379300
477.000000	12.282700
476.000000	12.194800
475.000000	12.127600
474.000000	12.032900
473.000000	11.933200
472.000000	11.870300
471.000000	11.812000
470.000000	11.740400
469.000000	11.648600
468.000000	11.588000
467.000000	11.531700
466.000000	11.475700
465.000000	11.403100
464.000000	11.339000
463.000000	11.285200
462.000000	11.215700
461.000000	11.163000
460.000000	11.095200
459.000000	11.026500
458.000000	10.972600
457.000000	10.906000
456.000000	10.856100
455.000000	10.798200
454.000000	10.733000
453.000000	10.666900
452.000000	10.607900
451.000000	10.543800
450.000000	10.478900
449.000000	10.401000
448.000000	10.335800
447.000000	10.272400
446.000000	10.170800
445.000000	10.122000
444.000000	10.042100
443.000000	9.959300
442.000000	9.879500
441.000000	9.802000
440.000000	9.729200
439.000000	9.644700
438.000000	9.542100
437.000000	9.484500
436.000000	9.409200
435.000000	9.308800
434.000000	9.226500
433.000000	9.125900
432.000000	9.026800
431.000000	8.950400
430.000000	8.842300
429.000000	8.794900
428.000000	8.717400
427.000000	8.627400
426.000000	8.535100
425.000000	8.447900
424.000000	8.369800
423.000000	8.267200
422.000000	8.189800
421.000000	8.113800
420.000000	8.028600
419.000000	7.931500
418.000000	7.842300
417.000000	7.748400
416.000000	7.684200
415.000000	7.611700
414.000000	7.506200
413.000000	7.425600
412.000000	7.349200
411.000000	7.283100
410.000000	7.194900
409.000000	7.125500
408.000000	7.025400
407.000000	6.968800
406.000000	6.904200
405.000000	6.829700
404.000000	6.759100
403.000000	6.678100
402.000000	6.628900
401.000000	6.557900
400.000000	6.469300
399.000000	6.390900
398.000000	6.341000
397.000000	6.274400
396.000000	6.203600
395.000000	6.148400
394.000000	6.086500
393.000000	6.032200
392.000000	5.996400
391.000000	5.931600
390.000000	5.855400
389.000000	5.797800
388.000000	5.748700
387.000000	5.706300
386.000000	5.634200
385.000000	5.610900
384.000000	5.571000
383.000000	5.513900
382.000000	5.473800
381.000000	5.438400
380.000000	5.390300
379.000000	5.350600
378.000000	5.322100
377.000000	5.265400
376.000000	5.186300
375.000000	4.919500
374.000000	4.655900
373.000000	4.739400
372.000000	4.853900
371.000000	4.758200
370.000000	4.872700
369.000000	4.825700
368.000000	4.957000
367.000000	4.825500
366.000000	4.731300
365.000000	4.703500
364.000000	4.774600
363.000000	4.905800
362.000000	4.903500
361.000000	4.752600
360.000000	4.932300
359.000000	4.915400
358.000000	4.955400
357.000000	5.022700
356.000000	4.948000
355.000000	4.786400
354.000000	4.826900
353.000000	4.990400
352.000000	4.894700
351.000000	4.693200
350.000000	4.877900
349.000000	4.838700
348.000000	4.811800
347.000000	4.974000
346.000000	5.103300
345.000000	4.979100
344.000000	4.779100
343.000000	4.869900
342.000000	4.849400
341.000000	4.917100
340.000000	5.044000
339.000000	5.047700
338.000000	4.850100
337.000000	4.690400
336.000000	5.015100
335.000000	5.218300
334.000000	5.025000
333.000000	5.020300
332.000000	4.918000
331.000000	4.953600
330.000000	4.999700
329.000000	4.858200
328.000000	5.198300
327.000000	5.149200
326.000000	5.147000
325.000000	5.413900
324.000000	5.663900
323.000000	5.543500
322.000000	5.395000
321.000000	5.363200
320.000000	5.429300
319.000000	5.878200
318.000000	5.253400
317.000000	5.370400
316.000000	5.170900
315.000000	4.515400
314.000000	4.551000
313.000000	4.559900
312.000000	4.562700
311.000000	4.574100
310.000000	4.572100
309.000000	4.600200
308.000000	4.603900
307.000000	4.561300
306.000000	4.549300
305.000000	4.578000
304.000000	4.601400
303.000000	4.585800
302.000000	4.607700
301.000000	4.593600
300.000000	4.639900
299.000000	4.636900
298.000000	4.638600
297.000000	4.630600
296.000000	4.603400
295.000000	4.629900
294.000000	4.662800
293.000000	4.615100
292.000000	4.586100
291.000000	4.589100
290.000000	4.631200
289.000000	4.626400
288.000000	4.614900
287.000000	4.643900
286.000000	4.644000
285.000000	4.636000
284.000000	4.614300
283.000000	4.663200
282.000000	4.641900
281.000000	4.666400
280.000000	4.649500
279.000000	4.650200
278.000000	4.672200
277.000000	4.681500
276.000000	4.656900
275.000000	4.686900
274.000000	4.720100
273.000000	4.721900
272.000000	4.728900
271.000000	4.767100
270.000000	4.775200
269.000000	4.748200
268.000000	4.725500
267.000000	4.755600
266.000000	4.820300
265.000000	4.822300
264.000000	4.869500
263.000000	4.900500
262.000000	4.886700
261.000000	4.870900
260.000000	4.886700
259.000000	4.881500
258.000000	4.916600
257.000000	4.977700
256.000000	5.018100
255.000000	4.987000
254.000000	4.962900
253.000000	5.019300
252.000000	5.016600
251.000000	4.985200
250.000000	5.010800
