PE UV       SUBTECH     SPECTRUM    ASCII       PEDS        4.00        
   -1
CICIMAUCR0254-3.ASC
24/06/27
11:23:41.00
24/06/27
11:23:41.00
Vinicio Soto Monge
C. resplendens. Sex F. Ventral
250,000000
1
Lambda 1050
1050L1511233
PerkinElmer UV WinLab 6.3.2.0749 / 2.02.05 Lambda 900 UV/VIS/NIR, Aug  7 2015 09:38:08

0
0
3350/servo 860,8/2
0
0
UV/VIS
1
1
1
DoubleDePol,CommonBeamDepol,RBeamAtt,SBeamAtt,60mm sphere, WB InGaAs Detector
0
0
0
0
Program
Program
3350/servo 860,8/2
3350/0,2 860,8/0,2
3350/0,2 860,8/0,2
0
15.00
 
 
 
0
 
860,8
319,2
860,8
Front
100
on
S:100 R:100
0
0
0
0
 
0
 
 
 
0
 
 
0
0
0
0
0
 
 
 
 
0
0


0
0
#HDR
-1
-1
#GR
nm
%R
1.0
0.0
2500,000000
-1,000000
2251
8
54,815200
4,004400
#DATA
2482.000000	5.251063
2481.000000	5.246278
2480.000000	5.189965
2479.000000	5.161030
2478.000000	5.224465
2477.000000	5.202875
2476.000000	5.218121
2475.000000	5.231254
2474.000000	5.219123
2473.000000	5.214115
2472.000000	5.203209
2471.000000	5.204322
2470.000000	5.199202
2469.000000	5.190522
2468.000000	5.214560
2467.000000	5.207994
2466.000000	5.213336
2465.000000	5.201651
2464.000000	5.212223
2463.000000	5.218678
2462.000000	5.200649
2461.000000	5.232478
2460.000000	5.210665
2459.000000	5.257518
2458.000000	5.244274
2457.000000	5.243718
2456.000000	5.272653
2455.000000	5.276548
2454.000000	5.233924
2453.000000	5.291238
2452.000000	5.344991
2451.000000	5.346104
2450.000000	5.366136
2449.000000	5.371589
2448.000000	5.387058
2447.000000	5.413211
2446.000000	5.414769
2445.000000	5.463625
2444.000000	5.454945
2443.000000	5.480652
2442.000000	5.497902
2441.000000	5.502354
2440.000000	5.521273
2439.000000	5.558889
2438.000000	5.577029
2437.000000	5.600733
2436.000000	5.611194
2435.000000	5.650591
2434.000000	5.646696
2433.000000	5.663166
2432.000000	5.670400
2431.000000	5.686426
2430.000000	5.712801
2429.000000	5.733056
2428.000000	5.738620
2427.000000	5.754312
2426.000000	5.766443
2425.000000	5.801721
2424.000000	5.813407
2423.000000	5.841563
2422.000000	5.827318
2421.000000	5.851801
2420.000000	5.853248
2419.000000	5.875172
2418.000000	5.887080
2417.000000	5.906444
2416.000000	5.903106
2415.000000	5.920912
2414.000000	5.949513
2413.000000	5.965316
2412.000000	5.949402
2411.000000	5.968098
2410.000000	5.979005
2409.000000	5.992693
2408.000000	5.991692
2407.000000	5.995809
2406.000000	6.014395
2405.000000	6.019959
2404.000000	6.052010
2403.000000	6.059689
2402.000000	6.067702
2401.000000	6.069705
2400.000000	6.078275
2399.000000	6.072488
2398.000000	6.089181
2397.000000	6.092074
2396.000000	6.086621
2395.000000	6.089849
2394.000000	6.090962
2393.000000	6.099308
2392.000000	6.111439
2391.000000	6.114221
2390.000000	6.124014
2389.000000	6.130358
2388.000000	6.138816
2387.000000	6.141487
2386.000000	6.146829
2385.000000	6.158291
2384.000000	6.156956
2383.000000	6.158069
2382.000000	6.154174
2381.000000	6.149388
2380.000000	6.136813
2379.000000	6.154062
2378.000000	6.156288
2377.000000	6.146050
2376.000000	6.137035
2375.000000	6.136479
2374.000000	6.132250
2373.000000	6.130469
2372.000000	6.138816
2371.000000	6.131248
2370.000000	6.114666
2369.000000	6.111327
2368.000000	6.108656
2367.000000	6.090183
2366.000000	6.082949
2365.000000	6.092074
2364.000000	6.072265
2363.000000	6.050897
2362.000000	6.061804
2361.000000	6.051565
2360.000000	6.031644
2359.000000	6.027527
2358.000000	6.028306
2357.000000	6.025746
2356.000000	6.007495
2355.000000	5.998814
2354.000000	5.999371
2353.000000	6.003043
2352.000000	5.982121
2351.000000	5.976779
2350.000000	5.993250
2349.000000	5.998035
2348.000000	5.995476
2347.000000	5.996143
2346.000000	5.998814
2345.000000	6.002153
2344.000000	6.000261
2343.000000	6.007940
2342.000000	6.018067
2341.000000	6.033425
2340.000000	6.052678
2339.000000	6.047670
2338.000000	6.049896
2337.000000	6.064809
2336.000000	6.069928
2335.000000	6.059244
2334.000000	6.054014
2333.000000	6.054793
2332.000000	6.070484
2331.000000	6.070373
2330.000000	6.040659
2329.000000	6.041327
2328.000000	6.042551
2327.000000	6.027861
2326.000000	6.003711
2325.000000	6.003488
2324.000000	5.996811
2323.000000	5.990468
2322.000000	5.979561
2321.000000	5.939052
2320.000000	5.936381
2319.000000	5.924918
2318.000000	5.898765
2317.000000	5.875395
2316.000000	5.843789
2315.000000	5.811960
2314.000000	5.811292
2313.000000	5.775234
2312.000000	5.749527
2311.000000	5.753644
2310.000000	5.729050
2309.000000	5.717030
2308.000000	5.699892
2307.000000	5.683644
2306.000000	5.685090
2305.000000	5.674184
2304.000000	5.670623
2303.000000	5.670623
2302.000000	5.669621
2301.000000	5.694439
2300.000000	5.711355
2299.000000	5.720146
2298.000000	5.731164
2297.000000	5.747523
2296.000000	5.770894
2295.000000	5.793152
2294.000000	5.817747
2293.000000	5.819082
2292.000000	5.825315
2291.000000	5.838892
2290.000000	5.849353
2289.000000	5.859035
2288.000000	5.880625
2287.000000	5.889862
2286.000000	5.881961
2285.000000	5.893312
2284.000000	5.900657
2283.000000	5.897207
2282.000000	5.890085
2281.000000	5.865935
2280.000000	5.856253
2279.000000	5.838335
2278.000000	5.849130
2277.000000	5.843455
2276.000000	5.825092
2275.000000	5.783025
2274.000000	5.787365
2273.000000	5.811403
2272.000000	5.801054
2271.000000	5.812739
2270.000000	5.806952
2269.000000	5.814408
2268.000000	5.807620
2267.000000	5.841897
2266.000000	5.847016
2265.000000	5.869274
2264.000000	5.897986
2263.000000	5.952741
2262.000000	5.981564
2261.000000	6.037209
2260.000000	6.075270
2259.000000	6.140930
2258.000000	6.201360
2257.000000	6.245208
2256.000000	6.330344
2255.000000	6.402460
2254.000000	6.463780
2253.000000	6.536452
2252.000000	6.610348
2251.000000	6.682018
2250.000000	6.732098
2249.000000	6.799428
2248.000000	6.860414
2247.000000	6.920399
2246.000000	6.982164
2245.000000	7.035472
2244.000000	7.072197
2243.000000	7.153104
2242.000000	7.196730
2241.000000	7.227000
2240.000000	7.257382
2239.000000	7.299338
2238.000000	7.332836
2237.000000	7.340293
2236.000000	7.387479
2235.000000	7.393823
2234.000000	7.430771
2233.000000	7.454364
2232.000000	7.468609
2231.000000	7.474841
2230.000000	7.505891
2229.000000	7.493426
2228.000000	7.476955
2227.000000	7.523808
2226.000000	7.499770
2225.000000	7.506781
2224.000000	7.465938
2223.000000	7.471057
2222.000000	7.474507
2221.000000	7.462377
2220.000000	7.473506
2219.000000	7.460262
2218.000000	7.436669
2217.000000	7.431216
2216.000000	7.416192
2215.000000	7.406732
2214.000000	7.370118
2213.000000	7.357097
2212.000000	7.367892
2211.000000	7.337844
2210.000000	7.343409
2209.000000	7.335952
2208.000000	7.333059
2207.000000	7.327717
2206.000000	7.305570
2205.000000	7.302232
2204.000000	7.265061
2203.000000	7.285538
2202.000000	7.264505
2201.000000	7.282867
2200.000000	7.246810
2199.000000	7.239799
2198.000000	7.249815
2197.000000	7.263280
2196.000000	7.220768
2195.000000	7.220768
2194.000000	7.202739
2193.000000	7.207970
2192.000000	7.209083
2191.000000	7.199846
2190.000000	7.199289
2189.000000	7.198622
2188.000000	7.199623
2187.000000	7.193725
2186.000000	7.169798
2185.000000	7.186602
2184.000000	7.166014
2183.000000	7.159893
2182.000000	7.164456
2181.000000	7.147095
2180.000000	7.154217
2179.000000	7.143533
2178.000000	7.126284
2177.000000	7.141530
2176.000000	7.114042
2175.000000	7.107698
2174.000000	7.117937
2173.000000	7.115711
2172.000000	7.115711
2171.000000	7.106919
2170.000000	7.113597
2169.000000	7.112595
2168.000000	7.108366
2167.000000	7.117269
2166.000000	7.128398
2165.000000	7.150211
2164.000000	7.136967
2163.000000	7.132961
2162.000000	7.157667
2161.000000	7.136077
2160.000000	7.156666
2159.000000	7.171912
2158.000000	7.194281
2157.000000	7.209750
2156.000000	7.215426
2155.000000	7.228892
2154.000000	7.265395
2153.000000	7.271850
2152.000000	7.277748
2151.000000	7.305236
2150.000000	7.334728
2149.000000	7.343075
2148.000000	7.367781
2147.000000	7.381469
2146.000000	7.396271
2145.000000	7.417750
2144.000000	7.433664
2143.000000	7.467496
2142.000000	7.488307
2141.000000	7.486526
2140.000000	7.492981
2139.000000	7.536495
2138.000000	7.546400
2137.000000	7.565096
2136.000000	7.598594
2135.000000	7.612839
2134.000000	7.612839
2133.000000	7.617402
2132.000000	7.627307
2131.000000	7.649565
2130.000000	7.654350
2129.000000	7.661807
2128.000000	7.659247
2127.000000	7.667037
2126.000000	7.667594
2125.000000	7.673603
2124.000000	7.682173
2123.000000	7.677053
2122.000000	7.678611
2121.000000	7.680837
2120.000000	7.680058
2119.000000	7.688850
2118.000000	7.681393
2117.000000	7.667148
2116.000000	7.657689
2115.000000	7.652458
2114.000000	7.653571
2113.000000	7.645225
2112.000000	7.655129
2111.000000	7.658134
2110.000000	7.636099
2109.000000	7.633428
2108.000000	7.635765
2107.000000	7.612728
2106.000000	7.599151
2105.000000	7.587577
2104.000000	7.589469
2103.000000	7.570327
2102.000000	7.563984
2101.000000	7.555303
2100.000000	7.535827
2099.000000	7.524365
2098.000000	7.527147
2097.000000	7.526702
2096.000000	7.507004
2095.000000	7.515128
2094.000000	7.523474
2093.000000	7.515462
2092.000000	7.518466
2091.000000	7.499436
2090.000000	7.486415
2089.000000	7.484301
2088.000000	7.488196
2087.000000	7.485747
2086.000000	7.467273
2085.000000	7.473839
2084.000000	7.466272
2083.000000	7.443124
2082.000000	7.443012
2081.000000	7.437559
2080.000000	7.427877
2079.000000	7.426653
2078.000000	7.401390
2077.000000	7.374792
2076.000000	7.363107
2075.000000	7.356096
2074.000000	7.345968
2073.000000	7.311803
2072.000000	7.296667
2071.000000	7.275077
2070.000000	7.249926
2069.000000	7.237239
2068.000000	7.215204
2067.000000	7.190831
2066.000000	7.175473
2065.000000	7.154996
2064.000000	7.137301
2063.000000	7.114821
2062.000000	7.094900
2061.000000	7.073199
2060.000000	7.058731
2059.000000	7.039923
2058.000000	7.028238
2057.000000	7.022896
2056.000000	7.016998
2055.000000	7.012769
2054.000000	7.004645
2053.000000	7.013103
2052.000000	7.005424
2051.000000	7.025122
2050.000000	7.026569
2049.000000	7.040925
2048.000000	7.062181
2047.000000	7.071084
2046.000000	7.090894
2045.000000	7.131069
2044.000000	7.165346
2043.000000	7.206634
2042.000000	7.224663
2041.000000	7.235570
2040.000000	7.261834
2039.000000	7.292104
2038.000000	7.327939
2037.000000	7.344633
2036.000000	7.364442
2035.000000	7.390373
2034.000000	7.410516
2033.000000	7.422535
2032.000000	7.435890
2031.000000	7.449245
2030.000000	7.464714
2029.000000	7.481184
2028.000000	7.488418
2027.000000	7.504221
2026.000000	7.502441
2025.000000	7.500437
2024.000000	7.514571
2023.000000	7.530152
2022.000000	7.531376
2021.000000	7.514126
2020.000000	7.539277
2019.000000	7.549516
2018.000000	7.542393
2017.000000	7.539166
2016.000000	7.545955
2015.000000	7.531487
2014.000000	7.517576
2013.000000	7.521249
2012.000000	7.520915
2011.000000	7.491868
2010.000000	7.503331
2009.000000	7.477735
2008.000000	7.448354
2007.000000	7.447909
2006.000000	7.437448
2005.000000	7.431995
2004.000000	7.400389
2003.000000	7.394379
2002.000000	7.375126
2001.000000	7.355094
2000.000000	7.347749
1999.000000	7.310690
1998.000000	7.270737
1997.000000	7.264171
1996.000000	7.232453
1995.000000	7.206189
1994.000000	7.203296
1993.000000	7.169798
1992.000000	7.135743
1991.000000	7.111927
1990.000000	7.105584
1989.000000	7.067634
1988.000000	7.032912
1987.000000	7.033914
1986.000000	6.986393
1985.000000	6.955010
1984.000000	6.932418
1983.000000	6.887902
1982.000000	6.864866
1981.000000	6.862751
1980.000000	6.838824
1979.000000	6.792194
1978.000000	6.774833
1977.000000	6.765373
1976.000000	6.712288
1975.000000	6.708727
1974.000000	6.669553
1973.000000	6.645626
1972.000000	6.612462
1971.000000	6.601222
1970.000000	6.561380
1969.000000	6.539679
1968.000000	6.528105
1967.000000	6.502063
1966.000000	6.466451
1965.000000	6.457993
1964.000000	6.435401
1963.000000	6.394447
1962.000000	6.398119
1961.000000	6.398676
1960.000000	6.374860
1959.000000	6.336799
1958.000000	6.305638
1957.000000	6.311091
1956.000000	6.302411
1955.000000	6.275590
1954.000000	6.245542
1953.000000	6.237418
1952.000000	6.200915
1951.000000	6.201360
1950.000000	6.205144
1949.000000	6.161408
1948.000000	6.143379
1947.000000	6.154508
1946.000000	6.125572
1945.000000	6.102758
1944.000000	6.091741
1943.000000	6.104984
1942.000000	6.108323
1941.000000	6.072488
1940.000000	6.099086
1939.000000	6.066812
1938.000000	6.064809
1937.000000	6.083728
1936.000000	6.092297
1935.000000	6.086844
1934.000000	6.093855
1933.000000	6.078386
1932.000000	6.095636
1931.000000	6.081725
1930.000000	6.118784
1929.000000	6.135811
1928.000000	6.129690
1927.000000	6.173872
1926.000000	6.186336
1925.000000	6.199914
1924.000000	6.213491
1923.000000	6.246210
1922.000000	6.273253
1921.000000	6.313206
1920.000000	6.368405
1919.000000	6.407356
1918.000000	6.424717
1917.000000	6.481475
1916.000000	6.503955
1915.000000	6.529440
1914.000000	6.582970
1913.000000	6.661207
1912.000000	6.724641
1911.000000	6.786741
1910.000000	6.855740
1909.000000	6.928189
1908.000000	6.958126
1907.000000	6.997522
1906.000000	7.071307
1905.000000	7.180148
1904.000000	7.288654
1903.000000	7.391152
1902.000000	7.465938
1901.000000	7.582124
1900.000000	7.685177
1899.000000	7.818613
1898.000000	7.953384
1897.000000	8.092718
1896.000000	8.202671
1895.000000	8.323754
1894.000000	8.435711
1893.000000	8.583614
1892.000000	8.745651
1891.000000	8.945526
1890.000000	9.169551
1889.000000	9.360634
1888.000000	9.557838
1887.000000	9.785313
1886.000000	9.986301
1885.000000	10.221900
1884.000000	10.499455
1883.000000	10.780015
1882.000000	11.071147
1881.000000	11.356603
1880.000000	11.634047
1879.000000	11.900028
1878.000000	12.148425
1877.000000	12.449128
1876.000000	12.751278
1875.000000	13.010470
1874.000000	13.271332
1873.000000	13.551001
1872.000000	13.865949
1871.000000	14.135936
1870.000000	14.401695
1869.000000	14.674242
1868.000000	14.924865
1867.000000	15.114835
1866.000000	15.295680
1865.000000	15.422994
1864.000000	15.559991
1863.000000	15.687974
1862.000000	15.781123
1861.000000	15.899200
1860.000000	16.052111
1859.000000	16.187884
1858.000000	16.315087
1857.000000	16.412688
1856.000000	16.479350
1855.000000	16.550464
1854.000000	16.615123
1853.000000	16.658637
1852.000000	16.712501
1851.000000	16.741547
1850.000000	16.749115
1849.000000	16.733757
1848.000000	16.780832
1847.000000	16.837923
1846.000000	16.887336
1845.000000	16.879434
1844.000000	16.843043
1843.000000	16.774600
1842.000000	16.760578
1841.000000	16.796301
1840.000000	16.812995
1839.000000	16.825459
1838.000000	16.781277
1837.000000	16.782947
1836.000000	16.779163
1835.000000	16.773598
1834.000000	16.744441
1833.000000	16.699702
1832.000000	16.645282
1831.000000	16.587746
1830.000000	16.587523
1829.000000	16.563151
1828.000000	16.525424
1827.000000	16.493929
1826.000000	16.461544
1825.000000	16.434834
1824.000000	16.386201
1823.000000	16.332449
1822.000000	16.294054
1821.000000	16.286709
1820.000000	16.289825
1819.000000	16.303959
1818.000000	16.272464
1817.000000	16.233513
1816.000000	16.204800
1815.000000	16.185992
1814.000000	16.195007
1813.000000	16.165292
1812.000000	16.138249
1811.000000	16.139251
1810.000000	16.130236
1809.000000	16.099521
1808.000000	16.058232
1807.000000	16.022397
1806.000000	15.997468
1805.000000	15.970314
1804.000000	15.941268
1803.000000	15.905544
1802.000000	15.864367
1801.000000	15.835098
1800.000000	15.808055
1799.000000	15.766878
1798.000000	15.720025
1797.000000	15.688753
1796.000000	15.654142
1795.000000	15.618752
1794.000000	15.591152
1793.000000	15.567336
1792.000000	15.521930
1791.000000	15.490213
1790.000000	15.469068
1789.000000	15.432899
1788.000000	15.407859
1787.000000	15.371245
1786.000000	15.339305
1785.000000	15.304694
1784.000000	15.268748
1783.000000	15.236585
1782.000000	15.200861
1781.000000	15.156234
1780.000000	15.117172
1779.000000	15.075550
1778.000000	15.026471
1777.000000	14.986407
1776.000000	14.947901
1775.000000	14.898378
1774.000000	14.846406
1773.000000	14.795213
1772.000000	14.730665
1771.000000	14.681030
1770.000000	14.611697
1769.000000	14.545480
1768.000000	14.492395
1767.000000	14.433635
1766.000000	14.369421
1765.000000	14.317004
1764.000000	14.300755
1763.000000	14.280612
1762.000000	14.262361
1761.000000	14.247337
1760.000000	14.264253
1759.000000	14.308880
1758.000000	14.343268
1757.000000	14.379326
1756.000000	14.413825
1755.000000	14.445320
1754.000000	14.486274
1753.000000	14.510758
1752.000000	14.517769
1751.000000	14.523667
1750.000000	14.537245
1749.000000	14.538246
1748.000000	14.538024
1747.000000	14.525559
1746.000000	14.489724
1745.000000	14.448881
1744.000000	14.410375
1743.000000	14.342711
1742.000000	14.262583
1741.000000	14.193028
1740.000000	14.088527
1739.000000	13.989925
1738.000000	13.876076
1737.000000	13.782594
1736.000000	13.688777
1735.000000	13.595739
1734.000000	13.521398
1733.000000	13.484339
1732.000000	13.458520
1731.000000	13.441047
1730.000000	13.437709
1729.000000	13.472765
1728.000000	13.515389
1727.000000	13.549220
1726.000000	13.589730
1725.000000	13.611654
1724.000000	13.643594
1723.000000	13.685883
1722.000000	13.728173
1721.000000	13.768905
1720.000000	13.815424
1719.000000	13.863167
1718.000000	13.930608
1717.000000	13.983248
1716.000000	14.058145
1715.000000	14.111342
1714.000000	14.188799
1713.000000	14.269372
1712.000000	14.341932
1711.000000	14.390566
1710.000000	14.455225
1709.000000	14.467689
1708.000000	14.496068
1707.000000	14.514653
1706.000000	14.507085
1705.000000	14.515766
1704.000000	14.506863
1703.000000	14.482491
1702.000000	14.449215
1701.000000	14.412156
1700.000000	14.340041
1699.000000	14.279499
1698.000000	14.219514
1697.000000	14.143615
1696.000000	14.087414
1695.000000	14.033217
1694.000000	14.003169
1693.000000	14.025092
1692.000000	14.070944
1691.000000	14.097764
1690.000000	14.142725
1689.000000	14.212615
1688.000000	14.288514
1687.000000	14.350947
1686.000000	14.421949
1685.000000	14.481155
1684.000000	14.530011
1683.000000	14.643971
1682.000000	14.753479
1681.000000	14.924753
1680.000000	15.154565
1679.000000	15.406524
1678.000000	15.666606
1677.000000	15.964193
1676.000000	16.244641
1675.000000	16.542340
1674.000000	16.769926
1673.000000	17.003744
1672.000000	17.221871
1671.000000	17.385911
1670.000000	17.548504
1669.000000	17.705310
1668.000000	17.830733
1667.000000	17.980640
1666.000000	18.064440
1665.000000	18.195650
1664.000000	18.235825
1663.000000	18.325858
1662.000000	18.407767
1661.000000	18.474763
1660.000000	18.544764
1659.000000	18.577928
1658.000000	18.624892
1657.000000	18.658056
1656.000000	18.686323
1655.000000	18.695338
1654.000000	18.739297
1653.000000	18.720712
1652.000000	18.730060
1651.000000	18.712810
1650.000000	18.684765
1649.000000	18.685656
1648.000000	18.656164
1647.000000	18.647261
1646.000000	18.597181
1645.000000	18.583492
1644.000000	18.551886
1643.000000	18.526624
1642.000000	18.465860
1641.000000	18.445828
1640.000000	18.402536
1639.000000	18.373379
1638.000000	18.334205
1637.000000	18.255078
1636.000000	18.238051
1635.000000	18.184187
1634.000000	18.099385
1633.000000	18.091261
1632.000000	18.033391
1631.000000	17.984423
1630.000000	17.924216
1629.000000	17.861783
1628.000000	17.792895
1627.000000	17.751050
1626.000000	17.701193
1625.000000	17.638871
1624.000000	17.553623
1623.000000	17.509776
1622.000000	17.441667
1621.000000	17.418185
1620.000000	17.330600
1619.000000	17.289980
1618.000000	17.238342
1617.000000	17.170344
1616.000000	17.102791
1615.000000	17.071297
1614.000000	17.035684
1613.000000	16.964237
1612.000000	16.901581
1611.000000	16.835030
1610.000000	16.797303
1609.000000	16.739655
1608.000000	16.685791
1607.000000	16.616903
1606.000000	16.591975
1605.000000	16.527093
1604.000000	16.460431
1603.000000	16.403562
1602.000000	16.329444
1601.000000	16.270015
1600.000000	16.214371
1599.000000	16.152717
1598.000000	16.098630
1597.000000	16.050553
1596.000000	15.988788
1595.000000	15.936482
1594.000000	15.870488
1593.000000	15.811059
1592.000000	15.781568
1591.000000	15.730041
1590.000000	15.674619
1589.000000	15.640787
1588.000000	15.594157
1587.000000	15.525937
1586.000000	15.491660
1585.000000	15.452486
1584.000000	15.425665
1583.000000	15.369353
1582.000000	15.324949
1581.000000	15.284106
1580.000000	15.260735
1579.000000	15.230687
1578.000000	15.177046
1577.000000	15.137872
1576.000000	15.118285
1575.000000	15.109604
1574.000000	15.069095
1573.000000	15.057744
1572.000000	15.028141
1571.000000	15.006773
1570.000000	14.993419
1569.000000	14.987409
1568.000000	14.977170
1567.000000	14.964483
1566.000000	14.964150
1565.000000	14.942003
1564.000000	14.927090
1563.000000	14.923195
1562.000000	14.929539
1561.000000	14.914181
1560.000000	14.885357
1559.000000	14.871780
1558.000000	14.861318
1557.000000	14.846962
1556.000000	14.814466
1555.000000	14.783527
1554.000000	14.750586
1553.000000	14.722764
1552.000000	14.682477
1551.000000	14.640966
1550.000000	14.591665
1549.000000	14.564622
1548.000000	14.531013
1547.000000	14.497960
1546.000000	14.468357
1545.000000	14.433301
1544.000000	14.392346
1543.000000	14.355287
1542.000000	14.345271
1541.000000	14.310771
1540.000000	14.264253
1539.000000	14.237766
1538.000000	14.215508
1537.000000	14.195476
1536.000000	14.166763
1535.000000	14.119799
1534.000000	14.096763
1533.000000	14.075506
1532.000000	14.037891
1531.000000	13.997270
1530.000000	13.955537
1529.000000	13.945298
1528.000000	13.919257
1527.000000	13.868843
1526.000000	13.822658
1525.000000	13.780368
1524.000000	13.738634
1523.000000	13.699683
1522.000000	13.664516
1521.000000	13.613768
1520.000000	13.570922
1519.000000	13.529634
1518.000000	13.490794
1517.000000	13.447057
1516.000000	13.396087
1515.000000	13.353129
1514.000000	13.316292
1513.000000	13.274448
1512.000000	13.223477
1511.000000	13.153254
1510.000000	13.109851
1509.000000	13.072792
1508.000000	13.020264
1507.000000	12.985987
1506.000000	12.947926
1505.000000	12.902631
1504.000000	12.849657
1503.000000	12.791898
1502.000000	12.746159
1501.000000	12.698082
1500.000000	12.660243
1499.000000	12.621292
1498.000000	12.568653
1497.000000	12.538159
1496.000000	12.519908
1495.000000	12.481513
1494.000000	12.442896
1493.000000	12.414406
1492.000000	12.395821
1491.000000	12.360876
1490.000000	12.320144
1489.000000	12.288983
1488.000000	12.258045
1487.000000	12.234452
1486.000000	12.219761
1485.000000	12.193052
1484.000000	12.177026
1483.000000	12.157106
1482.000000	12.141414
1481.000000	12.122161
1480.000000	12.103798
1479.000000	12.095897
1478.000000	12.079426
1477.000000	12.070189
1476.000000	12.051715
1475.000000	12.054386
1474.000000	12.047486
1473.000000	12.039362
1472.000000	12.061174
1471.000000	12.048710
1470.000000	12.045149
1469.000000	12.057613
1468.000000	12.051826
1467.000000	12.052383
1466.000000	12.057502
1465.000000	12.075865
1464.000000	12.072971
1463.000000	12.072749
1462.000000	12.086214
1461.000000	12.099903
1460.000000	12.118711
1459.000000	12.154546
1458.000000	12.176025
1457.000000	12.203736
1456.000000	12.230111
1455.000000	12.264277
1454.000000	12.301670
1453.000000	12.325931
1452.000000	12.361766
1451.000000	12.416298
1450.000000	12.454693
1449.000000	12.501990
1448.000000	12.549066
1447.000000	12.591912
1446.000000	12.636539
1445.000000	12.702088
1444.000000	12.764299
1443.000000	12.812042
1442.000000	12.867909
1441.000000	12.914316
1440.000000	12.966177
1439.000000	13.020041
1438.000000	13.086481
1437.000000	13.164717
1436.000000	13.233605
1435.000000	13.313176
1434.000000	13.397979
1433.000000	13.474323
1432.000000	13.567138
1431.000000	13.646932
1430.000000	13.753436
1429.000000	13.852261
1428.000000	13.937397
1427.000000	14.080514
1426.000000	14.176223
1425.000000	14.282281
1424.000000	14.430741
1423.000000	14.592889
1422.000000	14.740013
1421.000000	14.884467
1420.000000	15.028252
1419.000000	15.210655
1418.000000	15.392167
1417.000000	15.593378
1416.000000	15.746289
1415.000000	15.961411
1414.000000	16.169967
1413.000000	16.417140
1412.000000	16.654519
1411.000000	16.851389
1410.000000	17.119262
1409.000000	17.397930
1408.000000	17.721225
1407.000000	18.054424
1406.000000	18.364809
1405.000000	18.679312
1404.000000	19.045787
1403.000000	19.440084
1402.000000	19.743013
1401.000000	20.062969
1400.000000	20.550081
1399.000000	21.017050
1398.000000	21.320090
1397.000000	21.580952
1396.000000	21.942307
1395.000000	22.420739
1394.000000	22.863447
1393.000000	23.205550
1392.000000	23.570355
1391.000000	24.033652
1390.000000	24.502735
1389.000000	24.865537
1388.000000	25.366783
1387.000000	25.931241
1386.000000	26.495143
1385.000000	27.033671
1384.000000	27.546713
1383.000000	28.120520
1382.000000	28.714024
1381.000000	29.318435
1380.000000	29.835150
1379.000000	30.180035
1378.000000	30.513680
1377.000000	30.769199
1376.000000	31.050761
1375.000000	31.284134
1374.000000	31.567587
1373.000000	31.826334
1372.000000	32.138389
1371.000000	32.471811
1370.000000	32.861990
1369.000000	33.152232
1368.000000	33.451933
1367.000000	33.777565
1366.000000	34.032306
1365.000000	34.248763
1364.000000	34.512407
1363.000000	34.672218
1362.000000	34.875432
1361.000000	35.082318
1360.000000	35.339618
1359.000000	35.432433
1358.000000	35.572992
1357.000000	35.705871
1356.000000	35.872582
1355.000000	36.116193
1354.000000	36.422016
1353.000000	36.751098
1352.000000	37.058589
1351.000000	37.483936
1350.000000	37.910952
1349.000000	38.320607
1348.000000	38.716017
1347.000000	39.123669
1346.000000	39.535661
1345.000000	39.861293
1344.000000	40.229548
1343.000000	40.568090
1342.000000	40.917092
1341.000000	41.259863
1340.000000	41.621552
1339.000000	41.943622
1338.000000	42.300415
1337.000000	42.641182
1336.000000	42.984509
1335.000000	43.301349
1334.000000	43.637219
1333.000000	43.943598
1332.000000	44.265780
1331.000000	44.572604
1330.000000	44.884102
1329.000000	45.198494
1328.000000	45.466923
1327.000000	45.747149
1326.000000	46.012796
1325.000000	46.304484
1324.000000	46.585044
1323.000000	46.823536
1322.000000	47.050900
1321.000000	47.277596
1320.000000	47.496168
1319.000000	47.713626
1318.000000	47.946109
1317.000000	48.162344
1316.000000	48.351424
1315.000000	48.549630
1314.000000	48.748615
1313.000000	48.924785
1312.000000	49.107744
1311.000000	49.259654
1310.000000	49.432708
1309.000000	49.564252
1308.000000	49.696797
1307.000000	49.847038
1306.000000	49.958661
1305.000000	50.082191
1304.000000	50.184577
1303.000000	50.273163
1302.000000	50.369762
1301.000000	50.457681
1300.000000	50.529128
1299.000000	50.586108
1298.000000	50.652770
1297.000000	50.714425
1296.000000	50.765729
1295.000000	50.804012
1294.000000	50.847192
1293.000000	50.893489
1292.000000	50.923537
1291.000000	50.929991
1290.000000	50.946017
1289.000000	50.959372
1288.000000	50.976065
1287.000000	50.957369
1286.000000	50.944236
1285.000000	50.931661
1284.000000	50.891040
1283.000000	50.854204
1282.000000	50.820706
1281.000000	50.785427
1280.000000	50.740132
1279.000000	50.698844
1278.000000	50.663677
1277.000000	50.633295
1276.000000	50.601577
1275.000000	50.566521
1274.000000	50.545933
1273.000000	50.517109
1272.000000	50.495964
1271.000000	50.490066
1270.000000	50.472593
1269.000000	50.453674
1268.000000	50.429636
1267.000000	50.404707
1266.000000	50.386344
1265.000000	50.354738
1264.000000	50.320016
1263.000000	50.281288
1262.000000	50.238886
1261.000000	50.189919
1260.000000	50.141954
1259.000000	50.100777
1258.000000	50.061047
1257.000000	50.002508
1256.000000	49.932174
1255.000000	49.869518
1254.000000	49.803746
1253.000000	49.748213
1252.000000	49.671201
1251.000000	49.568704
1250.000000	49.469434
1249.000000	49.383407
1248.000000	49.273788
1247.000000	49.177411
1246.000000	49.064008
1245.000000	48.945374
1244.000000	48.819172
1243.000000	48.693193
1242.000000	48.580346
1241.000000	48.449915
1240.000000	48.316368
1239.000000	48.192614
1238.000000	48.054727
1237.000000	47.912277
1236.000000	47.771831
1235.000000	47.633387
1234.000000	47.492161
1233.000000	47.347263
1232.000000	47.187563
1231.000000	47.026750
1230.000000	46.858036
1229.000000	46.681198
1228.000000	46.500798
1227.000000	46.307267
1226.000000	46.107725
1225.000000	45.911300
1224.000000	45.712093
1223.000000	45.496748
1222.000000	45.275506
1221.000000	45.051481
1220.000000	44.842480
1219.000000	44.633702
1218.000000	44.418023
1217.000000	44.202790
1216.000000	44.007701
1215.000000	43.833867
1214.000000	43.667379
1213.000000	43.505898
1212.000000	43.348313
1211.000000	43.195513
1210.000000	43.042713
1209.000000	42.882791
1208.000000	42.767384
1207.000000	42.664108
1206.000000	42.549146
1205.000000	42.443978
1204.000000	42.360845
1203.000000	42.287951
1202.000000	42.226631
1201.000000	42.180668
1200.000000	42.125469
1199.000000	42.047121
1198.000000	41.983687
1197.000000	41.890649
1196.000000	41.777245
1195.000000	41.641473
1194.000000	41.475986
1193.000000	41.265761
1192.000000	41.023039
1191.000000	40.746931
1190.000000	40.448565
1189.000000	40.162552
1188.000000	39.926508
1187.000000	39.685567
1186.000000	39.544342
1185.000000	39.485692
1184.000000	39.531766
1183.000000	39.682563
1182.000000	39.907589
1181.000000	40.216528
1180.000000	40.598360
1179.000000	41.034947
1178.000000	41.456955
1177.000000	41.854814
1176.000000	42.223403
1175.000000	42.541579
1174.000000	42.842727
1173.000000	43.135862
1172.000000	43.428886
1171.000000	43.717125
1170.000000	44.028289
1169.000000	44.321870
1168.000000	44.629361
1167.000000	44.937632
1166.000000	45.272835
1165.000000	45.615271
1164.000000	45.971953
1163.000000	46.352339
1162.000000	46.751199
1161.000000	47.158183
1160.000000	47.554817
1159.000000	47.948112
1158.000000	48.343745
1157.000000	48.745944
1156.000000	49.115090
1155.000000	49.471882
1154.000000	49.797848
1153.000000	50.103002
1152.000000	50.369540
1151.000000	50.596681
1150.000000	50.803567
1149.000000	51.015795
1148.000000	51.230027
1147.000000	51.453829
1146.000000	51.684643
1145.000000	51.971323
1144.000000	52.284268
1143.000000	52.622142
1142.000000	53.032910
1141.000000	53.453471
1140.000000	53.880264
1139.000000	54.334992
1138.000000	54.822883
1137.000000	55.329248
1136.000000	55.854644
1135.000000	56.429118
1134.000000	57.010826
1133.000000	57.531881
1132.000000	57.991282
1131.000000	58.419857
1130.000000	58.832850
1129.000000	59.202552
1128.000000	59.523176
1127.000000	59.782814
1126.000000	59.988365
1125.000000	60.187461
1124.000000	60.338035
1123.000000	60.463124
1122.000000	60.592664
1121.000000	60.694716
1120.000000	60.774065
1119.000000	60.837166
1118.000000	60.897930
1117.000000	60.920522
1116.000000	60.958249
1115.000000	60.973607
1114.000000	61.003321
1113.000000	60.989521
1112.000000	60.990968
1111.000000	60.999537
1110.000000	61.000650
1109.000000	60.996087
1108.000000	60.967152
1107.000000	60.982065
1106.000000	60.978281
1105.000000	60.974608
1104.000000	60.968932
1103.000000	60.959028
1102.000000	60.939775
1101.000000	60.947565
1100.000000	60.949123
1099.000000	60.919075
1098.000000	60.910951
1097.000000	60.903272
1096.000000	60.877230
1095.000000	60.861761
1094.000000	60.818803
1093.000000	60.791760
1092.000000	60.749582
1091.000000	60.708627
1090.000000	60.689931
1089.000000	60.625383
1088.000000	60.588658
1087.000000	60.548594
1086.000000	60.471136
1085.000000	60.424506
1084.000000	60.362073
1083.000000	60.295856
1082.000000	60.216285
1081.000000	60.188796
1080.000000	60.139718
1079.000000	60.046903
1078.000000	59.990590
1077.000000	59.886980
1076.000000	59.848252
1075.000000	59.760445
1074.000000	59.708139
1073.000000	59.631683
1072.000000	59.565132
1071.000000	59.468533
1070.000000	59.401760
1069.000000	59.346227
1068.000000	59.243284
1067.000000	59.136447
1066.000000	59.075683
1065.000000	58.990658
1064.000000	58.902851
1063.000000	58.815934
1062.000000	58.726569
1061.000000	58.626743
1060.000000	58.535708
1059.000000	58.446232
1058.000000	58.360762
1057.000000	58.280189
1056.000000	58.169011
1055.000000	58.071856
1054.000000	57.978707
1053.000000	57.879771
1052.000000	57.783951
1051.000000	57.709165
1050.000000	57.623361
1049.000000	57.518749
1048.000000	57.427937
1047.000000	57.351482
1046.000000	57.251433
1045.000000	57.167743
1044.000000	57.074260
1043.000000	56.979776
1042.000000	56.912446
1041.000000	56.830871
1040.000000	56.751967
1039.000000	56.666275
1038.000000	56.572569
1037.000000	56.487767
1036.000000	56.380373
1035.000000	56.304140
1034.000000	56.203424
1033.000000	56.092914
1032.000000	56.001990
1031.000000	55.896488
1030.000000	55.805565
1029.000000	55.691605
1028.000000	55.577311
1027.000000	55.494624
1026.000000	55.384559
1025.000000	55.265813
1024.000000	55.147068
1023.000000	55.038227
1022.000000	54.942852
1021.000000	54.828002
1020.000000	54.724837
1019.000000	54.618890
1018.000000	54.519175
1017.000000	54.414341
1016.000000	54.316963
1015.000000	54.233273
1014.000000	54.148137
1013.000000	54.047198
1012.000000	53.977531
1011.000000	53.915988
1010.000000	53.848881
1009.000000	53.796241
1008.000000	53.739373
1007.000000	53.700644
1006.000000	53.653680
1005.000000	53.605158
1004.000000	53.545173
1003.000000	53.485411
1002.000000	53.454250
1001.000000	53.416746
1000.000000	53.362548
999.000000	53.311355
998.000000	53.256044
997.000000	53.210861
996.000000	53.173690
995.000000	53.140860
994.000000	53.087775
993.000000	53.046376
992.000000	52.988505
991.000000	52.959348
990.000000	52.930078
989.000000	52.903592
988.000000	52.871207
987.000000	52.843941
986.000000	52.810443
985.000000	52.785848
984.000000	52.754909
983.000000	52.733542
982.000000	52.722413
981.000000	52.719408
980.000000	52.687246
979.000000	52.644399
978.000000	52.647070
977.000000	52.653970
976.000000	52.626371
975.000000	52.599105
974.000000	52.601331
973.000000	52.595655
972.000000	52.584637
971.000000	52.575734
970.000000	52.563381
969.000000	52.555591
968.000000	52.554700
967.000000	52.550138
966.000000	52.549247
965.000000	52.563826
964.000000	52.548691
963.000000	52.544573
962.000000	52.572062
961.000000	52.588978
960.000000	52.595432
959.000000	52.616243
958.000000	52.632825
957.000000	52.648851
956.000000	52.660425
955.000000	52.680123
954.000000	52.719965
953.000000	52.742779
952.000000	52.745339
951.000000	52.766706
950.000000	52.784401
949.000000	52.795419
948.000000	52.813002
947.000000	52.822907
946.000000	52.826246
945.000000	52.831810
944.000000	52.843607
943.000000	52.858408
942.000000	52.838933
941.000000	52.827581
940.000000	52.808662
939.000000	52.775832
938.000000	52.768375
937.000000	52.745227
936.000000	52.734432
935.000000	52.718073
934.000000	52.686467
933.000000	52.666212
932.000000	52.648183
931.000000	52.626482
930.000000	52.591537
929.000000	52.552920
928.000000	52.532888
927.000000	52.513524
926.000000	52.482029
925.000000	52.460216
924.000000	52.429723
923.000000	52.398117
922.000000	52.348482
921.000000	52.340692
920.000000	52.321550
919.000000	52.287495
918.000000	52.249991
917.000000	52.199800
916.000000	52.186000
915.000000	52.145379
914.000000	52.103423
913.000000	52.056014
912.000000	52.016173
911.000000	51.973994
910.000000	51.931593
909.000000	51.880511
908.000000	51.848238
907.000000	51.817188
906.000000	51.824756
905.000000	51.810844
904.000000	51.789811
903.000000	51.769890
902.000000	51.751527
901.000000	51.741956
900.000000	51.751750
899.000000	51.750081
898.000000	51.724818
897.000000	51.719365
896.000000	51.736726
895.000000	51.727378
894.000000	51.711686
893.000000	51.692655
892.000000	51.664944
891.000000	51.627106
890.000000	51.627885
889.000000	51.608410
888.000000	51.580699
887.000000	51.543973
886.000000	51.498567
885.000000	51.446039
884.000000	51.417660
883.000000	51.367357
882.000000	51.329185
881.000000	51.281888
880.000000	51.219120
879.000000	51.146337
878.000000	51.071996
877.000000	51.008562
876.000000	50.904729
875.000000	50.792438
874.000000	50.656109
873.000000	50.534915
872.000000	50.458905
871.000000	50.464692
870.000000	50.485280
869.000000	50.525567
868.000000	50.553278
867.000000	50.573087
866.000000	50.598907
865.000000	50.626284
864.000000	50.652103
863.000000	50.702405
862.000000	50.710307
861.000000	50.731786
860.000000	50.764727
859.000000	50.770737
858.000000	50.796333
857.000000	50.438500
856.000000	50.919900
855.000000	51.030600
854.000000	50.875300
853.000000	51.521200
852.000000	51.524400
851.000000	51.691200
850.000000	51.436400
849.000000	51.343200
848.000000	51.550900
847.000000	51.245300
846.000000	51.499100
845.000000	51.524500
844.000000	51.772500
843.000000	52.072400
842.000000	51.733700
841.000000	51.711100
840.000000	51.807800
839.000000	51.757900
838.000000	51.393900
837.000000	51.484300
836.000000	51.666600
835.000000	51.727500
834.000000	51.827600
833.000000	51.760500
832.000000	51.726000
831.000000	51.552400
830.000000	51.661600
829.000000	51.426400
828.000000	51.634000
827.000000	51.310300
826.000000	51.527600
825.000000	51.529000
824.000000	51.437700
823.000000	51.441000
822.000000	51.376800
821.000000	51.368500
820.000000	51.175800
819.000000	51.241900
818.000000	51.161800
817.000000	51.198200
816.000000	50.890500
815.000000	51.077100
814.000000	50.977700
813.000000	50.683600
812.000000	50.713700
811.000000	50.614600
810.000000	50.709000
809.000000	50.654800
808.000000	50.286700
807.000000	50.489900
806.000000	50.227500
805.000000	50.260300
804.000000	50.120600
803.000000	49.864600
802.000000	49.779800
801.000000	49.881000
800.000000	49.633400
799.000000	49.720900
798.000000	49.429100
797.000000	49.499800
796.000000	49.317300
795.000000	49.155700
794.000000	49.233600
793.000000	48.972100
792.000000	48.921500
791.000000	48.842300
790.000000	48.626000
789.000000	48.511100
788.000000	48.460400
787.000000	48.365200
786.000000	48.185800
785.000000	47.922300
784.000000	47.980200
783.000000	47.726800
782.000000	47.659000
781.000000	47.506800
780.000000	47.339100
779.000000	47.208600
778.000000	47.116100
777.000000	46.820700
776.000000	46.878800
775.000000	46.633700
774.000000	46.471500
773.000000	46.338200
772.000000	46.195600
771.000000	45.982500
770.000000	45.798600
769.000000	45.681700
768.000000	45.496200
767.000000	45.499000
766.000000	45.280000
765.000000	44.949800
764.000000	44.846800
763.000000	44.583600
762.000000	44.418800
761.000000	44.339300
760.000000	44.150100
759.000000	43.985100
758.000000	43.744400
757.000000	43.505000
756.000000	43.325400
755.000000	43.142600
754.000000	43.054200
753.000000	42.788400
752.000000	42.586400
751.000000	42.360100
750.000000	42.087100
749.000000	41.998500
748.000000	41.783000
747.000000	41.621000
746.000000	41.397500
745.000000	41.157600
744.000000	40.882500
743.000000	40.665300
742.000000	40.531400
741.000000	40.276300
740.000000	40.103100
739.000000	39.866600
738.000000	39.607400
737.000000	39.414200
736.000000	39.142700
735.000000	38.920300
734.000000	38.685700
733.000000	38.553100
732.000000	38.375300
731.000000	38.085700
730.000000	37.832900
729.000000	37.635300
728.000000	37.453600
727.000000	37.257600
726.000000	36.986000
725.000000	36.788100
724.000000	36.517300
723.000000	36.285600
722.000000	36.088700
721.000000	35.830500
720.000000	35.637800
719.000000	35.410400
718.000000	35.157200
717.000000	34.915100
716.000000	34.701500
715.000000	34.511100
714.000000	34.315100
713.000000	34.098900
712.000000	33.878000
711.000000	33.653100
710.000000	33.444900
709.000000	33.193700
708.000000	32.960900
707.000000	32.803700
706.000000	32.588500
705.000000	32.329500
704.000000	32.121400
703.000000	31.939100
702.000000	31.717400
701.000000	31.520200
700.000000	31.352700
699.000000	31.148800
698.000000	30.971000
697.000000	30.764700
696.000000	30.567500
695.000000	30.374900
694.000000	30.188000
693.000000	30.026200
692.000000	29.864700
691.000000	29.683500
690.000000	29.487800
689.000000	29.307900
688.000000	29.117500
687.000000	28.960500
686.000000	28.816100
685.000000	28.675400
684.000000	28.511200
683.000000	28.365300
682.000000	28.231100
681.000000	28.058500
680.000000	27.910200
679.000000	27.771800
678.000000	27.640200
677.000000	27.512200
676.000000	27.399100
675.000000	27.256100
674.000000	27.080700
673.000000	26.930700
672.000000	26.802900
671.000000	26.686200
670.000000	26.562100
669.000000	26.446300
668.000000	26.316600
667.000000	26.197800
666.000000	26.086700
665.000000	25.961800
664.000000	25.881700
663.000000	25.803200
662.000000	25.680000
661.000000	25.581000
660.000000	25.463600
659.000000	25.369400
658.000000	25.298400
657.000000	25.184300
656.000000	25.081400
655.000000	25.024400
654.000000	24.934200
653.000000	24.835000
652.000000	24.755100
651.000000	24.683400
650.000000	24.624800
649.000000	24.553100
648.000000	24.475200
647.000000	24.410200
646.000000	24.345600
645.000000	24.289600
644.000000	24.221400
643.000000	24.135100
642.000000	24.063700
641.000000	24.004100
640.000000	23.951000
639.000000	23.916700
638.000000	23.884900
637.000000	23.825600
636.000000	23.770400
635.000000	23.726400
634.000000	23.686200
633.000000	23.662000
632.000000	23.617500
631.000000	23.569200
630.000000	23.547600
629.000000	23.523600
628.000000	23.498600
627.000000	23.489100
626.000000	23.482900
625.000000	23.489400
624.000000	23.487900
623.000000	23.479200
622.000000	23.480100
621.000000	23.479300
620.000000	23.494800
619.000000	23.504200
618.000000	23.515200
617.000000	23.529300
616.000000	23.553100
615.000000	23.577000
614.000000	23.608700
613.000000	23.640900
612.000000	23.675900
611.000000	23.710800
610.000000	23.750900
609.000000	23.773500
608.000000	23.803300
607.000000	23.854300
606.000000	23.897500
605.000000	23.932000
604.000000	23.956800
603.000000	23.982900
602.000000	24.032300
601.000000	24.073000
600.000000	24.111300
599.000000	24.164100
598.000000	24.205300
597.000000	24.234300
596.000000	24.274200
595.000000	24.306000
594.000000	24.340300
593.000000	24.359100
592.000000	24.370800
591.000000	24.385600
590.000000	24.410400
589.000000	24.419800
588.000000	24.420800
587.000000	24.437100
586.000000	24.424800
585.000000	24.429300
584.000000	24.421800
583.000000	24.421100
582.000000	24.408800
581.000000	24.372600
580.000000	24.355900
579.000000	24.335300
578.000000	24.290500
577.000000	24.254300
576.000000	24.205000
575.000000	24.141800
574.000000	24.077600
573.000000	24.017700
572.000000	23.982200
571.000000	23.911800
570.000000	23.845300
569.000000	23.759200
568.000000	23.686200
567.000000	23.589600
566.000000	23.512000
565.000000	23.409200
564.000000	23.285900
563.000000	23.175900
562.000000	23.068700
561.000000	22.959400
560.000000	22.835300
559.000000	22.709200
558.000000	22.579500
557.000000	22.428500
556.000000	22.281500
555.000000	22.143500
554.000000	22.006300
553.000000	21.816900
552.000000	21.660600
551.000000	21.507800
550.000000	21.322900
549.000000	21.147000
548.000000	20.959000
547.000000	20.770600
546.000000	20.590100
545.000000	20.390200
544.000000	20.209600
543.000000	19.999300
542.000000	19.788200
541.000000	19.572200
540.000000	19.375400
539.000000	19.167600
538.000000	18.947600
537.000000	18.716200
536.000000	18.494900
535.000000	18.295600
534.000000	18.072900
533.000000	17.845900
532.000000	17.609900
531.000000	17.387400
530.000000	17.162600
529.000000	16.939500
528.000000	16.704300
527.000000	16.491400
526.000000	16.273800
525.000000	16.043700
524.000000	15.829000
523.000000	15.606300
522.000000	15.389800
521.000000	15.170900
520.000000	14.952900
519.000000	14.754500
518.000000	14.553800
517.000000	14.365000
516.000000	14.181700
515.000000	13.988400
514.000000	13.796800
513.000000	13.615900
512.000000	13.438700
511.000000	13.297000
510.000000	13.141600
509.000000	12.968900
508.000000	12.822100
507.000000	12.694500
506.000000	12.555000
505.000000	12.410200
504.000000	12.275500
503.000000	12.165300
502.000000	12.055600
501.000000	11.920300
500.000000	11.808400
499.000000	11.700500
498.000000	11.609300
497.000000	11.515700
496.000000	11.412300
495.000000	11.337000
494.000000	11.224000
493.000000	11.161900
492.000000	11.076900
491.000000	11.018800
490.000000	10.936100
489.000000	10.873600
488.000000	10.809100
487.000000	10.750000
486.000000	10.676300
485.000000	10.631800
484.000000	10.595900
483.000000	10.538000
482.000000	10.455400
481.000000	10.392100
480.000000	10.317700
479.000000	10.249200
478.000000	10.198700
477.000000	10.130200
476.000000	10.064000
475.000000	10.040900
474.000000	9.965100
473.000000	9.916500
472.000000	9.863500
471.000000	9.810400
470.000000	9.756300
469.000000	9.712300
468.000000	9.666100
467.000000	9.611300
466.000000	9.596100
465.000000	9.536900
464.000000	9.483600
463.000000	9.450300
462.000000	9.428500
461.000000	9.370200
460.000000	9.318800
459.000000	9.292800
458.000000	9.249300
457.000000	9.208400
456.000000	9.173600
455.000000	9.129000
454.000000	9.083300
453.000000	9.068100
452.000000	9.009100
451.000000	8.971800
450.000000	8.937800
449.000000	8.885500
448.000000	8.841300
447.000000	8.775300
446.000000	8.718500
445.000000	8.659700
444.000000	8.612600
443.000000	8.557500
442.000000	8.494000
441.000000	8.443500
440.000000	8.390400
439.000000	8.318800
438.000000	8.258200
437.000000	8.168300
436.000000	8.115800
435.000000	8.049800
434.000000	7.985100
433.000000	7.875500
432.000000	7.835700
431.000000	7.767000
430.000000	7.685400
429.000000	7.607900
428.000000	7.560100
427.000000	7.478200
426.000000	7.417100
425.000000	7.352800
424.000000	7.270400
423.000000	7.197700
422.000000	7.142800
421.000000	7.084900
420.000000	7.015600
419.000000	6.925100
418.000000	6.864600
417.000000	6.799700
416.000000	6.748600
415.000000	6.681700
414.000000	6.594800
413.000000	6.524600
412.000000	6.470000
411.000000	6.411100
410.000000	6.342000
409.000000	6.286500
408.000000	6.204900
407.000000	6.153700
406.000000	6.101700
405.000000	6.032200
404.000000	5.973800
403.000000	5.928700
402.000000	5.891700
401.000000	5.816600
400.000000	5.765800
399.000000	5.714500
398.000000	5.661900
397.000000	5.601300
396.000000	5.538000
395.000000	5.509800
394.000000	5.453700
393.000000	5.410700
392.000000	5.353500
391.000000	5.307900
390.000000	5.257600
389.000000	5.242600
388.000000	5.188400
387.000000	5.143300
386.000000	5.101700
385.000000	5.066500
384.000000	5.031800
383.000000	4.995400
382.000000	4.986700
381.000000	4.955900
380.000000	4.908400
379.000000	4.872500
378.000000	4.852700
377.000000	4.818900
376.000000	4.827100
375.000000	4.553100
374.000000	4.004400
373.000000	4.166700
372.000000	4.408300
371.000000	4.583500
370.000000	4.448800
369.000000	4.268600
368.000000	4.394900
367.000000	4.645500
366.000000	4.593700
365.000000	4.460700
364.000000	4.601000
363.000000	4.606200
362.000000	4.566500
361.000000	4.553700
360.000000	4.467200
359.000000	4.539900
358.000000	4.662400
357.000000	4.691500
356.000000	4.633400
355.000000	4.615900
354.000000	4.659000
353.000000	4.651000
352.000000	4.709700
351.000000	4.702800
350.000000	4.460300
349.000000	4.341000
348.000000	4.414200
347.000000	4.383200
346.000000	4.601200
345.000000	4.740000
344.000000	4.618000
343.000000	4.690100
342.000000	4.766900
341.000000	4.661500
340.000000	4.596600
339.000000	4.546400
338.000000	4.520100
337.000000	4.494600
336.000000	4.526600
335.000000	4.642500
334.000000	4.694000
333.000000	4.667400
332.000000	4.613300
331.000000	4.905500
330.000000	4.913100
329.000000	4.738200
328.000000	4.618200
327.000000	4.535400
326.000000	4.797600
325.000000	4.597000
324.000000	4.610200
323.000000	4.953100
322.000000	5.314900
321.000000	5.318000
320.000000	5.519300
319.000000	5.773900
318.000000	5.443500
317.000000	5.527000
316.000000	4.959500
315.000000	4.331100
314.000000	4.334200
313.000000	4.336800
312.000000	4.352300
311.000000	4.360500
310.000000	4.354700
309.000000	4.352000
308.000000	4.424400
307.000000	4.418900
306.000000	4.414900
305.000000	4.390400
304.000000	4.395500
303.000000	4.382500
302.000000	4.359400
301.000000	4.338800
300.000000	4.356500
299.000000	4.381800
298.000000	4.360500
297.000000	4.361500
296.000000	4.351000
295.000000	4.358900
294.000000	4.402600
293.000000	4.431400
292.000000	4.425100
291.000000	4.409500
290.000000	4.382300
289.000000	4.378000
288.000000	4.389800
287.000000	4.392700
286.000000	4.409500
285.000000	4.405600
284.000000	4.376800
283.000000	4.362700
282.000000	4.382200
281.000000	4.430300
280.000000	4.450500
279.000000	4.470200
278.000000	4.419600
277.000000	4.418900
276.000000	4.428600
275.000000	4.444200
274.000000	4.462500
273.000000	4.471900
272.000000	4.488200
271.000000	4.489600
270.000000	4.524300
269.000000	4.469600
268.000000	4.499600
267.000000	4.552300
266.000000	4.587000
265.000000	4.626200
264.000000	4.664500
263.000000	4.697100
262.000000	4.698700
261.000000	4.670700
260.000000	4.648400
259.000000	4.759000
258.000000	4.748300
257.000000	4.791300
256.000000	4.785400
255.000000	4.797200
254.000000	4.757800
253.000000	4.837300
252.000000	4.797000
251.000000	4.841600
250.000000	4.824800
