PE UV       SUBTECH     SPECTRUM    ASCII       PEDS        4.00        
   -1
CICIMAUCR0141-1.ASC
24/04/03
17:28:52.00
24/04/03
17:28:52.00
Vinicio Soto Monge
C. kalinini
250,000000
1
Lambda 1050
1050L1511233
PerkinElmer UV WinLab 6.3.2.0749 / 2.02.05 Lambda 900 UV/VIS/NIR, Aug  7 2015 09:38:08

0
0
3350/servo 860,8/2
0
0
UV/VIS
1
1
1
DoubleDePol,CommonBeamDepol,RBeamAtt,SBeamAtt,60mm sphere, WB InGaAs Detector
0
0
0
0
Program
Program
3350/servo 860,8/2
3350/0,2 860,8/0,2
3350/0,2 860,8/0,2
0
15.00
 
 
 
0
 
860,8
319,2
860,8
Front
100
on
S:100 R:100
0
0
0
0
 
0
 
 
 
0
 
 
0
0
0
0
0
 
 
 
 
0
0


0
0
#HDR
-1
-1
#GR
nm
%R
1.0
0.0
2500,000000
-1,000000
2251
8
70,071300
5,462100
#DATA
2482.000000	6.476986
2481.000000	6.485859
2480.000000	6.446317
2479.000000	6.442556
2478.000000	6.494828
2477.000000	6.521158
2476.000000	6.511706
2475.000000	6.521833
2474.000000	6.557999
2473.000000	6.546040
2472.000000	6.572080
2471.000000	6.560989
2470.000000	6.602749
2469.000000	6.607282
2468.000000	6.616444
2467.000000	6.642002
2466.000000	6.685787
2465.000000	6.717614
2464.000000	6.727355
2463.000000	6.761978
2462.000000	6.792358
2461.000000	6.815794
2460.000000	6.885041
2459.000000	6.929501
2458.000000	6.924101
2457.000000	6.951394
2456.000000	6.980810
2455.000000	7.038290
2454.000000	7.062112
2453.000000	7.117857
2452.000000	7.156434
2451.000000	7.231178
2450.000000	7.269177
2449.000000	7.327044
2448.000000	7.379509
2447.000000	7.437086
2446.000000	7.482126
2445.000000	7.557931
2444.000000	7.623705
2443.000000	7.667394
2442.000000	7.714170
2441.000000	7.787274
2440.000000	7.843308
2439.000000	7.897317
2438.000000	7.979873
2437.000000	8.034267
2436.000000	8.094063
2435.000000	8.151447
2434.000000	8.201984
2433.000000	8.261297
2432.000000	8.323407
2431.000000	8.376451
2430.000000	8.440393
2429.000000	8.497199
2428.000000	8.549278
2427.000000	8.603866
2426.000000	8.642540
2425.000000	8.689990
2424.000000	8.751811
2423.000000	8.819418
2422.000000	8.872559
2421.000000	8.908822
2420.000000	8.946628
2419.000000	8.981733
2418.000000	9.020214
2417.000000	9.052041
2416.000000	9.104796
2415.000000	9.142891
2414.000000	9.176164
2413.000000	9.201529
2412.000000	9.254188
2411.000000	9.279070
2410.000000	9.301445
2409.000000	9.344556
2408.000000	9.348606
2407.000000	9.372332
2406.000000	9.396250
2405.000000	9.427208
2404.000000	9.454984
2403.000000	9.469547
2402.000000	9.492019
2401.000000	9.530114
2400.000000	9.535129
2399.000000	9.551042
2398.000000	9.566763
2397.000000	9.580361
2396.000000	9.602543
2395.000000	9.623857
2394.000000	9.632923
2393.000000	9.642471
2392.000000	9.678059
2391.000000	9.684810
2390.000000	9.681627
2389.000000	9.700048
2388.000000	9.716251
2387.000000	9.715672
2386.000000	9.720591
2385.000000	9.725895
2384.000000	9.735540
2383.000000	9.738144
2382.000000	9.741230
2381.000000	9.753671
2380.000000	9.732646
2379.000000	9.712682
2378.000000	9.724931
2377.000000	9.732550
2376.000000	9.735636
2375.000000	9.725606
2374.000000	9.715672
2373.000000	9.722809
2372.000000	9.714418
2371.000000	9.694262
2370.000000	9.690500
2369.000000	9.694165
2368.000000	9.708246
2367.000000	9.709403
2366.000000	9.692815
2365.000000	9.686450
2364.000000	9.688668
2363.000000	9.688379
2362.000000	9.686450
2361.000000	9.686450
2360.000000	9.679795
2359.000000	9.668704
2358.000000	9.676709
2357.000000	9.680084
2356.000000	9.660796
2355.000000	9.645750
2354.000000	9.637360
2353.000000	9.620385
2352.000000	9.597432
2351.000000	9.582869
2350.000000	9.585473
2349.000000	9.581422
2348.000000	9.568306
2347.000000	9.549499
2346.000000	9.532718
2345.000000	9.515551
2344.000000	9.503399
2343.000000	9.488643
2342.000000	9.485557
2341.000000	9.479867
2340.000000	9.453248
2339.000000	9.432898
2338.000000	9.429619
2337.000000	9.427015
2336.000000	9.417660
2335.000000	9.418625
2334.000000	9.407630
2333.000000	9.394803
2332.000000	9.379661
2331.000000	9.390077
2330.000000	9.388920
2329.000000	9.385834
2328.000000	9.388245
2327.000000	9.387763
2326.000000	9.391138
2325.000000	9.392103
2324.000000	9.397696
2323.000000	9.397986
2322.000000	9.375514
2321.000000	9.367509
2320.000000	9.353621
2319.000000	9.354489
2318.000000	9.332114
2317.000000	9.311475
2316.000000	9.299999
2315.000000	9.286593
2314.000000	9.250426
2313.000000	9.233934
2312.000000	9.194296
2311.000000	9.148292
2310.000000	9.122445
2309.000000	9.084543
2308.000000	9.065447
2307.000000	9.038249
2306.000000	9.011920
2305.000000	8.967749
2304.000000	8.932065
2303.000000	8.893583
2302.000000	8.886929
2301.000000	8.858574
2300.000000	8.812956
2299.000000	8.799454
2298.000000	8.797622
2297.000000	8.779780
2296.000000	8.752486
2295.000000	8.746024
2294.000000	8.722974
2293.000000	8.707929
2292.000000	8.699827
2291.000000	8.688254
2290.000000	8.673016
2289.000000	8.656235
2288.000000	8.631834
2287.000000	8.635114
2286.000000	8.627205
2285.000000	8.614378
2284.000000	8.595186
2283.000000	8.597308
2282.000000	8.567313
2281.000000	8.547157
2280.000000	8.549664
2279.000000	8.523624
2278.000000	8.489194
2277.000000	8.476656
2276.000000	8.474341
2275.000000	8.465854
2274.000000	8.434124
2273.000000	8.382045
2272.000000	8.351086
2271.000000	8.345974
2270.000000	8.309036
2269.000000	8.306336
2268.000000	8.272388
2267.000000	8.258210
2266.000000	8.259368
2265.000000	8.253774
2264.000000	8.225516
2263.000000	8.232460
2262.000000	8.242394
2261.000000	8.233810
2260.000000	8.254546
2259.000000	8.265251
2258.000000	8.297463
2257.000000	8.323214
2256.000000	8.347710
2255.000000	8.390339
2254.000000	8.432388
2253.000000	8.450520
2252.000000	8.506361
2251.000000	8.540502
2250.000000	8.566156
2249.000000	8.614475
2248.000000	8.640900
2247.000000	8.687193
2246.000000	8.715162
2245.000000	8.750750
2244.000000	8.771678
2243.000000	8.803891
2242.000000	8.833788
2241.000000	8.845265
2240.000000	8.865711
2239.000000	8.882782
2238.000000	8.907954
2237.000000	8.887122
2236.000000	8.916248
2235.000000	8.900913
2234.000000	8.875163
2233.000000	8.853752
2232.000000	8.820479
2231.000000	8.800901
2230.000000	8.733969
2229.000000	8.714680
2228.000000	8.673113
2227.000000	8.631449
2226.000000	8.545228
2225.000000	8.510604
2224.000000	8.434028
2223.000000	8.370182
2222.000000	8.297270
2221.000000	8.230917
2220.000000	8.133991
2219.000000	8.076124
2218.000000	8.005141
2217.000000	7.943321
2216.000000	7.876774
2215.000000	7.826431
2214.000000	7.765864
2213.000000	7.717931
2212.000000	7.673856
2211.000000	7.645598
2210.000000	7.626792
2209.000000	7.624380
2208.000000	7.623609
2207.000000	7.667587
2206.000000	7.690541
2205.000000	7.765767
2204.000000	7.825370
2203.000000	7.899439
2202.000000	7.985756
2201.000000	8.085769
2200.000000	8.183756
2199.000000	8.282900
2198.000000	8.407506
2197.000000	8.512630
2196.000000	8.620358
2195.000000	8.729629
2194.000000	8.837550
2193.000000	8.941998
2192.000000	9.033910
2191.000000	9.132572
2190.000000	9.207702
2189.000000	9.280420
2188.000000	9.357383
2187.000000	9.421711
2186.000000	9.477263
2185.000000	9.522013
2184.000000	9.562712
2183.000000	9.604665
2182.000000	9.626172
2181.000000	9.673044
2180.000000	9.691561
2179.000000	9.723195
2178.000000	9.744220
2177.000000	9.763123
2176.000000	9.780868
2175.000000	9.817999
2174.000000	9.846064
2173.000000	9.864196
2172.000000	9.877023
2171.000000	9.894094
2170.000000	9.947716
2169.000000	9.982822
2168.000000	9.993142
2167.000000	10.024679
2166.000000	10.063160
2165.000000	10.091997
2164.000000	10.112539
2163.000000	10.157386
2162.000000	10.178989
2161.000000	10.226440
2160.000000	10.264439
2159.000000	10.311310
2158.000000	10.364933
2157.000000	10.416627
2156.000000	10.491275
2155.000000	10.542776
2154.000000	10.603246
2153.000000	10.658509
2152.000000	10.730359
2151.000000	10.781957
2150.000000	10.849082
2149.000000	10.933278
2148.000000	10.990565
2147.000000	11.049493
2146.000000	11.122887
2145.000000	11.183068
2144.000000	11.262730
2143.000000	11.319343
2142.000000	11.365154
2141.000000	11.426203
2140.000000	11.492074
2139.000000	11.550230
2138.000000	11.598452
2137.000000	11.651400
2136.000000	11.695957
2135.000000	11.734631
2134.000000	11.786614
2133.000000	11.851039
2132.000000	11.881901
2131.000000	11.908905
2130.000000	11.949701
2129.000000	11.992619
2128.000000	12.029557
2127.000000	12.061383
2126.000000	12.079900
2125.000000	12.115392
2124.000000	12.141817
2123.000000	12.170847
2122.000000	12.183288
2121.000000	12.201034
2120.000000	12.228521
2119.000000	12.224566
2118.000000	12.234500
2117.000000	12.259672
2116.000000	12.272306
2115.000000	12.269509
2114.000000	12.269895
2113.000000	12.268159
2112.000000	12.276743
2111.000000	12.289087
2110.000000	12.285615
2109.000000	12.276357
2108.000000	12.274042
2107.000000	12.274717
2106.000000	12.262469
2105.000000	12.251764
2104.000000	12.261504
2103.000000	12.252824
2102.000000	12.242987
2101.000000	12.245881
2100.000000	12.233053
2099.000000	12.221191
2098.000000	12.221094
2097.000000	12.225917
2096.000000	12.219069
2095.000000	12.209618
2094.000000	12.220034
2093.000000	12.222637
2092.000000	12.222830
2091.000000	12.236236
2090.000000	12.230449
2089.000000	12.220516
2088.000000	12.219841
2087.000000	12.219455
2086.000000	12.221287
2085.000000	12.207496
2084.000000	12.191968
2083.000000	12.181745
2082.000000	12.170847
2081.000000	12.146061
2080.000000	12.112402
2079.000000	12.087037
2078.000000	12.049135
2077.000000	12.006217
2076.000000	11.970436
2075.000000	11.927326
2074.000000	11.883926
2073.000000	11.833100
2072.000000	11.767711
2071.000000	11.698657
2070.000000	11.645227
2069.000000	11.588132
2068.000000	11.521779
2067.000000	11.453786
2066.000000	11.398041
2065.000000	11.331784
2064.000000	11.259741
2063.000000	11.181621
2062.000000	11.129059
2061.000000	11.078908
2060.000000	11.020849
2059.000000	10.975520
2058.000000	10.918715
2057.000000	10.882934
2056.000000	10.850239
2055.000000	10.820052
2054.000000	10.802210
2053.000000	10.797002
2052.000000	10.805489
2051.000000	10.802017
2050.000000	10.809347
2049.000000	10.852843
2048.000000	10.893736
2047.000000	10.925948
2046.000000	10.966937
2045.000000	11.016219
2044.000000	11.090096
2043.000000	11.142658
2042.000000	11.206407
2041.000000	11.263020
2040.000000	11.319922
2039.000000	11.379813
2038.000000	11.440187
2037.000000	11.495643
2036.000000	11.538850
2035.000000	11.580320
2034.000000	11.630954
2033.000000	11.680815
2032.000000	11.732798
2031.000000	11.770797
2030.000000	11.804167
2029.000000	11.809182
2028.000000	11.865602
2027.000000	11.894921
2026.000000	11.911509
2025.000000	11.926844
2024.000000	11.947676
2023.000000	11.979984
2022.000000	11.995319
2021.000000	12.009496
2020.000000	12.020877
2019.000000	12.020973
2018.000000	12.042673
2017.000000	12.057429
2016.000000	12.057140
2015.000000	12.071703
2014.000000	12.071220
2013.000000	12.065434
2012.000000	12.066880
2011.000000	12.064276
2010.000000	12.026470
2009.000000	12.021359
2008.000000	12.024734
2007.000000	11.998887
2006.000000	11.973523
2005.000000	11.943529
2004.000000	11.915078
2003.000000	11.884119
2002.000000	11.857983
2001.000000	11.813040
2000.000000	11.780828
1999.000000	11.734824
1998.000000	11.696535
1997.000000	11.641466
1996.000000	11.614847
1995.000000	11.569422
1994.000000	11.501911
1993.000000	11.468060
1992.000000	11.424756
1991.000000	11.390229
1990.000000	11.312206
1989.000000	11.261477
1988.000000	11.207854
1987.000000	11.173809
1986.000000	11.110735
1985.000000	11.061259
1984.000000	11.002428
1983.000000	10.952470
1982.000000	10.879751
1981.000000	10.852747
1980.000000	10.804139
1979.000000	10.732771
1978.000000	10.683970
1977.000000	10.603729
1976.000000	10.581932
1975.000000	10.522523
1974.000000	10.468225
1973.000000	10.407947
1972.000000	10.367151
1971.000000	10.327127
1970.000000	10.276976
1969.000000	10.239556
1968.000000	10.176771
1967.000000	10.142823
1966.000000	10.078784
1965.000000	10.032876
1964.000000	10.013781
1963.000000	9.950513
1962.000000	9.924666
1961.000000	9.875094
1960.000000	9.799771
1959.000000	9.774985
1958.000000	9.750006
1957.000000	9.678445
1956.000000	9.646908
1955.000000	9.586823
1954.000000	9.538312
1953.000000	9.495298
1952.000000	9.451126
1951.000000	9.421518
1950.000000	9.371753
1949.000000	9.352946
1948.000000	9.328835
1947.000000	9.279552
1946.000000	9.240300
1945.000000	9.203169
1944.000000	9.169028
1943.000000	9.171149
1942.000000	9.150414
1941.000000	9.121095
1940.000000	9.128232
1939.000000	9.103831
1938.000000	9.102867
1937.000000	9.085121
1936.000000	9.051173
1935.000000	9.053102
1934.000000	9.069690
1933.000000	9.088207
1932.000000	9.101903
1931.000000	9.133440
1930.000000	9.172307
1929.000000	9.192078
1928.000000	9.215899
1927.000000	9.214356
1926.000000	9.247147
1925.000000	9.303374
1924.000000	9.371656
1923.000000	9.413320
1922.000000	9.492790
1921.000000	9.547281
1920.000000	9.600904
1919.000000	9.674394
1918.000000	9.742291
1917.000000	9.825908
1916.000000	9.942412
1915.000000	10.080423
1914.000000	10.204933
1913.000000	10.331756
1912.000000	10.445367
1911.000000	10.592445
1910.000000	10.713000
1909.000000	10.872229
1908.000000	11.076111
1907.000000	11.283659
1906.000000	11.508759
1905.000000	11.749001
1904.000000	11.996476
1903.000000	12.220034
1902.000000	12.488341
1901.000000	12.799855
1900.000000	13.111080
1899.000000	13.438218
1898.000000	13.762945
1897.000000	14.103006
1896.000000	14.442007
1895.000000	14.793063
1894.000000	15.167555
1893.000000	15.592584
1892.000000	16.029668
1891.000000	16.456915
1890.000000	16.869695
1889.000000	17.259908
1888.000000	17.700464
1887.000000	18.085372
1886.000000	18.489279
1885.000000	18.883157
1884.000000	19.271344
1883.000000	19.645643
1882.000000	20.016856
1881.000000	20.359618
1880.000000	20.686563
1879.000000	21.008300
1878.000000	21.320393
1877.000000	21.634704
1876.000000	21.930691
1875.000000	22.222819
1874.000000	22.486883
1873.000000	22.753165
1872.000000	23.001701
1871.000000	23.211756
1870.000000	23.388056
1869.000000	23.555868
1868.000000	23.711722
1867.000000	23.822150
1866.000000	23.916858
1865.000000	24.018125
1864.000000	24.138872
1863.000000	24.253641
1862.000000	24.364937
1861.000000	24.475751
1860.000000	24.592641
1859.000000	24.708278
1858.000000	24.782636
1857.000000	24.844842
1856.000000	24.899526
1855.000000	24.951220
1854.000000	25.001178
1853.000000	25.023457
1852.000000	25.054030
1851.000000	25.106206
1850.000000	25.154331
1849.000000	25.220106
1848.000000	25.251161
1847.000000	25.236984
1846.000000	25.202939
1845.000000	25.176321
1844.000000	25.188955
1843.000000	25.210076
1842.000000	25.221939
1841.000000	25.225796
1840.000000	25.212198
1839.000000	25.194452
1838.000000	25.178828
1837.000000	25.161179
1836.000000	25.123951
1835.000000	25.081420
1834.000000	25.032233
1833.000000	25.003107
1832.000000	24.989219
1831.000000	24.983433
1830.000000	24.972438
1829.000000	24.957393
1828.000000	24.930581
1827.000000	24.892872
1826.000000	24.873776
1825.000000	24.858538
1824.000000	24.852462
1823.000000	24.875897
1822.000000	24.922962
1821.000000	24.943312
1820.000000	24.923444
1819.000000	24.887664
1818.000000	24.876573
1817.000000	24.879466
1816.000000	24.871172
1815.000000	24.876669
1814.000000	24.862974
1813.000000	24.855934
1812.000000	24.856609
1811.000000	24.832498
1810.000000	24.782057
1809.000000	24.758429
1808.000000	24.748591
1807.000000	24.724770
1806.000000	24.703456
1805.000000	24.679055
1804.000000	24.656294
1803.000000	24.654269
1802.000000	24.643853
1801.000000	24.619742
1800.000000	24.588880
1799.000000	24.548084
1798.000000	24.523298
1797.000000	24.515872
1796.000000	24.509796
1795.000000	24.495812
1794.000000	24.474883
1793.000000	24.432930
1792.000000	24.414606
1791.000000	24.403515
1790.000000	24.402936
1789.000000	24.388373
1788.000000	24.386637
1787.000000	24.397246
1786.000000	24.385865
1785.000000	24.369277
1784.000000	24.357029
1783.000000	24.371495
1782.000000	24.360019
1781.000000	24.340440
1780.000000	24.323852
1779.000000	24.299645
1778.000000	24.267046
1777.000000	24.237535
1776.000000	24.205708
1775.000000	24.177739
1774.000000	24.141380
1773.000000	24.117173
1772.000000	24.089975
1771.000000	24.052844
1770.000000	24.009637
1769.000000	23.965659
1768.000000	23.921295
1767.000000	23.891879
1766.000000	23.872012
1765.000000	23.834784
1764.000000	23.818582
1763.000000	23.806141
1762.000000	23.796689
1761.000000	23.782415
1760.000000	23.785984
1759.000000	23.787527
1758.000000	23.787334
1757.000000	23.784441
1756.000000	23.788009
1755.000000	23.795532
1754.000000	23.807009
1753.000000	23.792253
1752.000000	23.791385
1751.000000	23.777015
1750.000000	23.775664
1749.000000	23.750203
1748.000000	23.725706
1747.000000	23.685489
1746.000000	23.632445
1745.000000	23.588274
1744.000000	23.532722
1743.000000	23.473216
1742.000000	23.414482
1741.000000	23.328164
1740.000000	23.257471
1739.000000	23.202690
1738.000000	23.126018
1737.000000	23.091876
1736.000000	23.042786
1735.000000	22.981930
1734.000000	22.926475
1733.000000	22.870537
1732.000000	22.807849
1731.000000	22.781134
1730.000000	22.730115
1729.000000	22.703111
1728.000000	22.653345
1727.000000	22.597215
1726.000000	22.580820
1725.000000	22.573683
1724.000000	22.561145
1723.000000	22.575612
1722.000000	22.624026
1721.000000	22.731947
1720.000000	22.860411
1719.000000	23.033721
1718.000000	23.213010
1717.000000	23.386223
1716.000000	23.594157
1715.000000	23.761294
1714.000000	23.945213
1713.000000	24.094508
1712.000000	24.244189
1711.000000	24.368216
1710.000000	24.477584
1709.000000	24.595438
1708.000000	24.696705
1707.000000	24.777235
1706.000000	24.854198
1705.000000	24.911775
1704.000000	24.959322
1703.000000	24.992016
1702.000000	25.024807
1701.000000	25.049786
1700.000000	25.051233
1699.000000	25.080937
1698.000000	25.057598
1697.000000	25.065217
1696.000000	25.040334
1695.000000	25.014680
1694.000000	24.955850
1693.000000	24.895476
1692.000000	24.819863
1691.000000	24.756886
1690.000000	24.696897
1689.000000	24.628326
1688.000000	24.632280
1687.000000	24.647711
1686.000000	24.733064
1685.000000	24.818610
1684.000000	24.950545
1683.000000	25.107267
1682.000000	25.289160
1681.000000	25.454176
1680.000000	25.628643
1679.000000	25.817673
1678.000000	25.958385
1677.000000	26.095143
1676.000000	26.216662
1675.000000	26.335192
1674.000000	26.458351
1673.000000	26.587778
1672.000000	26.711709
1671.000000	26.831492
1670.000000	26.951951
1669.000000	27.078871
1668.000000	27.224791
1667.000000	27.356534
1666.000000	27.452013
1665.000000	27.568518
1664.000000	27.689555
1663.000000	27.791303
1662.000000	27.913980
1661.000000	28.005891
1660.000000	28.080924
1659.000000	28.162420
1658.000000	28.223951
1657.000000	28.288568
1656.000000	28.336983
1655.000000	28.370064
1654.000000	28.388195
1653.000000	28.418286
1652.000000	28.447990
1651.000000	28.453391
1650.000000	28.468051
1649.000000	28.451752
1648.000000	28.434392
1647.000000	28.440371
1646.000000	28.416453
1645.000000	28.402179
1644.000000	28.377200
1643.000000	28.361769
1642.000000	28.349425
1641.000000	28.332354
1640.000000	28.315187
1639.000000	28.289629
1638.000000	28.265518
1637.000000	28.258767
1636.000000	28.229062
1635.000000	28.197718
1634.000000	28.154704
1633.000000	28.130979
1632.000000	28.102624
1631.000000	28.058742
1630.000000	28.017657
1629.000000	27.968085
1628.000000	27.935005
1627.000000	27.904818
1626.000000	27.862093
1625.000000	27.803648
1624.000000	27.758319
1623.000000	27.724275
1622.000000	27.691580
1621.000000	27.648759
1620.000000	27.610278
1619.000000	27.581248
1618.000000	27.551158
1617.000000	27.515184
1616.000000	27.467734
1615.000000	27.424237
1614.000000	27.389228
1613.000000	27.349107
1612.000000	27.302718
1611.000000	27.254592
1610.000000	27.197690
1609.000000	27.157473
1608.000000	27.098739
1607.000000	27.046755
1606.000000	26.983199
1605.000000	26.920028
1604.000000	26.857147
1603.000000	26.796290
1602.000000	26.730998
1601.000000	26.666477
1600.000000	26.602245
1599.000000	26.542546
1598.000000	26.481015
1597.000000	26.431057
1596.000000	26.386500
1595.000000	26.325837
1594.000000	26.283980
1593.000000	26.246945
1592.000000	26.195734
1591.000000	26.156577
1590.000000	26.117035
1589.000000	26.077300
1588.000000	26.021074
1587.000000	25.995709
1586.000000	25.963304
1585.000000	25.911802
1584.000000	25.872646
1583.000000	25.833008
1582.000000	25.802435
1581.000000	25.772730
1580.000000	25.745051
1579.000000	25.728366
1578.000000	25.709077
1577.000000	25.683134
1576.000000	25.658058
1575.000000	25.640023
1574.000000	25.620445
1573.000000	25.617070
1572.000000	25.624689
1571.000000	25.622760
1570.000000	25.629222
1569.000000	25.618034
1568.000000	25.612440
1567.000000	25.637612
1566.000000	25.646099
1565.000000	25.636744
1564.000000	25.635587
1563.000000	25.635008
1562.000000	25.630572
1561.000000	25.614851
1560.000000	25.594212
1559.000000	25.569426
1558.000000	25.532295
1557.000000	25.498058
1556.000000	25.456394
1555.000000	25.412608
1554.000000	25.359661
1553.000000	25.307195
1552.000000	25.243349
1551.000000	25.175453
1550.000000	25.106977
1549.000000	25.038406
1548.000000	24.977067
1547.000000	24.913704
1546.000000	24.835970
1545.000000	24.767205
1544.000000	24.704999
1543.000000	24.643950
1542.000000	24.605372
1541.000000	24.568820
1540.000000	24.521273
1539.000000	24.466782
1538.000000	24.420875
1537.000000	24.371978
1536.000000	24.330892
1535.000000	24.271194
1534.000000	24.216896
1533.000000	24.157775
1532.000000	24.089590
1531.000000	24.034134
1530.000000	23.970674
1529.000000	23.914447
1528.000000	23.848576
1527.000000	23.781933
1526.000000	23.725803
1525.000000	23.647683
1524.000000	23.579979
1523.000000	23.512179
1522.000000	23.447465
1521.000000	23.384102
1520.000000	23.328646
1519.000000	23.255445
1518.000000	23.194011
1517.000000	23.116566
1516.000000	23.054263
1515.000000	22.983666
1514.000000	22.914998
1513.000000	22.839579
1512.000000	22.774865
1511.000000	22.711308
1510.000000	22.638107
1509.000000	22.573297
1508.000000	22.503279
1507.000000	22.436732
1506.000000	22.373561
1505.000000	22.329101
1504.000000	22.267859
1503.000000	22.188196
1502.000000	22.128979
1501.000000	22.091270
1500.000000	22.050281
1499.000000	22.014597
1498.000000	21.974380
1497.000000	21.959142
1496.000000	21.931173
1495.000000	21.909087
1494.000000	21.873885
1493.000000	21.853342
1492.000000	21.844470
1491.000000	21.859997
1490.000000	21.856332
1489.000000	21.841673
1488.000000	21.840515
1487.000000	21.835790
1486.000000	21.828460
1485.000000	21.821323
1484.000000	21.839647
1483.000000	21.829810
1482.000000	21.826435
1481.000000	21.841191
1480.000000	21.855561
1479.000000	21.869545
1478.000000	21.878707
1477.000000	21.891438
1476.000000	21.899636
1475.000000	21.922204
1474.000000	21.961070
1473.000000	21.986435
1472.000000	22.022987
1471.000000	22.066677
1470.000000	22.083265
1469.000000	22.120010
1468.000000	22.152319
1467.000000	22.213271
1466.000000	22.240662
1465.000000	22.298528
1464.000000	22.335948
1463.000000	22.394972
1462.000000	22.443966
1461.000000	22.486401
1460.000000	22.531537
1459.000000	22.580530
1458.000000	22.639168
1457.000000	22.683918
1456.000000	22.745642
1455.000000	22.810646
1454.000000	22.847680
1453.000000	22.907186
1452.000000	22.960327
1451.000000	23.030827
1450.000000	23.066126
1449.000000	23.107018
1448.000000	23.139520
1447.000000	23.210020
1446.000000	23.256506
1445.000000	23.325464
1444.000000	23.359316
1443.000000	23.391817
1442.000000	23.457592
1441.000000	23.524042
1440.000000	23.591553
1439.000000	23.646622
1438.000000	23.732650
1437.000000	23.804790
1436.000000	23.856870
1435.000000	23.941066
1434.000000	24.044936
1433.000000	24.124309
1432.000000	24.212749
1431.000000	24.320284
1430.000000	24.382683
1429.000000	24.522044
1428.000000	24.635366
1427.000000	24.767591
1426.000000	24.897694
1425.000000	25.035127
1424.000000	25.208919
1423.000000	25.377888
1422.000000	25.494779
1421.000000	25.707341
1420.000000	25.919807
1419.000000	26.126101
1418.000000	26.299411
1417.000000	26.488152
1416.000000	26.745754
1415.000000	27.004320
1414.000000	27.269155
1413.000000	27.523575
1412.000000	27.779826
1411.000000	28.051220
1410.000000	28.369774
1409.000000	28.704531
1408.000000	29.010066
1407.000000	29.327077
1406.000000	29.630104
1405.000000	29.963897
1404.000000	30.278112
1403.000000	30.606793
1402.000000	30.891881
1401.000000	31.268399
1400.000000	31.583674
1399.000000	31.830860
1398.000000	32.004074
1397.000000	32.293309
1396.000000	32.602026
1395.000000	32.884414
1394.000000	33.060039
1393.000000	33.232384
1392.000000	33.477352
1391.000000	33.659631
1390.000000	33.837763
1389.000000	34.039331
1388.000000	34.276487
1387.000000	34.461370
1386.000000	34.649147
1385.000000	34.872704
1384.000000	35.135224
1383.000000	35.396588
1382.000000	35.698554
1381.000000	36.012190
1380.000000	36.284644
1379.000000	36.709576
1378.000000	37.111458
1377.000000	37.554040
1376.000000	38.020829
1375.000000	38.482892
1374.000000	38.939072
1373.000000	39.398917
1372.000000	39.792409
1371.000000	40.156388
1370.000000	40.434822
1369.000000	40.649989
1368.000000	40.918103
1367.000000	41.097489
1366.000000	41.195090
1365.000000	41.365989
1364.000000	41.486544
1363.000000	41.593308
1362.000000	41.736430
1361.000000	41.813779
1360.000000	41.854671
1359.000000	41.902218
1358.000000	41.958252
1357.000000	42.034346
1356.000000	42.147668
1355.000000	42.275167
1354.000000	42.406716
1353.000000	42.511262
1352.000000	42.657085
1351.000000	42.843704
1350.000000	43.017400
1349.000000	43.194278
1348.000000	43.398354
1347.000000	43.613327
1346.000000	43.795028
1345.000000	43.971906
1344.000000	44.162286
1343.000000	44.328845
1342.000000	44.486338
1341.000000	44.659166
1340.000000	44.817045
1339.000000	44.975888
1338.000000	45.123351
1337.000000	45.269849
1336.000000	45.409211
1335.000000	45.546933
1334.000000	45.680990
1333.000000	45.803088
1332.000000	45.929237
1331.000000	46.051817
1330.000000	46.159738
1329.000000	46.269974
1328.000000	46.370082
1327.000000	46.460161
1326.000000	46.556509
1325.000000	46.646202
1324.000000	46.735895
1323.000000	46.813918
1322.000000	46.909494
1321.000000	46.983756
1320.000000	47.047023
1319.000000	47.118391
1318.000000	47.182334
1317.000000	47.240297
1316.000000	47.308386
1315.000000	47.370593
1314.000000	47.413607
1313.000000	47.477742
1312.000000	47.546217
1311.000000	47.610931
1310.000000	47.665615
1309.000000	47.694452
1308.000000	47.724831
1307.000000	47.756561
1306.000000	47.788388
1305.000000	47.816357
1304.000000	47.855802
1303.000000	47.883964
1302.000000	47.890715
1301.000000	47.896309
1300.000000	47.916658
1299.000000	47.923699
1298.000000	47.920613
1297.000000	47.929486
1296.000000	47.926399
1295.000000	47.925049
1294.000000	47.917141
1293.000000	47.901227
1292.000000	47.881167
1291.000000	47.865350
1290.000000	47.851945
1289.000000	47.828702
1288.000000	47.803819
1287.000000	47.774693
1286.000000	47.748653
1285.000000	47.708339
1284.000000	47.662721
1283.000000	47.629062
1282.000000	47.602155
1281.000000	47.569942
1280.000000	47.535222
1279.000000	47.497995
1278.000000	47.483914
1277.000000	47.460093
1276.000000	47.424119
1275.000000	47.396536
1274.000000	47.376861
1273.000000	47.371075
1272.000000	47.376379
1271.000000	47.362588
1270.000000	47.347639
1269.000000	47.346482
1268.000000	47.337416
1267.000000	47.325939
1266.000000	47.324975
1265.000000	47.313498
1264.000000	47.292376
1263.000000	47.286108
1262.000000	47.273570
1261.000000	47.257657
1260.000000	47.248494
1259.000000	47.223901
1258.000000	47.219851
1257.000000	47.214450
1256.000000	47.187445
1255.000000	47.172882
1254.000000	47.152822
1253.000000	47.127168
1252.000000	47.114823
1251.000000	47.081839
1250.000000	47.049434
1249.000000	47.020887
1248.000000	46.982020
1247.000000	46.933412
1246.000000	46.894931
1245.000000	46.855389
1244.000000	46.826456
1243.000000	46.793086
1242.000000	46.743031
1241.000000	46.721621
1240.000000	46.699342
1239.000000	46.662597
1238.000000	46.640511
1237.000000	46.605985
1236.000000	46.587081
1235.000000	46.574640
1234.000000	46.560559
1233.000000	46.524489
1232.000000	46.481572
1231.000000	46.443380
1230.000000	46.418690
1229.000000	46.385321
1228.000000	46.350890
1227.000000	46.310094
1226.000000	46.267755
1225.000000	46.241716
1224.000000	46.203234
1223.000000	46.148551
1222.000000	46.103511
1221.000000	46.056639
1220.000000	46.016905
1219.000000	45.976495
1218.000000	45.911973
1217.000000	45.865295
1216.000000	45.809646
1215.000000	45.759496
1214.000000	45.712527
1213.000000	45.667295
1212.000000	45.606632
1211.000000	45.552720
1210.000000	45.483376
1209.000000	45.419241
1208.000000	45.361085
1207.000000	45.300615
1206.000000	45.241398
1205.000000	45.184400
1204.000000	45.106666
1203.000000	45.048028
1202.000000	44.994502
1201.000000	44.937407
1200.000000	44.886195
1199.000000	44.798817
1198.000000	44.756478
1197.000000	44.661963
1196.000000	44.608822
1195.000000	44.567255
1194.000000	44.487688
1193.000000	44.409280
1192.000000	44.335114
1191.000000	44.281202
1190.000000	44.234041
1189.000000	44.181575
1188.000000	44.132292
1187.000000	44.110303
1186.000000	44.102105
1185.000000	44.101527
1184.000000	44.120237
1183.000000	44.138272
1182.000000	44.173088
1181.000000	44.217645
1180.000000	44.270689
1179.000000	44.321998
1178.000000	44.373113
1177.000000	44.429051
1176.000000	44.478719
1175.000000	44.501384
1174.000000	44.554814
1173.000000	44.595802
1172.000000	44.644506
1171.000000	44.738636
1170.000000	44.783289
1169.000000	44.856490
1168.000000	44.932585
1167.000000	45.042820
1166.000000	45.132127
1165.000000	45.244195
1164.000000	45.343147
1163.000000	45.461098
1162.000000	45.551659
1161.000000	45.670188
1160.000000	45.765186
1159.000000	45.874360
1158.000000	45.966368
1157.000000	46.044005
1156.000000	46.128394
1155.000000	46.217026
1154.000000	46.278750
1153.000000	46.352626
1152.000000	46.420619
1151.000000	46.459100
1150.000000	46.494592
1149.000000	46.542331
1148.000000	46.616111
1147.000000	46.655364
1146.000000	46.709083
1145.000000	46.762127
1144.000000	46.779198
1143.000000	46.826070
1142.000000	46.896281
1141.000000	46.945178
1140.000000	47.028023
1139.000000	47.091291
1138.000000	47.181852
1137.000000	47.262382
1136.000000	47.338959
1135.000000	47.440129
1134.000000	47.558851
1133.000000	47.587784
1132.000000	47.634463
1131.000000	47.690015
1130.000000	47.759069
1129.000000	47.814331
1128.000000	47.847894
1127.000000	47.880396
1126.000000	47.900359
1125.000000	47.921866
1124.000000	47.955622
1123.000000	47.945592
1122.000000	47.950607
1121.000000	47.937008
1120.000000	47.924181
1119.000000	47.903446
1118.000000	47.880299
1117.000000	47.856960
1116.000000	47.826098
1115.000000	47.794560
1114.000000	47.756369
1113.000000	47.717791
1112.000000	47.672752
1111.000000	47.622987
1110.000000	47.561841
1109.000000	47.521624
1108.000000	47.485457
1107.000000	47.447266
1106.000000	47.393064
1105.000000	47.327868
1104.000000	47.300188
1103.000000	47.247530
1102.000000	47.196993
1101.000000	47.133919
1100.000000	47.095245
1099.000000	47.041622
1098.000000	46.988867
1097.000000	46.928686
1096.000000	46.888855
1095.000000	46.833592
1094.000000	46.772736
1093.000000	46.740235
1092.000000	46.685937
1091.000000	46.630096
1090.000000	46.568854
1089.000000	46.520728
1088.000000	46.473567
1087.000000	46.428528
1086.000000	46.398823
1085.000000	46.337002
1084.000000	46.292156
1083.000000	46.247695
1082.000000	46.202945
1081.000000	46.154916
1080.000000	46.098014
1079.000000	46.053939
1078.000000	46.004463
1077.000000	45.966175
1076.000000	45.916892
1075.000000	45.864137
1074.000000	45.820737
1073.000000	45.779170
1072.000000	45.733938
1071.000000	45.667392
1070.000000	45.602388
1069.000000	45.547319
1068.000000	45.491188
1067.000000	45.435058
1066.000000	45.370633
1065.000000	45.317686
1064.000000	45.264159
1063.000000	45.201760
1062.000000	45.135117
1061.000000	45.075997
1060.000000	45.012633
1059.000000	44.945894
1058.000000	44.888799
1057.000000	44.827268
1056.000000	44.773259
1055.000000	44.714814
1054.000000	44.641613
1053.000000	44.581721
1052.000000	44.532342
1051.000000	44.481709
1050.000000	44.430497
1049.000000	44.382275
1048.000000	44.322480
1047.000000	44.277537
1046.000000	44.225264
1045.000000	44.175306
1044.000000	44.134221
1043.000000	44.084360
1042.000000	44.030255
1041.000000	43.973546
1040.000000	43.918380
1039.000000	43.874787
1038.000000	43.839295
1037.000000	43.800911
1036.000000	43.761176
1035.000000	43.731953
1034.000000	43.691929
1033.000000	43.649204
1032.000000	43.624708
1031.000000	43.593460
1030.000000	43.557197
1029.000000	43.529807
1028.000000	43.494798
1027.000000	43.457763
1026.000000	43.419378
1025.000000	43.384658
1024.000000	43.354375
1023.000000	43.337787
1022.000000	43.306539
1021.000000	43.269022
1020.000000	43.250216
1019.000000	43.234206
1018.000000	43.206334
1017.000000	43.187430
1016.000000	43.169492
1015.000000	43.158304
1014.000000	43.157340
1013.000000	43.146152
1012.000000	43.137183
1011.000000	43.130432
1010.000000	43.127732
1009.000000	43.129371
1008.000000	43.127732
1007.000000	43.125899
1006.000000	43.131975
1005.000000	43.148178
1004.000000	43.157436
1003.000000	43.172192
1002.000000	43.191095
1001.000000	43.211927
1000.000000	43.215303
999.000000	43.231216
998.000000	43.254459
997.000000	43.282524
996.000000	43.311265
995.000000	43.321391
994.000000	43.335472
993.000000	43.359390
992.000000	43.383405
991.000000	43.410698
990.000000	43.449662
989.000000	43.469143
988.000000	43.508493
987.000000	43.555268
986.000000	43.590084
985.000000	43.627408
984.000000	43.675244
983.000000	43.724624
982.000000	43.767734
981.000000	43.816920
980.000000	43.880284
979.000000	43.916065
978.000000	43.974317
977.000000	44.033244
976.000000	44.078669
975.000000	44.124384
974.000000	44.195367
973.000000	44.272425
972.000000	44.343119
971.000000	44.414873
970.000000	44.503602
969.000000	44.579696
968.000000	44.658587
967.000000	44.747702
966.000000	44.821095
965.000000	44.909149
964.000000	45.005111
963.000000	45.087956
962.000000	45.194141
961.000000	45.290778
960.000000	45.364364
959.000000	45.448271
958.000000	45.540857
957.000000	45.639423
956.000000	45.697386
955.000000	45.787464
954.000000	45.879761
953.000000	45.969840
952.000000	46.029057
951.000000	46.113252
950.000000	46.208635
949.000000	46.309998
948.000000	46.402970
947.000000	46.498257
946.000000	46.610421
945.000000	46.694809
944.000000	46.796654
943.000000	46.901103
942.000000	46.989157
941.000000	47.096499
940.000000	47.188313
939.000000	47.282057
938.000000	47.381298
937.000000	47.472052
936.000000	47.563963
935.000000	47.679406
934.000000	47.772089
933.000000	47.851655
932.000000	47.944145
931.000000	48.027858
930.000000	48.104531
929.000000	48.211681
928.000000	48.303495
927.000000	48.394924
926.000000	48.516540
925.000000	48.604979
924.000000	48.715504
923.000000	48.821400
922.000000	48.941472
921.000000	49.037724
920.000000	49.164644
919.000000	49.294940
918.000000	49.396399
917.000000	49.517436
916.000000	49.629215
915.000000	49.744562
914.000000	49.880451
913.000000	49.983839
912.000000	50.105262
911.000000	50.225431
910.000000	50.346179
909.000000	50.451593
908.000000	50.573594
907.000000	50.683830
906.000000	50.823095
905.000000	50.931884
904.000000	51.058225
903.000000	51.206074
902.000000	51.358841
901.000000	51.496178
900.000000	51.600434
899.000000	51.751272
898.000000	51.893430
897.000000	52.014661
896.000000	52.147271
895.000000	52.271877
894.000000	52.432263
893.000000	52.554554
892.000000	52.694687
891.000000	52.835785
890.000000	52.972253
889.000000	53.118655
888.000000	53.279331
887.000000	53.423322
886.000000	53.594799
885.000000	53.767820
884.000000	53.941805
883.000000	54.139708
882.000000	54.335489
881.000000	54.523651
880.000000	54.716250
879.000000	54.942122
878.000000	55.158638
877.000000	55.391261
876.000000	55.616072
875.000000	55.852360
874.000000	56.113338
873.000000	56.357727
872.000000	56.616775
871.000000	56.902250
870.000000	57.190231
869.000000	57.470208
868.000000	57.781144
867.000000	58.095937
866.000000	58.420182
865.000000	58.709224
864.000000	59.055748
863.000000	59.363886
862.000000	59.688035
861.000000	59.996945
860.000000	60.330255
859.000000	60.622095
858.000000	60.521600
857.000000	60.500700
856.000000	60.491100
855.000000	60.573000
854.000000	61.191400
853.000000	61.508500
852.000000	62.112800
851.000000	62.121000
850.000000	62.644300
849.000000	62.884100
848.000000	63.170600
847.000000	63.246400
846.000000	63.544800
845.000000	64.029300
844.000000	64.377000
843.000000	64.377100
842.000000	64.996000
841.000000	65.105300
840.000000	65.365700
839.000000	65.567100
838.000000	65.960000
837.000000	66.235000
836.000000	66.369400
835.000000	66.506800
834.000000	66.701600
833.000000	67.033500
832.000000	67.098800
831.000000	67.230500
830.000000	67.524200
829.000000	67.665900
828.000000	67.603100
827.000000	67.811500
826.000000	68.066700
825.000000	68.109100
824.000000	68.258100
823.000000	68.190100
822.000000	68.439000
821.000000	68.452000
820.000000	68.479300
819.000000	68.637800
818.000000	68.661900
817.000000	68.582900
816.000000	68.693800
815.000000	68.705000
814.000000	68.792800
813.000000	68.818300
812.000000	68.784200
811.000000	68.830800
810.000000	68.885700
809.000000	69.037900
808.000000	69.035800
807.000000	69.082100
806.000000	69.097100
805.000000	69.105300
804.000000	69.205500
803.000000	69.309500
802.000000	69.186300
801.000000	69.165100
800.000000	69.229200
799.000000	69.339300
798.000000	69.358200
797.000000	69.483000
796.000000	69.574200
795.000000	69.496600
794.000000	69.479000
793.000000	69.576300
792.000000	69.648800
791.000000	69.744000
790.000000	69.721900
789.000000	69.912000
788.000000	69.990700
787.000000	69.965400
786.000000	69.956900
785.000000	69.963200
784.000000	70.037200
783.000000	69.981600
782.000000	70.053200
781.000000	69.990700
780.000000	69.945400
779.000000	70.041000
778.000000	70.071300
777.000000	69.997000
776.000000	69.868700
775.000000	69.799800
774.000000	69.805700
773.000000	69.718500
772.000000	69.690800
771.000000	69.564200
770.000000	69.467800
769.000000	69.457100
768.000000	69.271500
767.000000	69.086100
766.000000	68.930800
765.000000	68.759700
764.000000	68.626000
763.000000	68.495200
762.000000	68.293800
761.000000	68.024400
760.000000	67.840800
759.000000	67.663900
758.000000	67.423800
757.000000	67.202700
756.000000	66.895900
755.000000	66.561400
754.000000	66.286500
753.000000	65.949500
752.000000	65.688200
751.000000	65.390900
750.000000	65.041000
749.000000	64.708400
748.000000	64.358400
747.000000	63.995500
746.000000	63.654200
745.000000	63.293500
744.000000	62.916300
743.000000	62.511100
742.000000	62.126400
741.000000	61.747900
740.000000	61.341100
739.000000	60.967800
738.000000	60.549100
737.000000	60.166600
736.000000	59.814200
735.000000	59.453400
734.000000	59.062400
733.000000	58.715800
732.000000	58.367000
731.000000	57.997400
730.000000	57.689600
729.000000	57.399300
728.000000	57.106700
727.000000	56.812000
726.000000	56.587100
725.000000	56.403000
724.000000	56.169400
723.000000	55.953100
722.000000	55.737700
721.000000	55.619600
720.000000	55.486300
719.000000	55.341600
718.000000	55.250000
717.000000	55.107200
716.000000	54.989100
715.000000	54.886600
714.000000	54.732500
713.000000	54.609600
712.000000	54.487700
711.000000	54.286000
710.000000	54.113400
709.000000	53.942000
708.000000	53.695200
707.000000	53.472500
706.000000	53.203400
705.000000	52.935800
704.000000	52.629500
703.000000	52.326100
702.000000	52.001100
701.000000	51.598400
700.000000	51.209100
699.000000	50.804400
698.000000	50.370100
697.000000	49.957800
696.000000	49.536700
695.000000	49.122600
694.000000	48.703300
693.000000	48.304600
692.000000	47.918100
691.000000	47.516000
690.000000	47.165400
689.000000	46.742400
688.000000	46.378700
687.000000	46.086700
686.000000	45.776600
685.000000	45.499500
684.000000	45.237000
683.000000	44.990200
682.000000	44.815300
681.000000	44.616800
680.000000	44.445500
679.000000	44.301000
678.000000	44.167500
677.000000	44.110600
676.000000	44.053600
675.000000	43.958700
674.000000	43.934800
673.000000	43.885100
672.000000	43.903100
671.000000	43.896200
670.000000	43.960800
669.000000	44.019200
668.000000	44.108400
667.000000	44.170900
666.000000	44.247700
665.000000	44.347900
664.000000	44.426600
663.000000	44.471200
662.000000	44.516300
661.000000	44.552100
660.000000	44.548500
659.000000	44.496200
658.000000	44.431000
657.000000	44.329700
656.000000	44.154100
655.000000	43.968500
654.000000	43.758000
653.000000	43.564700
652.000000	43.295800
651.000000	43.074300
650.000000	42.943800
649.000000	42.725100
648.000000	42.556700
647.000000	42.480200
646.000000	42.416700
645.000000	42.361900
644.000000	42.321200
643.000000	42.338400
642.000000	42.380100
641.000000	42.442100
640.000000	42.539500
639.000000	42.633900
638.000000	42.742500
637.000000	42.858700
636.000000	43.051600
635.000000	43.197400
634.000000	43.386700
633.000000	43.582100
632.000000	43.860200
631.000000	44.123400
630.000000	44.434500
629.000000	44.776200
628.000000	45.133200
627.000000	45.540000
626.000000	45.957400
625.000000	46.367800
624.000000	46.792000
623.000000	47.226700
622.000000	47.720200
621.000000	48.228500
620.000000	48.671100
619.000000	49.182700
618.000000	49.627800
617.000000	50.061600
616.000000	50.512100
615.000000	50.937700
614.000000	51.383900
613.000000	51.780200
612.000000	52.193000
611.000000	52.542400
610.000000	52.954400
609.000000	53.299300
608.000000	53.692700
607.000000	54.070700
606.000000	54.340000
605.000000	54.719500
604.000000	55.031400
603.000000	55.299400
602.000000	55.558800
601.000000	55.816600
600.000000	56.007800
599.000000	56.287100
598.000000	56.442100
597.000000	56.623600
596.000000	56.809300
595.000000	56.972100
594.000000	57.070400
593.000000	57.192300
592.000000	57.263600
591.000000	57.361700
590.000000	57.354100
589.000000	57.370900
588.000000	57.361700
587.000000	57.368100
586.000000	57.357500
585.000000	57.261100
584.000000	57.220400
583.000000	57.131000
582.000000	57.071800
581.000000	57.013100
580.000000	56.858300
579.000000	56.733700
578.000000	56.576600
577.000000	56.430900
576.000000	56.289000
575.000000	56.075900
574.000000	55.911700
573.000000	55.718200
572.000000	55.488500
571.000000	55.291100
570.000000	55.016000
569.000000	54.735900
568.000000	54.439800
567.000000	54.100900
566.000000	53.777000
565.000000	53.459200
564.000000	53.086600
563.000000	52.693300
562.000000	52.289400
561.000000	51.856200
560.000000	51.405100
559.000000	50.888500
558.000000	50.393400
557.000000	49.897200
556.000000	49.386400
555.000000	48.825800
554.000000	48.284100
553.000000	47.717400
552.000000	47.121000
551.000000	46.507300
550.000000	45.862800
549.000000	45.232300
548.000000	44.598200
547.000000	43.977600
546.000000	43.305100
545.000000	42.645100
544.000000	41.941500
543.000000	41.213800
542.000000	40.518300
541.000000	39.767700
540.000000	39.044700
539.000000	38.332900
538.000000	37.617100
537.000000	36.872500
536.000000	36.154100
535.000000	35.435200
534.000000	34.737700
533.000000	34.018900
532.000000	33.348900
531.000000	32.683100
530.000000	32.048900
529.000000	31.441000
528.000000	30.861100
527.000000	30.290200
526.000000	29.753200
525.000000	29.236900
524.000000	28.755100
523.000000	28.298800
522.000000	27.862500
521.000000	27.427100
520.000000	27.014100
519.000000	26.626900
518.000000	26.233800
517.000000	25.853000
516.000000	25.511400
515.000000	25.158300
514.000000	24.813800
513.000000	24.456400
512.000000	24.119000
511.000000	23.777000
510.000000	23.440500
509.000000	23.116600
508.000000	22.795300
507.000000	22.481300
506.000000	22.177600
505.000000	21.896300
504.000000	21.626600
503.000000	21.393800
502.000000	21.145700
501.000000	20.931000
500.000000	20.768200
499.000000	20.607600
498.000000	20.471300
497.000000	20.358200
496.000000	20.273700
495.000000	20.236000
494.000000	20.219500
493.000000	20.202100
492.000000	20.219200
491.000000	20.263200
490.000000	20.326000
489.000000	20.407100
488.000000	20.492300
487.000000	20.601500
486.000000	20.710000
485.000000	20.834200
484.000000	20.945600
483.000000	21.067000
482.000000	21.182000
481.000000	21.281000
480.000000	21.374800
479.000000	21.461400
478.000000	21.526800
477.000000	21.568400
476.000000	21.619900
475.000000	21.669700
474.000000	21.688800
473.000000	21.698500
472.000000	21.695700
471.000000	21.668100
470.000000	21.628200
469.000000	21.567100
468.000000	21.509000
467.000000	21.442400
466.000000	21.350700
465.000000	21.242700
464.000000	21.122100
463.000000	21.016100
462.000000	20.873700
461.000000	20.717600
460.000000	20.564900
459.000000	20.401300
458.000000	20.240600
457.000000	20.051900
456.000000	19.861000
455.000000	19.661700
454.000000	19.444700
453.000000	19.223600
452.000000	18.988000
451.000000	18.744800
450.000000	18.488500
449.000000	18.240500
448.000000	18.002900
447.000000	17.740600
446.000000	17.462800
445.000000	17.153600
444.000000	16.861900
443.000000	16.563100
442.000000	16.235700
441.000000	15.922800
440.000000	15.593000
439.000000	15.241700
438.000000	14.903100
437.000000	14.571300
436.000000	14.218600
435.000000	13.855600
434.000000	13.493600
433.000000	13.150200
432.000000	12.792300
431.000000	12.427300
430.000000	12.075500
429.000000	11.732100
428.000000	11.392900
427.000000	11.075100
426.000000	10.755200
425.000000	10.427100
424.000000	10.112800
423.000000	9.817700
422.000000	9.529800
421.000000	9.257500
420.000000	8.997500
419.000000	8.746700
418.000000	8.526000
417.000000	8.303200
416.000000	8.097100
415.000000	7.908900
414.000000	7.726500
413.000000	7.556300
412.000000	7.396600
411.000000	7.246200
410.000000	7.120400
409.000000	6.995900
408.000000	6.879300
407.000000	6.782300
406.000000	6.685500
405.000000	6.608800
404.000000	6.517400
403.000000	6.431400
402.000000	6.366900
401.000000	6.301400
400.000000	6.253600
399.000000	6.197400
398.000000	6.160200
397.000000	6.112700
396.000000	6.063700
395.000000	6.032600
394.000000	5.980500
393.000000	5.958600
392.000000	5.939600
391.000000	5.900100
390.000000	5.868800
389.000000	5.845200
388.000000	5.807600
387.000000	5.775200
386.000000	5.772200
385.000000	5.761700
384.000000	5.747200
383.000000	5.719900
382.000000	5.685300
381.000000	5.691000
380.000000	5.685200
379.000000	5.651300
378.000000	5.632600
377.000000	5.608500
376.000000	5.748700
375.000000	5.694000
374.000000	5.546900
373.000000	5.614500
372.000000	5.733000
371.000000	5.696800
370.000000	5.605700
369.000000	5.633900
368.000000	5.684500
367.000000	5.675000
366.000000	5.629200
365.000000	5.572400
364.000000	5.633800
363.000000	5.579300
362.000000	5.613900
361.000000	5.588100
360.000000	5.580500
359.000000	5.659100
358.000000	5.629100
357.000000	5.639100
356.000000	5.609000
355.000000	5.566000
354.000000	5.497500
353.000000	5.651900
352.000000	5.544700
351.000000	5.608900
350.000000	5.660900
349.000000	5.661500
348.000000	5.737200
347.000000	5.542200
346.000000	5.584200
345.000000	5.516400
344.000000	5.609900
343.000000	5.543400
342.000000	5.637000
341.000000	5.629900
340.000000	5.650200
339.000000	5.629600
338.000000	5.584900
337.000000	5.667600
336.000000	5.680800
335.000000	5.664600
334.000000	5.650100
333.000000	5.630200
332.000000	5.634300
331.000000	5.549100
330.000000	5.574200
329.000000	5.567700
328.000000	5.799800
327.000000	5.792100
326.000000	5.740400
325.000000	5.811900
324.000000	5.683700
323.000000	5.777700
322.000000	5.801900
321.000000	5.930200
320.000000	5.980700
319.000000	5.809400
318.000000	5.988200
317.000000	5.899600
316.000000	5.526500
315.000000	5.523100
314.000000	5.548100
313.000000	5.495500
312.000000	5.462100
311.000000	5.472300
310.000000	5.471800
309.000000	5.470900
308.000000	5.495900
307.000000	5.554700
306.000000	5.494100
305.000000	5.563600
304.000000	5.522100
303.000000	5.601600
302.000000	5.523900
301.000000	5.553400
300.000000	5.561900
299.000000	5.522400
298.000000	5.557300
297.000000	5.547500
296.000000	5.595300
295.000000	5.576400
294.000000	5.572600
293.000000	5.571500
292.000000	5.567000
291.000000	5.616800
290.000000	5.593000
289.000000	5.615800
288.000000	5.596100
287.000000	5.548700
286.000000	5.608000
285.000000	5.643300
284.000000	5.572900
283.000000	5.629700
282.000000	5.595400
281.000000	5.577000
280.000000	5.630000
279.000000	5.649600
278.000000	5.636400
277.000000	5.611200
276.000000	5.673200
275.000000	5.643900
274.000000	5.693200
273.000000	5.719400
272.000000	5.686900
271.000000	5.721100
270.000000	5.707400
269.000000	5.773800
268.000000	5.729800
267.000000	5.776400
266.000000	5.784700
265.000000	5.791600
264.000000	5.844600
263.000000	5.840600
262.000000	5.882500
261.000000	5.885800
260.000000	5.914800
259.000000	5.935800
258.000000	5.931400
257.000000	5.927300
256.000000	5.994500
255.000000	5.967200
254.000000	5.966600
253.000000	6.019100
252.000000	5.995200
251.000000	6.001900
250.000000	6.048500
