PE UV       SUBTECH     SPECTRUM    ASCII       PEDS        4.00        
   -1
CICIMAUCR0113-5.Sample.ASC
24/04/25
11:11:16.00
24/04/25
11:11:16.00
Vinicio Soto Monge
C. kalinini
250,000000
1
Lambda 1050
1050L1511233
PerkinElmer UV WinLab 6.3.2.0749 / 2.02.05 Lambda 900 UV/VIS/NIR, Aug  7 2015 09:38:08

0
0
3350/servo 860,8/2
0
0
UV/VIS
1
1
1
DoubleDePol,CommonBeamDepol,RBeamAtt,SBeamAtt,60mm sphere, WB InGaAs Detector
0
0
0
0
Program
Program
3350/servo 860,8/2
3350/0,2 860,8/0,2
3350/0,2 860,8/0,2
0
15.00
 
 
 
0
 
860,8
319,2
860,8
Front
100
on
S:100 R:100
0
0
0
0
 
0
 
 
 
0
 
 
0
0
0
0
0
 
 
 
 
0
0


0
0
#HDR
-1
-1
#GR
nm
%R
1.0
0.0
2500,000000
-1,000000
2251
8
100,911800
4,775100
#DATA
2482.000000	6.022456
2481.000000	5.958001
2480.000000	5.974982
2479.000000	5.995434
2478.000000	5.986510
2477.000000	5.944366
2476.000000	6.048486
2475.000000	5.960232
2474.000000	5.961967
2473.000000	5.939160
2472.000000	5.998657
2471.000000	6.024315
2470.000000	5.990228
2469.000000	5.918832
2468.000000	5.974982
2467.000000	5.970520
2466.000000	5.973866
2465.000000	5.985270
2464.000000	5.961471
2463.000000	5.972007
2462.000000	6.021712
2461.000000	6.088026
2460.000000	6.056047
2459.000000	6.045263
2458.000000	6.069433
2457.000000	6.101661
2456.000000	6.162645
2455.000000	6.121617
2454.000000	6.155084
2453.000000	6.169587
2452.000000	6.201814
2451.000000	6.225861
2450.000000	6.249412
2449.000000	6.275814
2448.000000	6.307545
2447.000000	6.351300
2446.000000	6.374603
2445.000000	6.367910
2444.000000	6.407575
2443.000000	6.453189
2442.000000	6.476492
2441.000000	6.524337
2440.000000	6.544541
2439.000000	6.547764
2438.000000	6.576149
2437.000000	6.620524
2436.000000	6.645314
2435.000000	6.635770
2434.000000	6.651636
2433.000000	6.665271
2432.000000	6.686962
2431.000000	6.697870
2430.000000	6.738898
2429.000000	6.767407
2428.000000	6.773109
2427.000000	6.780174
2426.000000	6.794305
2425.000000	6.810047
2424.000000	6.824425
2423.000000	6.868180
2422.000000	6.867189
2421.000000	6.854298
2420.000000	6.869172
2419.000000	6.875121
2418.000000	6.896441
2417.000000	6.899912
2416.000000	6.892475
2415.000000	6.908589
2414.000000	6.910448
2413.000000	6.929536
2412.000000	6.932511
2411.000000	6.938337
2410.000000	6.956930
2409.000000	6.974283
2408.000000	7.010105
2407.000000	7.048034
2406.000000	7.045679
2405.000000	7.031177
2404.000000	7.046795
2403.000000	7.064396
2402.000000	7.065636
2401.000000	7.095136
2400.000000	7.120299
2399.000000	7.121166
2398.000000	7.151163
2397.000000	7.171119
2396.000000	7.182522
2395.000000	7.205330
2394.000000	7.201735
2393.000000	7.222435
2392.000000	7.258753
2391.000000	7.260736
2390.000000	7.253299
2389.000000	7.262719
2388.000000	7.287882
2387.000000	7.303747
2386.000000	7.293955
2385.000000	7.294699
2384.000000	7.298789
2383.000000	7.283047
2382.000000	7.285279
2381.000000	7.273379
2380.000000	7.286518
2379.000000	7.307714
2378.000000	7.286518
2377.000000	7.280940
2376.000000	7.272636
2375.000000	7.272140
2374.000000	7.260488
2373.000000	7.244746
2372.000000	7.249333
2371.000000	7.250324
2370.000000	7.239292
2369.000000	7.217229
2368.000000	7.185869
2367.000000	7.159095
2366.000000	7.148312
2365.000000	7.134057
2364.000000	7.109639
2363.000000	7.096996
2362.000000	7.076420
2361.000000	7.041217
2360.000000	7.004899
2359.000000	6.999817
2358.000000	6.987918
2357.000000	6.958169
2356.000000	6.960896
2355.000000	6.964243
2354.000000	6.964491
2353.000000	6.966722
2352.000000	6.964987
2351.000000	6.974779
2350.000000	6.978373
2349.000000	6.985067
2348.000000	7.011593
2347.000000	7.042829
2346.000000	7.054108
2345.000000	7.079518
2344.000000	7.102202
2343.000000	7.120299
2342.000000	7.141990
2341.000000	7.170003
2340.000000	7.183142
2339.000000	7.176077
2338.000000	7.167276
2337.000000	7.184010
2336.000000	7.198016
2335.000000	7.202355
2334.000000	7.186985
2333.000000	7.202974
2332.000000	7.183266
2331.000000	7.156740
2330.000000	7.156616
2329.000000	7.151163
2328.000000	7.132446
2327.000000	7.119431
2326.000000	7.074560
2325.000000	7.079394
2324.000000	7.069726
2323.000000	7.020393
2322.000000	6.988166
2321.000000	6.967094
2320.000000	6.936106
2319.000000	6.906853
2318.000000	6.877724
2317.000000	6.842522
2316.000000	6.803973
2315.000000	6.777199
2314.000000	6.741501
2313.000000	6.732825
2312.000000	6.704935
2311.000000	6.700969
2310.000000	6.682376
2309.000000	6.647670
2308.000000	6.640356
2307.000000	6.661180
2306.000000	6.682996
2305.000000	6.682748
2304.000000	6.714480
2303.000000	6.717331
2302.000000	6.747451
2301.000000	6.795296
2300.000000	6.831738
2299.000000	6.879956
2298.000000	6.910324
2297.000000	6.943295
2296.000000	6.975275
2295.000000	6.999693
2294.000000	7.049150
2293.000000	7.060802
2292.000000	7.069726
2291.000000	7.081254
2290.000000	7.107531
2289.000000	7.109639
2288.000000	7.143106
2287.000000	7.151782
2286.000000	7.139263
2285.000000	7.133561
2284.000000	7.112985
2283.000000	7.142734
2282.000000	7.127612
2281.000000	7.107408
2280.000000	7.099227
2279.000000	7.075676
2278.000000	7.071957
2277.000000	7.073445
2276.000000	7.095384
2275.000000	7.068363
2274.000000	7.059438
2273.000000	7.078403
2272.000000	7.080138
2271.000000	7.100218
2270.000000	7.121662
2269.000000	7.152898
2268.000000	7.182770
2267.000000	7.239912
2266.000000	7.284659
2265.000000	7.319985
2264.000000	7.407991
2263.000000	7.482858
2262.000000	7.585490
2261.000000	7.650689
2260.000000	7.755800
2259.000000	7.835873
2258.000000	7.946934
2257.000000	8.029486
2256.000000	8.157653
2255.000000	8.258922
2254.000000	8.431091
2253.000000	8.517361
2252.000000	8.621357
2251.000000	8.704901
2250.000000	8.822903
2249.000000	8.892936
2248.000000	8.976728
2247.000000	9.064362
2246.000000	9.165011
2245.000000	9.266899
2244.000000	9.332842
2243.000000	9.409196
2242.000000	9.471544
2241.000000	9.552113
2240.000000	9.609255
2239.000000	9.668380
2238.000000	9.710771
2237.000000	9.761468
2236.000000	9.795802
2235.000000	9.849350
2234.000000	9.906368
2233.000000	9.949255
2232.000000	9.972930
2231.000000	9.993878
2230.000000	10.025485
2229.000000	10.040236
2228.000000	10.060688
2227.000000	10.065398
2226.000000	10.064282
2225.000000	10.073207
2224.000000	10.061803
2223.000000	10.060440
2222.000000	10.051639
2221.000000	10.082503
2220.000000	10.091304
2219.000000	10.063167
2218.000000	10.090932
2217.000000	10.062175
2216.000000	10.038005
2215.000000	10.027964
2214.000000	10.017181
2213.000000	9.995737
2212.000000	10.003794
2211.000000	9.992886
2210.000000	9.986688
2209.000000	9.967228
2208.000000	9.935248
2207.000000	9.954213
2206.000000	9.971318
2205.000000	9.955081
2204.000000	9.975657
2203.000000	9.938223
2202.000000	9.943305
2201.000000	9.950618
2200.000000	9.944793
2199.000000	9.927315
2198.000000	9.937108
2197.000000	9.935124
2196.000000	9.918391
2195.000000	9.900790
2194.000000	9.923349
2193.000000	9.916780
2192.000000	9.902029
2191.000000	9.891245
2190.000000	9.915044
2189.000000	9.882321
2188.000000	9.869182
2187.000000	9.884180
2186.000000	9.867942
2185.000000	9.856787
2184.000000	9.848606
2183.000000	9.855795
2182.000000	9.828650
2181.000000	9.824311
2180.000000	9.827162
2179.000000	9.796298
2178.000000	9.811172
2177.000000	9.820965
2176.000000	9.807578
2175.000000	9.803859
2174.000000	9.793571
2173.000000	9.805347
2172.000000	9.799025
2171.000000	9.804231
2170.000000	9.812040
2169.000000	9.830633
2168.000000	9.822824
2167.000000	9.826542
2166.000000	9.835095
2165.000000	9.877735
2164.000000	9.861621
2163.000000	9.856787
2162.000000	9.861993
2161.000000	9.883560
2160.000000	9.905376
2159.000000	9.906120
2158.000000	9.935124
2157.000000	9.951610
2156.000000	9.968344
2155.000000	9.994002
2154.000000	10.011727
2153.000000	10.020032
2152.000000	10.033046
2151.000000	10.059200
2150.000000	10.091180
2149.000000	10.105434
2148.000000	10.134563
2147.000000	10.150553
2146.000000	10.160469
2145.000000	10.181913
2144.000000	10.181665
2143.000000	10.205340
2142.000000	10.224800
2141.000000	10.231989
2140.000000	10.250830
2139.000000	10.252194
2138.000000	10.261118
2137.000000	10.302518
2136.000000	10.316401
2135.000000	10.306113
2134.000000	10.311567
2133.000000	10.326317
2132.000000	10.350983
2131.000000	10.353710
2130.000000	10.352223
2129.000000	10.361023
2128.000000	10.374286
2127.000000	10.376765
2126.000000	10.373791
2125.000000	10.366725
2124.000000	10.372303
2123.000000	10.366229
2122.000000	10.358173
2121.000000	10.354454
2120.000000	10.371931
2119.000000	10.387301
2118.000000	10.373419
2117.000000	10.367593
2116.000000	10.370568
2115.000000	10.359536
2114.000000	10.346521
2113.000000	10.327432
2112.000000	10.323714
2111.000000	10.322103
2110.000000	10.325077
2109.000000	10.320987
2108.000000	10.304749
2107.000000	10.311071
2106.000000	10.307104
2105.000000	10.298180
2104.000000	10.292230
2103.000000	10.287892
2102.000000	10.286776
2101.000000	10.269795
2100.000000	10.273142
2099.000000	10.293346
2098.000000	10.292726
2097.000000	10.270291
2096.000000	10.280827
2095.000000	10.302890
2094.000000	10.301650
2093.000000	10.316897
2092.000000	10.308840
2091.000000	10.292602
2090.000000	10.319252
2089.000000	10.333754
2088.000000	10.329540
2087.000000	10.346769
2086.000000	10.354826
2085.000000	10.352471
2084.000000	10.350116
2083.000000	10.356685
2082.000000	10.349248
2081.000000	10.349744
2080.000000	10.369080
2079.000000	10.383459
2078.000000	10.369204
2077.000000	10.341811
2076.000000	10.353214
2075.000000	10.367717
2074.000000	10.355941
2073.000000	10.370940
2072.000000	10.363998
2071.000000	10.335365
2070.000000	10.348009
2069.000000	10.348380
2068.000000	10.343174
2067.000000	10.350735
2066.000000	10.334002
2065.000000	10.331895
2064.000000	10.331523
2063.000000	10.350983
2062.000000	10.354578
2061.000000	10.359536
2060.000000	10.378253
2059.000000	10.357553
2058.000000	10.372675
2057.000000	10.391392
2056.000000	10.438989
2055.000000	10.472828
2054.000000	10.491545
2053.000000	10.539266
2052.000000	10.583889
2051.000000	10.646485
2050.000000	10.691975
2049.000000	10.757918
2048.000000	10.812457
2047.000000	10.885464
2046.000000	10.972479
2045.000000	11.040404
2044.000000	11.101761
2043.000000	11.192989
2042.000000	11.267608
2041.000000	11.343591
2040.000000	11.420689
2039.000000	11.514521
2038.000000	11.579472
2037.000000	11.668221
2036.000000	11.730817
2035.000000	11.802957
2034.000000	11.850555
2033.000000	11.935214
2032.000000	12.006982
2031.000000	12.045779
2030.000000	12.102177
2029.000000	12.154237
2028.000000	12.214726
2027.000000	12.271248
2026.000000	12.310169
2025.000000	12.366567
2024.000000	12.430650
2023.000000	12.456928
2022.000000	12.517416
2021.000000	12.545306
2020.000000	12.591540
2019.000000	12.630337
2018.000000	12.670621
2017.000000	12.708922
2016.000000	12.740282
2015.000000	12.743009
2014.000000	12.777592
2013.000000	12.801514
2012.000000	12.814157
2011.000000	12.856301
2010.000000	12.858904
2009.000000	12.881215
2008.000000	12.889892
2007.000000	12.893115
2006.000000	12.907989
2005.000000	12.898073
2004.000000	12.890512
2003.000000	12.875018
2002.000000	12.873778
2001.000000	12.877125
2000.000000	12.857293
1999.000000	12.846261
1998.000000	12.789615
1997.000000	12.799531
1996.000000	12.787632
1995.000000	12.761230
1994.000000	12.745488
1993.000000	12.708055
1992.000000	12.686363
1991.000000	12.638022
1990.000000	12.642236
1989.000000	12.569600
1988.000000	12.537744
1987.000000	12.512954
1986.000000	12.439946
1985.000000	12.425692
1984.000000	12.385036
1983.000000	12.322068
1982.000000	12.291700
1981.000000	12.257489
1980.000000	12.208528
1979.000000	12.177664
1978.000000	12.118663
1977.000000	12.103541
1976.000000	12.049498
1975.000000	11.998057
1974.000000	11.992356
1973.000000	11.932115
1972.000000	11.895673
1971.000000	11.859479
1970.000000	11.837168
1969.000000	11.798619
1968.000000	11.775316
1967.000000	11.758582
1966.000000	11.706522
1965.000000	11.687930
1964.000000	11.670452
1963.000000	11.629424
1962.000000	11.601411
1961.000000	11.571787
1960.000000	11.539931
1959.000000	11.537824
1958.000000	11.490846
1957.000000	11.441637
1956.000000	11.424036
1955.000000	11.404947
1954.000000	11.357350
1953.000000	11.338509
1952.000000	11.319916
1951.000000	11.308141
1950.000000	11.287069
1949.000000	11.280375
1948.000000	11.253354
1947.000000	11.263518
1946.000000	11.233893
1945.000000	11.222118
1944.000000	11.240339
1943.000000	11.245297
1942.000000	11.240835
1941.000000	11.246660
1940.000000	11.252982
1939.000000	11.278516
1938.000000	11.304546
1937.000000	11.306529
1936.000000	11.328841
1935.000000	11.383751
1934.000000	11.408666
1933.000000	11.429738
1932.000000	11.506836
1931.000000	11.541666
1930.000000	11.620376
1929.000000	11.680740
1928.000000	11.742592
1927.000000	11.819443
1926.000000	11.894186
1925.000000	11.976490
1924.000000	12.058670
1923.000000	12.145932
1922.000000	12.225633
1921.000000	12.361609
1920.000000	12.468951
1919.000000	12.559312
1918.000000	12.651532
1917.000000	12.811554
1916.000000	12.917162
1915.000000	13.062929
1914.000000	13.221340
1913.000000	13.350746
1912.000000	13.496637
1911.000000	13.651577
1910.000000	13.781975
1909.000000	13.951169
1908.000000	14.113298
1907.000000	14.284228
1906.000000	14.472015
1905.000000	14.623237
1904.000000	14.820816
1903.000000	14.997696
1902.000000	15.171600
1901.000000	15.366329
1900.000000	15.578907
1899.000000	15.744383
1898.000000	15.935765
1897.000000	16.133716
1896.000000	16.327825
1895.000000	16.504580
1894.000000	16.699929
1893.000000	16.875693
1892.000000	17.086039
1891.000000	17.296138
1890.000000	17.509211
1889.000000	17.710881
1888.000000	17.930276
1887.000000	18.175825
1886.000000	18.453725
1885.000000	18.797196
1884.000000	19.190620
1883.000000	19.545866
1882.000000	19.913384
1881.000000	20.320814
1880.000000	20.700107
1879.000000	21.073203
1878.000000	21.450885
1877.000000	21.786299
1876.000000	22.090973
1875.000000	22.396391
1874.000000	22.666110
1873.000000	22.904098
1872.000000	23.123121
1871.000000	23.312272
1870.000000	23.446884
1869.000000	23.565506
1868.000000	23.666898
1867.000000	23.730734
1866.000000	23.772382
1865.000000	23.785892
1864.000000	23.780439
1863.000000	23.778703
1862.000000	23.782546
1861.000000	23.777464
1860.000000	23.759119
1859.000000	23.703216
1858.000000	23.660701
1857.000000	23.607030
1856.000000	23.516669
1855.000000	23.432133
1854.000000	23.347846
1853.000000	23.236661
1852.000000	23.130930
1851.000000	23.053832
1850.000000	22.978965
1849.000000	22.866416
1848.000000	22.754364
1847.000000	22.628553
1846.000000	22.511294
1845.000000	22.431593
1844.000000	22.377054
1843.000000	22.353131
1842.000000	22.321524
1841.000000	22.252978
1840.000000	22.179103
1839.000000	22.110557
1838.000000	22.057258
1837.000000	21.980408
1836.000000	21.879139
1835.000000	21.772664
1834.000000	21.661727
1833.000000	21.557607
1832.000000	21.473444
1831.000000	21.387793
1830.000000	21.293961
1829.000000	21.195791
1828.000000	21.096134
1827.000000	21.005525
1826.000000	20.921362
1825.000000	20.851081
1824.000000	20.814639
1823.000000	20.801252
1822.000000	20.776834
1821.000000	20.741755
1820.000000	20.708660
1819.000000	20.679531
1818.000000	20.657220
1817.000000	20.648915
1816.000000	20.662178
1815.000000	20.671103
1814.000000	20.665277
1813.000000	20.633545
1812.000000	20.618795
1811.000000	20.588923
1810.000000	20.540457
1809.000000	20.506494
1808.000000	20.477985
1807.000000	20.450220
1806.000000	20.389980
1805.000000	20.322054
1804.000000	20.289454
1803.000000	20.256235
1802.000000	20.211737
1801.000000	20.162652
1800.000000	20.112451
1799.000000	20.091379
1798.000000	20.050723
1797.000000	19.983541
1796.000000	19.946479
1795.000000	19.913632
1794.000000	19.869133
1793.000000	19.817445
1792.000000	19.759064
1791.000000	19.702294
1790.000000	19.648499
1789.000000	19.604248
1788.000000	19.518597
1787.000000	19.454762
1786.000000	19.366012
1785.000000	19.283584
1784.000000	19.191116
1783.000000	19.107820
1782.000000	19.024896
1781.000000	18.957714
1780.000000	18.862271
1779.000000	18.789140
1778.000000	18.678698
1777.000000	18.577182
1776.000000	18.460543
1775.000000	18.330393
1774.000000	18.234082
1773.000000	18.107899
1772.000000	17.971552
1771.000000	17.835825
1770.000000	17.695139
1769.000000	17.600440
1768.000000	17.482438
1767.000000	17.401621
1766.000000	17.323159
1765.000000	17.266761
1764.000000	17.228956
1763.000000	17.244698
1762.000000	17.270728
1761.000000	17.303327
1760.000000	17.379681
1759.000000	17.460250
1758.000000	17.526193
1757.000000	17.547512
1756.000000	17.572179
1755.000000	17.595358
1754.000000	17.600564
1753.000000	17.582467
1752.000000	17.545405
1751.000000	17.483181
1750.000000	17.421081
1749.000000	17.357122
1748.000000	17.271967
1747.000000	17.146776
1746.000000	17.023815
1745.000000	16.877304
1744.000000	16.730793
1743.000000	16.513381
1742.000000	16.321503
1741.000000	16.078929
1740.000000	15.900934
1739.000000	15.686373
1738.000000	15.531681
1737.000000	15.402027
1736.000000	15.283653
1735.000000	15.243493
1734.000000	15.227255
1733.000000	15.224900
1732.000000	15.290842
1731.000000	15.349100
1730.000000	15.422851
1729.000000	15.535647
1728.000000	15.625017
1727.000000	15.688852
1726.000000	15.739672
1725.000000	15.769793
1724.000000	15.806607
1723.000000	15.846519
1722.000000	15.791484
1721.000000	15.780577
1720.000000	15.793220
1719.000000	15.790121
1718.000000	15.789377
1717.000000	15.820613
1716.000000	15.860898
1715.000000	15.901802
1714.000000	15.926096
1713.000000	15.960679
1712.000000	15.986709
1711.000000	15.982247
1710.000000	15.996625
1709.000000	15.985965
1708.000000	15.924733
1707.000000	15.933533
1706.000000	15.869822
1705.000000	15.823588
1704.000000	15.759629
1703.000000	15.705462
1702.000000	15.594897
1701.000000	15.468342
1700.000000	15.337572
1699.000000	15.233700
1698.000000	15.122763
1697.000000	15.053598
1696.000000	15.047896
1695.000000	15.052483
1694.000000	15.122144
1693.000000	15.252789
1692.000000	15.364470
1691.000000	15.528458
1690.000000	15.610886
1689.000000	15.685629
1688.000000	15.730872
1687.000000	15.734714
1686.000000	15.747110
1685.000000	15.777230
1684.000000	15.925724
1683.000000	16.137930
1682.000000	16.482641
1681.000000	16.967293
1680.000000	17.458763
1679.000000	18.013820
1678.000000	18.512974
1677.000000	19.027003
1676.000000	19.483643
1675.000000	19.859713
1674.000000	20.224875
1673.000000	20.540705
1672.000000	20.822696
1671.000000	21.040108
1670.000000	21.244876
1669.000000	21.438613
1668.000000	21.573349
1667.000000	21.730025
1666.000000	21.863149
1665.000000	21.956113
1664.000000	22.055770
1663.000000	22.142909
1662.000000	22.216536
1661.000000	22.249136
1660.000000	22.328713
1659.000000	22.366270
1658.000000	22.398002
1657.000000	22.436427
1656.000000	22.442501
1655.000000	22.452541
1654.000000	22.455764
1653.000000	22.442501
1652.000000	22.438410
1651.000000	22.402712
1650.000000	22.370237
1649.000000	22.354619
1648.000000	22.311607
1647.000000	22.259919
1646.000000	22.212818
1645.000000	22.154932
1644.000000	22.111425
1643.000000	22.040400
1642.000000	21.999992
1641.000000	21.922522
1640.000000	21.864513
1639.000000	21.806875
1638.000000	21.761880
1637.000000	21.680196
1636.000000	21.589463
1635.000000	21.524884
1634.000000	21.445803
1633.000000	21.387297
1632.000000	21.291978
1631.000000	21.210914
1630.000000	21.137534
1629.000000	21.051140
1628.000000	20.946772
1627.000000	20.882317
1626.000000	20.781668
1625.000000	20.677548
1624.000000	20.613589
1623.000000	20.522112
1622.000000	20.431875
1621.000000	20.342258
1620.000000	20.273341
1619.000000	20.177278
1618.000000	20.103279
1617.000000	20.036345
1616.000000	19.950322
1615.000000	19.868761
1614.000000	19.805670
1613.000000	19.724853
1612.000000	19.650482
1611.000000	19.570533
1610.000000	19.496162
1609.000000	19.422038
1608.000000	19.363905
1607.000000	19.304780
1606.000000	19.222971
1605.000000	19.152071
1604.000000	19.088608
1603.000000	19.030598
1602.000000	18.964532
1601.000000	18.909125
1600.000000	18.859420
1599.000000	18.783190
1598.000000	18.726172
1597.000000	18.674856
1596.000000	18.628870
1595.000000	18.582883
1594.000000	18.539004
1593.000000	18.512107
1592.000000	18.464881
1591.000000	18.426208
1590.000000	18.401170
1589.000000	18.375140
1588.000000	18.340557
1587.000000	18.327046
1586.000000	18.317130
1585.000000	18.286266
1584.000000	18.255154
1583.000000	18.239660
1582.000000	18.253915
1581.000000	18.260732
1580.000000	18.262220
1579.000000	18.264327
1578.000000	18.279449
1577.000000	18.300645
1576.000000	18.313412
1575.000000	18.335847
1574.000000	18.364604
1573.000000	18.404269
1572.000000	18.447156
1571.000000	18.481243
1570.000000	18.503430
1569.000000	18.539252
1568.000000	18.598625
1567.000000	18.650065
1566.000000	18.691961
1565.000000	18.738691
1564.000000	18.786908
1563.000000	18.828680
1562.000000	18.858429
1561.000000	18.903671
1560.000000	18.954739
1559.000000	18.986099
1558.000000	19.024648
1557.000000	19.049191
1556.000000	19.071502
1555.000000	19.109803
1554.000000	19.141535
1553.000000	19.173143
1552.000000	19.184794
1551.000000	19.180332
1550.000000	19.197561
1549.000000	19.201280
1548.000000	19.227310
1547.000000	19.241192
1546.000000	19.252596
1545.000000	19.282592
1544.000000	19.297839
1543.000000	19.315192
1542.000000	19.345932
1541.000000	19.368119
1540.000000	19.404685
1539.000000	19.420923
1538.000000	19.431211
1537.000000	19.431459
1536.000000	19.443730
1535.000000	19.470132
1534.000000	19.492319
1533.000000	19.493311
1532.000000	19.491080
1531.000000	19.485998
1530.000000	19.495542
1529.000000	19.487857
1528.000000	19.491699
1527.000000	19.497153
1526.000000	19.482403
1525.000000	19.465670
1524.000000	19.473231
1523.000000	19.467901
1522.000000	19.454142
1521.000000	19.449432
1520.000000	19.443730
1519.000000	19.428360
1518.000000	19.420551
1517.000000	19.406668
1516.000000	19.367995
1515.000000	19.349031
1514.000000	19.344816
1513.000000	19.329198
1512.000000	19.318538
1511.000000	19.306639
1510.000000	19.284328
1509.000000	19.252968
1508.000000	19.244291
1507.000000	19.236358
1506.000000	19.230037
1505.000000	19.196446
1504.000000	19.173763
1503.000000	19.173391
1502.000000	19.158269
1501.000000	19.143642
1500.000000	19.138560
1499.000000	19.142403
1498.000000	19.123686
1497.000000	19.124678
1496.000000	19.120463
1495.000000	19.153063
1494.000000	19.157525
1493.000000	19.142899
1492.000000	19.167689
1491.000000	19.185538
1490.000000	19.193471
1489.000000	19.232888
1488.000000	19.272056
1487.000000	19.292509
1486.000000	19.316803
1485.000000	19.358203
1484.000000	19.388695
1483.000000	19.418444
1482.000000	19.444970
1481.000000	19.501120
1480.000000	19.525538
1479.000000	19.570533
1478.000000	19.626559
1477.000000	19.684445
1476.000000	19.726217
1475.000000	19.799844
1474.000000	19.852400
1473.000000	19.944620
1472.000000	19.991970
1471.000000	20.035601
1470.000000	20.081339
1469.000000	20.121871
1468.000000	20.202812
1467.000000	20.271110
1466.000000	20.345605
1465.000000	20.391467
1464.000000	20.473647
1463.000000	20.562025
1462.000000	20.664037
1461.000000	20.765554
1460.000000	20.865459
1459.000000	20.977264
1458.000000	21.077045
1457.000000	21.229878
1456.000000	21.316397
1455.000000	21.424235
1454.000000	21.553269
1453.000000	21.672511
1452.000000	21.813568
1451.000000	21.968632
1450.000000	22.074983
1449.000000	22.194225
1448.000000	22.373955
1447.000000	22.520838
1446.000000	22.661400
1445.000000	22.811506
1444.000000	22.985286
1443.000000	23.090522
1442.000000	23.268021
1441.000000	23.431886
1440.000000	23.589428
1439.000000	23.718834
1438.000000	23.854934
1437.000000	23.981365
1436.000000	24.105069
1435.000000	24.255299
1434.000000	24.431434
1433.000000	24.578937
1432.000000	24.714541
1431.000000	24.855970
1430.000000	25.021198
1429.000000	25.220637
1428.000000	25.430240
1427.000000	25.634389
1426.000000	25.878698
1425.000000	26.142840
1424.000000	26.405246
1423.000000	26.603073
1422.000000	26.887295
1421.000000	27.126647
1420.000000	27.374922
1419.000000	27.652699
1418.000000	27.855732
1417.000000	28.040793
1416.000000	28.312000
1415.000000	28.575150
1414.000000	28.768763
1413.000000	28.964235
1412.000000	29.178672
1411.000000	29.476900
1410.000000	29.836237
1409.000000	30.218381
1408.000000	30.599782
1407.000000	31.006096
1406.000000	31.452323
1405.000000	31.868058
1404.000000	32.310071
1403.000000	32.748489
1402.000000	33.192114
1401.000000	33.601155
1400.000000	34.003256
1399.000000	34.213974
1398.000000	34.411429
1397.000000	34.672844
1396.000000	34.892983
1395.000000	35.026727
1394.000000	35.125517
1393.000000	35.278598
1392.000000	35.465269
1391.000000	35.645000
1390.000000	35.844438
1389.000000	36.164854
1388.000000	36.508077
1387.000000	36.850805
1386.000000	37.287983
1385.000000	37.803252
1384.000000	38.263858
1383.000000	38.718885
1382.000000	39.056035
1381.000000	39.272083
1380.000000	39.329349
1379.000000	39.411529
1378.000000	39.464704
1377.000000	39.613075
1376.000000	39.831850
1375.000000	40.169372
1374.000000	40.633324
1373.000000	41.123306
1372.000000	41.718276
1371.000000	42.280646
1370.000000	42.747449
1369.000000	43.236068
1368.000000	43.714399
1367.000000	44.059109
1366.000000	44.362916
1365.000000	44.661516
1364.000000	44.910164
1363.000000	45.145424
1362.000000	45.381429
1361.000000	45.507364
1360.000000	45.536493
1359.000000	45.714488
1358.000000	45.952848
1357.000000	46.342057
1356.000000	46.925499
1355.000000	47.747921
1354.000000	48.643474
1353.000000	49.586748
1352.000000	50.541799
1351.000000	51.450739
1350.000000	52.259773
1349.000000	52.989479
1348.000000	53.674313
1347.000000	54.283538
1346.000000	54.863881
1345.000000	55.439762
1344.000000	55.965442
1343.000000	56.441170
1342.000000	56.879836
1341.000000	57.323832
1340.000000	57.755309
1339.000000	58.157781
1338.000000	58.529141
1337.000000	58.873232
1336.000000	59.209886
1335.000000	59.507123
1334.000000	59.807458
1333.000000	60.100977
1332.000000	60.368093
1331.000000	60.618848
1330.000000	60.854109
1329.000000	61.063960
1328.000000	61.282115
1327.000000	61.477588
1326.000000	61.661656
1325.000000	61.828000
1324.000000	61.988766
1323.000000	62.159076
1322.000000	62.317858
1321.000000	62.453462
1320.000000	62.595139
1319.000000	62.718347
1318.000000	62.832011
1317.000000	62.960425
1316.000000	63.072230
1315.000000	63.173995
1314.000000	63.278486
1313.000000	63.372318
1312.000000	63.464414
1311.000000	63.545479
1310.000000	63.612413
1309.000000	63.671786
1308.000000	63.718764
1307.000000	63.761527
1306.000000	63.804043
1305.000000	63.815570
1304.000000	63.812347
1303.000000	63.825238
1302.000000	63.820404
1301.000000	63.800076
1300.000000	63.785078
1299.000000	63.770204
1298.000000	63.746281
1297.000000	63.718392
1296.000000	63.694593
1295.000000	63.678107
1294.000000	63.646747
1293.000000	63.592085
1292.000000	63.534199
1291.000000	63.477057
1290.000000	63.402686
1289.000000	63.315548
1288.000000	63.202627
1287.000000	63.090203
1286.000000	62.982365
1285.000000	62.859404
1284.000000	62.733841
1283.000000	62.602948
1282.000000	62.472178
1281.000000	62.341285
1280.000000	62.213491
1279.000000	62.106644
1278.000000	61.981576
1277.000000	61.863698
1276.000000	61.760074
1275.000000	61.661284
1274.000000	61.567949
1273.000000	61.485768
1272.000000	61.393424
1271.000000	61.311120
1270.000000	61.245425
1269.000000	61.161014
1268.000000	61.084908
1267.000000	60.988845
1266.000000	60.901459
1265.000000	60.807007
1264.000000	60.737966
1263.000000	60.639548
1262.000000	60.565177
1261.000000	60.493533
1260.000000	60.495144
1259.000000	60.449654
1258.000000	60.364623
1257.000000	60.295085
1256.000000	60.221458
1255.000000	60.107794
1254.000000	59.984586
1253.000000	59.846999
1252.000000	59.738541
1251.000000	59.584593
1250.000000	59.420108
1249.000000	59.282769
1248.000000	59.123987
1247.000000	58.904592
1246.000000	58.688296
1245.000000	58.486750
1244.000000	58.255827
1243.000000	58.025772
1242.000000	57.795469
1241.000000	57.516949
1240.000000	57.249337
1239.000000	56.994740
1238.000000	56.717211
1237.000000	56.452450
1236.000000	56.170335
1235.000000	55.879791
1234.000000	55.585157
1233.000000	55.265485
1232.000000	54.945193
1231.000000	54.660352
1230.000000	54.345885
1229.000000	54.020759
1228.000000	53.711003
1227.000000	53.383274
1226.000000	53.065709
1225.000000	52.752978
1224.000000	52.434794
1223.000000	52.137433
1222.000000	51.840196
1221.000000	51.546306
1220.000000	51.281792
1219.000000	51.018022
1218.000000	50.775324
1217.000000	50.528784
1216.000000	50.309637
1215.000000	50.113916
1214.000000	49.899108
1213.000000	49.717146
1212.000000	49.536796
1211.000000	49.350248
1210.000000	49.202001
1209.000000	49.047557
1208.000000	48.931166
1207.000000	48.812668
1206.000000	48.751932
1205.000000	48.714622
1204.000000	48.683758
1203.000000	48.663182
1202.000000	48.616700
1201.000000	48.562905
1200.000000	48.465107
1199.000000	48.281782
1198.000000	48.097341
1197.000000	47.783495
1196.000000	47.414986
1195.000000	46.932812
1194.000000	46.316399
1193.000000	45.622888
1192.000000	44.858476
1191.000000	44.062208
1190.000000	43.412576
1189.000000	42.878838
1188.000000	42.505743
1187.000000	42.355761
1186.000000	42.431991
1185.000000	42.712247
1184.000000	43.206195
1183.000000	43.891278
1182.000000	44.702544
1181.000000	45.579380
1180.000000	46.427212
1179.000000	47.185179
1178.000000	47.886871
1177.000000	48.424699
1176.000000	48.953726
1175.000000	49.499734
1174.000000	49.996906
1173.000000	50.560763
1172.000000	51.129455
1171.000000	51.751074
1170.000000	52.324104
1169.000000	52.939898
1168.000000	53.578003
1167.000000	54.205200
1166.000000	54.800665
1165.000000	55.468271
1164.000000	56.087659
1163.000000	56.739275
1162.000000	57.342673
1161.000000	57.951525
1160.000000	58.547610
1159.000000	59.084942
1158.000000	59.575048
1157.000000	60.025614
1156.000000	60.365490
1155.000000	60.637937
1154.000000	60.779366
1153.000000	60.842086
1152.000000	60.836136
1151.000000	60.775028
1150.000000	60.737098
1149.000000	60.679337
1148.000000	60.680328
1147.000000	60.764616
1146.000000	61.024047
1145.000000	61.376567
1144.000000	61.871259
1143.000000	62.364216
1142.000000	62.922124
1141.000000	63.489948
1140.000000	64.064590
1139.000000	64.663402
1138.000000	65.292086
1137.000000	65.917176
1136.000000	66.520822
1135.000000	67.139467
1134.000000	67.650645
1133.000000	68.081874
1132.000000	68.522275
1131.000000	68.921153
1130.000000	69.253592
1129.000000	69.542772
1128.000000	69.742459
1127.000000	69.926651
1126.000000	70.069320
1125.000000	70.183356
1124.000000	70.300491
1123.000000	70.404858
1122.000000	70.480221
1121.000000	70.504020
1120.000000	70.564508
1119.000000	70.600826
1118.000000	70.624377
1117.000000	70.614585
1116.000000	70.594381
1115.000000	70.574053
1114.000000	70.544428
1113.000000	70.494599
1112.000000	70.482824
1111.000000	70.474271
1110.000000	70.421592
1109.000000	70.383910
1108.000000	70.334577
1107.000000	70.311027
1106.000000	70.284625
1105.000000	70.227607
1104.000000	70.195255
1103.000000	70.136130
1102.000000	70.080228
1101.000000	70.025069
1100.000000	69.948467
1099.000000	69.890210
1098.000000	69.819433
1097.000000	69.763655
1096.000000	69.686061
1095.000000	69.603261
1094.000000	69.520461
1093.000000	69.441008
1092.000000	69.352506
1091.000000	69.254460
1090.000000	69.166578
1089.000000	69.088612
1088.000000	68.992301
1087.000000	68.901692
1086.000000	68.794226
1085.000000	68.710682
1084.000000	68.610157
1083.000000	68.528101
1082.000000	68.435633
1081.000000	68.355064
1080.000000	68.268670
1079.000000	68.198389
1078.000000	68.127984
1077.000000	68.047291
1076.000000	67.946890
1075.000000	67.860867
1074.000000	67.784017
1073.000000	67.695515
1072.000000	67.630936
1071.000000	67.533882
1070.000000	67.434101
1069.000000	67.359977
1068.000000	67.279161
1067.000000	67.185577
1066.000000	67.081705
1065.000000	66.999773
1064.000000	66.906809
1063.000000	66.803433
1062.000000	66.698446
1061.000000	66.606721
1060.000000	66.504461
1059.000000	66.394763
1058.000000	66.273290
1057.000000	66.159998
1056.000000	66.059597
1055.000000	65.950147
1054.000000	65.831401
1053.000000	65.719101
1052.000000	65.625517
1051.000000	65.543833
1050.000000	65.454215
1049.000000	65.382323
1048.000000	65.305473
1047.000000	65.224285
1046.000000	65.148922
1045.000000	65.090045
1044.000000	65.024226
1043.000000	64.942913
1042.000000	64.878582
1041.000000	64.823052
1040.000000	64.767645
1039.000000	64.708148
1038.000000	64.656213
1037.000000	64.598699
1036.000000	64.509577
1035.000000	64.440164
1034.000000	64.395665
1033.000000	64.319063
1032.000000	64.248782
1031.000000	64.182592
1030.000000	64.074878
1029.000000	63.997656
1028.000000	63.926755
1027.000000	63.840732
1026.000000	63.751115
1025.000000	63.652201
1024.000000	63.564939
1023.000000	63.477429
1022.000000	63.396117
1021.000000	63.327323
1020.000000	63.248242
1019.000000	63.161723
1018.000000	63.092806
1017.000000	63.040994
1016.000000	62.973936
1015.000000	62.934767
1014.000000	62.902416
1013.000000	62.863867
1012.000000	62.857297
1011.000000	62.884815
1010.000000	62.902912
1009.000000	62.912704
1008.000000	62.934767
1007.000000	62.957698
1006.000000	62.983852
1005.000000	63.008643
1004.000000	63.017691
1003.000000	63.023889
1002.000000	63.032317
1001.000000	63.052646
1000.000000	63.091938
999.000000	63.113134
998.000000	63.122926
997.000000	63.143998
996.000000	63.190108
995.000000	63.235351
994.000000	63.268198
993.000000	63.298938
992.000000	63.329430
991.000000	63.395001
990.000000	63.456729
989.000000	63.508789
988.000000	63.569154
987.000000	63.631501
986.000000	63.710087
985.000000	63.783343
984.000000	63.859077
983.000000	63.911633
982.000000	63.996168
981.000000	64.062359
980.000000	64.135242
979.000000	64.216679
978.000000	64.287579
977.000000	64.364925
976.000000	64.449956
975.000000	64.549366
974.000000	64.633281
973.000000	64.709016
972.000000	64.777438
971.000000	64.894944
970.000000	64.971051
969.000000	65.072319
968.000000	65.145451
967.000000	65.242010
966.000000	65.370672
965.000000	65.474296
964.000000	65.605685
963.000000	65.729885
962.000000	65.859910
961.000000	66.022783
960.000000	66.135332
959.000000	66.296593
958.000000	66.437403
957.000000	66.560983
956.000000	66.701420
955.000000	66.870739
954.000000	66.994939
953.000000	67.156448
952.000000	67.287589
951.000000	67.422945
950.000000	67.600072
949.000000	67.712001
948.000000	67.873139
947.000000	68.046176
946.000000	68.210288
945.000000	68.334364
944.000000	68.542727
943.000000	68.719359
942.000000	68.875538
941.000000	69.072002
940.000000	69.294992
939.000000	69.485010
938.000000	69.692754
937.000000	69.888102
936.000000	70.144187
935.000000	70.435722
934.000000	70.646689
933.000000	70.902773
932.000000	71.123780
931.000000	71.411472
930.000000	71.646361
929.000000	71.848031
928.000000	72.129774
927.000000	72.384496
926.000000	72.602775
925.000000	72.823534
924.000000	73.044912
923.000000	73.271248
922.000000	73.614223
921.000000	73.827669
920.000000	74.041982
919.000000	74.187377
918.000000	74.412970
917.000000	74.732518
916.000000	74.901341
915.000000	75.128917
914.000000	75.338024
913.000000	75.526679
912.000000	75.754502
911.000000	75.944893
910.000000	76.136275
909.000000	76.331251
908.000000	76.572214
907.000000	76.799666
906.000000	77.000592
905.000000	77.227300
904.000000	77.431325
903.000000	77.664603
902.000000	77.889452
901.000000	77.968285
900.000000	78.204042
899.000000	78.416620
898.000000	78.615191
897.000000	78.799011
896.000000	79.001549
895.000000	79.197889
894.000000	79.259989
893.000000	79.229497
892.000000	79.370678
891.000000	79.475913
890.000000	79.597510
889.000000	79.598378
888.000000	79.417780
887.000000	79.375140
886.000000	79.190452
885.000000	79.185866
884.000000	79.194170
883.000000	79.102198
882.000000	78.866565
881.000000	78.743233
880.000000	78.471902
879.000000	78.278661
878.000000	77.999645
877.000000	77.795000
876.000000	77.467891
875.000000	77.244282
874.000000	76.870194
873.000000	76.633694
872.000000	76.232213
871.000000	75.662530
870.000000	75.129041
869.000000	74.796106
868.000000	74.208449
867.000000	73.738175
866.000000	73.637650
865.000000	73.888653
864.000000	74.202871
863.000000	74.503331
862.000000	74.786561
861.000000	75.036696
860.000000	75.312242
859.000000	75.588655
858.000000	79.103933
857.000000	79.057200
856.000000	78.982700
855.000000	79.271900
854.000000	79.231400
853.000000	80.065800
852.000000	80.204900
851.000000	80.522000
850.000000	81.178600
849.000000	81.470000
848.000000	81.462700
847.000000	81.991700
846.000000	82.607000
845.000000	82.623500
844.000000	83.235700
843.000000	84.033300
842.000000	83.926000
841.000000	84.249100
840.000000	84.380700
839.000000	84.751000
838.000000	85.348000
837.000000	85.732000
836.000000	85.969000
835.000000	86.365700
834.000000	86.733000
833.000000	87.125900
832.000000	87.890800
831.000000	88.158700
830.000000	88.450700
829.000000	88.751100
828.000000	89.353000
827.000000	89.842100
826.000000	90.104400
825.000000	90.553700
824.000000	90.888300
823.000000	91.410200
822.000000	91.986800
821.000000	92.349900
820.000000	92.602200
819.000000	92.876200
818.000000	93.399600
817.000000	93.814800
816.000000	94.027900
815.000000	94.215600
814.000000	94.678100
813.000000	95.092600
812.000000	95.429200
811.000000	95.823000
810.000000	96.117700
809.000000	96.477600
808.000000	96.883800
807.000000	97.267900
806.000000	97.470500
805.000000	97.756400
804.000000	97.849400
803.000000	98.137200
802.000000	98.519100
801.000000	98.716200
800.000000	98.898200
799.000000	99.243000
798.000000	99.270400
797.000000	99.372600
796.000000	99.576500
795.000000	99.690400
794.000000	99.921900
793.000000	100.035000
792.000000	100.064600
791.000000	100.366200
790.000000	100.405700
789.000000	100.256800
788.000000	100.420900
787.000000	100.548200
786.000000	100.600400
785.000000	100.661700
784.000000	100.829800
783.000000	100.731700
782.000000	100.726600
781.000000	100.767000
780.000000	100.736300
779.000000	100.765600
778.000000	100.884400
777.000000	100.814400
776.000000	100.847100
775.000000	100.892800
774.000000	100.911800
773.000000	100.816900
772.000000	100.566700
771.000000	100.594300
770.000000	100.641700
769.000000	100.647400
768.000000	100.546300
767.000000	100.548900
766.000000	100.602900
765.000000	100.607700
764.000000	100.565400
763.000000	100.390700
762.000000	100.401700
761.000000	100.510900
760.000000	100.441500
759.000000	100.319900
758.000000	100.268000
757.000000	100.214000
756.000000	100.131300
755.000000	100.040900
754.000000	99.902400
753.000000	99.837600
752.000000	99.684500
751.000000	99.415900
750.000000	99.309200
749.000000	99.204000
748.000000	99.084600
747.000000	98.892200
746.000000	98.566700
745.000000	98.359900
744.000000	98.188900
743.000000	97.986300
742.000000	97.700400
741.000000	97.402800
740.000000	97.077000
739.000000	96.775400
738.000000	96.573200
737.000000	96.277200
736.000000	96.019200
735.000000	95.721900
734.000000	95.308500
733.000000	94.916200
732.000000	94.518200
731.000000	94.166400
730.000000	93.854300
729.000000	93.432800
728.000000	93.039700
727.000000	92.683300
726.000000	92.223000
725.000000	91.758400
724.000000	91.289300
723.000000	90.807200
722.000000	90.353700
721.000000	89.989900
720.000000	89.539700
719.000000	89.054700
718.000000	88.565300
717.000000	88.148900
716.000000	87.732100
715.000000	87.314100
714.000000	86.930400
713.000000	86.523900
712.000000	86.186800
711.000000	85.856900
710.000000	85.499900
709.000000	85.054500
708.000000	84.667500
707.000000	84.348300
706.000000	84.032400
705.000000	83.663600
704.000000	83.304400
703.000000	82.978700
702.000000	82.663200
701.000000	82.292800
700.000000	81.967700
699.000000	81.698900
698.000000	81.425100
697.000000	81.218200
696.000000	80.958900
695.000000	80.788100
694.000000	80.506500
693.000000	80.233800
692.000000	80.041200
691.000000	79.799400
690.000000	79.540500
689.000000	79.330200
688.000000	79.046900
687.000000	78.799700
686.000000	78.520700
685.000000	78.226900
684.000000	77.833300
683.000000	77.517200
682.000000	77.137300
681.000000	76.732200
680.000000	76.420100
679.000000	76.049000
678.000000	75.651900
677.000000	75.240300
676.000000	74.794000
675.000000	74.416000
674.000000	74.086900
673.000000	73.664500
672.000000	73.255500
671.000000	72.905600
670.000000	72.525700
669.000000	72.142800
668.000000	71.739700
667.000000	71.345200
666.000000	70.932700
665.000000	70.516400
664.000000	70.119800
663.000000	69.731800
662.000000	69.258800
661.000000	68.839200
660.000000	68.384200
659.000000	67.906800
658.000000	67.511000
657.000000	67.154900
656.000000	66.767700
655.000000	66.400900
654.000000	66.110600
653.000000	65.828400
652.000000	65.570500
651.000000	65.384400
650.000000	65.237900
649.000000	65.183700
648.000000	65.045300
647.000000	64.992600
646.000000	64.978000
645.000000	64.990200
644.000000	64.962500
643.000000	64.988100
642.000000	65.041500
641.000000	65.102000
640.000000	65.196400
639.000000	65.282600
638.000000	65.343400
637.000000	65.503100
636.000000	65.728400
635.000000	65.945800
634.000000	66.147900
633.000000	66.458600
632.000000	66.769300
631.000000	67.113100
630.000000	67.546700
629.000000	67.932400
628.000000	68.378200
627.000000	68.846300
626.000000	69.317900
625.000000	69.806900
624.000000	70.344300
623.000000	70.802900
622.000000	71.280400
621.000000	71.752800
620.000000	72.259700
619.000000	72.648800
618.000000	73.072300
617.000000	73.492600
616.000000	73.901800
615.000000	74.249000
614.000000	74.648100
613.000000	74.982700
612.000000	75.321300
611.000000	75.601900
610.000000	75.888500
609.000000	76.240800
608.000000	76.482800
607.000000	76.760800
606.000000	77.051800
605.000000	77.319800
604.000000	77.574700
603.000000	77.846000
602.000000	78.048400
601.000000	78.236700
600.000000	78.466200
599.000000	78.613000
598.000000	78.800400
597.000000	78.966000
596.000000	79.205800
595.000000	79.284300
594.000000	79.426900
593.000000	79.497500
592.000000	79.521700
591.000000	79.625700
590.000000	79.626000
589.000000	79.568900
588.000000	79.522000
587.000000	79.495900
586.000000	79.407500
585.000000	79.256900
584.000000	79.144400
583.000000	79.034200
582.000000	78.884600
581.000000	78.685200
580.000000	78.562900
579.000000	78.298400
578.000000	78.101400
577.000000	77.925200
576.000000	77.738200
575.000000	77.511500
574.000000	77.287300
573.000000	77.028700
572.000000	76.802700
571.000000	76.529400
570.000000	76.254700
569.000000	75.941200
568.000000	75.680700
567.000000	75.346400
566.000000	75.024200
565.000000	74.669000
564.000000	74.264100
563.000000	73.853900
562.000000	73.411100
561.000000	72.972100
560.000000	72.469500
559.000000	71.898700
558.000000	71.354900
557.000000	70.817500
556.000000	70.252600
555.000000	69.643400
554.000000	69.010800
553.000000	68.336400
552.000000	67.649100
551.000000	66.997900
550.000000	66.283800
549.000000	65.530300
548.000000	64.795200
547.000000	64.070100
546.000000	63.324200
545.000000	62.550000
544.000000	61.746700
543.000000	60.939100
542.000000	60.154800
541.000000	59.343400
540.000000	58.557400
539.000000	57.764500
538.000000	57.008800
537.000000	56.224600
536.000000	55.448600
535.000000	54.682200
534.000000	53.933900
533.000000	53.197900
532.000000	52.435800
531.000000	51.677900
530.000000	50.968200
529.000000	50.260800
528.000000	49.522300
527.000000	48.837100
526.000000	48.118800
525.000000	47.419100
524.000000	46.733500
523.000000	46.032700
522.000000	45.325500
521.000000	44.605100
520.000000	43.925400
519.000000	43.220100
518.000000	42.512200
517.000000	41.779400
516.000000	41.047900
515.000000	40.342300
514.000000	39.586400
513.000000	38.834100
512.000000	38.084000
511.000000	37.370200
510.000000	36.608500
509.000000	35.875100
508.000000	35.164500
507.000000	34.474000
506.000000	33.814800
505.000000	33.194600
504.000000	32.592300
503.000000	32.036700
502.000000	31.540300
501.000000	31.085700
500.000000	30.646800
499.000000	30.295400
498.000000	29.987600
497.000000	29.751900
496.000000	29.542200
495.000000	29.414100
494.000000	29.334000
493.000000	29.277000
492.000000	29.251900
491.000000	29.287500
490.000000	29.312200
489.000000	29.405900
488.000000	29.519000
487.000000	29.647100
486.000000	29.777900
485.000000	29.888900
484.000000	30.017900
483.000000	30.169100
482.000000	30.265400
481.000000	30.343000
480.000000	30.414200
479.000000	30.484300
478.000000	30.532100
477.000000	30.566900
476.000000	30.589600
475.000000	30.605800
474.000000	30.614500
473.000000	30.607900
472.000000	30.560700
471.000000	30.511400
470.000000	30.453300
469.000000	30.376200
468.000000	30.281000
467.000000	30.162900
466.000000	30.054700
465.000000	29.942900
464.000000	29.831300
463.000000	29.685400
462.000000	29.524000
461.000000	29.346200
460.000000	29.192600
459.000000	29.004800
458.000000	28.796400
457.000000	28.622400
456.000000	28.414400
455.000000	28.192400
454.000000	27.960300
453.000000	27.719300
452.000000	27.452400
451.000000	27.182900
450.000000	26.903400
449.000000	26.595300
448.000000	26.306000
447.000000	25.997400
446.000000	25.632000
445.000000	25.274200
444.000000	24.933900
443.000000	24.576100
442.000000	24.180900
441.000000	23.777300
440.000000	23.348600
439.000000	22.895800
438.000000	22.481600
437.000000	22.040500
436.000000	21.570800
435.000000	21.097100
434.000000	20.614900
433.000000	20.116600
432.000000	19.629000
431.000000	19.143000
430.000000	18.626600
429.000000	18.114600
428.000000	17.612800
427.000000	17.125500
426.000000	16.624600
425.000000	16.111600
424.000000	15.613100
423.000000	15.139400
422.000000	14.665300
421.000000	14.195100
420.000000	13.725300
419.000000	13.273200
418.000000	12.836100
417.000000	12.422500
416.000000	12.028600
415.000000	11.636500
414.000000	11.256600
413.000000	10.885800
412.000000	10.538800
411.000000	10.238500
410.000000	9.941500
409.000000	9.651000
408.000000	9.394100
407.000000	9.154800
406.000000	8.933100
405.000000	8.708000
404.000000	8.512200
403.000000	8.343000
402.000000	8.167000
401.000000	8.008200
400.000000	7.854700
399.000000	7.743200
398.000000	7.629800
397.000000	7.509800
396.000000	7.424200
395.000000	7.326300
394.000000	7.255800
393.000000	7.178300
392.000000	7.111600
391.000000	7.040200
390.000000	6.956100
389.000000	6.896200
388.000000	6.862800
387.000000	6.826200
386.000000	6.769900
385.000000	6.732700
384.000000	6.680800
383.000000	6.662700
382.000000	6.629800
381.000000	6.596700
380.000000	6.554400
379.000000	6.537300
378.000000	6.502200
377.000000	6.466900
376.000000	6.470200
375.000000	6.262300
374.000000	6.154800
373.000000	6.136400
372.000000	6.127500
371.000000	6.047300
370.000000	6.195300
369.000000	6.293500
368.000000	6.196700
367.000000	6.207900
366.000000	6.176500
365.000000	6.183100
364.000000	6.218300
363.000000	6.217400
362.000000	6.078900
361.000000	6.136800
360.000000	6.035100
359.000000	6.193100
358.000000	6.127200
357.000000	5.981300
356.000000	6.147600
355.000000	6.168200
354.000000	6.041100
353.000000	5.922900
352.000000	6.048300
351.000000	6.081600
350.000000	6.056500
349.000000	5.922100
348.000000	6.010400
347.000000	5.929800
346.000000	5.906300
345.000000	5.987700
344.000000	6.100800
343.000000	5.935600
342.000000	5.858200
341.000000	6.071100
340.000000	5.919500
339.000000	5.911600
338.000000	5.817000
337.000000	5.922200
336.000000	6.054300
335.000000	5.860900
334.000000	6.224100
333.000000	6.141300
332.000000	5.864300
331.000000	6.037000
330.000000	5.958400
329.000000	6.191000
328.000000	6.061900
327.000000	6.033400
326.000000	6.293300
325.000000	6.003200
324.000000	6.352300
323.000000	6.592200
322.000000	6.335600
321.000000	5.926900
320.000000	6.235300
319.000000	6.492900
318.000000	6.648800
317.000000	6.426800
316.000000	5.807700
315.000000	5.699300
314.000000	5.759600
313.000000	5.728900
312.000000	5.804200
311.000000	5.741800
310.000000	5.793300
309.000000	5.759700
308.000000	5.802500
307.000000	5.755100
306.000000	5.772300
305.000000	5.706100
304.000000	5.773100
303.000000	5.751100
302.000000	5.742300
301.000000	5.798400
300.000000	5.769900
299.000000	5.790200
298.000000	5.733900
297.000000	5.833200
296.000000	5.849000
295.000000	5.854300
294.000000	5.822700
293.000000	5.854500
292.000000	5.864600
291.000000	5.907100
290.000000	5.837300
289.000000	5.888800
288.000000	5.873500
287.000000	5.869800
286.000000	5.904400
285.000000	5.884400
284.000000	5.908400
283.000000	5.899600
282.000000	5.942000
281.000000	5.891400
280.000000	5.964700
279.000000	5.907300
278.000000	5.964600
277.000000	5.970200
276.000000	5.994000
275.000000	6.046700
274.000000	6.006200
273.000000	6.058900
272.000000	5.979600
271.000000	6.034900
270.000000	6.092400
269.000000	6.070000
268.000000	6.060100
267.000000	6.121300
266.000000	6.138300
265.000000	6.229700
264.000000	6.221800
263.000000	6.203800
262.000000	6.307200
261.000000	6.302100
260.000000	6.327700
259.000000	6.370900
258.000000	6.425100
257.000000	6.358100
256.000000	6.417800
255.000000	6.406800
254.000000	6.388700
253.000000	6.421700
252.000000	6.462600
251.000000	6.494000
250.000000	6.529100
