PE UV       SUBTECH     SPECTRUM    ASCII       PEDS        4.00        
   -1
CICIMAUCR0212-1.ASC
24/06/06
16:00:32.00
24/06/06
16:00:32.00
Vinicio Soto Monge
C. resplendens. Sex F. Dorsal
250,000000
1
Lambda 1050
1050L1511233
PerkinElmer UV WinLab 6.3.2.0749 / 2.02.05 Lambda 900 UV/VIS/NIR, Aug  7 2015 09:38:08

0
0
3350/servo 860,8/2
0
0
UV/VIS
1
1
1
DoubleDePol,CommonBeamDepol,RBeamAtt,SBeamAtt,60mm sphere, WB InGaAs Detector
0
0
0
0
Program
Program
3350/servo 860,8/2
3350/0,2 860,8/0,2
3350/0,2 860,8/0,2
0
15.00
 
 
 
0
 
860,8
319,2
860,8
Front
100
on
S:100 R:100
0
0
0
0
 
0
 
 
 
0
 
 
0
0
0
0
0
 
 
 
 
0
0


0
0
#HDR
-1
-1
#GR
nm
%R
1.0
0.0
2500,000000
-1,000000
2251
8
91,632400
5,150400
#DATA
2500.000000	6.903044
2499.000000	7.041834
2498.000000	6.947532
2497.000000	6.979488
2496.000000	6.849261
2495.000000	6.835790
2494.000000	6.848739
2493.000000	6.890303
2492.000000	6.842056
2491.000000	6.809786
2490.000000	6.751409
2489.000000	6.838923
2488.000000	6.708592
2487.000000	6.730418
2486.000000	6.731254
2485.000000	6.680082
2484.000000	6.677993
2483.000000	6.749320
2482.000000	6.762165
2481.000000	6.782530
2480.000000	6.755377
2479.000000	6.705981
2478.000000	6.712560
2477.000000	6.778352
2476.000000	6.774071
2475.000000	6.718200
2474.000000	6.722168
2473.000000	6.732089
2472.000000	6.740966
2471.000000	6.752871
2470.000000	6.705877
2469.000000	6.704101
2468.000000	6.703161
2467.000000	6.696478
2466.000000	6.674234
2465.000000	6.680082
2464.000000	6.735326
2463.000000	6.709114
2462.000000	6.763419
2461.000000	6.715798
2460.000000	6.742741
2459.000000	6.771251
2458.000000	6.774697
2457.000000	6.838401
2456.000000	6.848217
2455.000000	6.886439
2454.000000	6.910041
2453.000000	6.926332
2452.000000	6.962779
2451.000000	7.024602
2450.000000	7.053739
2449.000000	7.049562
2448.000000	7.112952
2447.000000	7.136971
2446.000000	7.181668
2445.000000	7.201405
2444.000000	7.237225
2443.000000	7.264169
2442.000000	7.317951
2441.000000	7.358157
2440.000000	7.379461
2439.000000	7.404525
2438.000000	7.426456
2437.000000	7.455592
2436.000000	7.491934
2435.000000	7.552192
2434.000000	7.562113
2433.000000	7.598768
2432.000000	7.622996
2431.000000	7.624563
2430.000000	7.656728
2429.000000	7.687953
2428.000000	7.723460
2427.000000	7.727219
2426.000000	7.742257
2425.000000	7.774527
2424.000000	7.790087
2423.000000	7.805961
2422.000000	7.822461
2421.000000	7.838335
2420.000000	7.824341
2419.000000	7.856506
2418.000000	7.884598
2417.000000	7.898070
2416.000000	7.900785
2415.000000	7.924909
2414.000000	7.949972
2413.000000	7.971172
2412.000000	7.981928
2411.000000	7.994356
2410.000000	8.007619
2409.000000	8.029131
2408.000000	8.043125
2407.000000	8.048451
2406.000000	8.066100
2405.000000	8.090642
2404.000000	8.104322
2403.000000	8.126357
2402.000000	8.137009
2401.000000	8.154241
2400.000000	8.178051
2399.000000	8.186719
2398.000000	8.220555
2397.000000	8.240815
2396.000000	8.272353
2395.000000	8.293762
2394.000000	8.308486
2393.000000	8.325509
2392.000000	8.343158
2391.000000	8.367177
2390.000000	8.382424
2389.000000	8.393807
2388.000000	8.409994
2387.000000	8.421586
2386.000000	8.435998
2385.000000	8.441950
2384.000000	8.447903
2383.000000	8.471296
2382.000000	8.478710
2381.000000	8.475055
2380.000000	8.464612
2379.000000	8.456988
2378.000000	8.458242
2377.000000	8.456048
2376.000000	8.443934
2375.000000	8.446858
2374.000000	8.456153
2373.000000	8.449678
2372.000000	8.439131
2371.000000	8.423152
2370.000000	8.406861
2369.000000	8.390883
2368.000000	8.354959
2367.000000	8.335534
2366.000000	8.313917
2365.000000	8.275277
2364.000000	8.240188
2363.000000	8.209590
2362.000000	8.183795
2361.000000	8.142440
2360.000000	8.105784
2359.000000	8.071009
2358.000000	8.024432
2357.000000	7.987881
2356.000000	7.978064
2355.000000	7.954672
2354.000000	7.930548
2353.000000	7.921984
2352.000000	7.913839
2351.000000	7.898905
2350.000000	7.910079
2349.000000	7.945377
2348.000000	7.965741
2347.000000	7.992371
2346.000000	8.025163
2345.000000	8.055344
2344.000000	8.101607
2343.000000	8.139307
2342.000000	8.173143
2341.000000	8.209590
2340.000000	8.261074
2339.000000	8.294388
2338.000000	8.321018
2337.000000	8.338772
2336.000000	8.353705
2335.000000	8.364253
2334.000000	8.357152
2333.000000	8.361642
2332.000000	8.354645
2331.000000	8.326762
2330.000000	8.294179
2329.000000	8.270995
2328.000000	8.237264
2327.000000	8.205412
2326.000000	8.160611
2325.000000	8.112259
2324.000000	8.056388
2323.000000	7.990074
2322.000000	7.923447
2321.000000	7.849196
2320.000000	7.794891
2319.000000	7.726593
2318.000000	7.650775
2317.000000	7.573913
2316.000000	7.485669
2315.000000	7.435750
2314.000000	7.356800
2313.000000	7.278685
2312.000000	7.214564
2311.000000	7.180415
2310.000000	7.107834
2309.000000	7.055723
2308.000000	7.011131
2307.000000	6.972700
2306.000000	6.974893
2305.000000	6.966434
2304.000000	6.978548
2303.000000	7.002150
2302.000000	7.043087
2301.000000	7.080473
2300.000000	7.119218
2299.000000	7.169867
2298.000000	7.241925
2297.000000	7.308866
2296.000000	7.366407
2295.000000	7.428858
2294.000000	7.471779
2293.000000	7.543315
2292.000000	7.598873
2291.000000	7.631142
2290.000000	7.668424
2289.000000	7.692966
2288.000000	7.714583
2287.000000	7.739647
2286.000000	7.713330
2285.000000	7.699232
2284.000000	7.671035
2283.000000	7.649209
2282.000000	7.641794
2281.000000	7.601797
2280.000000	7.544359
2279.000000	7.521384
2278.000000	7.486608
2277.000000	7.444418
2276.000000	7.404525
2275.000000	7.344477
2274.000000	7.317116
2273.000000	7.307612
2272.000000	7.277745
2271.000000	7.274403
2270.000000	7.268033
2269.000000	7.291843
2268.000000	7.302078
2267.000000	7.343955
2266.000000	7.383639
2265.000000	7.449744
2264.000000	7.524413
2263.000000	7.619132
2262.000000	7.725131
2261.000000	7.835411
2260.000000	7.954880
2259.000000	8.110902
2258.000000	8.286347
2257.000000	8.448321
2256.000000	8.606952
2255.000000	8.782607
2254.000000	8.984160
2253.000000	9.156055
2252.000000	9.332022
2251.000000	9.498800
2250.000000	9.656387
2249.000000	9.808022
2248.000000	9.982632
2247.000000	10.113067
2246.000000	10.262509
2245.000000	10.387409
2244.000000	10.477325
2243.000000	10.599197
2242.000000	10.706135
2241.000000	10.817251
2240.000000	10.895261
2239.000000	10.978911
2238.000000	11.057861
2237.000000	11.130964
2236.000000	11.200828
2235.000000	11.277586
2234.000000	11.344004
2233.000000	11.396116
2232.000000	11.435173
2231.000000	11.478721
2230.000000	11.530519
2229.000000	11.548064
2228.000000	11.575321
2227.000000	11.598087
2226.000000	11.623777
2225.000000	11.636727
2224.000000	11.661790
2223.000000	11.673278
2222.000000	11.681528
2221.000000	11.671189
2220.000000	11.665028
2219.000000	11.657822
2218.000000	11.652078
2217.000000	11.623986
2216.000000	11.643724
2215.000000	11.638920
2214.000000	11.610514
2213.000000	11.580647
2212.000000	11.578558
2211.000000	11.574694
2210.000000	11.537725
2209.000000	11.559447
2208.000000	11.523105
2207.000000	11.527491
2206.000000	11.503158
2205.000000	11.497415
2204.000000	11.491358
2203.000000	11.472455
2202.000000	11.463996
2201.000000	11.474022
2200.000000	11.446139
2199.000000	11.451674
2198.000000	11.434964
2197.000000	11.436322
2196.000000	11.426401
2195.000000	11.400711
2194.000000	11.397265
2193.000000	11.390477
2192.000000	11.374081
2191.000000	11.382957
2190.000000	11.368337
2189.000000	11.357163
2188.000000	11.355074
2187.000000	11.348182
2186.000000	11.306931
2185.000000	11.301501
2184.000000	11.295235
2183.000000	11.291266
2182.000000	11.274035
2181.000000	11.262025
2180.000000	11.258997
2179.000000	11.242079
2178.000000	11.227981
2177.000000	11.218477
2176.000000	11.212107
2175.000000	11.205215
2174.000000	11.201559
2173.000000	11.199680
2172.000000	11.201977
2171.000000	11.191221
2170.000000	11.199471
2169.000000	11.208556
2168.000000	11.219000
2167.000000	11.212525
2166.000000	11.216806
2165.000000	11.226728
2164.000000	11.244481
2163.000000	11.244899
2162.000000	11.258892
2161.000000	11.252418
2160.000000	11.285627
2159.000000	11.297532
2158.000000	11.299516
2157.000000	11.321552
2156.000000	11.361236
2155.000000	11.360818
2154.000000	11.370008
2153.000000	11.402591
2152.000000	11.413974
2151.000000	11.453553
2150.000000	11.463683
2149.000000	11.498877
2148.000000	11.501905
2147.000000	11.507127
2146.000000	11.519554
2145.000000	11.521330
2144.000000	11.541694
2143.000000	11.563520
2142.000000	11.572397
2141.000000	11.593492
2140.000000	11.592552
2139.000000	11.591508
2138.000000	11.594014
2137.000000	11.618347
2136.000000	11.615005
2135.000000	11.624090
2134.000000	11.633907
2133.000000	11.609783
2132.000000	11.626283
2131.000000	11.621375
2130.000000	11.624613
2129.000000	11.614274
2128.000000	11.616989
2127.000000	11.608843
2126.000000	11.605919
2125.000000	11.589628
2124.000000	11.559865
2123.000000	11.543156
2122.000000	11.532817
2121.000000	11.534383
2120.000000	11.510677
2119.000000	11.468174
2118.000000	11.452613
2117.000000	11.420031
2116.000000	11.401024
2115.000000	11.377423
2114.000000	11.344004
2113.000000	11.314659
2112.000000	11.290640
2111.000000	11.277064
2110.000000	11.256073
2109.000000	11.233307
2108.000000	11.212525
2107.000000	11.170439
2106.000000	11.155505
2105.000000	11.143391
2104.000000	11.099843
2103.000000	11.061830
2102.000000	11.050969
2101.000000	11.031336
2100.000000	10.994158
2099.000000	10.963142
2098.000000	10.948835
2097.000000	10.920534
2096.000000	10.888995
2095.000000	10.861530
2094.000000	10.833855
2093.000000	10.821115
2092.000000	10.791560
2091.000000	10.765975
2090.000000	10.746864
2089.000000	10.720129
2088.000000	10.718040
2087.000000	10.700914
2086.000000	10.671986
2085.000000	10.645774
2084.000000	10.625618
2083.000000	10.606925
2082.000000	10.574342
2081.000000	10.557320
2080.000000	10.540820
2079.000000	10.513354
2078.000000	10.495183
2077.000000	10.469806
2076.000000	10.436388
2075.000000	10.421872
2074.000000	10.397957
2073.000000	10.359213
2072.000000	10.337700
2071.000000	10.331538
2070.000000	10.318693
2069.000000	10.285588
2068.000000	10.259481
2067.000000	10.251335
2066.000000	10.234626
2065.000000	10.206743
2064.000000	10.201103
2063.000000	10.197344
2062.000000	10.163612
2061.000000	10.144919
2060.000000	10.157346
2059.000000	10.146799
2058.000000	10.126017
2057.000000	10.121839
2056.000000	10.124241
2055.000000	10.121422
2054.000000	10.127061
2053.000000	10.151916
2052.000000	10.175413
2051.000000	10.190451
2050.000000	10.219692
2049.000000	10.252797
2048.000000	10.279427
2047.000000	10.300209
2046.000000	10.346472
2045.000000	10.404954
2044.000000	10.435866
2043.000000	10.477952
2042.000000	10.523588
2041.000000	10.567972
2040.000000	10.600868
2039.000000	10.640239
2038.000000	10.682951
2037.000000	10.717309
2036.000000	10.742269
2035.000000	10.777775
2034.000000	10.807434
2033.000000	10.842523
2032.000000	10.885236
2031.000000	10.914372
2030.000000	10.911552
2029.000000	10.923458
2028.000000	10.944031
2027.000000	10.951445
2026.000000	10.954161
2025.000000	10.971183
2024.000000	10.967006
2023.000000	10.965961
2022.000000	10.974212
2021.000000	10.968990
2020.000000	10.980582
2019.000000	10.984759
2018.000000	10.962515
2017.000000	10.962515
2016.000000	10.967423
2015.000000	10.947373
2014.000000	10.924815
2013.000000	10.916670
2012.000000	10.913537
2011.000000	10.876568
2010.000000	10.866438
2009.000000	10.848476
2008.000000	10.816937
2007.000000	10.784459
2006.000000	10.772240
2005.000000	10.733079
2004.000000	10.691515
2003.000000	10.657679
2002.000000	10.628856
2001.000000	10.602539
2000.000000	10.548548
1999.000000	10.525364
1998.000000	10.455186
1997.000000	10.410384
1996.000000	10.366941
1995.000000	10.321826
1994.000000	10.281620
1993.000000	10.221259
1992.000000	10.178859
1991.000000	10.130403
1990.000000	10.064193
1989.000000	10.025658
1988.000000	9.953809
1987.000000	9.914229
1986.000000	9.829535
1985.000000	9.780556
1984.000000	9.726148
1983.000000	9.668815
1982.000000	9.632368
1981.000000	9.565218
1980.000000	9.486163
1979.000000	9.438647
1978.000000	9.382567
1977.000000	9.345180
1976.000000	9.289101
1975.000000	9.227381
1974.000000	9.162425
1973.000000	9.102377
1972.000000	9.076686
1971.000000	9.026246
1970.000000	8.965780
1969.000000	8.904165
1968.000000	8.861557
1967.000000	8.829392
1966.000000	8.754410
1965.000000	8.692064
1964.000000	8.648412
1963.000000	8.607997
1962.000000	8.583246
1961.000000	8.538654
1960.000000	8.503252
1959.000000	8.458659
1958.000000	8.379709
1957.000000	8.358718
1956.000000	8.342844
1955.000000	8.301385
1954.000000	8.247707
1953.000000	8.204368
1952.000000	8.172725
1951.000000	8.145573
1950.000000	8.111528
1949.000000	8.074350
1948.000000	8.057746
1947.000000	8.011378
1946.000000	7.985583
1945.000000	7.956343
1944.000000	7.950181
1943.000000	7.913421
1942.000000	7.919687
1941.000000	7.892744
1940.000000	7.892430
1939.000000	7.879063
1938.000000	7.855670
1937.000000	7.877497
1936.000000	7.886373
1935.000000	7.902873
1934.000000	7.904440
1933.000000	7.904962
1932.000000	7.938902
1931.000000	7.931070
1930.000000	7.974618
1929.000000	8.040828
1928.000000	8.035502
1927.000000	8.100041
1926.000000	8.173769
1925.000000	8.212722
1924.000000	8.280081
1923.000000	8.341591
1922.000000	8.383573
1921.000000	8.470669
1920.000000	8.571863
1919.000000	8.664494
1918.000000	8.760258
1917.000000	8.852994
1916.000000	8.920979
1915.000000	9.013610
1914.000000	9.100706
1913.000000	9.253698
1912.000000	9.404602
1911.000000	9.544019
1910.000000	9.663071
1909.000000	9.771993
1908.000000	9.888852
1907.000000	10.001430
1906.000000	10.127479
1905.000000	10.311696
1904.000000	10.525886
1903.000000	10.694857
1902.000000	10.854219
1901.000000	11.023503
1900.000000	11.197069
1899.000000	11.417315
1898.000000	11.623986
1897.000000	11.847679
1896.000000	12.066254
1895.000000	12.263213
1894.000000	12.460902
1893.000000	12.643971
1892.000000	12.890848
1891.000000	13.184092
1890.000000	13.508144
1889.000000	13.806610
1888.000000	14.091813
1887.000000	14.424324
1886.000000	14.746078
1885.000000	15.139577
1884.000000	15.538088
1883.000000	16.014193
1882.000000	16.527684
1881.000000	17.036788
1880.000000	17.553517
1879.000000	18.025444
1878.000000	18.496640
1877.000000	19.012846
1876.000000	19.500647
1875.000000	19.949495
1874.000000	20.443039
1873.000000	20.922381
1872.000000	21.371020
1871.000000	21.789060
1870.000000	22.212531
1869.000000	22.608432
1868.000000	23.010598
1867.000000	23.300605
1866.000000	23.566071
1865.000000	23.763134
1864.000000	23.953304
1863.000000	24.127183
1862.000000	24.255321
1861.000000	24.413535
1860.000000	24.591069
1859.000000	24.730798
1858.000000	24.870841
1857.000000	24.987805
1856.000000	25.068009
1855.000000	25.117509
1854.000000	25.156045
1853.000000	25.231758
1852.000000	25.242618
1851.000000	25.252017
1850.000000	25.254315
1849.000000	25.215571
1848.000000	25.213482
1847.000000	25.216511
1846.000000	25.244394
1845.000000	25.222150
1844.000000	25.173902
1843.000000	25.110512
1842.000000	25.071350
1841.000000	25.074483
1840.000000	25.097458
1839.000000	25.098398
1838.000000	25.059550
1837.000000	25.021328
1836.000000	25.008796
1835.000000	24.994802
1834.000000	24.939244
1833.000000	24.870737
1832.000000	24.788131
1831.000000	24.722966
1830.000000	24.668453
1829.000000	24.603705
1828.000000	24.538644
1827.000000	24.454994
1826.000000	24.377715
1825.000000	24.318711
1824.000000	24.250517
1823.000000	24.180965
1822.000000	24.123423
1821.000000	24.088334
1820.000000	24.073192
1819.000000	24.058780
1818.000000	24.020976
1817.000000	23.967298
1816.000000	23.935133
1815.000000	23.925630
1814.000000	23.914038
1813.000000	23.904012
1812.000000	23.891794
1811.000000	23.862657
1810.000000	23.844173
1809.000000	23.818587
1808.000000	23.768669
1807.000000	23.707367
1806.000000	23.672487
1805.000000	23.633847
1804.000000	23.582362
1803.000000	23.533175
1802.000000	23.476886
1801.000000	23.422791
1800.000000	23.370679
1799.000000	23.310318
1798.000000	23.259459
1797.000000	23.211630
1796.000000	23.148553
1795.000000	23.095501
1794.000000	23.043808
1793.000000	22.981880
1792.000000	22.925069
1791.000000	22.870242
1790.000000	22.820115
1789.000000	22.757978
1788.000000	22.693648
1787.000000	22.637046
1786.000000	22.560184
1785.000000	22.492095
1784.000000	22.428391
1783.000000	22.351216
1782.000000	22.268193
1781.000000	22.180470
1780.000000	22.108412
1779.000000	22.034893
1778.000000	21.958866
1777.000000	21.877305
1776.000000	21.808171
1775.000000	21.733920
1774.000000	21.623014
1773.000000	21.513360
1772.000000	21.407362
1771.000000	21.301677
1770.000000	21.182625
1769.000000	21.070883
1768.000000	20.963005
1767.000000	20.847399
1766.000000	20.761974
1765.000000	20.686156
1764.000000	20.604491
1763.000000	20.556557
1762.000000	20.550604
1761.000000	20.558227
1760.000000	20.589870
1759.000000	20.647517
1758.000000	20.708400
1757.000000	20.787664
1756.000000	20.883532
1755.000000	20.971882
1754.000000	21.039867
1753.000000	21.092918
1752.000000	21.119235
1751.000000	21.117355
1750.000000	21.132915
1749.000000	21.132080
1748.000000	21.088323
1747.000000	21.060544
1746.000000	21.011044
1745.000000	20.938046
1744.000000	20.835494
1743.000000	20.705163
1742.000000	20.573161
1741.000000	20.398865
1740.000000	20.206292
1739.000000	20.011945
1738.000000	19.796607
1737.000000	19.584923
1736.000000	19.391516
1735.000000	19.232362
1734.000000	19.101822
1733.000000	19.030286
1732.000000	18.992378
1731.000000	19.028407
1730.000000	19.084591
1729.000000	19.170016
1728.000000	19.286249
1727.000000	19.403630
1726.000000	19.552967
1725.000000	19.670349
1724.000000	19.762457
1723.000000	19.859057
1722.000000	19.906364
1721.000000	19.944064
1720.000000	19.962340
1719.000000	19.988970
1718.000000	19.981973
1717.000000	19.990536
1716.000000	19.995236
1715.000000	20.026565
1714.000000	20.066041
1713.000000	20.135279
1712.000000	20.191672
1711.000000	20.217049
1710.000000	20.263312
1709.000000	20.260597
1708.000000	20.268116
1707.000000	20.242739
1706.000000	20.200758
1705.000000	20.146349
1704.000000	20.071575
1703.000000	19.991894
1702.000000	19.938007
1701.000000	19.816866
1700.000000	19.672855
1699.000000	19.535318
1698.000000	19.368019
1697.000000	19.208134
1696.000000	19.054723
1695.000000	18.965434
1694.000000	18.931494
1693.000000	18.940997
1692.000000	19.036866
1691.000000	19.218368
1690.000000	19.374807
1689.000000	19.530514
1688.000000	19.680792
1687.000000	19.808094
1686.000000	19.858326
1685.000000	19.889551
1684.000000	19.949181
1683.000000	19.998160
1682.000000	20.137263
1681.000000	20.369833
1680.000000	20.725736
1679.000000	21.181581
1678.000000	21.710214
1677.000000	22.269029
1676.000000	22.802779
1675.000000	23.326922
1674.000000	23.766476
1673.000000	24.146712
1672.000000	24.478178
1671.000000	24.768498
1670.000000	25.003052
1669.000000	25.201055
1668.000000	25.381304
1667.000000	25.531059
1666.000000	25.628181
1665.000000	25.739818
1664.000000	25.835164
1663.000000	25.889155
1662.000000	25.958080
1661.000000	26.026170
1660.000000	26.064810
1659.000000	26.088933
1658.000000	26.088620
1657.000000	26.116399
1656.000000	26.149504
1655.000000	26.134883
1654.000000	26.125798
1653.000000	26.105851
1652.000000	26.075879
1651.000000	26.058231
1650.000000	26.026379
1649.000000	25.989201
1648.000000	25.944191
1647.000000	25.897197
1646.000000	25.839864
1645.000000	25.804775
1644.000000	25.738252
1643.000000	25.667342
1642.000000	25.607190
1641.000000	25.558002
1640.000000	25.475292
1639.000000	25.396864
1638.000000	25.325120
1637.000000	25.249302
1636.000000	25.181108
1635.000000	25.100800
1634.000000	25.032188
1633.000000	24.940915
1632.000000	24.858205
1631.000000	24.778837
1630.000000	24.700618
1629.000000	24.593471
1628.000000	24.520473
1627.000000	24.415101
1626.000000	24.343879
1625.000000	24.245713
1624.000000	24.162376
1623.000000	24.076847
1622.000000	23.981292
1621.000000	23.884483
1620.000000	23.785169
1619.000000	23.715931
1618.000000	23.653480
1617.000000	23.559387
1616.000000	23.481481
1615.000000	23.403784
1614.000000	23.324103
1613.000000	23.251627
1612.000000	23.174347
1611.000000	23.095501
1610.000000	23.009867
1609.000000	22.944180
1608.000000	22.879223
1607.000000	22.796513
1606.000000	22.722785
1605.000000	22.647176
1604.000000	22.596004
1603.000000	22.540029
1602.000000	22.435597
1601.000000	22.388290
1600.000000	22.319051
1599.000000	22.250126
1598.000000	22.175562
1597.000000	22.103817
1596.000000	22.023614
1595.000000	21.963670
1594.000000	21.891194
1593.000000	21.839710
1592.000000	21.776737
1591.000000	21.702277
1590.000000	21.664577
1589.000000	21.595130
1588.000000	21.543959
1587.000000	21.499993
1586.000000	21.440676
1585.000000	21.397859
1584.000000	21.352953
1583.000000	21.299171
1582.000000	21.253534
1581.000000	21.201005
1580.000000	21.172599
1579.000000	21.142105
1578.000000	21.114640
1577.000000	21.076418
1576.000000	21.042373
1575.000000	21.025037
1574.000000	20.999243
1573.000000	20.983265
1572.000000	20.961021
1571.000000	20.936375
1570.000000	20.917577
1569.000000	20.916324
1568.000000	20.906716
1567.000000	20.906612
1566.000000	20.887710
1565.000000	20.869852
1564.000000	20.868807
1563.000000	20.883010
1562.000000	20.862228
1561.000000	20.858573
1560.000000	20.855127
1559.000000	20.851890
1558.000000	20.853665
1557.000000	20.841342
1556.000000	20.819829
1555.000000	20.822544
1554.000000	20.807193
1553.000000	20.772521
1552.000000	20.768135
1551.000000	20.755603
1550.000000	20.733986
1549.000000	20.713309
1548.000000	20.692213
1547.000000	20.668716
1546.000000	20.650023
1545.000000	20.636238
1544.000000	20.615874
1543.000000	20.588513
1542.000000	20.566791
1541.000000	20.545069
1540.000000	20.506325
1539.000000	20.494733
1538.000000	20.490556
1537.000000	20.471236
1536.000000	20.451080
1535.000000	20.422884
1534.000000	20.393121
1533.000000	20.367639
1532.000000	20.337563
1531.000000	20.302056
1530.000000	20.260806
1529.000000	20.224568
1528.000000	20.191359
1527.000000	20.161804
1526.000000	20.126298
1525.000000	20.065623
1524.000000	20.012363
1523.000000	19.984479
1522.000000	19.946884
1521.000000	19.901769
1520.000000	19.860414
1519.000000	19.804648
1518.000000	19.740527
1517.000000	19.704602
1516.000000	19.667529
1515.000000	19.616775
1514.000000	19.562888
1513.000000	19.507331
1512.000000	19.449162
1511.000000	19.392665
1510.000000	19.340658
1509.000000	19.286144
1508.000000	19.243640
1507.000000	19.179937
1506.000000	19.113623
1505.000000	19.055872
1504.000000	18.996973
1503.000000	18.943817
1502.000000	18.898598
1501.000000	18.844816
1500.000000	18.788736
1499.000000	18.744352
1498.000000	18.682529
1497.000000	18.626449
1496.000000	18.578828
1495.000000	18.528909
1494.000000	18.476694
1493.000000	18.435234
1492.000000	18.396281
1491.000000	18.349913
1490.000000	18.316600
1489.000000	18.275662
1488.000000	18.232010
1487.000000	18.197025
1486.000000	18.169246
1485.000000	18.142512
1484.000000	18.107214
1483.000000	18.060429
1482.000000	18.034843
1481.000000	18.014792
1480.000000	17.991504
1479.000000	17.966544
1478.000000	17.944614
1477.000000	17.920072
1476.000000	17.901692
1475.000000	17.887490
1474.000000	17.877151
1473.000000	17.878091
1472.000000	17.853027
1471.000000	17.847806
1470.000000	17.844986
1469.000000	17.841957
1468.000000	17.824100
1467.000000	17.821593
1466.000000	17.820444
1465.000000	17.815745
1464.000000	17.807286
1463.000000	17.828486
1462.000000	17.844881
1461.000000	17.845404
1460.000000	17.875480
1459.000000	17.918506
1458.000000	17.950880
1457.000000	17.980538
1456.000000	18.018134
1455.000000	18.065128
1454.000000	18.112331
1453.000000	18.166322
1452.000000	18.223969
1451.000000	18.308036
1450.000000	18.384480
1449.000000	18.447453
1448.000000	18.482437
1447.000000	18.557002
1446.000000	18.661956
1445.000000	18.765552
1444.000000	18.837610
1443.000000	18.919484
1442.000000	18.992900
1441.000000	19.086471
1440.000000	19.188083
1439.000000	19.303375
1438.000000	19.390785
1437.000000	19.502318
1436.000000	19.601841
1435.000000	19.690400
1434.000000	19.805588
1433.000000	19.929444
1432.000000	20.048496
1431.000000	20.174023
1430.000000	20.283154
1429.000000	20.410039
1428.000000	20.561360
1427.000000	20.713204
1426.000000	20.880399
1425.000000	21.036629
1424.000000	21.218863
1423.000000	21.428040
1422.000000	21.608289
1421.000000	21.809007
1420.000000	22.013066
1419.000000	22.237072
1418.000000	22.494810
1417.000000	22.720487
1416.000000	22.956398
1415.000000	23.185731
1414.000000	23.444512
1413.000000	23.737339
1412.000000	24.011995
1411.000000	24.239447
1410.000000	24.548043
1409.000000	24.897576
1408.000000	25.262774
1407.000000	25.646352
1406.000000	26.040582
1405.000000	26.433245
1404.000000	26.887628
1403.000000	27.307861
1402.000000	27.746057
1401.000000	28.119609
1400.000000	28.601666
1399.000000	29.074220
1398.000000	29.471583
1397.000000	29.759397
1396.000000	30.084179
1395.000000	30.544097
1394.000000	30.932792
1393.000000	31.243267
1392.000000	31.526591
1391.000000	31.919776
1390.000000	32.290300
1389.000000	32.655916
1388.000000	33.047326
1387.000000	33.587969
1386.000000	34.100729
1385.000000	34.645967
1384.000000	35.212823
1383.000000	35.865730
1382.000000	36.554145
1381.000000	37.182302
1380.000000	37.739863
1379.000000	38.058797
1378.000000	38.440391
1377.000000	38.695309
1376.000000	38.951062
1375.000000	39.134340
1374.000000	39.405654
1373.000000	39.719680
1372.000000	40.062530
1371.000000	40.470231
1370.000000	40.929104
1369.000000	41.314771
1368.000000	41.686026
1367.000000	42.046629
1366.000000	42.383212
1365.000000	42.652333
1364.000000	42.913621
1363.000000	43.137314
1362.000000	43.376254
1361.000000	43.575405
1360.000000	43.776541
1359.000000	43.919821
1358.000000	43.995847
1357.000000	44.091402
1356.000000	44.259224
1355.000000	44.464746
1354.000000	44.847697
1353.000000	45.339780
1352.000000	45.832071
1351.000000	46.335641
1350.000000	46.917848
1349.000000	47.458073
1348.000000	47.937311
1347.000000	48.412475
1346.000000	48.831351
1345.000000	49.210230
1344.000000	49.594330
1343.000000	50.005373
1342.000000	50.399707
1341.000000	50.739633
1340.000000	51.107755
1339.000000	51.477443
1338.000000	51.829274
1337.000000	52.180687
1336.000000	52.524789
1335.000000	52.877873
1334.000000	53.174459
1333.000000	53.487128
1332.000000	53.829560
1331.000000	54.147345
1330.000000	54.444454
1329.000000	54.742189
1328.000000	55.013398
1327.000000	55.280952
1326.000000	55.555712
1325.000000	55.817940
1324.000000	56.057716
1323.000000	56.297804
1322.000000	56.511472
1321.000000	56.725557
1320.000000	56.927737
1319.000000	57.119787
1318.000000	57.322698
1317.000000	57.534172
1316.000000	57.706067
1315.000000	57.860626
1314.000000	58.037220
1313.000000	58.194285
1312.000000	58.361585
1311.000000	58.491707
1310.000000	58.630601
1309.000000	58.762289
1308.000000	58.880506
1307.000000	58.980656
1306.000000	59.091145
1305.000000	59.191399
1304.000000	59.273901
1303.000000	59.357864
1302.000000	59.429922
1301.000000	59.499055
1300.000000	59.549287
1299.000000	59.595759
1298.000000	59.642858
1297.000000	59.678469
1296.000000	59.708232
1295.000000	59.741337
1294.000000	59.763477
1293.000000	59.785407
1292.000000	59.798044
1291.000000	59.806085
1290.000000	59.793657
1289.000000	59.805040
1288.000000	59.801490
1287.000000	59.766818
1286.000000	59.749065
1285.000000	59.713036
1284.000000	59.668653
1283.000000	59.615392
1282.000000	59.572262
1281.000000	59.519733
1280.000000	59.445378
1279.000000	59.382405
1278.000000	59.330920
1277.000000	59.270245
1276.000000	59.204871
1275.000000	59.155893
1274.000000	59.104721
1273.000000	59.047910
1272.000000	58.998410
1271.000000	58.941077
1270.000000	58.895753
1269.000000	58.855860
1268.000000	58.807613
1267.000000	58.760096
1266.000000	58.708298
1265.000000	58.643342
1264.000000	58.578072
1263.000000	58.522201
1262.000000	58.465703
1261.000000	58.414949
1260.000000	58.360540
1259.000000	58.290989
1258.000000	58.230941
1257.000000	58.170057
1256.000000	58.096955
1255.000000	58.028970
1254.000000	57.954927
1253.000000	57.875246
1252.000000	57.810185
1251.000000	57.725491
1250.000000	57.619075
1249.000000	57.517358
1248.000000	57.430367
1247.000000	57.330426
1246.000000	57.214611
1245.000000	57.099527
1244.000000	56.962826
1243.000000	56.827795
1242.000000	56.693078
1241.000000	56.536849
1240.000000	56.374353
1239.000000	56.209664
1238.000000	56.048526
1237.000000	55.883732
1236.000000	55.705467
1235.000000	55.514148
1234.000000	55.322516
1233.000000	55.128900
1232.000000	54.929435
1231.000000	54.730388
1230.000000	54.518287
1229.000000	54.310259
1228.000000	54.114658
1227.000000	53.889295
1226.000000	53.651295
1225.000000	53.431257
1224.000000	53.216441
1223.000000	52.980425
1222.000000	52.746707
1221.000000	52.536799
1220.000000	52.316657
1219.000000	52.085863
1218.000000	51.874179
1217.000000	51.670851
1216.000000	51.464911
1215.000000	51.284140
1214.000000	51.107441
1213.000000	50.921866
1212.000000	50.752791
1211.000000	50.593533
1210.000000	50.429157
1209.000000	50.291516
1208.000000	50.159201
1207.000000	50.023649
1206.000000	49.910653
1205.000000	49.820529
1204.000000	49.736983
1203.000000	49.682366
1202.000000	49.640593
1201.000000	49.608637
1200.000000	49.580545
1199.000000	49.513082
1198.000000	49.439562
1197.000000	49.358001
1196.000000	49.228714
1195.000000	49.043452
1194.000000	48.796575
1193.000000	48.496230
1192.000000	48.127168
1191.000000	47.669026
1190.000000	47.153446
1189.000000	46.635465
1188.000000	46.161658
1187.000000	45.766488
1186.000000	45.507602
1185.000000	45.381761
1184.000000	45.398784
1183.000000	45.566292
1182.000000	45.889717
1181.000000	46.343578
1180.000000	46.893411
1179.000000	47.474887
1178.000000	48.077876
1177.000000	48.654235
1176.000000	49.119374
1175.000000	49.543367
1174.000000	49.942296
1173.000000	50.327336
1172.000000	50.676974
1171.000000	51.062640
1170.000000	51.426585
1169.000000	51.833138
1168.000000	52.225279
1167.000000	52.604575
1166.000000	53.007577
1165.000000	53.421754
1164.000000	53.843971
1163.000000	54.271515
1162.000000	54.705220
1161.000000	55.147593
1160.000000	55.602602
1159.000000	56.012810
1158.000000	56.425211
1157.000000	56.832077
1156.000000	57.204585
1155.000000	57.568634
1154.000000	57.879528
1153.000000	58.135386
1152.000000	58.339758
1151.000000	58.482412
1150.000000	58.606268
1149.000000	58.693573
1148.000000	58.770853
1147.000000	58.861813
1146.000000	59.009688
1145.000000	59.177301
1144.000000	59.459371
1143.000000	59.774860
1142.000000	60.157080
1141.000000	60.579506
1140.000000	61.046630
1139.000000	61.518557
1138.000000	61.991319
1137.000000	62.514731
1136.000000	63.021748
1135.000000	63.583486
1134.000000	64.141883
1133.000000	64.693596
1132.000000	65.151007
1131.000000	65.588263
1130.000000	66.021863
1129.000000	66.406172
1128.000000	66.721243
1127.000000	66.994018
1126.000000	67.212594
1125.000000	67.394723
1124.000000	67.548656
1123.000000	67.667290
1122.000000	67.764203
1121.000000	67.876049
1120.000000	67.948525
1119.000000	68.012541
1118.000000	68.060684
1117.000000	68.112796
1116.000000	68.130027
1115.000000	68.147676
1114.000000	68.162714
1113.000000	68.168876
1112.000000	68.157179
1111.000000	68.161357
1110.000000	68.164594
1109.000000	68.161043
1108.000000	68.143499
1107.000000	68.149243
1106.000000	68.160208
1105.000000	68.149138
1104.000000	68.144752
1103.000000	68.133264
1102.000000	68.126581
1101.000000	68.134622
1100.000000	68.111021
1099.000000	68.089299
1098.000000	68.100473
1097.000000	68.087315
1096.000000	68.058596
1095.000000	68.051077
1094.000000	68.009826
1093.000000	68.005753
1092.000000	67.929414
1091.000000	67.915420
1090.000000	67.867486
1089.000000	67.832188
1088.000000	67.801798
1087.000000	67.778197
1086.000000	67.736633
1085.000000	67.676793
1084.000000	67.624264
1083.000000	67.599931
1082.000000	67.556488
1081.000000	67.493516
1080.000000	67.443597
1079.000000	67.398483
1078.000000	67.338852
1077.000000	67.285592
1076.000000	67.263139
1075.000000	67.203717
1074.000000	67.167793
1073.000000	67.109729
1072.000000	67.042892
1071.000000	67.013025
1070.000000	66.948277
1069.000000	66.895435
1068.000000	66.866925
1067.000000	66.802908
1066.000000	66.739518
1065.000000	66.674040
1064.000000	66.626941
1063.000000	66.569712
1062.000000	66.485958
1061.000000	66.432802
1060.000000	66.376305
1059.000000	66.311766
1058.000000	66.254433
1057.000000	66.162115
1056.000000	66.096845
1055.000000	66.014657
1054.000000	65.939467
1053.000000	65.866260
1052.000000	65.783237
1051.000000	65.723397
1050.000000	65.633899
1049.000000	65.564034
1048.000000	65.532183
1047.000000	65.462109
1046.000000	65.394333
1045.000000	65.337313
1044.000000	65.297629
1043.000000	65.237163
1042.000000	65.163643
1041.000000	65.111532
1040.000000	65.052528
1039.000000	64.998432
1038.000000	64.959688
1037.000000	64.885332
1036.000000	64.845753
1035.000000	64.777350
1034.000000	64.718764
1033.000000	64.648586
1032.000000	64.579765
1031.000000	64.517106
1030.000000	64.445779
1029.000000	64.400351
1028.000000	64.319834
1027.000000	64.225219
1026.000000	64.156816
1025.000000	64.066692
1024.000000	63.981580
1023.000000	63.905345
1022.000000	63.812609
1021.000000	63.744520
1020.000000	63.653351
1019.000000	63.576176
1018.000000	63.499001
1017.000000	63.418275
1016.000000	63.348723
1015.000000	63.287526
1014.000000	63.223823
1013.000000	63.172129
1012.000000	63.125344
1011.000000	63.092343
1010.000000	63.045558
1009.000000	63.036995
1008.000000	63.017361
1007.000000	63.009007
1006.000000	62.991358
1005.000000	62.987807
1004.000000	62.952927
1003.000000	62.954598
1002.000000	62.964206
1001.000000	62.947810
1000.000000	62.934860
999.000000	62.925461
998.000000	62.924104
997.000000	62.927968
996.000000	62.923582
995.000000	62.914183
994.000000	62.938307
993.000000	62.954911
992.000000	62.947079
991.000000	62.965354
990.000000	62.992089
989.000000	63.009425
988.000000	63.029893
987.000000	63.065087
986.000000	63.093597
985.000000	63.135160
984.000000	63.178500
983.000000	63.235311
982.000000	63.278441
981.000000	63.339533
980.000000	63.385588
979.000000	63.434462
978.000000	63.479054
977.000000	63.518425
976.000000	63.577325
975.000000	63.641759
974.000000	63.697317
973.000000	63.751934
972.000000	63.803524
971.000000	63.873493
970.000000	63.943253
969.000000	64.008523
968.000000	64.060530
967.000000	64.122563
966.000000	64.186579
965.000000	64.246941
964.000000	64.323907
963.000000	64.392206
962.000000	64.489849
961.000000	64.590208
960.000000	64.666966
959.000000	64.755524
958.000000	64.859538
957.000000	64.946112
956.000000	65.025793
955.000000	65.115291
954.000000	65.221811
953.000000	65.309325
952.000000	65.385456
951.000000	65.477043
950.000000	65.566541
949.000000	65.659798
948.000000	65.752116
947.000000	65.838481
946.000000	65.922131
945.000000	66.006721
944.000000	66.105095
943.000000	66.202112
942.000000	66.282629
941.000000	66.368890
940.000000	66.451913
939.000000	66.541620
938.000000	66.638428
937.000000	66.742233
936.000000	66.838415
935.000000	66.934492
934.000000	67.042266
933.000000	67.148682
932.000000	67.238075
931.000000	67.338330
930.000000	67.454040
929.000000	67.549491
928.000000	67.657160
927.000000	67.760652
926.000000	67.856938
925.000000	67.976095
924.000000	68.098384
923.000000	68.217019
922.000000	68.338473
921.000000	68.453139
920.000000	68.556004
919.000000	68.672759
918.000000	68.795049
917.000000	68.912221
916.000000	69.010074
915.000000	69.125680
914.000000	69.239928
913.000000	69.339765
912.000000	69.439288
911.000000	69.544033
910.000000	69.647316
909.000000	69.769501
908.000000	69.891895
907.000000	70.026299
906.000000	70.180649
905.000000	70.320797
904.000000	70.494571
903.000000	70.660304
902.000000	70.834288
901.000000	71.008271
900.000000	71.182150
899.000000	71.371589
898.000000	71.570114
897.000000	71.779395
896.000000	71.971445
895.000000	72.154618
894.000000	72.300718
893.000000	72.466138
892.000000	72.659024
891.000000	72.823295
890.000000	72.953208
889.000000	73.082599
888.000000	73.253449
887.000000	73.402473
886.000000	73.535415
885.000000	73.626375
884.000000	73.748143
883.000000	73.880875
882.000000	73.965778
881.000000	74.050577
880.000000	74.137673
879.000000	74.240121
878.000000	74.289726
877.000000	74.287950
876.000000	74.323248
875.000000	74.310821
874.000000	74.283564
873.000000	74.234063
872.000000	74.206389
871.000000	74.190098
870.000000	74.247953
869.000000	74.402303
868.000000	74.589654
867.000000	74.796637
866.000000	74.967488
865.000000	75.154421
864.000000	75.346784
863.000000	75.524318
862.000000	75.709267
861.000000	75.885652
860.000000	76.065588
859.000000	76.263695
858.000000	76.421700
857.000000	75.690900
856.000000	76.660200
855.000000	76.914000
854.000000	76.977200
853.000000	77.126300
852.000000	77.521300
851.000000	77.545900
850.000000	77.724000
849.000000	77.921400
848.000000	78.036700
847.000000	77.932100
846.000000	78.217900
845.000000	78.449100
844.000000	78.425100
843.000000	78.946400
842.000000	78.690400
841.000000	79.082700
840.000000	79.430400
839.000000	79.494300
838.000000	79.816000
837.000000	79.827400
836.000000	79.833200
835.000000	80.066700
834.000000	80.261200
833.000000	80.448200
832.000000	80.519300
831.000000	80.741800
830.000000	81.178000
829.000000	81.370600
828.000000	81.565200
827.000000	81.366700
826.000000	81.823200
825.000000	82.060600
824.000000	82.568600
823.000000	82.566600
822.000000	82.735400
821.000000	83.000000
820.000000	83.534700
819.000000	83.755500
818.000000	84.146900
817.000000	84.469800
816.000000	84.734400
815.000000	84.897900
814.000000	85.114300
813.000000	85.586500
812.000000	85.880400
811.000000	86.192300
810.000000	86.645300
809.000000	86.604400
808.000000	87.027400
807.000000	87.209400
806.000000	87.516000
805.000000	87.975500
804.000000	88.101200
803.000000	88.399100
802.000000	88.817200
801.000000	89.085500
800.000000	89.091300
799.000000	89.191500
798.000000	89.321700
797.000000	89.331800
796.000000	89.427000
795.000000	89.360900
794.000000	89.609700
793.000000	89.412600
792.000000	89.854000
791.000000	89.863200
790.000000	89.837000
789.000000	89.857700
788.000000	89.883100
787.000000	90.050100
786.000000	89.911400
785.000000	89.777000
784.000000	89.920900
783.000000	89.775700
782.000000	89.906100
781.000000	90.078900
780.000000	90.190600
779.000000	90.139200
778.000000	90.124300
777.000000	90.129500
776.000000	90.164600
775.000000	90.346000
774.000000	90.289100
773.000000	90.279400
772.000000	90.462800
771.000000	90.392700
770.000000	90.592900
769.000000	90.694200
768.000000	90.716100
767.000000	90.753700
766.000000	90.833700
765.000000	90.860500
764.000000	90.955600
763.000000	90.906900
762.000000	90.911400
761.000000	90.980700
760.000000	91.022400
759.000000	91.007600
758.000000	90.906600
757.000000	90.901000
756.000000	90.830700
755.000000	90.767100
754.000000	90.819400
753.000000	90.668900
752.000000	90.761400
751.000000	90.837600
750.000000	90.854400
749.000000	90.644400
748.000000	90.742200
747.000000	90.638600
746.000000	90.561200
745.000000	90.362800
744.000000	90.376500
743.000000	90.354800
742.000000	90.429700
741.000000	90.241600
740.000000	90.229600
739.000000	90.094100
738.000000	90.024800
737.000000	90.080500
736.000000	89.907300
735.000000	89.737400
734.000000	89.792700
733.000000	89.674500
732.000000	89.461500
731.000000	89.486700
730.000000	89.244700
729.000000	89.101100
728.000000	88.990000
727.000000	88.708800
726.000000	88.503800
725.000000	88.319000
724.000000	87.883200
723.000000	87.528000
722.000000	87.141500
721.000000	86.851700
720.000000	86.646400
719.000000	86.180100
718.000000	85.645900
717.000000	85.232200
716.000000	84.892000
715.000000	84.475000
714.000000	83.942400
713.000000	83.429300
712.000000	82.947900
711.000000	82.488100
710.000000	82.017600
709.000000	81.479600
708.000000	81.028000
707.000000	80.541000
706.000000	80.137100
705.000000	79.713900
704.000000	79.263900
703.000000	78.880300
702.000000	78.431400
701.000000	78.083000
700.000000	77.750800
699.000000	77.441900
698.000000	77.174600
697.000000	76.911100
696.000000	76.668000
695.000000	76.490100
694.000000	76.315900
693.000000	76.141900
692.000000	76.049800
691.000000	75.962400
690.000000	75.852000
689.000000	75.790100
688.000000	75.823000
687.000000	75.853200
686.000000	75.891000
685.000000	75.955600
684.000000	75.966500
683.000000	75.981400
682.000000	76.080200
681.000000	76.136100
680.000000	76.166100
679.000000	76.219100
678.000000	76.242500
677.000000	76.208000
676.000000	76.267500
675.000000	76.308400
674.000000	76.256900
673.000000	76.317500
672.000000	76.314300
671.000000	76.234400
670.000000	76.161300
669.000000	76.088900
668.000000	75.909100
667.000000	75.736600
666.000000	75.592600
665.000000	75.311800
664.000000	75.084500
663.000000	74.851600
662.000000	74.472000
661.000000	74.077900
660.000000	73.717100
659.000000	73.311800
658.000000	72.835600
657.000000	72.343800
656.000000	71.840100
655.000000	71.300800
654.000000	70.703900
653.000000	70.125200
652.000000	69.525500
651.000000	68.873400
650.000000	68.183500
649.000000	67.499900
648.000000	66.790200
647.000000	66.028000
646.000000	65.260200
645.000000	64.496300
644.000000	63.737400
643.000000	62.966200
642.000000	62.172900
641.000000	61.374900
640.000000	60.631500
639.000000	59.975700
638.000000	59.354900
637.000000	58.795200
636.000000	58.285400
635.000000	57.868900
634.000000	57.549300
633.000000	57.319700
632.000000	57.240900
631.000000	57.254800
630.000000	57.428500
629.000000	57.699300
628.000000	58.057800
627.000000	58.569300
626.000000	59.173400
625.000000	59.861400
624.000000	60.656500
623.000000	61.548400
622.000000	62.507200
621.000000	63.544500
620.000000	64.634800
619.000000	65.767700
618.000000	66.959000
617.000000	68.215800
616.000000	69.417200
615.000000	70.620300
614.000000	71.844900
613.000000	73.066000
612.000000	74.239100
611.000000	75.398200
610.000000	76.523600
609.000000	77.573600
608.000000	78.582500
607.000000	79.548500
606.000000	80.443000
605.000000	81.291000
604.000000	82.119000
603.000000	82.888200
602.000000	83.605800
601.000000	84.299100
600.000000	84.897600
599.000000	85.483500
598.000000	86.074000
597.000000	86.613400
596.000000	87.085500
595.000000	87.520300
594.000000	87.960900
593.000000	88.366700
592.000000	88.721300
591.000000	89.070900
590.000000	89.400100
589.000000	89.687300
588.000000	89.963800
587.000000	90.180000
586.000000	90.403600
585.000000	90.615500
584.000000	90.751200
583.000000	90.916000
582.000000	91.102100
581.000000	91.255300
580.000000	91.385900
579.000000	91.454100
578.000000	91.527600
577.000000	91.578300
576.000000	91.632400
575.000000	91.620300
574.000000	91.612400
573.000000	91.603300
572.000000	91.570600
571.000000	91.519100
570.000000	91.415500
569.000000	91.342800
568.000000	91.232300
567.000000	91.110000
566.000000	90.993600
565.000000	90.885400
564.000000	90.744600
563.000000	90.587700
562.000000	90.391200
561.000000	90.235300
560.000000	90.024500
559.000000	89.824400
558.000000	89.628900
557.000000	89.381000
556.000000	89.132400
555.000000	88.873600
554.000000	88.538500
553.000000	88.206700
552.000000	87.870300
551.000000	87.550000
550.000000	87.190400
549.000000	86.776800
548.000000	86.336000
547.000000	85.958000
546.000000	85.528000
545.000000	85.038000
544.000000	84.542900
543.000000	84.030100
542.000000	83.494000
541.000000	82.936900
540.000000	82.353200
539.000000	81.690900
538.000000	81.065500
537.000000	80.363500
536.000000	79.628600
535.000000	78.844000
534.000000	78.025200
533.000000	77.197600
532.000000	76.264800
531.000000	75.320900
530.000000	74.364100
529.000000	73.328600
528.000000	72.270300
527.000000	71.137400
526.000000	69.974900
525.000000	68.785400
524.000000	67.537700
523.000000	66.216900
522.000000	64.802000
521.000000	63.384200
520.000000	61.924400
519.000000	60.400900
518.000000	58.864100
517.000000	57.303800
516.000000	55.729400
515.000000	54.107000
514.000000	52.526300
513.000000	50.930100
512.000000	49.309900
511.000000	47.733000
510.000000	46.211300
509.000000	44.744300
508.000000	43.312300
507.000000	41.979000
506.000000	40.717900
505.000000	39.551700
504.000000	38.422600
503.000000	37.373100
502.000000	36.441800
501.000000	35.526900
500.000000	34.757700
499.000000	34.060400
498.000000	33.429500
497.000000	32.885200
496.000000	32.416300
495.000000	31.978500
494.000000	31.626200
493.000000	31.336400
492.000000	31.071500
491.000000	30.828800
490.000000	30.621300
489.000000	30.474000
488.000000	30.277300
487.000000	30.193100
486.000000	30.059500
485.000000	29.959100
484.000000	29.843200
483.000000	29.717700
482.000000	29.603500
481.000000	29.489300
480.000000	29.302500
479.000000	29.140400
478.000000	28.932100
477.000000	28.711500
476.000000	28.486600
475.000000	28.220500
474.000000	27.902900
473.000000	27.578800
472.000000	27.285300
471.000000	26.925500
470.000000	26.597800
469.000000	26.223400
468.000000	25.864400
467.000000	25.462300
466.000000	25.098400
465.000000	24.746200
464.000000	24.388700
463.000000	24.043400
462.000000	23.755800
461.000000	23.414500
460.000000	23.133600
459.000000	22.909500
458.000000	22.679200
457.000000	22.473300
456.000000	22.317400
455.000000	22.194200
454.000000	22.073100
453.000000	22.027600
452.000000	21.947300
451.000000	21.950800
450.000000	21.979600
449.000000	22.042700
448.000000	22.089300
447.000000	22.180100
446.000000	22.279000
445.000000	22.371700
444.000000	22.478900
443.000000	22.598600
442.000000	22.748000
441.000000	22.805300
440.000000	22.907700
439.000000	23.014600
438.000000	23.076100
437.000000	23.136200
436.000000	23.162000
435.000000	23.219800
434.000000	23.220800
433.000000	23.210300
432.000000	23.163800
431.000000	23.106200
430.000000	23.081900
429.000000	22.979000
428.000000	22.882200
427.000000	22.771600
426.000000	22.664100
425.000000	22.488400
424.000000	22.379700
423.000000	22.199200
422.000000	22.045000
421.000000	21.872400
420.000000	21.611400
419.000000	21.361600
418.000000	21.176800
417.000000	20.912600
416.000000	20.637700
415.000000	20.409700
414.000000	20.115200
413.000000	19.784500
412.000000	19.480500
411.000000	19.148600
410.000000	18.805900
409.000000	18.468700
408.000000	18.118800
407.000000	17.733800
406.000000	17.339500
405.000000	16.945200
404.000000	16.553000
403.000000	16.162700
402.000000	15.747300
401.000000	15.334000
400.000000	14.882800
399.000000	14.484400
398.000000	14.056800
397.000000	13.638500
396.000000	13.213100
395.000000	12.781600
394.000000	12.375400
393.000000	11.961200
392.000000	11.609200
391.000000	11.220300
390.000000	10.877600
389.000000	10.510900
388.000000	10.183400
387.000000	9.862100
386.000000	9.569000
385.000000	9.272100
384.000000	8.985800
383.000000	8.746800
382.000000	8.518700
381.000000	8.280800
380.000000	8.065400
379.000000	7.863500
378.000000	7.709400
377.000000	7.567500
376.000000	7.373500
375.000000	7.126000
374.000000	7.008400
373.000000	6.978800
372.000000	6.944500
371.000000	6.809300
370.000000	6.717300
369.000000	6.648200
368.000000	6.615300
367.000000	6.517200
366.000000	6.444300
365.000000	6.415000
364.000000	6.373300
363.000000	6.355600
362.000000	6.274900
361.000000	6.191600
360.000000	6.147700
359.000000	6.015300
358.000000	5.960700
357.000000	5.971400
356.000000	5.967400
355.000000	5.942000
354.000000	5.863600
353.000000	5.795600
352.000000	5.753900
351.000000	5.769100
350.000000	5.737400
349.000000	5.694500
348.000000	5.719000
347.000000	5.703100
346.000000	5.628600
345.000000	5.572900
344.000000	5.604100
343.000000	5.578400
342.000000	5.537900
341.000000	5.516000
340.000000	5.480700
339.000000	5.491800
338.000000	5.489900
337.000000	5.477100
336.000000	5.415900
335.000000	5.419800
334.000000	5.396000
333.000000	5.332600
332.000000	5.335100
331.000000	5.278300
330.000000	5.230100
329.000000	5.271900
328.000000	5.289900
327.000000	5.318500
326.000000	5.299200
325.000000	5.317200
324.000000	5.407500
323.000000	5.425400
322.000000	5.320100
321.000000	5.179600
320.000000	5.158600
319.000000	5.315900
318.000000	5.254600
317.000000	5.323900
316.000000	5.297400
315.000000	5.168300
314.000000	5.169100
313.000000	5.155900
312.000000	5.150400
311.000000	5.161500
310.000000	5.203200
309.000000	5.194600
308.000000	5.195200
307.000000	5.197300
306.000000	5.199400
305.000000	5.210600
304.000000	5.214900
303.000000	5.226800
302.000000	5.228500
301.000000	5.253100
300.000000	5.269900
299.000000	5.267100
298.000000	5.256200
297.000000	5.237300
296.000000	5.230400
295.000000	5.259700
294.000000	5.274600
293.000000	5.294100
292.000000	5.309700
291.000000	5.317900
290.000000	5.322100
289.000000	5.317500
288.000000	5.332600
287.000000	5.349900
286.000000	5.339700
285.000000	5.349300
284.000000	5.392700
283.000000	5.406200
282.000000	5.391100
281.000000	5.419800
280.000000	5.422100
279.000000	5.432900
278.000000	5.430500
277.000000	5.468000
276.000000	5.498300
275.000000	5.501500
274.000000	5.500800
273.000000	5.525800
272.000000	5.518000
271.000000	5.542000
270.000000	5.521700
269.000000	5.534600
268.000000	5.582900
267.000000	5.592600
266.000000	5.619600
265.000000	5.635900
264.000000	5.641600
263.000000	5.695200
262.000000	5.711800
261.000000	5.715700
260.000000	5.716500
259.000000	5.743200
258.000000	5.763700
257.000000	5.777600
256.000000	5.810100
255.000000	5.801400
254.000000	5.807500
253.000000	5.811300
252.000000	5.846700
251.000000	5.823800
250.000000	5.850000
