PE UV       SUBTECH     SPECTRUM    ASCII       PEDS        4.00        
   -1
CICIMAUCR0251-3.Sample.ASC
24/05/27
17:05:10.00
24/05/27
17:05:10.00
Vinicio Soto Monge
C. resplendens, F
250,000000
1
Lambda 1050
1050L1511233
PerkinElmer UV WinLab 6.3.2.0749 / 2.02.05 Lambda 900 UV/VIS/NIR, Aug  7 2015 09:38:08

0
0
3350/servo 860,8/2
0
0
UV/VIS
1
1
1
DoubleDePol,CommonBeamDepol,RBeamAtt,SBeamAtt,60mm sphere, WB InGaAs Detector
0
0
0
0
Program
Program
3350/servo 860,8/2
3350/0,2 860,8/0,2
3350/0,2 860,8/0,2
0
15.00
 
 
 
0
 
860,8
319,2
860,8
Front
100
on
S:100 R:100
0
0
0
0
 
0
 
 
 
0
 
 
0
0
0
0
0
 
 
 
 
0
0


0
0
#HDR
-1
-1
#GR
nm
%R
1.0
0.0
2500,000000
-1,000000
2251
8
89,601500
5,208800
#DATA
2500.000000	5.636005
2499.000000	5.607775
2498.000000	5.626528
2497.000000	5.463494
2496.000000	5.515217
2495.000000	5.484869
2494.000000	5.387775
2493.000000	5.496262
2492.000000	5.517133
2491.000000	5.413283
2490.000000	5.475593
2489.000000	5.440909
2488.000000	5.418022
2487.000000	5.333733
2486.000000	5.394631
2485.000000	5.390598
2484.000000	5.368517
2483.000000	5.303284
2482.000000	5.331716
2481.000000	5.360451
2480.000000	5.298343
2479.000000	5.324961
2478.000000	5.304796
2477.000000	5.251762
2476.000000	5.310543
2475.000000	5.323348
2474.000000	5.338471
2473.000000	5.287555
2472.000000	5.303082
2471.000000	5.287757
2470.000000	5.272129
2469.000000	5.277775
2468.000000	5.299856
2467.000000	5.266483
2466.000000	5.263861
2465.000000	5.268902
2464.000000	5.275758
2463.000000	5.298646
2462.000000	5.310745
2461.000000	5.307821
2460.000000	5.266583
2459.000000	5.303586
2458.000000	5.341597
2457.000000	5.341698
2456.000000	5.328691
2455.000000	5.348251
2454.000000	5.383641
2453.000000	5.397051
2452.000000	5.401386
2451.000000	5.414090
2450.000000	5.405822
2449.000000	5.454420
2448.000000	5.450488
2447.000000	5.482853
2446.000000	5.492733
2445.000000	5.511991
2444.000000	5.520561
2443.000000	5.561698
2442.000000	5.570268
2441.000000	5.585492
2440.000000	5.613723
2439.000000	5.629351
2438.000000	5.629452
2437.000000	5.650323
2436.000000	5.686216
2435.000000	5.680368
2434.000000	5.724026
2433.000000	5.744392
2432.000000	5.735015
2431.000000	5.761230
2430.000000	5.783311
2429.000000	5.806198
2428.000000	5.810634
2427.000000	5.824850
2426.000000	5.845217
2425.000000	5.869717
2424.000000	5.873750
2423.000000	5.874355
2422.000000	5.886051
2421.000000	5.898755
2420.000000	5.941101
2419.000000	5.950579
2418.000000	5.946848
2417.000000	5.949167
2416.000000	5.968526
2415.000000	5.983549
2414.000000	5.996454
2413.000000	6.012586
2412.000000	6.024383
2411.000000	6.030634
2410.000000	6.040212
2409.000000	6.060478
2408.000000	6.072073
2407.000000	6.071468
2406.000000	6.082659
2405.000000	6.105950
2404.000000	6.113915
2403.000000	6.115932
2402.000000	6.121174
2401.000000	6.136096
2400.000000	6.139827
2399.000000	6.153842
2398.000000	6.152329
2397.000000	6.142448
2396.000000	6.167050
2395.000000	6.183484
2394.000000	6.191449
2393.000000	6.201633
2392.000000	6.211816
2391.000000	6.222403
2390.000000	6.217966
2389.000000	6.219277
2388.000000	6.230670
2387.000000	6.250230
2386.000000	6.258699
2385.000000	6.255271
2384.000000	6.250936
2383.000000	6.261523
2382.000000	6.265757
2381.000000	6.258599
2380.000000	6.267068
2379.000000	6.266160
2378.000000	6.257187
2377.000000	6.245895
2376.000000	6.253658
2375.000000	6.257691
2374.000000	6.248516
2373.000000	6.246399
2372.000000	6.244584
2371.000000	6.231880
2370.000000	6.213026
2369.000000	6.204657
2368.000000	6.206472
2367.000000	6.195785
2366.000000	6.175015
2365.000000	6.160496
2364.000000	6.153035
2363.000000	6.125913
2362.000000	6.101312
2361.000000	6.082256
2360.000000	6.068040
2359.000000	6.049085
2358.000000	6.024080
2357.000000	5.999781
2356.000000	5.985666
2355.000000	5.970744
2354.000000	5.951890
2353.000000	5.947050
2352.000000	5.954108
2351.000000	5.956427
2350.000000	5.952999
2349.000000	5.961266
2348.000000	5.979112
2347.000000	5.976793
2346.000000	5.972055
2345.000000	5.983044
2344.000000	5.994942
2343.000000	6.007041
2342.000000	6.021660
2341.000000	6.036683
2340.000000	6.062293
2339.000000	6.076408
2338.000000	6.082256
2337.000000	6.087398
2336.000000	6.083163
2335.000000	6.095767
2334.000000	6.092843
2333.000000	6.088709
2332.000000	6.073988
2331.000000	6.050496
2330.000000	6.019140
2329.000000	6.014905
2328.000000	5.994942
2327.000000	5.967921
2326.000000	5.940396
2325.000000	5.915693
2324.000000	5.890991
2323.000000	5.863970
2322.000000	5.830597
2321.000000	5.798333
2320.000000	5.764255
2319.000000	5.726445
2318.000000	5.687930
2317.000000	5.639938
2316.000000	5.616345
2315.000000	5.590533
2314.000000	5.546776
2313.000000	5.518444
2312.000000	5.480937
2311.000000	5.437481
2310.000000	5.402495
2309.000000	5.389690
2308.000000	5.350066
2307.000000	5.334439
2306.000000	5.331212
2305.000000	5.328389
2304.000000	5.322340
2303.000000	5.328691
2302.000000	5.344017
2301.000000	5.344118
2300.000000	5.363779
2299.000000	5.384347
2298.000000	5.397252
2297.000000	5.427903
2296.000000	5.460470
2295.000000	5.488600
2294.000000	5.502917
2293.000000	5.511487
2292.000000	5.523687
2291.000000	5.525098
2290.000000	5.557362
2289.000000	5.566336
2288.000000	5.558875
2287.000000	5.570772
2286.000000	5.560891
2285.000000	5.565831
2284.000000	5.540726
2283.000000	5.503320
2282.000000	5.500900
2281.000000	5.482953
2280.000000	5.459360
2279.000000	5.441615
2278.000000	5.440204
2277.000000	5.413485
2276.000000	5.385557
2275.000000	5.364383
2274.000000	5.354805
2273.000000	5.361460
2272.000000	5.339177
2271.000000	5.312459
2270.000000	5.296226
2269.000000	5.312257
2268.000000	5.312358
2267.000000	5.333632
2266.000000	5.351276
2265.000000	5.372954
2264.000000	5.405621
2263.000000	5.459663
2262.000000	5.497573
2261.000000	5.557261
2260.000000	5.625923
2259.000000	5.695795
2258.000000	5.754777
2257.000000	5.844612
2256.000000	5.929607
2255.000000	6.030029
2254.000000	6.108975
2253.000000	6.205061
2252.000000	6.299634
2251.000000	6.401266
2250.000000	6.475977
2249.000000	6.562485
2248.000000	6.662805
2247.000000	6.758891
2246.000000	6.824831
2245.000000	6.899643
2244.000000	6.976673
2243.000000	7.035151
2242.000000	7.083547
2241.000000	7.156141
2240.000000	7.199596
2239.000000	7.258982
2238.000000	7.324619
2237.000000	7.362630
2236.000000	7.393987
2235.000000	7.430082
2234.000000	7.470916
2233.000000	7.511851
2232.000000	7.532520
2231.000000	7.570632
2230.000000	7.578799
2229.000000	7.619633
2228.000000	7.632740
2227.000000	7.643125
2226.000000	7.646049
2225.000000	7.637277
2224.000000	7.667222
2223.000000	7.644234
2222.000000	7.648267
2221.000000	7.653106
2220.000000	7.657946
2219.000000	7.651191
2218.000000	7.642318
2217.000000	7.633950
2216.000000	7.604307
2215.000000	7.611466
2214.000000	7.581118
2213.000000	7.581722
2212.000000	7.562364
2211.000000	7.576076
2210.000000	7.544921
2209.000000	7.552786
2208.000000	7.520522
2207.000000	7.528789
2206.000000	7.519009
2205.000000	7.515884
2204.000000	7.492997
2203.000000	7.476562
2202.000000	7.481099
2201.000000	7.488560
2200.000000	7.476461
2199.000000	7.460834
2198.000000	7.438047
2197.000000	7.440366
2196.000000	7.439963
2195.000000	7.435022
2194.000000	7.457305
2193.000000	7.427158
2192.000000	7.432603
2191.000000	7.429074
2190.000000	7.430687
2189.000000	7.407800
2188.000000	7.436131
2187.000000	7.412942
2186.000000	7.416975
2185.000000	7.417277
2184.000000	7.391769
2183.000000	7.400843
2182.000000	7.396306
2181.000000	7.389147
2180.000000	7.393180
2179.000000	7.368780
2178.000000	7.378460
2177.000000	7.388744
2176.000000	7.381888
2175.000000	7.375132
2174.000000	7.399431
2173.000000	7.390962
2172.000000	7.387030
2171.000000	7.399935
2170.000000	7.400036
2169.000000	7.406892
2168.000000	7.417580
2167.000000	7.447021
2166.000000	7.458414
2165.000000	7.428267
2164.000000	7.483015
2163.000000	7.500458
2162.000000	7.493602
2161.000000	7.530806
2160.000000	7.548249
2159.000000	7.559541
2158.000000	7.554903
2157.000000	7.587268
2156.000000	7.606626
2155.000000	7.622052
2154.000000	7.645141
2153.000000	7.658753
2152.000000	7.667424
2151.000000	7.704930
2150.000000	7.713299
2149.000000	7.727213
2148.000000	7.763610
2147.000000	7.765627
2146.000000	7.776012
2145.000000	7.797488
2144.000000	7.828844
2143.000000	7.828542
2142.000000	7.848102
2141.000000	7.868267
2140.000000	7.893876
2139.000000	7.898010
2138.000000	7.897102
2137.000000	7.905773
2136.000000	7.922107
2135.000000	7.927552
2134.000000	7.937029
2133.000000	7.927652
2132.000000	7.938541
2131.000000	7.943683
2130.000000	7.936727
2129.000000	7.934710
2128.000000	7.946103
2127.000000	7.939247
2126.000000	7.936021
2125.000000	7.930677
2124.000000	7.898010
2123.000000	7.883592
2122.000000	7.878954
2121.000000	7.874215
2120.000000	7.867359
2119.000000	7.862721
2118.000000	7.825618
2117.000000	7.820778
2116.000000	7.816039
2115.000000	7.807570
2114.000000	7.763510
2113.000000	7.731548
2112.000000	7.713299
2111.000000	7.686479
2110.000000	7.682648
2109.000000	7.669541
2108.000000	7.637579
2107.000000	7.612676
2106.000000	7.588377
2105.000000	7.579303
2104.000000	7.560045
2103.000000	7.529394
2102.000000	7.506507
2101.000000	7.483116
2100.000000	7.475251
2099.000000	7.457809
2098.000000	7.434115
2097.000000	7.411933
2096.000000	7.397717
2095.000000	7.377250
2094.000000	7.362227
2093.000000	7.357992
2092.000000	7.351035
2091.000000	7.330568
2090.000000	7.318671
2089.000000	7.309395
2088.000000	7.290540
2087.000000	7.264326
2086.000000	7.248900
2085.000000	7.235994
2084.000000	7.215829
2083.000000	7.202117
2082.000000	7.195362
2081.000000	7.168139
2080.000000	7.147369
2079.000000	7.142933
2078.000000	7.119844
2077.000000	7.103914
2076.000000	7.089395
2075.000000	7.073868
2074.000000	7.041705
2073.000000	7.029908
2072.000000	7.023960
2071.000000	6.987058
2070.000000	6.961952
2069.000000	6.941082
2068.000000	6.915170
2067.000000	6.903474
2066.000000	6.878369
2065.000000	6.850239
2064.000000	6.830880
2063.000000	6.813639
2062.000000	6.805674
2061.000000	6.797306
2060.000000	6.764739
2059.000000	6.743969
2058.000000	6.735500
2057.000000	6.736206
2056.000000	6.726022
2055.000000	6.726829
2054.000000	6.732072
2053.000000	6.736206
2052.000000	6.746994
2051.000000	6.758790
2050.000000	6.762319
2049.000000	6.768873
2048.000000	6.804767
2047.000000	6.833602
2046.000000	6.871513
2045.000000	6.896719
2044.000000	6.929285
2043.000000	6.958424
2042.000000	6.980706
2041.000000	7.020834
2040.000000	7.061366
2039.000000	7.095142
2038.000000	7.142126
2037.000000	7.189615
2036.000000	7.201512
2035.000000	7.240330
2034.000000	7.256058
2033.000000	7.281365
2032.000000	7.309092
2031.000000	7.329156
2030.000000	7.357488
2029.000000	7.368075
2028.000000	7.389651
2027.000000	7.404876
2026.000000	7.415765
2025.000000	7.422722
2024.000000	7.446920
2023.000000	7.445004
2022.000000	7.450650
2021.000000	7.472227
2020.000000	7.475957
2019.000000	7.480091
2018.000000	7.499550
2017.000000	7.485536
2016.000000	7.488460
2015.000000	7.485636
2014.000000	7.485233
2013.000000	7.475957
2012.000000	7.467790
2011.000000	7.461943
2010.000000	7.455389
2009.000000	7.455994
2008.000000	7.428166
2007.000000	7.416975
2006.000000	7.401851
2005.000000	7.388643
2004.000000	7.370192
2003.000000	7.333089
2002.000000	7.319578
2001.000000	7.296993
2000.000000	7.280357
1999.000000	7.254748
1998.000000	7.230550
1997.000000	7.213712
1996.000000	7.191934
1995.000000	7.134968
1994.000000	7.103914
1993.000000	7.098469
1992.000000	7.066508
1991.000000	7.031320
1990.000000	6.988469
1989.000000	6.978891
1988.000000	6.932814
1987.000000	6.891879
1986.000000	6.867076
1985.000000	6.827654
1984.000000	6.786719
1983.000000	6.762823
1982.000000	6.721183
1981.000000	6.693557
1980.000000	6.668956
1979.000000	6.646270
1978.000000	6.598177
1977.000000	6.560972
1976.000000	6.532943
1975.000000	6.493621
1974.000000	6.460853
1973.000000	6.454904
1972.000000	6.423246
1971.000000	6.376866
1970.000000	6.347425
1969.000000	6.325143
1968.000000	6.310322
1967.000000	6.282292
1966.000000	6.256078
1965.000000	6.238131
1964.000000	6.203246
1963.000000	6.195180
1962.000000	6.162916
1961.000000	6.145776
1960.000000	6.115528
1959.000000	6.098287
1958.000000	6.084978
1957.000000	6.058260
1956.000000	6.046665
1955.000000	6.028718
1954.000000	5.988388
1953.000000	5.968526
1952.000000	5.953301
1951.000000	5.939186
1950.000000	5.904099
1949.000000	5.896335
1948.000000	5.890487
1947.000000	5.872540
1946.000000	5.879497
1945.000000	5.887967
1944.000000	5.864071
1943.000000	5.827976
1942.000000	5.820918
1941.000000	5.810937
1940.000000	5.826564
1939.000000	5.813961
1938.000000	5.815574
1937.000000	5.826968
1936.000000	5.822531
1935.000000	5.844713
1934.000000	5.841386
1933.000000	5.852476
1932.000000	5.853081
1931.000000	5.871532
1930.000000	5.882522
1929.000000	5.904603
1928.000000	5.926683
1927.000000	5.946243
1926.000000	5.968324
1925.000000	6.003814
1924.000000	6.026702
1923.000000	6.060075
1922.000000	6.106454
1921.000000	6.159992
1920.000000	6.195986
1919.000000	6.237930
1918.000000	6.279369
1917.000000	6.344401
1916.000000	6.381302
1915.000000	6.439478
1914.000000	6.494529
1913.000000	6.579221
1912.000000	6.656857
1911.000000	6.724812
1910.000000	6.791357
1909.000000	6.861531
1908.000000	6.939771
1907.000000	7.036563
1906.000000	7.137085
1905.000000	7.246782
1904.000000	7.357589
1903.000000	7.459220
1902.000000	7.611970
1901.000000	7.728120
1900.000000	7.855260
1899.000000	7.997927
1898.000000	8.179513
1897.000000	8.297175
1896.000000	8.481685
1895.000000	8.636753
1894.000000	8.774883
1893.000000	8.979759
1892.000000	9.167394
1891.000000	9.402417
1890.000000	9.624030
1889.000000	9.880427
1888.000000	10.114643
1887.000000	10.385055
1886.000000	10.659198
1885.000000	10.993936
1884.000000	11.331800
1883.000000	11.724513
1882.000000	12.144045
1881.000000	12.534337
1880.000000	12.967884
1879.000000	13.344364
1878.000000	13.747865
1877.000000	14.176874
1876.000000	14.583299
1875.000000	14.960182
1874.000000	15.345535
1873.000000	15.737541
1872.000000	16.108274
1871.000000	16.432224
1870.000000	16.756275
1869.000000	17.043626
1868.000000	17.342067
1867.000000	17.593625
1866.000000	17.799711
1865.000000	17.957401
1864.000000	18.135155
1863.000000	18.304440
1862.000000	18.439848
1861.000000	18.578078
1860.000000	18.714091
1859.000000	18.840929
1858.000000	18.933183
1857.000000	19.025841
1856.000000	19.097124
1855.000000	19.132514
1854.000000	19.183431
1853.000000	19.231726
1852.000000	19.220332
1851.000000	19.249672
1850.000000	19.235960
1849.000000	19.244127
1848.000000	19.251386
1847.000000	19.244732
1846.000000	19.218013
1845.000000	19.174659
1844.000000	19.146629
1843.000000	19.135740
1842.000000	19.134530
1841.000000	19.143806
1840.000000	19.124347
1839.000000	19.106501
1838.000000	19.071515
1837.000000	19.043990
1836.000000	19.003559
1835.000000	18.975026
1834.000000	18.941854
1833.000000	18.892148
1832.000000	18.843348
1831.000000	18.796667
1830.000000	18.747867
1829.000000	18.694329
1828.000000	18.655915
1827.000000	18.590682
1826.000000	18.527565
1825.000000	18.480278
1824.000000	18.424623
1823.000000	18.377840
1822.000000	18.354550
1821.000000	18.354046
1820.000000	18.342753
1819.000000	18.317547
1818.000000	18.265723
1817.000000	18.238500
1816.000000	18.237391
1815.000000	18.230132
1814.000000	18.231443
1813.000000	18.222973
1812.000000	18.207648
1811.000000	18.184257
1810.000000	18.162176
1809.000000	18.125879
1808.000000	18.100774
1807.000000	18.074358
1806.000000	18.034229
1805.000000	17.983010
1804.000000	17.945302
1803.000000	17.905879
1802.000000	17.847099
1801.000000	17.810197
1800.000000	17.763918
1799.000000	17.701104
1798.000000	17.654221
1797.000000	17.608749
1796.000000	17.570536
1795.000000	17.530509
1794.000000	17.491893
1793.000000	17.449849
1792.000000	17.401957
1791.000000	17.350234
1790.000000	17.285101
1789.000000	17.227530
1788.000000	17.182562
1787.000000	17.132856
1786.000000	17.066311
1785.000000	17.015294
1784.000000	16.959941
1783.000000	16.890070
1782.000000	16.827256
1781.000000	16.761720
1780.000000	16.681766
1779.000000	16.604534
1778.000000	16.540409
1777.000000	16.477495
1776.000000	16.410043
1775.000000	16.322628
1774.000000	16.225836
1773.000000	16.132170
1772.000000	16.042133
1771.000000	15.943426
1770.000000	15.836854
1769.000000	15.734517
1768.000000	15.645488
1767.000000	15.552024
1766.000000	15.481346
1765.000000	15.396854
1764.000000	15.333032
1763.000000	15.288770
1762.000000	15.286350
1761.000000	15.289375
1760.000000	15.313775
1759.000000	15.377698
1758.000000	15.431135
1757.000000	15.489714
1756.000000	15.560997
1755.000000	15.608385
1754.000000	15.646597
1753.000000	15.701950
1752.000000	15.724434
1751.000000	15.731895
1750.000000	15.735021
1749.000000	15.720905
1748.000000	15.705580
1747.000000	15.657688
1746.000000	15.606973
1745.000000	15.529439
1744.000000	15.431941
1743.000000	15.308532
1742.000000	15.169494
1741.000000	15.026928
1740.000000	14.856938
1739.000000	14.671117
1738.000000	14.479651
1737.000000	14.306737
1736.000000	14.148240
1735.000000	14.026141
1734.000000	13.945481
1733.000000	13.872887
1732.000000	13.833868
1731.000000	13.846371
1730.000000	13.884684
1729.000000	13.951329
1728.000000	14.030678
1727.000000	14.123639
1726.000000	14.221338
1725.000000	14.300586
1724.000000	14.342529
1723.000000	14.406251
1722.000000	14.463217
1721.000000	14.488725
1720.000000	14.502236
1719.000000	14.544784
1718.000000	14.568377
1717.000000	14.612841
1716.000000	14.675655
1715.000000	14.730402
1714.000000	14.791805
1713.000000	14.870347
1712.000000	14.920760
1711.000000	14.971979
1710.000000	15.021383
1709.000000	15.046186
1708.000000	15.064435
1707.000000	15.055462
1706.000000	15.035902
1705.000000	15.000411
1704.000000	14.960787
1703.000000	14.927918
1702.000000	14.846048
1701.000000	14.767808
1700.000000	14.661237
1699.000000	14.538331
1698.000000	14.403831
1697.000000	14.262979
1696.000000	14.167296
1695.000000	14.118295
1694.000000	14.074840
1693.000000	14.113859
1692.000000	14.185545
1691.000000	14.285463
1690.000000	14.403932
1689.000000	14.546296
1688.000000	14.640668
1687.000000	14.710137
1686.000000	14.751475
1685.000000	14.791301
1684.000000	14.837982
1683.000000	14.926003
1682.000000	15.066351
1681.000000	15.284132
1680.000000	15.627945
1679.000000	16.046166
1678.000000	16.489896
1677.000000	16.951774
1676.000000	17.389959
1675.000000	17.820078
1674.000000	18.160059
1673.000000	18.498225
1672.000000	18.748371
1671.000000	18.989444
1670.000000	19.206217
1669.000000	19.385282
1668.000000	19.541963
1667.000000	19.685135
1666.000000	19.788682
1665.000000	19.897774
1664.000000	20.003640
1663.000000	20.057077
1662.000000	20.131990
1661.000000	20.206601
1660.000000	20.237755
1659.000000	20.276674
1658.000000	20.309644
1657.000000	20.343722
1656.000000	20.356830
1655.000000	20.374575
1654.000000	20.391110
1653.000000	20.361669
1652.000000	20.365803
1651.000000	20.343017
1650.000000	20.312870
1649.000000	20.285748
1648.000000	20.241688
1647.000000	20.202467
1646.000000	20.173631
1645.000000	20.105171
1644.000000	20.058993
1643.000000	19.988416
1642.000000	19.965327
1641.000000	19.899992
1640.000000	19.852907
1639.000000	19.786060
1638.000000	19.713668
1637.000000	19.650653
1636.000000	19.584108
1635.000000	19.502440
1634.000000	19.447289
1633.000000	19.374796
1632.000000	19.282340
1631.000000	19.221139
1630.000000	19.169214
1629.000000	19.060122
1628.000000	18.980672
1627.000000	18.910800
1626.000000	18.822175
1625.000000	18.750590
1624.000000	18.671039
1623.000000	18.587354
1622.000000	18.511433
1621.000000	18.411516
1620.000000	18.334889
1619.000000	18.264816
1618.000000	18.195650
1617.000000	18.127997
1616.000000	18.051168
1615.000000	17.985128
1614.000000	17.903157
1613.000000	17.828244
1612.000000	17.759986
1611.000000	17.695660
1610.000000	17.618730
1609.000000	17.568520
1608.000000	17.495523
1607.000000	17.425853
1606.000000	17.371004
1605.000000	17.306375
1604.000000	17.232370
1603.000000	17.143644
1602.000000	17.088493
1601.000000	17.036266
1600.000000	16.968814
1599.000000	16.913663
1598.000000	16.830583
1597.000000	16.784103
1596.000000	16.737118
1595.000000	16.660189
1594.000000	16.608970
1593.000000	16.547467
1592.000000	16.500987
1591.000000	16.454506
1590.000000	16.410345
1589.000000	16.343196
1588.000000	16.310226
1587.000000	16.265561
1586.000000	16.219786
1585.000000	16.178146
1584.000000	16.151931
1583.000000	16.111601
1582.000000	16.084782
1581.000000	16.047376
1580.000000	16.009970
1579.000000	15.989603
1578.000000	15.948870
1577.000000	15.936872
1576.000000	15.905616
1575.000000	15.889585
1574.000000	15.884846
1573.000000	15.880410
1572.000000	15.871840
1571.000000	15.859439
1570.000000	15.863673
1569.000000	15.853792
1568.000000	15.856414
1567.000000	15.861455
1566.000000	15.855103
1565.000000	15.864076
1564.000000	15.872647
1563.000000	15.885955
1562.000000	15.873957
1561.000000	15.872546
1560.000000	15.874966
1559.000000	15.873151
1558.000000	15.854498
1557.000000	15.853490
1556.000000	15.844516
1555.000000	15.843911
1554.000000	15.827981
1553.000000	15.807816
1552.000000	15.796927
1551.000000	15.787954
1550.000000	15.751758
1549.000000	15.731089
1548.000000	15.708403
1547.000000	15.677551
1546.000000	15.647202
1545.000000	15.621492
1544.000000	15.614535
1543.000000	15.590337
1542.000000	15.568156
1541.000000	15.540126
1540.000000	15.522381
1539.000000	15.505039
1538.000000	15.485681
1537.000000	15.466625
1536.000000	15.444040
1535.000000	15.417221
1534.000000	15.374673
1533.000000	15.339888
1532.000000	15.322849
1531.000000	15.302583
1530.000000	15.256305
1529.000000	15.213555
1528.000000	15.174132
1527.000000	15.132492
1526.000000	15.091960
1525.000000	15.044572
1524.000000	14.993656
1523.000000	14.950705
1522.000000	14.908056
1521.000000	14.852602
1520.000000	14.806626
1519.000000	14.756516
1518.000000	14.702877
1517.000000	14.659321
1516.000000	14.603363
1515.000000	14.545893
1514.000000	14.491952
1513.000000	14.439321
1512.000000	14.396269
1511.000000	14.328011
1510.000000	14.263785
1509.000000	14.213877
1508.000000	14.157919
1507.000000	14.102264
1506.000000	14.046508
1505.000000	13.986820
1504.000000	13.933685
1503.000000	13.873795
1502.000000	13.816123
1501.000000	13.771659
1500.000000	13.721852
1499.000000	13.681623
1498.000000	13.635243
1497.000000	13.580697
1496.000000	13.547223
1495.000000	13.503365
1494.000000	13.470697
1493.000000	13.431678
1492.000000	13.393667
1491.000000	13.359387
1490.000000	13.328534
1489.000000	13.307361
1488.000000	13.277820
1487.000000	13.251202
1486.000000	13.233356
1485.000000	13.217425
1484.000000	13.188186
1483.000000	13.161871
1482.000000	13.143823
1481.000000	13.126683
1480.000000	13.117306
1479.000000	13.111156
1478.000000	13.106417
1477.000000	13.098855
1476.000000	13.105913
1475.000000	13.092302
1474.000000	13.082421
1473.000000	13.095024
1472.000000	13.098150
1471.000000	13.110148
1470.000000	13.132027
1469.000000	13.132833
1468.000000	13.134346
1467.000000	13.150175
1466.000000	13.159955
1465.000000	13.172659
1464.000000	13.199579
1463.000000	13.217526
1462.000000	13.235473
1461.000000	13.273787
1460.000000	13.297279
1459.000000	13.329442
1458.000000	13.360597
1457.000000	13.407581
1456.000000	13.453860
1455.000000	13.497013
1454.000000	13.557003
1453.000000	13.623346
1452.000000	13.670431
1451.000000	13.739597
1450.000000	13.798378
1449.000000	13.877828
1448.000000	13.932576
1447.000000	13.992869
1446.000000	14.064959
1445.000000	14.147938
1444.000000	14.221439
1443.000000	14.300586
1442.000000	14.377516
1441.000000	14.451723
1440.000000	14.548414
1439.000000	14.638349
1438.000000	14.715682
1437.000000	14.806021
1436.000000	14.898074
1435.000000	14.974701
1434.000000	15.069779
1433.000000	15.177661
1432.000000	15.290081
1431.000000	15.376689
1430.000000	15.511089
1429.000000	15.613527
1428.000000	15.755186
1427.000000	15.897853
1426.000000	16.030437
1425.000000	16.173407
1424.000000	16.352169
1423.000000	16.523168
1422.000000	16.707173
1421.000000	16.889767
1420.000000	17.083452
1419.000000	17.310610
1418.000000	17.530710
1417.000000	17.721370
1416.000000	17.932800
1415.000000	18.172259
1414.000000	18.422808
1413.000000	18.685054
1412.000000	18.913523
1411.000000	19.176877
1410.000000	19.470277
1409.000000	19.803806
1408.000000	20.163952
1407.000000	20.522686
1406.000000	20.876581
1405.000000	21.243080
1404.000000	21.645572
1403.000000	22.074078
1402.000000	22.465580
1401.000000	22.858192
1400.000000	23.284983
1399.000000	23.704515
1398.000000	24.049235
1397.000000	24.344954
1396.000000	24.680096
1395.000000	25.085009
1394.000000	25.452817
1393.000000	25.720406
1392.000000	25.992230
1391.000000	26.343100
1390.000000	26.721597
1389.000000	27.038388
1388.000000	27.454190
1387.000000	27.950348
1386.000000	28.404161
1385.000000	28.904756
1384.000000	29.455360
1383.000000	30.042161
1382.000000	30.636422
1381.000000	31.184606
1380.000000	31.627429
1379.000000	31.966805
1378.000000	32.272405
1377.000000	32.487767
1376.000000	32.709077
1375.000000	32.925649
1374.000000	33.181038
1373.000000	33.472724
1372.000000	33.811395
1371.000000	34.186564
1370.000000	34.585427
1369.000000	34.927425
1368.000000	35.259340
1367.000000	35.587827
1366.000000	35.885462
1365.000000	36.105764
1364.000000	36.365791
1363.000000	36.564618
1362.000000	36.762134
1361.000000	36.952995
1360.000000	37.117037
1359.000000	37.215341
1358.000000	37.314149
1357.000000	37.451170
1356.000000	37.631747
1355.000000	37.894900
1354.000000	38.239318
1353.000000	38.684762
1352.000000	39.112360
1351.000000	39.664577
1350.000000	40.207216
1349.000000	40.742394
1348.000000	41.189552
1347.000000	41.646490
1346.000000	42.093144
1345.000000	42.423849
1344.000000	42.803051
1343.000000	43.174187
1342.000000	43.544214
1341.000000	43.889640
1340.000000	44.229319
1339.000000	44.591078
1338.000000	44.924002
1337.000000	45.261362
1336.000000	45.579061
1335.000000	45.897667
1334.000000	46.216475
1333.000000	46.528931
1332.000000	46.830397
1331.000000	47.116336
1330.000000	47.412055
1329.000000	47.697490
1328.000000	47.958022
1327.000000	48.222586
1326.000000	48.465876
1325.000000	48.707654
1324.000000	48.951045
1323.000000	49.166205
1322.000000	49.361805
1321.000000	49.577066
1320.000000	49.786479
1319.000000	49.975123
1318.000000	50.177478
1317.000000	50.342932
1316.000000	50.517459
1315.000000	50.681703
1314.000000	50.835259
1313.000000	51.008476
1312.000000	51.160621
1311.000000	51.300364
1310.000000	51.442023
1309.000000	51.571280
1308.000000	51.673416
1307.000000	51.778677
1306.000000	51.889584
1305.000000	51.980830
1304.000000	52.076110
1303.000000	52.163727
1302.000000	52.207686
1301.000000	52.271710
1300.000000	52.341178
1299.000000	52.392196
1298.000000	52.438978
1297.000000	52.471041
1296.000000	52.507942
1295.000000	52.535064
1294.000000	52.558557
1293.000000	52.585174
1292.000000	52.598080
1291.000000	52.609574
1290.000000	52.609070
1289.000000	52.578520
1288.000000	52.572672
1287.000000	52.546760
1286.000000	52.517823
1285.000000	52.474368
1284.000000	52.419317
1283.000000	52.365679
1282.000000	52.314359
1281.000000	52.247814
1280.000000	52.197402
1279.000000	52.137210
1278.000000	52.067540
1277.000000	52.014203
1276.000000	51.962783
1275.000000	51.904405
1274.000000	51.844515
1273.000000	51.799951
1272.000000	51.754580
1271.000000	51.706486
1270.000000	51.663031
1269.000000	51.612517
1268.000000	51.554442
1267.000000	51.512903
1266.000000	51.451904
1265.000000	51.387981
1264.000000	51.340492
1263.000000	51.286047
1262.000000	51.236441
1261.000000	51.181088
1260.000000	51.132491
1259.000000	51.066753
1258.000000	50.994260
1257.000000	50.934471
1256.000000	50.873371
1255.000000	50.807835
1254.000000	50.737761
1253.000000	50.654178
1252.000000	50.582290
1251.000000	50.502033
1250.000000	50.402821
1249.000000	50.312886
1248.000000	50.218010
1247.000000	50.100650
1246.000000	49.991355
1245.000000	49.869156
1244.000000	49.734857
1243.000000	49.598744
1242.000000	49.460110
1241.000000	49.315023
1240.000000	49.164693
1239.000000	48.998534
1238.000000	48.842860
1237.000000	48.682750
1236.000000	48.507819
1235.000000	48.345088
1234.000000	48.173988
1233.000000	47.999763
1232.000000	47.830478
1231.000000	47.639617
1230.000000	47.442908
1229.000000	47.256483
1228.000000	47.055337
1227.000000	46.857620
1226.000000	46.668775
1225.000000	46.476099
1224.000000	46.279188
1223.000000	46.074614
1222.000000	45.873671
1221.000000	45.678474
1220.000000	45.480454
1219.000000	45.284249
1218.000000	45.097521
1217.000000	44.925817
1216.000000	44.761371
1215.000000	44.587550
1214.000000	44.430364
1213.000000	44.291931
1212.000000	44.148458
1211.000000	44.002766
1210.000000	43.859796
1209.000000	43.733261
1208.000000	43.608541
1207.000000	43.490273
1206.000000	43.381181
1205.000000	43.292455
1204.000000	43.229036
1203.000000	43.174187
1202.000000	43.120448
1201.000000	43.081529
1200.000000	43.045636
1199.000000	42.994618
1198.000000	42.911438
1197.000000	42.806681
1196.000000	42.669862
1195.000000	42.486663
1194.000000	42.232484
1193.000000	41.903190
1192.000000	41.533163
1191.000000	41.125327
1190.000000	40.660424
1189.000000	40.178481
1188.000000	39.770846
1187.000000	39.444476
1186.000000	39.242222
1185.000000	39.140792
1184.000000	39.172552
1183.000000	39.357162
1182.000000	39.666997
1181.000000	40.105887
1180.000000	40.615355
1179.000000	41.124419
1178.000000	41.644070
1177.000000	42.133474
1176.000000	42.567525
1175.000000	42.930595
1174.000000	43.291648
1173.000000	43.619531
1172.000000	43.943279
1171.000000	44.291830
1170.000000	44.662866
1169.000000	45.020088
1168.000000	45.397878
1167.000000	45.775266
1166.000000	46.172515
1165.000000	46.543853
1164.000000	46.944632
1163.000000	47.383119
1162.000000	47.789644
1161.000000	48.222183
1160.000000	48.633346
1159.000000	49.051870
1158.000000	49.485417
1157.000000	49.864014
1156.000000	50.221236
1155.000000	50.575635
1154.000000	50.868229
1153.000000	51.118375
1152.000000	51.309640
1151.000000	51.455029
1150.000000	51.581968
1149.000000	51.672206
1148.000000	51.759621
1147.000000	51.853489
1146.000000	52.002004
1145.000000	52.206476
1144.000000	52.458337
1143.000000	52.783295
1142.000000	53.161287
1141.000000	53.564486
1140.000000	54.016685
1139.000000	54.467775
1138.000000	54.936509
1137.000000	55.410588
1136.000000	55.921870
1135.000000	56.448276
1134.000000	56.997671
1133.000000	57.515104
1132.000000	57.949961
1131.000000	58.420410
1130.000000	58.826431
1129.000000	59.192223
1128.000000	59.514157
1127.000000	59.761884
1126.000000	59.999124
1125.000000	60.183936
1124.000000	60.311076
1123.000000	60.442451
1122.000000	60.556383
1121.000000	60.635127
1120.000000	60.720929
1119.000000	60.780315
1118.000000	60.845851
1117.000000	60.884769
1116.000000	60.896263
1115.000000	60.912496
1114.000000	60.944155
1113.000000	60.929031
1112.000000	60.944962
1111.000000	60.949499
1110.000000	60.954238
1109.000000	60.953532
1108.000000	60.965227
1107.000000	60.957565
1106.000000	60.965832
1105.000000	60.933871
1104.000000	60.964018
1103.000000	60.970067
1102.000000	60.923788
1101.000000	60.946676
1100.000000	60.952826
1099.000000	60.943449
1098.000000	60.907253
1097.000000	60.901506
1096.000000	60.884568
1095.000000	60.879526
1094.000000	60.841818
1093.000000	60.818023
1092.000000	60.789994
1091.000000	60.746538
1090.000000	60.707822
1089.000000	60.681809
1088.000000	60.630691
1087.000000	60.591167
1086.000000	60.532891
1085.000000	60.511314
1084.000000	60.452029
1083.000000	60.415228
1082.000000	60.361993
1081.000000	60.314706
1080.000000	60.274174
1079.000000	60.229610
1078.000000	60.184440
1077.000000	60.136548
1076.000000	60.115274
1075.000000	60.064358
1074.000000	60.001342
1073.000000	59.975531
1072.000000	59.937016
1071.000000	59.886705
1070.000000	59.844358
1069.000000	59.811388
1068.000000	59.759060
1067.000000	59.725587
1066.000000	59.682434
1065.000000	59.650371
1064.000000	59.612562
1063.000000	59.565174
1062.000000	59.537347
1061.000000	59.493992
1060.000000	59.464551
1059.000000	59.426540
1058.000000	59.387017
1057.000000	59.335193
1056.000000	59.298291
1055.000000	59.253122
1054.000000	59.233158
1053.000000	59.199684
1052.000000	59.160867
1051.000000	59.125377
1050.000000	59.103397
1049.000000	59.069318
1048.000000	59.055404
1047.000000	59.039474
1046.000000	59.030097
1045.000000	58.999950
1044.000000	58.979584
1043.000000	58.984020
1042.000000	58.964662
1041.000000	58.960528
1040.000000	58.954882
1039.000000	58.949437
1038.000000	58.931490
1037.000000	58.920299
1036.000000	58.890959
1035.000000	58.881885
1034.000000	58.874020
1033.000000	58.841454
1032.000000	58.834799
1031.000000	58.809190
1030.000000	58.788723
1029.000000	58.762508
1028.000000	58.735185
1027.000000	58.695157
1026.000000	58.667329
1025.000000	58.636275
1024.000000	58.594836
1023.000000	58.568521
1022.000000	58.535350
1021.000000	58.500162
1020.000000	58.461445
1019.000000	58.429585
1018.000000	58.415167
1017.000000	58.408109
1016.000000	58.394094
1015.000000	58.393388
1014.000000	58.403068
1013.000000	58.414259
1012.000000	58.431803
1011.000000	58.465478
1010.000000	58.523251
1009.000000	58.576890
1008.000000	58.632948
1007.000000	58.694552
1006.000000	58.771381
1005.000000	58.838832
1004.000000	58.913544
1003.000000	58.989566
1002.000000	59.053186
1001.000000	59.126889
1000.000000	59.214304
999.000000	59.296476
998.000000	59.387723
997.000000	59.485119
996.000000	59.593405
995.000000	59.691609
994.000000	59.804633
993.000000	59.910398
992.000000	59.998620
991.000000	60.118098
990.000000	60.234550
989.000000	60.348986
988.000000	60.464632
987.000000	60.583606
986.000000	60.705402
985.000000	60.826291
984.000000	60.941130
983.000000	61.066960
982.000000	61.197225
981.000000	61.314585
980.000000	61.421460
979.000000	61.544567
978.000000	61.670900
977.000000	61.784933
976.000000	61.886565
975.000000	62.004630
974.000000	62.126729
973.000000	62.250643
972.000000	62.362558
971.000000	62.483548
970.000000	62.595766
969.000000	62.706472
968.000000	62.821614
967.000000	62.925262
966.000000	63.034354
965.000000	63.166636
964.000000	63.289542
963.000000	63.409321
962.000000	63.528093
961.000000	63.654427
960.000000	63.786406
959.000000	63.915966
958.000000	64.046030
957.000000	64.190512
956.000000	64.320475
955.000000	64.441263
954.000000	64.581107
953.000000	64.717725
952.000000	64.849301
951.000000	64.970694
950.000000	65.101162
949.000000	65.232637
948.000000	65.339209
947.000000	65.450923
946.000000	65.569594
945.000000	65.673443
944.000000	65.787274
943.000000	65.905643
942.000000	66.016449
941.000000	66.119290
940.000000	66.220317
939.000000	66.324267
938.000000	66.426504
937.000000	66.510894
936.000000	66.609904
935.000000	66.717585
934.000000	66.826476
933.000000	66.932342
932.000000	67.007658
931.000000	67.074101
930.000000	67.161617
929.000000	67.249234
928.000000	67.304083
927.000000	67.361452
926.000000	67.436768
925.000000	67.507043
924.000000	67.570563
923.000000	67.641140
922.000000	67.712726
921.000000	67.777455
920.000000	67.850553
919.000000	67.929902
918.000000	67.991909
917.000000	68.038490
916.000000	68.085172
915.000000	68.142542
914.000000	68.199709
913.000000	68.253449
912.000000	68.296602
911.000000	68.316868
910.000000	68.364659
909.000000	68.410332
908.000000	68.450864
907.000000	68.510250
906.000000	68.570140
905.000000	68.628416
904.000000	68.690524
903.000000	68.783586
902.000000	68.860818
901.000000	68.938553
900.000000	69.035244
899.000000	69.116207
898.000000	69.203924
897.000000	69.295574
896.000000	69.377444
895.000000	69.439350
894.000000	69.512247
893.000000	69.575968
892.000000	69.636261
891.000000	69.693832
890.000000	69.717828
889.000000	69.744043
888.000000	69.770156
887.000000	69.789918
886.000000	69.821880
885.000000	69.846178
884.000000	69.861605
883.000000	69.878039
882.000000	69.883383
881.000000	69.912924
880.000000	69.947003
879.000000	69.966563
878.000000	69.992072
877.000000	70.022924
876.000000	70.045509
875.000000	70.066884
874.000000	70.084125
873.000000	70.107919
872.000000	70.112356
871.000000	70.107415
870.000000	70.074446
869.000000	70.074546
868.000000	70.139982
867.000000	70.219734
866.000000	70.350101
865.000000	70.478249
864.000000	70.596718
863.000000	70.726883
862.000000	70.851603
861.000000	70.964930
860.000000	71.106287
859.000000	71.231108
858.000000	71.352400
857.000000	71.200500
856.000000	71.611000
855.000000	71.245700
854.000000	71.203600
853.000000	72.077400
852.000000	71.619800
851.000000	72.110600
850.000000	72.102300
849.000000	71.869100
848.000000	72.131600
847.000000	72.371700
846.000000	72.228200
845.000000	72.232500
844.000000	72.776100
843.000000	73.085100
842.000000	72.953500
841.000000	73.459700
840.000000	73.611700
839.000000	73.433300
838.000000	74.114500
837.000000	74.405100
836.000000	74.426400
835.000000	74.748400
834.000000	75.117500
833.000000	75.690700
832.000000	75.955200
831.000000	76.441300
830.000000	76.700100
829.000000	76.767900
828.000000	77.331100
827.000000	77.607700
826.000000	77.774400
825.000000	77.945400
824.000000	78.327000
823.000000	78.266600
822.000000	78.586400
821.000000	78.692500
820.000000	78.934200
819.000000	78.992300
818.000000	78.906200
817.000000	79.248000
816.000000	79.164100
815.000000	79.000800
814.000000	79.448500
813.000000	79.369300
812.000000	79.509900
811.000000	79.348700
810.000000	79.229300
809.000000	79.424800
808.000000	79.361600
807.000000	79.477100
806.000000	79.763300
805.000000	79.690800
804.000000	79.927200
803.000000	80.181000
802.000000	80.309500
801.000000	80.567100
800.000000	80.683700
799.000000	80.929100
798.000000	81.268400
797.000000	81.392700
796.000000	81.709800
795.000000	81.801700
794.000000	82.036300
793.000000	82.291400
792.000000	82.584000
791.000000	82.512400
790.000000	82.908300
789.000000	83.178400
788.000000	83.347100
787.000000	83.438400
786.000000	83.676500
785.000000	83.657700
784.000000	83.836300
783.000000	83.706200
782.000000	83.769900
781.000000	83.664600
780.000000	83.683000
779.000000	83.568500
778.000000	83.466100
777.000000	83.499000
776.000000	83.164300
775.000000	83.287000
774.000000	83.003900
773.000000	83.212500
772.000000	82.961700
771.000000	83.016200
770.000000	82.905500
769.000000	82.840400
768.000000	82.773300
767.000000	82.801800
766.000000	82.874300
765.000000	82.883700
764.000000	82.938000
763.000000	82.938100
762.000000	82.888800
761.000000	83.095600
760.000000	83.099300
759.000000	83.202900
758.000000	83.211000
757.000000	83.256600
756.000000	83.183100
755.000000	82.958300
754.000000	82.955000
753.000000	82.924100
752.000000	82.789600
751.000000	82.738400
750.000000	82.546100
749.000000	82.362000
748.000000	82.149700
747.000000	82.056600
746.000000	81.816300
745.000000	81.464800
744.000000	81.188700
743.000000	80.867000
742.000000	80.708100
741.000000	80.285800
740.000000	80.048600
739.000000	79.770300
738.000000	79.436500
737.000000	79.116800
736.000000	78.837100
735.000000	78.559900
734.000000	78.330000
733.000000	78.079600
732.000000	77.765700
731.000000	77.492500
730.000000	77.224900
729.000000	77.076900
728.000000	76.937200
727.000000	76.719400
726.000000	76.550200
725.000000	76.395200
724.000000	76.213000
723.000000	76.092800
722.000000	75.984800
721.000000	75.765700
720.000000	75.665400
719.000000	75.481500
718.000000	75.229900
717.000000	75.105700
716.000000	74.915200
715.000000	74.781400
714.000000	74.643300
713.000000	74.496500
712.000000	74.419400
711.000000	74.315700
710.000000	74.174500
709.000000	74.125200
708.000000	74.155000
707.000000	74.120800
706.000000	74.164300
705.000000	74.207700
704.000000	74.270100
703.000000	74.351900
702.000000	74.344200
701.000000	74.320900
700.000000	74.389300
699.000000	74.448700
698.000000	74.459200
697.000000	74.390700
696.000000	74.344800
695.000000	74.247600
694.000000	74.086300
693.000000	73.905100
692.000000	73.665900
691.000000	73.535900
690.000000	73.411100
689.000000	73.196800
688.000000	72.894000
687.000000	72.671000
686.000000	72.435300
685.000000	72.203000
684.000000	71.913100
683.000000	71.548900
682.000000	71.119200
681.000000	70.734300
680.000000	70.345500
679.000000	69.859100
678.000000	69.286600
677.000000	68.702400
676.000000	68.042800
675.000000	67.426000
674.000000	66.777400
673.000000	66.059800
672.000000	65.350400
671.000000	64.617100
670.000000	63.876400
669.000000	63.155400
668.000000	62.404800
667.000000	61.665900
666.000000	60.960900
665.000000	60.327700
664.000000	59.723700
663.000000	59.087200
662.000000	58.471200
661.000000	57.849900
660.000000	57.294400
659.000000	56.778300
658.000000	56.238500
657.000000	55.823300
656.000000	55.494300
655.000000	55.201600
654.000000	55.003900
653.000000	54.929000
652.000000	54.969800
651.000000	55.080600
650.000000	55.371100
649.000000	55.756200
648.000000	56.184100
647.000000	56.682600
646.000000	57.240100
645.000000	57.839100
644.000000	58.459000
643.000000	59.104400
642.000000	59.736700
641.000000	60.357100
640.000000	60.994300
639.000000	61.644700
638.000000	62.250000
637.000000	62.856900
636.000000	63.506300
635.000000	64.216200
634.000000	64.916300
633.000000	65.671200
632.000000	66.501100
631.000000	67.342700
630.000000	68.195000
629.000000	69.038700
628.000000	69.854400
627.000000	70.676700
626.000000	71.558600
625.000000	72.395800
624.000000	73.196500
623.000000	74.009200
622.000000	74.811500
621.000000	75.598600
620.000000	76.324500
619.000000	77.050800
618.000000	77.743800
617.000000	78.395400
616.000000	79.021500
615.000000	79.699700
614.000000	80.377100
613.000000	81.000300
612.000000	81.545700
611.000000	82.140200
610.000000	82.707200
609.000000	83.225400
608.000000	83.786500
607.000000	84.265000
606.000000	84.722800
605.000000	85.199100
604.000000	85.633200
603.000000	86.004200
602.000000	86.353800
601.000000	86.728500
600.000000	87.076000
599.000000	87.364200
598.000000	87.655200
597.000000	87.934800
596.000000	88.150200
595.000000	88.375800
594.000000	88.536000
593.000000	88.766500
592.000000	88.927900
591.000000	89.089300
590.000000	89.202800
589.000000	89.339500
588.000000	89.416600
587.000000	89.488400
586.000000	89.545400
585.000000	89.579600
584.000000	89.576800
583.000000	89.565100
582.000000	89.601500
581.000000	89.598000
580.000000	89.513000
579.000000	89.453700
578.000000	89.429000
577.000000	89.357100
576.000000	89.288300
575.000000	89.175900
574.000000	89.053300
573.000000	88.919000
572.000000	88.776000
571.000000	88.602800
570.000000	88.436700
569.000000	88.233900
568.000000	87.990900
567.000000	87.817000
566.000000	87.583500
565.000000	87.294200
564.000000	87.012800
563.000000	86.676400
562.000000	86.359000
561.000000	86.032800
560.000000	85.642100
559.000000	85.249000
558.000000	84.804600
557.000000	84.360100
556.000000	83.894000
555.000000	83.378500
554.000000	82.827500
553.000000	82.261500
552.000000	81.606200
551.000000	80.952500
550.000000	80.244700
549.000000	79.464900
548.000000	78.634900
547.000000	77.774700
546.000000	76.897200
545.000000	75.941200
544.000000	74.942400
543.000000	73.853900
542.000000	72.795700
541.000000	71.647800
540.000000	70.427200
539.000000	69.250900
538.000000	68.017700
537.000000	66.771200
536.000000	65.389600
535.000000	64.040100
534.000000	62.653000
533.000000	61.223700
532.000000	59.774300
531.000000	58.327300
530.000000	56.886300
529.000000	55.441400
528.000000	54.045500
527.000000	52.663700
526.000000	51.316300
525.000000	49.978300
524.000000	48.711900
523.000000	47.441200
522.000000	46.241700
521.000000	45.102900
520.000000	44.027300
519.000000	43.014900
518.000000	42.058300
517.000000	41.139800
516.000000	40.352800
515.000000	39.551800
514.000000	38.813500
513.000000	38.137900
512.000000	37.503700
511.000000	36.910800
510.000000	36.402600
509.000000	35.872300
508.000000	35.435100
507.000000	35.058200
506.000000	34.653400
505.000000	34.297700
504.000000	33.973200
503.000000	33.686400
502.000000	33.411500
501.000000	33.152100
500.000000	32.966800
499.000000	32.697900
498.000000	32.457900
497.000000	32.240700
496.000000	31.991800
495.000000	31.712200
494.000000	31.448900
493.000000	31.147400
492.000000	30.888100
491.000000	30.586700
490.000000	30.257300
489.000000	29.906500
488.000000	29.566900
487.000000	29.234500
486.000000	28.896400
485.000000	28.532400
484.000000	28.164200
483.000000	27.834800
482.000000	27.464700
481.000000	27.101200
480.000000	26.774400
479.000000	26.502200
478.000000	26.194300
477.000000	25.885600
476.000000	25.604300
475.000000	25.346100
474.000000	25.121900
473.000000	24.890000
472.000000	24.738500
471.000000	24.589500
470.000000	24.465000
469.000000	24.361400
468.000000	24.260900
467.000000	24.226900
466.000000	24.198400
465.000000	24.234600
464.000000	24.241000
463.000000	24.283100
462.000000	24.338600
461.000000	24.422000
460.000000	24.501000
459.000000	24.558800
458.000000	24.675600
457.000000	24.768900
456.000000	24.883600
455.000000	24.977000
454.000000	25.092900
453.000000	25.148100
452.000000	25.215300
451.000000	25.297400
450.000000	25.352500
449.000000	25.399200
448.000000	25.394400
447.000000	25.411000
446.000000	25.436000
445.000000	25.457500
444.000000	25.422500
443.000000	25.313300
442.000000	25.236600
441.000000	25.148600
440.000000	24.998000
439.000000	24.873900
438.000000	24.696000
437.000000	24.567600
436.000000	24.376000
435.000000	24.165700
434.000000	23.959000
433.000000	23.716700
432.000000	23.502900
431.000000	23.247400
430.000000	22.921400
429.000000	22.684900
428.000000	22.375000
427.000000	22.080000
426.000000	21.773700
425.000000	21.437600
424.000000	21.124500
423.000000	20.711500
422.000000	20.327600
421.000000	19.958100
420.000000	19.550000
419.000000	19.172700
418.000000	18.766200
417.000000	18.339600
416.000000	17.917000
415.000000	17.501700
414.000000	17.062200
413.000000	16.647500
412.000000	16.210300
411.000000	15.766200
410.000000	15.380300
409.000000	14.933000
408.000000	14.523200
407.000000	14.113200
406.000000	13.730100
405.000000	13.342900
404.000000	12.970700
403.000000	12.600400
402.000000	12.218000
401.000000	11.883800
400.000000	11.557800
399.000000	11.213900
398.000000	10.889300
397.000000	10.606300
396.000000	10.341300
395.000000	10.069100
394.000000	9.817100
393.000000	9.535200
392.000000	9.313700
391.000000	9.090800
390.000000	8.871900
389.000000	8.694400
388.000000	8.520100
387.000000	8.330600
386.000000	8.172900
385.000000	8.028400
384.000000	7.890300
383.000000	7.764500
382.000000	7.632200
381.000000	7.523400
380.000000	7.427100
379.000000	7.328700
378.000000	7.216800
377.000000	7.160900
376.000000	7.139800
375.000000	7.023000
374.000000	6.723300
373.000000	6.671400
372.000000	6.574300
371.000000	6.571500
370.000000	6.604000
369.000000	6.618300
368.000000	6.514900
367.000000	6.409800
366.000000	6.465300
365.000000	6.605900
364.000000	6.583900
363.000000	6.355100
362.000000	6.324600
361.000000	6.288100
360.000000	6.321300
359.000000	6.390100
358.000000	6.314600
357.000000	6.222800
356.000000	6.274000
355.000000	6.209600
354.000000	6.078900
353.000000	6.096500
352.000000	6.122300
351.000000	6.060900
350.000000	6.023800
349.000000	6.016000
348.000000	5.963300
347.000000	6.003400
346.000000	5.899000
345.000000	5.859200
344.000000	6.046200
343.000000	6.025000
342.000000	6.075300
341.000000	6.152300
340.000000	6.005900
339.000000	5.907300
338.000000	6.079300
337.000000	6.154900
336.000000	5.988200
335.000000	5.946200
334.000000	6.097100
333.000000	6.132100
332.000000	5.891200
331.000000	5.887400
330.000000	6.069300
329.000000	6.104600
328.000000	5.837900
327.000000	5.824000
326.000000	6.080800
325.000000	6.034200
324.000000	6.079600
323.000000	6.433100
322.000000	6.523900
321.000000	6.415600
320.000000	6.606700
319.000000	6.288400
318.000000	6.173000
317.000000	6.403100
316.000000	6.080600
315.000000	5.831100
314.000000	5.878000
313.000000	5.818800
312.000000	5.777000
311.000000	5.824700
310.000000	5.877800
309.000000	5.884900
308.000000	5.894100
307.000000	5.882600
306.000000	5.879000
305.000000	5.907000
304.000000	5.904300
303.000000	5.900600
302.000000	5.926100
301.000000	5.938300
300.000000	5.901600
299.000000	5.935300
298.000000	5.979000
297.000000	5.999000
296.000000	5.970600
295.000000	5.995500
294.000000	6.012800
293.000000	6.019200
292.000000	6.027300
291.000000	6.044900
290.000000	6.064500
289.000000	6.079400
288.000000	6.080200
287.000000	6.107200
286.000000	6.135700
285.000000	6.151400
284.000000	6.158700
283.000000	6.156200
282.000000	6.096300
281.000000	6.110000
280.000000	6.129000
279.000000	6.113800
278.000000	6.177800
277.000000	6.174800
276.000000	6.180700
275.000000	6.187400
274.000000	6.205900
273.000000	6.207200
272.000000	6.178000
271.000000	6.216400
270.000000	6.203200
269.000000	6.257000
268.000000	6.259500
267.000000	6.254700
266.000000	6.284800
265.000000	6.346900
264.000000	6.406200
263.000000	6.404900
262.000000	6.448600
261.000000	6.426900
260.000000	6.518700
259.000000	6.484800
258.000000	6.505100
257.000000	6.535900
256.000000	6.530100
255.000000	6.576500
254.000000	6.574700
253.000000	6.567700
252.000000	6.591100
251.000000	6.626800
250.000000	6.604800
