PE UV       SUBTECH     SPECTRUM    ASCII       PEDS        4.00        
   -1
CICIMAUCR0002-1.Sample.ASC
24/05/03
09:51:02.00
24/05/03
09:51:02.00
Vinicio Soto Monge
C. kalinini
250,000000
1
Lambda 1050
1050L1511233
PerkinElmer UV WinLab 6.3.2.0749 / 2.02.05 Lambda 900 UV/VIS/NIR, Aug  7 2015 09:38:08

0
0
3350/servo 860,8/2
0
0
UV/VIS
1
1
1
DoubleDePol,CommonBeamDepol,RBeamAtt,SBeamAtt,60mm sphere, WB InGaAs Detector
0
0
0
0
Program
Program
3350/servo 860,8/2
3350/0,2 860,8/0,2
3350/0,2 860,8/0,2
0
15.00
 
 
 
0
 
860,8
319,2
860,8
Front
100
on
S:100 R:100
0
0
0
0
 
0
 
 
 
0
 
 
0
0
0
0
0
 
 
 
 
0
0


0
0
#HDR
-1
-1
#GR
nm
%R
1.0
0.0
2500,000000
-1,000000
2251
8
99,963300
5,163900
#DATA
2500.000000	5.347784
2499.000000	5.404126
2498.000000	5.410063
2497.000000	5.389035
2496.000000	5.393965
2495.000000	5.386620
2494.000000	5.397788
2493.000000	5.368913
2492.000000	5.287719
2491.000000	5.322330
2490.000000	5.351004
2489.000000	5.309753
2488.000000	5.328869
2487.000000	5.330479
2486.000000	5.264378
2485.000000	5.262868
2484.000000	5.341949
2483.000000	5.212261
2482.000000	5.217795
2481.000000	5.253512
2480.000000	5.213670
2479.000000	5.232886
2478.000000	5.257335
2477.000000	5.311363
2476.000000	5.267295
2475.000000	5.262164
2474.000000	5.222523
2473.000000	5.252505
2472.000000	5.278262
2471.000000	5.222423
2470.000000	5.216889
2469.000000	5.218398
2468.000000	5.195459
2467.000000	5.237414
2466.000000	5.219807
2465.000000	5.214474
2464.000000	5.216889
2463.000000	5.231578
2462.000000	5.222825
2461.000000	5.243652
2460.000000	5.249185
2459.000000	5.269911
2458.000000	5.313174
2457.000000	5.272326
2456.000000	5.316192
2455.000000	5.319613
2454.000000	5.321525
2453.000000	5.347985
2452.000000	5.346677
2451.000000	5.350400
2450.000000	5.356236
2449.000000	5.363379
2448.000000	5.385614
2447.000000	5.401108
2446.000000	5.426362
2445.000000	5.446987
2444.000000	5.439642
2443.000000	5.475963
2442.000000	5.460167
2441.000000	5.485521
2440.000000	5.500914
2439.000000	5.535424
2438.000000	5.546391
2437.000000	5.557558
2436.000000	5.553031
2435.000000	5.580498
2434.000000	5.572851
2433.000000	5.580498
2432.000000	5.596495
2431.000000	5.609574
2430.000000	5.629093
2429.000000	5.631206
2428.000000	5.655352
2427.000000	5.646297
2426.000000	5.642172
2425.000000	5.665615
2424.000000	5.679197
2423.000000	5.679600
2422.000000	5.682115
2421.000000	5.686441
2420.000000	5.710689
2419.000000	5.708173
2418.000000	5.691271
2417.000000	5.717933
2416.000000	5.739665
2415.000000	5.722259
2414.000000	5.720750
2413.000000	5.740369
2412.000000	5.738759
2411.000000	5.749826
2410.000000	5.747814
2409.000000	5.760290
2408.000000	5.757171
2407.000000	5.756467
2406.000000	5.770753
2405.000000	5.777595
2404.000000	5.765723
2403.000000	5.789870
2402.000000	5.805867
2401.000000	5.803452
2400.000000	5.814821
2399.000000	5.836855
2398.000000	5.860197
2397.000000	5.856977
2396.000000	5.846815
2395.000000	5.847218
2394.000000	5.858788
2393.000000	5.870660
2392.000000	5.879011
2391.000000	5.881728
2390.000000	5.878609
2389.000000	5.888670
2388.000000	5.890280
2387.000000	5.890280
2386.000000	5.887261
2385.000000	5.878810
2384.000000	5.868246
2383.000000	5.883036
2382.000000	5.884645
2381.000000	5.882432
2380.000000	5.881728
2379.000000	5.860901
2378.000000	5.852248
2377.000000	5.852550
2376.000000	5.845809
2375.000000	5.832730
2374.000000	5.830718
2373.000000	5.832529
2372.000000	5.821562
2371.000000	5.812105
2370.000000	5.794397
2369.000000	5.778400
2368.000000	5.773168
2367.000000	5.755461
2366.000000	5.732622
2365.000000	5.705256
2364.000000	5.682618
2363.000000	5.661289
2362.000000	5.651328
2361.000000	5.634928
2360.000000	5.617020
2359.000000	5.604745
2358.000000	5.588949
2357.000000	5.580800
2356.000000	5.564802
2355.000000	5.557558
2354.000000	5.560275
2353.000000	5.558263
2352.000000	5.572751
2351.000000	5.572751
2350.000000	5.577983
2349.000000	5.583013
2348.000000	5.585830
2347.000000	5.590861
2346.000000	5.608568
2345.000000	5.632614
2344.000000	5.641669
2343.000000	5.642977
2342.000000	5.663703
2341.000000	5.687347
2340.000000	5.695194
2339.000000	5.684228
2338.000000	5.689661
2337.000000	5.706765
2336.000000	5.709079
2335.000000	5.706564
2334.000000	5.693987
2333.000000	5.684328
2332.000000	5.678694
2331.000000	5.667929
2330.000000	5.666218
2329.000000	5.648511
2328.000000	5.629495
2327.000000	5.616014
2326.000000	5.589553
2325.000000	5.566110
2324.000000	5.549711
2323.000000	5.522546
2322.000000	5.496085
2321.000000	5.478076
2320.000000	5.456847
2319.000000	5.422639
2318.000000	5.384507
2317.000000	5.359455
2316.000000	5.342251
2315.000000	5.308445
2314.000000	5.286210
2313.000000	5.286814
2312.000000	5.263774
2311.000000	5.247877
2310.000000	5.240935
2309.000000	5.250393
2308.000000	5.240633
2307.000000	5.230773
2306.000000	5.239627
2305.000000	5.253310
2304.000000	5.253009
2303.000000	5.278664
2302.000000	5.312268
2301.000000	5.311061
2300.000000	5.341546
2299.000000	5.357845
2298.000000	5.378974
2297.000000	5.401913
2296.000000	5.437328
2295.000000	5.444773
2294.000000	5.464393
2293.000000	5.474856
2292.000000	5.497494
2291.000000	5.500613
2290.000000	5.534418
2289.000000	5.518320
2288.000000	5.535122
2287.000000	5.540354
2286.000000	5.549107
2285.000000	5.545888
2284.000000	5.551723
2283.000000	5.552025
2282.000000	5.569431
2281.000000	5.548705
2280.000000	5.571543
2279.000000	5.566513
2278.000000	5.570437
2277.000000	5.583416
2276.000000	5.591666
2275.000000	5.578586
2274.000000	5.595086
2273.000000	5.609172
2272.000000	5.594483
2271.000000	5.625873
2270.000000	5.675173
2269.000000	5.671651
2268.000000	5.704350
2267.000000	5.719341
2266.000000	5.751839
2265.000000	5.790976
2264.000000	5.842992
2263.000000	5.894807
2262.000000	5.908490
2261.000000	5.962518
2260.000000	6.046629
2259.000000	6.099752
2258.000000	6.165350
2257.000000	6.233464
2256.000000	6.296849
2255.000000	6.370195
2254.000000	6.440421
2253.000000	6.521313
2252.000000	6.597073
2251.000000	6.663677
2250.000000	6.714788
2249.000000	6.788435
2248.000000	6.860976
2247.000000	6.923154
2246.000000	6.972855
2245.000000	7.006359
2244.000000	7.088256
2243.000000	7.127092
2242.000000	7.159590
2241.000000	7.196011
2240.000000	7.253963
2239.000000	7.290887
2238.000000	7.343909
2237.000000	7.360510
2236.000000	7.420474
2235.000000	7.434459
2234.000000	7.469673
2233.000000	7.489594
2232.000000	7.512735
2231.000000	7.557909
2230.000000	7.564047
2229.000000	7.553583
2228.000000	7.603889
2227.000000	7.616465
2226.000000	7.620691
2225.000000	7.610328
2224.000000	7.620188
2223.000000	7.612541
2222.000000	7.620892
2221.000000	7.633971
2220.000000	7.630148
2219.000000	7.646648
2218.000000	7.632563
2217.000000	7.618880
2216.000000	7.625621
2215.000000	7.626928
2214.000000	7.621294
2213.000000	7.607812
2212.000000	7.616666
2211.000000	7.609925
2210.000000	7.594733
2209.000000	7.615358
2208.000000	7.621093
2207.000000	7.589904
2206.000000	7.585678
2205.000000	7.606504
2204.000000	7.591111
2203.000000	7.610328
2202.000000	7.592117
2201.000000	7.583464
2200.000000	7.585577
2199.000000	7.596141
2198.000000	7.583766
2197.000000	7.575114
2196.000000	7.580144
2195.000000	7.568473
2194.000000	7.565958
2193.000000	7.577528
2192.000000	7.557809
2191.000000	7.550565
2190.000000	7.547949
2189.000000	7.549055
2188.000000	7.543622
2187.000000	7.536882
2186.000000	7.522897
2185.000000	7.530442
2184.000000	7.549156
2183.000000	7.537083
2182.000000	7.498046
2181.000000	7.505893
2180.000000	7.511930
2179.000000	7.504887
2178.000000	7.512735
2177.000000	7.497543
2176.000000	7.498448
2175.000000	7.490701
2174.000000	7.501567
2173.000000	7.512232
2172.000000	7.516156
2171.000000	7.531046
2170.000000	7.533058
2169.000000	7.545232
2168.000000	7.562537
2167.000000	7.557909
2166.000000	7.565556
2165.000000	7.572699
2164.000000	7.583766
2163.000000	7.588495
2162.000000	7.609825
2161.000000	7.626928
2160.000000	7.626224
2159.000000	7.633770
2158.000000	7.645441
2157.000000	7.649868
2156.000000	7.668984
2155.000000	7.690917
2154.000000	7.699771
2153.000000	7.699972
2152.000000	7.714863
2151.000000	7.739613
2150.000000	7.743134
2149.000000	7.752491
2148.000000	7.784888
2147.000000	7.781266
2146.000000	7.797666
2145.000000	7.788309
2144.000000	7.789617
2143.000000	7.807324
2142.000000	7.825434
2141.000000	7.828251
2140.000000	7.826642
2139.000000	7.849380
2138.000000	7.854410
2137.000000	7.855919
2136.000000	7.862258
2135.000000	7.865679
2134.000000	7.859441
2133.000000	7.870307
2132.000000	7.877148
2131.000000	7.888316
2130.000000	7.862560
2129.000000	7.855014
2128.000000	7.864371
2127.000000	7.866182
2126.000000	7.854612
2125.000000	7.848877
2124.000000	7.848675
2123.000000	7.859944
2122.000000	7.848374
2121.000000	7.824730
2120.000000	7.814568
2119.000000	7.821812
2118.000000	7.810644
2117.000000	7.802998
2116.000000	7.792736
2115.000000	7.775833
2114.000000	7.772211
2113.000000	7.771305
2112.000000	7.762854
2111.000000	7.752692
2110.000000	7.737299
2109.000000	7.729854
2108.000000	7.720597
2107.000000	7.708625
2106.000000	7.696451
2105.000000	7.689006
2104.000000	7.690716
2103.000000	7.682164
2102.000000	7.671700
2101.000000	7.661841
2100.000000	7.637996
2099.000000	7.632563
2098.000000	7.640410
2097.000000	7.634374
2096.000000	7.628639
2095.000000	7.626325
2094.000000	7.627029
2093.000000	7.611937
2092.000000	7.606203
2091.000000	7.611535
2090.000000	7.596544
2089.000000	7.588193
2088.000000	7.593324
2087.000000	7.595538
2086.000000	7.594330
2085.000000	7.586986
2084.000000	7.590708
2083.000000	7.593224
2082.000000	7.583263
2081.000000	7.582056
2080.000000	7.579138
2079.000000	7.569983
2078.000000	7.562537
2077.000000	7.542315
2076.000000	7.537586
2075.000000	7.542616
2074.000000	7.540906
2073.000000	7.535674
2072.000000	7.517061
2071.000000	7.492411
2070.000000	7.485369
2069.000000	7.479835
2068.000000	7.472692
2067.000000	7.478125
2066.000000	7.461826
2065.000000	7.428221
2064.000000	7.410816
2063.000000	7.404880
2062.000000	7.399245
2061.000000	7.411621
2060.000000	7.391297
2059.000000	7.369263
2058.000000	7.359102
2057.000000	7.358599
2056.000000	7.366446
2055.000000	7.375702
2054.000000	7.389989
2053.000000	7.408099
2052.000000	7.416752
2051.000000	7.447841
2050.000000	7.480841
2049.000000	7.523903
2048.000000	7.569580
2047.000000	7.610428
2046.000000	7.668481
2045.000000	7.734482
2044.000000	7.791629
2043.000000	7.843444
2042.000000	7.917192
2041.000000	7.990537
2040.000000	8.070020
2039.000000	8.146786
2038.000000	8.207656
2037.000000	8.263294
2036.000000	8.323862
2035.000000	8.383424
2034.000000	8.455763
2033.000000	8.529209
2032.000000	8.570359
2031.000000	8.620464
2030.000000	8.690086
2029.000000	8.740593
2028.000000	8.775203
2027.000000	8.808003
2026.000000	8.864647
2025.000000	8.915154
2024.000000	8.966566
2023.000000	8.999969
2022.000000	9.053595
2021.000000	9.090217
2020.000000	9.139315
2019.000000	9.159739
2018.000000	9.202600
2017.000000	9.226545
2016.000000	9.257131
2015.000000	9.316592
2014.000000	9.341845
2013.000000	9.346474
2012.000000	9.392453
2011.000000	9.417706
2010.000000	9.427667
2009.000000	9.457045
2008.000000	9.484814
2007.000000	9.496183
2006.000000	9.509061
2005.000000	9.526165
2004.000000	9.535119
2003.000000	9.523449
2002.000000	9.537635
2001.000000	9.535220
2000.000000	9.528580
1999.000000	9.520128
1998.000000	9.539848
1997.000000	9.517513
1996.000000	9.496887
1995.000000	9.473646
1994.000000	9.495378
1993.000000	9.446884
1992.000000	9.435112
1991.000000	9.404526
1990.000000	9.389233
1989.000000	9.363074
1988.000000	9.335809
1987.000000	9.296369
1986.000000	9.296168
1985.000000	9.237713
1984.000000	9.205417
1983.000000	9.189822
1982.000000	9.133077
1981.000000	9.098266
1980.000000	9.071604
1979.000000	9.033774
1978.000000	9.007515
1977.000000	8.988902
1976.000000	8.927126
1975.000000	8.897144
1974.000000	8.876620
1973.000000	8.825207
1972.000000	8.793615
1971.000000	8.765947
1970.000000	8.746529
1969.000000	8.698437
1968.000000	8.664531
1967.000000	8.663626
1966.000000	8.616942
1965.000000	8.590582
1964.000000	8.548527
1963.000000	8.530316
1962.000000	8.489770
1961.000000	8.464416
1960.000000	8.441979
1959.000000	8.402540
1958.000000	8.361189
1957.000000	8.347002
1956.000000	8.313901
1955.000000	8.280398
1954.000000	8.274663
1953.000000	8.236632
1952.000000	8.200714
1951.000000	8.183811
1950.000000	8.157854
1949.000000	8.136121
1948.000000	8.120627
1947.000000	8.095374
1946.000000	8.070624
1945.000000	8.066096
1944.000000	8.066398
1943.000000	8.064989
1942.000000	8.064185
1941.000000	8.053419
1940.000000	8.083502
1939.000000	8.086822
1938.000000	8.098493
1937.000000	8.088935
1936.000000	8.093161
1935.000000	8.121633
1934.000000	8.143366
1933.000000	8.153125
1932.000000	8.200010
1931.000000	8.219931
1930.000000	8.270437
1929.000000	8.312895
1928.000000	8.368231
1927.000000	8.417631
1926.000000	8.453147
1925.000000	8.502547
1924.000000	8.555368
1923.000000	8.646119
1922.000000	8.736669
1921.000000	8.837582
1920.000000	8.924209
1919.000000	8.970389
1918.000000	9.014356
1917.000000	9.104906
1916.000000	9.180465
1915.000000	9.291641
1914.000000	9.411670
1913.000000	9.558059
1912.000000	9.649112
1911.000000	9.722055
1910.000000	9.799626
1909.000000	9.897118
1908.000000	10.019160
1907.000000	10.166253
1906.000000	10.331658
1905.000000	10.469998
1904.000000	10.578155
1903.000000	10.705428
1902.000000	10.821634
1901.000000	10.987140
1900.000000	11.144998
1899.000000	11.283037
1898.000000	11.404978
1897.000000	11.524604
1896.000000	11.615557
1895.000000	11.731159
1894.000000	11.853200
1893.000000	12.019410
1892.000000	12.192562
1891.000000	12.353137
1890.000000	12.494596
1889.000000	12.655675
1888.000000	12.818765
1887.000000	12.998155
1886.000000	13.214167
1885.000000	13.490848
1884.000000	13.780306
1883.000000	14.068557
1882.000000	14.357412
1881.000000	14.640632
1880.000000	14.890550
1879.000000	15.184737
1878.000000	15.466650
1877.000000	15.695439
1876.000000	15.937208
1875.000000	16.153522
1874.000000	16.370339
1873.000000	16.549125
1872.000000	16.700444
1871.000000	16.843714
1870.000000	16.962838
1869.000000	17.051376
1868.000000	17.100876
1867.000000	17.120898
1866.000000	17.149371
1865.000000	17.150478
1864.000000	17.156414
1863.000000	17.171405
1862.000000	17.180963
1861.000000	17.163960
1860.000000	17.142127
1859.000000	17.119993
1858.000000	17.098361
1857.000000	17.054595
1856.000000	17.000265
1855.000000	16.950765
1854.000000	16.873495
1853.000000	16.793006
1852.000000	16.732539
1851.000000	16.685151
1850.000000	16.641687
1849.000000	16.571964
1848.000000	16.480609
1847.000000	16.386135
1846.000000	16.318122
1845.000000	16.275966
1844.000000	16.232300
1843.000000	16.210971
1842.000000	16.195980
1841.000000	16.159055
1840.000000	16.112976
1839.000000	16.060557
1838.000000	16.017797
1837.000000	15.961053
1836.000000	15.891329
1835.000000	15.827341
1834.000000	15.762144
1833.000000	15.690308
1832.000000	15.626923
1831.000000	15.562029
1830.000000	15.488482
1829.000000	15.407088
1828.000000	15.330422
1827.000000	15.267540
1826.000000	15.193692
1825.000000	15.114309
1824.000000	15.054949
1823.000000	15.046497
1822.000000	15.046497
1821.000000	15.018930
1820.000000	14.993475
1819.000000	14.975063
1818.000000	14.971240
1817.000000	14.970033
1816.000000	14.970234
1815.000000	14.966914
1814.000000	14.959268
1813.000000	14.935523
1812.000000	14.899203
1811.000000	14.869019
1810.000000	14.835013
1809.000000	14.790341
1808.000000	14.758347
1807.000000	14.725347
1806.000000	14.678864
1805.000000	14.640230
1804.000000	14.601796
1803.000000	14.571412
1802.000000	14.529457
1801.000000	14.499676
1800.000000	14.434480
1799.000000	14.393531
1798.000000	14.370994
1797.000000	14.334171
1796.000000	14.297447
1795.000000	14.246739
1794.000000	14.209614
1793.000000	14.159711
1792.000000	14.119064
1791.000000	14.072682
1790.000000	14.017346
1789.000000	13.968147
1788.000000	13.906171
1787.000000	13.832423
1786.000000	13.779803
1785.000000	13.725372
1784.000000	13.660780
1783.000000	13.568822
1782.000000	13.500909
1781.000000	13.429878
1780.000000	13.356331
1779.000000	13.287110
1778.000000	13.191630
1777.000000	13.097760
1776.000000	12.997551
1775.000000	12.890501
1774.000000	12.785866
1773.000000	12.658291
1772.000000	12.544399
1771.000000	12.435638
1770.000000	12.313496
1769.000000	12.211778
1768.000000	12.137427
1767.000000	12.025044
1766.000000	11.957936
1765.000000	11.930369
1764.000000	11.923326
1763.000000	11.937814
1762.000000	11.975946
1761.000000	12.015989
1760.000000	12.074444
1759.000000	12.125152
1758.000000	12.187229
1757.000000	12.230895
1756.000000	12.279288
1755.000000	12.289551
1754.000000	12.295587
1753.000000	12.285828
1752.000000	12.280093
1751.000000	12.244276
1750.000000	12.204937
1749.000000	12.138835
1748.000000	12.101408
1747.000000	12.023032
1746.000000	11.911152
1745.000000	11.810742
1744.000000	11.668780
1743.000000	11.527421
1742.000000	11.348937
1741.000000	11.180615
1740.000000	10.995591
1739.000000	10.836323
1738.000000	10.698184
1737.000000	10.566686
1736.000000	10.493944
1735.000000	10.438004
1734.000000	10.433476
1733.000000	10.458227
1732.000000	10.493541
1731.000000	10.572320
1730.000000	10.657638
1729.000000	10.752514
1728.000000	10.841958
1727.000000	10.926169
1726.000000	10.972652
1725.000000	11.034125
1724.000000	11.071049
1723.000000	11.105559
1722.000000	11.120952
1721.000000	11.155965
1720.000000	11.185343
1719.000000	11.218243
1718.000000	11.246817
1717.000000	11.302958
1716.000000	11.343001
1715.000000	11.405581
1714.000000	11.444115
1713.000000	11.496031
1712.000000	11.542714
1711.000000	11.557504
1710.000000	11.596541
1709.000000	11.596239
1708.000000	11.619279
1707.000000	11.591913
1706.000000	11.617971
1705.000000	11.597648
1704.000000	11.559013
1703.000000	11.521083
1702.000000	11.475908
1701.000000	11.402965
1700.000000	11.323684
1699.000000	11.265028
1698.000000	11.189770
1697.000000	11.186953
1696.000000	11.182225
1695.000000	11.221865
1694.000000	11.309799
1693.000000	11.424597
1692.000000	11.547041
1691.000000	11.632560
1690.000000	11.713552
1689.000000	11.784785
1688.000000	11.789413
1687.000000	11.772410
1686.000000	11.791023
1685.000000	11.844145
1684.000000	11.963470
1683.000000	12.163284
1682.000000	12.477090
1681.000000	12.839189
1680.000000	13.219902
1679.000000	13.611179
1678.000000	13.992294
1677.000000	14.322500
1676.000000	14.647373
1675.000000	14.918419
1674.000000	15.151636
1673.000000	15.359901
1672.000000	15.525205
1671.000000	15.688900
1670.000000	15.818487
1669.000000	15.916784
1668.000000	16.031984
1667.000000	16.123439
1666.000000	16.166299
1665.000000	16.233910
1664.000000	16.292365
1663.000000	16.331503
1662.000000	16.379696
1661.000000	16.422958
1660.000000	16.451029
1659.000000	16.471051
1658.000000	16.473365
1657.000000	16.472459
1656.000000	16.476484
1655.000000	16.480508
1654.000000	16.469139
1653.000000	16.453343
1652.000000	16.411489
1651.000000	16.400120
1650.000000	16.366717
1649.000000	16.339753
1648.000000	16.306652
1647.000000	16.263691
1646.000000	16.219925
1645.000000	16.176662
1644.000000	16.122433
1643.000000	16.081987
1642.000000	16.022224
1641.000000	15.978962
1640.000000	15.937409
1639.000000	15.866881
1638.000000	15.815167
1637.000000	15.772105
1636.000000	15.713751
1635.000000	15.662841
1634.000000	15.600563
1633.000000	15.536474
1632.000000	15.481037
1631.000000	15.429021
1630.000000	15.359801
1629.000000	15.311306
1628.000000	15.241180
1627.000000	15.177091
1626.000000	15.111392
1625.000000	15.053138
1624.000000	15.013497
1623.000000	14.952627
1622.000000	14.887632
1621.000000	14.821330
1620.000000	14.778067
1619.000000	14.731182
1618.000000	14.676651
1617.000000	14.616586
1616.000000	14.566381
1615.000000	14.516075
1614.000000	14.474825
1613.000000	14.438202
1612.000000	14.384275
1611.000000	14.336485
1610.000000	14.313143
1609.000000	14.275917
1608.000000	14.232453
1607.000000	14.203275
1606.000000	14.163232
1605.000000	14.116347
1604.000000	14.071877
1603.000000	14.036764
1602.000000	13.986760
1601.000000	13.962412
1600.000000	13.929512
1599.000000	13.891783
1598.000000	13.857072
1597.000000	13.829706
1596.000000	13.805358
1595.000000	13.787047
1594.000000	13.758474
1593.000000	13.724970
1592.000000	13.710985
1591.000000	13.702735
1590.000000	13.686436
1589.000000	13.667722
1588.000000	13.649210
1587.000000	13.636231
1586.000000	13.618624
1585.000000	13.612084
1584.000000	13.602325
1583.000000	13.585523
1582.000000	13.582605
1581.000000	13.580895
1580.000000	13.578480
1579.000000	13.574959
1578.000000	13.580995
1577.000000	13.587837
1576.000000	13.605947
1575.000000	13.621039
1574.000000	13.634118
1573.000000	13.637539
1572.000000	13.647298
1571.000000	13.664201
1570.000000	13.679192
1569.000000	13.710381
1568.000000	13.741671
1567.000000	13.764007
1566.000000	13.784934
1565.000000	13.804252
1564.000000	13.826487
1563.000000	13.844697
1562.000000	13.860191
1561.000000	13.872064
1560.000000	13.891079
1559.000000	13.915729
1558.000000	13.923174
1557.000000	13.931625
1556.000000	13.924784
1555.000000	13.928808
1554.000000	13.942693
1553.000000	13.936656
1552.000000	13.923878
1551.000000	13.928003
1550.000000	13.923275
1549.000000	13.932732
1548.000000	13.926897
1547.000000	13.919552
1546.000000	13.908082
1545.000000	13.901543
1544.000000	13.903756
1543.000000	13.899631
1542.000000	13.899933
1541.000000	13.904360
1540.000000	13.907378
1539.000000	13.891079
1538.000000	13.899933
1537.000000	13.908787
1536.000000	13.908082
1535.000000	13.909994
1534.000000	13.894902
1533.000000	13.889469
1532.000000	13.896411
1531.000000	13.911906
1530.000000	13.903454
1529.000000	13.892588
1528.000000	13.878000
1527.000000	13.871762
1526.000000	13.891683
1525.000000	13.877798
1524.000000	13.884036
1523.000000	13.870756
1522.000000	13.861097
1521.000000	13.859387
1520.000000	13.854356
1519.000000	13.847414
1518.000000	13.853954
1517.000000	13.850130
1516.000000	13.836246
1515.000000	13.842987
1514.000000	13.824977
1513.000000	13.838862
1512.000000	13.827593
1511.000000	13.817935
1510.000000	13.819444
1509.000000	13.799825
1508.000000	13.811898
1507.000000	13.808175
1506.000000	13.798819
1505.000000	13.790568
1504.000000	13.796706
1503.000000	13.803346
1502.000000	13.810892
1501.000000	13.795096
1500.000000	13.797209
1499.000000	13.797812
1498.000000	13.811194
1497.000000	13.827493
1496.000000	13.838057
1495.000000	13.839667
1494.000000	13.854255
1493.000000	13.872868
1492.000000	13.885042
1491.000000	13.897518
1490.000000	13.914521
1489.000000	13.897116
1488.000000	13.925689
1487.000000	13.923878
1486.000000	13.960903
1485.000000	13.969354
1484.000000	13.985653
1483.000000	14.013322
1482.000000	14.029621
1481.000000	14.063124
1480.000000	14.079121
1479.000000	14.106689
1478.000000	14.141500
1477.000000	14.158805
1476.000000	14.203778
1475.000000	14.224203
1474.000000	14.273502
1473.000000	14.308917
1472.000000	14.333466
1471.000000	14.347049
1470.000000	14.393531
1469.000000	14.396147
1468.000000	14.442026
1467.000000	14.474020
1466.000000	14.513158
1465.000000	14.535996
1464.000000	14.574027
1463.000000	14.616888
1462.000000	14.654516
1461.000000	14.720417
1460.000000	14.760158
1459.000000	14.823644
1458.000000	14.896989
1457.000000	14.957960
1456.000000	15.034424
1455.000000	15.106562
1454.000000	15.172362
1453.000000	15.243192
1452.000000	15.358593
1451.000000	15.435359
1450.000000	15.506793
1449.000000	15.578429
1448.000000	15.681957
1447.000000	15.790517
1446.000000	15.913464
1445.000000	16.016389
1444.000000	16.107241
1443.000000	16.222944
1442.000000	16.312387
1441.000000	16.428794
1440.000000	16.514213
1439.000000	16.620961
1438.000000	16.630016
1437.000000	16.718152
1436.000000	16.803570
1435.000000	16.907301
1434.000000	17.027128
1433.000000	17.155911
1432.000000	17.236701
1431.000000	17.382487
1430.000000	17.485211
1429.000000	17.634015
1428.000000	17.800124
1427.000000	17.987965
1426.000000	18.166449
1425.000000	18.364452
1424.000000	18.539616
1423.000000	18.714277
1422.000000	18.909563
1421.000000	19.110785
1420.000000	19.303757
1419.000000	19.482745
1418.000000	19.630140
1417.000000	19.811542
1416.000000	19.977047
1415.000000	20.194669
1414.000000	20.340253
1413.000000	20.500125
1412.000000	20.667340
1411.000000	20.897136
1410.000000	21.174320
1409.000000	21.443958
1408.000000	21.740157
1407.000000	22.068552
1406.000000	22.398456
1405.000000	22.692542
1404.000000	23.042769
1403.000000	23.328505
1402.000000	23.694830
1401.000000	23.975234
1400.000000	24.186919
1399.000000	24.335924
1398.000000	24.510585
1397.000000	24.695106
1396.000000	24.802760
1395.000000	24.855279
1394.000000	24.936271
1393.000000	25.044831
1392.000000	25.133067
1391.000000	25.262855
1390.000000	25.430775
1389.000000	25.665501
1388.000000	25.878897
1387.000000	26.147428
1386.000000	26.461637
1385.000000	26.818203
1384.000000	27.148610
1383.000000	27.445010
1382.000000	27.622488
1381.000000	27.659010
1380.000000	27.752075
1379.000000	27.774512
1378.000000	27.848461
1377.000000	27.928044
1376.000000	28.104818
1375.000000	28.368520
1374.000000	28.703454
1373.000000	29.084670
1372.000000	29.496471
1371.000000	29.867223
1370.000000	30.217652
1369.000000	30.576230
1368.000000	30.857036
1367.000000	31.098100
1366.000000	31.340171
1365.000000	31.533042
1364.000000	31.697944
1363.000000	31.890312
1362.000000	31.996155
1361.000000	32.063363
1360.000000	32.108639
1359.000000	32.202307
1358.000000	32.390249
1357.000000	32.721461
1356.000000	33.240212
1355.000000	33.878892
1354.000000	34.554596
1353.000000	35.292981
1352.000000	36.018488
1351.000000	36.695601
1350.000000	37.292427
1349.000000	37.828282
1348.000000	38.329224
1347.000000	38.804511
1346.000000	39.256256
1345.000000	39.706993
1344.000000	40.106621
1343.000000	40.496187
1342.000000	40.858488
1341.000000	41.217267
1340.000000	41.560754
1339.000000	41.882709
1338.000000	42.183537
1337.000000	42.485068
1336.000000	42.761246
1335.000000	43.030180
1334.000000	43.281104
1333.000000	43.523677
1332.000000	43.757598
1331.000000	43.973610
1330.000000	44.178656
1329.000000	44.371024
1328.000000	44.563091
1327.000000	44.736545
1326.000000	44.901949
1325.000000	45.062726
1324.000000	45.208813
1323.000000	45.349266
1322.000000	45.474527
1321.000000	45.602404
1320.000000	45.727162
1319.000000	45.843770
1318.000000	45.953336
1317.000000	46.048212
1316.000000	46.143189
1315.000000	46.248529
1314.000000	46.347027
1313.000000	46.417857
1312.000000	46.482953
1311.000000	46.559920
1310.000000	46.608516
1309.000000	46.655099
1308.000000	46.709932
1307.000000	46.739109
1306.000000	46.762149
1305.000000	46.790018
1304.000000	46.803701
1303.000000	46.804607
1302.000000	46.791829
1301.000000	46.782774
1300.000000	46.770298
1299.000000	46.758225
1298.000000	46.741926
1297.000000	46.719993
1296.000000	46.702185
1295.000000	46.682062
1294.000000	46.650672
1293.000000	46.618174
1292.000000	46.579338
1291.000000	46.527825
1290.000000	46.469270
1289.000000	46.404879
1288.000000	46.339481
1287.000000	46.251748
1286.000000	46.156570
1285.000000	46.069843
1284.000000	46.001428
1283.000000	45.917116
1282.000000	45.819322
1281.000000	45.735211
1280.000000	45.641240
1279.000000	45.551193
1278.000000	45.469799
1277.000000	45.387901
1276.000000	45.312745
1275.000000	45.245235
1274.000000	45.177423
1273.000000	45.112126
1272.000000	45.050451
1271.000000	44.980325
1270.000000	44.915331
1269.000000	44.853052
1268.000000	44.784637
1267.000000	44.707569
1266.000000	44.639254
1265.000000	44.579994
1264.000000	44.509063
1263.000000	44.448897
1262.000000	44.394970
1261.000000	44.333496
1260.000000	44.274337
1259.000000	44.218900
1258.000000	44.129759
1257.000000	44.066374
1256.000000	43.999870
1255.000000	43.907609
1254.000000	43.828931
1253.000000	43.742708
1252.000000	43.651655
1251.000000	43.549635
1250.000000	43.434938
1249.000000	43.295592
1248.000000	43.173550
1247.000000	43.028167
1246.000000	42.868799
1245.000000	42.700577
1244.000000	42.520081
1243.000000	42.316243
1242.000000	42.111600
1241.000000	41.899813
1240.000000	41.691347
1239.000000	41.472417
1238.000000	41.232158
1237.000000	41.008600
1236.000000	40.768542
1235.000000	40.525465
1234.000000	40.277257
1233.000000	40.023415
1232.000000	39.770278
1231.000000	39.515430
1230.000000	39.256960
1229.000000	39.001005
1228.000000	38.755413
1227.000000	38.502980
1226.000000	38.244107
1225.000000	37.987147
1224.000000	37.753729
1223.000000	37.513469
1222.000000	37.299570
1221.000000	37.084161
1220.000000	36.879720
1219.000000	36.698318
1218.000000	36.534422
1217.000000	36.373646
1216.000000	36.216592
1215.000000	36.088916
1214.000000	35.953594
1213.000000	35.829037
1212.000000	35.721887
1211.000000	35.632745
1210.000000	35.582339
1209.000000	35.508993
1208.000000	35.486456
1207.000000	35.460901
1206.000000	35.452148
1205.000000	35.446816
1204.000000	35.476295
1203.000000	35.508289
1202.000000	35.500140
1201.000000	35.474283
1200.000000	35.419148
1199.000000	35.327793
1198.000000	35.163394
1197.000000	34.973038
1196.000000	34.683378
1195.000000	34.308702
1194.000000	33.857763
1193.000000	33.345351
1192.000000	32.774584
1191.000000	32.246878
1190.000000	31.758109
1189.000000	31.426797
1188.000000	31.197705
1187.000000	31.170741
1186.000000	31.301033
1185.000000	31.538274
1184.000000	31.941322
1183.000000	32.484622
1182.000000	33.107808
1181.000000	33.736426
1180.000000	34.370578
1179.000000	34.940540
1178.000000	35.385242
1177.000000	35.807104
1176.000000	36.202707
1175.000000	36.575673
1174.000000	36.980130
1173.000000	37.425636
1172.000000	37.855547
1171.000000	38.309605
1170.000000	38.764971
1169.000000	39.215910
1168.000000	39.689789
1167.000000	40.187814
1166.000000	40.662598
1165.000000	41.181852
1164.000000	41.708350
1163.000000	42.197522
1162.000000	42.723617
1161.000000	43.178983
1160.000000	43.653566
1159.000000	44.099575
1158.000000	44.516508
1157.000000	44.885550
1156.000000	45.152169
1155.000000	45.334477
1154.000000	45.428347
1153.000000	45.486601
1152.000000	45.463762
1151.000000	45.435691
1150.000000	45.378746
1149.000000	45.379148
1148.000000	45.421807
1147.000000	45.542742
1146.000000	45.805739
1145.000000	46.169851
1144.000000	46.587387
1143.000000	47.068610
1142.000000	47.573376
1141.000000	48.073615
1140.000000	48.621242
1139.000000	49.184765
1138.000000	49.740943
1137.000000	50.290179
1136.000000	50.853199
1135.000000	51.381005
1134.000000	51.810816
1133.000000	52.245255
1132.000000	52.644379
1131.000000	52.999839
1130.000000	53.304791
1129.000000	53.557224
1128.000000	53.764483
1127.000000	53.926870
1126.000000	54.087143
1125.000000	54.216127
1124.000000	54.331628
1123.000000	54.431837
1122.000000	54.532348
1121.000000	54.612132
1120.000000	54.685075
1119.000000	54.725622
1118.000000	54.741820
1117.000000	54.771400
1116.000000	54.806412
1115.000000	54.809632
1114.000000	54.821403
1113.000000	54.831766
1112.000000	54.848367
1111.000000	54.872212
1110.000000	54.877846
1109.000000	54.878651
1108.000000	54.906017
1107.000000	54.905414
1106.000000	54.932277
1105.000000	54.934188
1104.000000	54.930466
1103.000000	54.931371
1102.000000	54.915072
1101.000000	54.904106
1100.000000	54.919499
1099.000000	54.924731
1098.000000	54.900786
1097.000000	54.882877
1096.000000	54.889316
1095.000000	54.893340
1094.000000	54.887404
1093.000000	54.850178
1092.000000	54.837803
1091.000000	54.820397
1090.000000	54.800577
1089.000000	54.784982
1088.000000	54.767979
1087.000000	54.765363
1086.000000	54.731759
1085.000000	54.712844
1084.000000	54.702280
1083.000000	54.701274
1082.000000	54.694130
1081.000000	54.686182
1080.000000	54.687289
1079.000000	54.668072
1078.000000	54.682962
1077.000000	54.686685
1076.000000	54.695237
1075.000000	54.702783
1074.000000	54.707411
1073.000000	54.723408
1072.000000	54.738701
1071.000000	54.757415
1070.000000	54.769287
1069.000000	54.783071
1068.000000	54.794943
1067.000000	54.814562
1066.000000	54.825428
1065.000000	54.844242
1064.000000	54.856416
1063.000000	54.877947
1062.000000	54.913060
1061.000000	54.937106
1060.000000	54.960649
1059.000000	54.979262
1058.000000	54.997775
1057.000000	55.019305
1056.000000	55.033995
1055.000000	55.051904
1054.000000	55.083495
1053.000000	55.119917
1052.000000	55.158753
1051.000000	55.209762
1050.000000	55.252623
1049.000000	55.301117
1048.000000	55.354039
1047.000000	55.417826
1046.000000	55.473162
1045.000000	55.534636
1044.000000	55.605064
1043.000000	55.681226
1042.000000	55.758294
1041.000000	55.847436
1040.000000	55.932955
1039.000000	55.989096
1038.000000	56.059122
1037.000000	56.141925
1036.000000	56.219093
1035.000000	56.284390
1034.000000	56.351699
1033.000000	56.425950
1032.000000	56.486216
1031.000000	56.558254
1030.000000	56.647395
1029.000000	56.710076
1028.000000	56.752332
1027.000000	56.810486
1026.000000	56.878901
1025.000000	56.944399
1024.000000	57.013016
1023.000000	57.083746
1022.000000	57.150652
1021.000000	57.224601
1020.000000	57.322093
1019.000000	57.410531
1018.000000	57.494843
1017.000000	57.593240
1016.000000	57.689425
1015.000000	57.809756
1014.000000	57.951215
1013.000000	58.090058
1012.000000	58.238762
1011.000000	58.402959
1010.000000	58.563534
1009.000000	58.730750
1008.000000	58.889917
1007.000000	59.055020
1006.000000	59.227367
1005.000000	59.395890
1004.000000	59.562100
1003.000000	59.730121
1002.000000	59.883653
1001.000000	60.045536
1000.000000	60.221405
999.000000	60.386206
998.000000	60.549699
997.000000	60.695484
996.000000	60.862197
995.000000	61.031626
994.000000	61.193007
993.000000	61.357204
992.000000	61.525828
991.000000	61.694251
990.000000	61.849897
989.000000	62.015503
988.000000	62.170343
987.000000	62.324882
986.000000	62.488274
985.000000	62.650963
984.000000	62.819788
983.000000	62.970504
982.000000	63.116390
981.000000	63.248895
980.000000	63.388644
979.000000	63.543685
978.000000	63.679410
977.000000	63.827610
976.000000	63.961523
975.000000	64.094531
974.000000	64.223414
973.000000	64.353605
972.000000	64.484802
971.000000	64.592657
970.000000	64.711781
969.000000	64.831005
968.000000	64.943891
967.000000	65.053657
966.000000	65.168555
965.000000	65.285969
964.000000	65.395434
963.000000	65.502584
962.000000	65.623821
961.000000	65.756426
960.000000	65.847580
959.000000	65.948392
958.000000	66.066409
957.000000	66.164103
956.000000	66.265921
955.000000	66.361804
954.000000	66.438570
953.000000	66.514733
952.000000	66.590694
951.000000	66.664341
950.000000	66.725412
949.000000	66.780145
948.000000	66.856106
947.000000	66.923314
946.000000	66.978852
945.000000	67.053807
944.000000	67.116588
943.000000	67.142747
942.000000	67.218709
941.000000	67.292960
940.000000	67.356747
939.000000	67.423050
938.000000	67.488749
937.000000	67.559579
936.000000	67.630510
935.000000	67.693291
934.000000	67.745609
933.000000	67.794909
932.000000	67.861211
931.000000	67.915542
930.000000	67.965545
929.000000	67.995226
928.000000	68.054687
927.000000	68.122398
926.000000	68.154895
925.000000	68.215866
924.000000	68.271303
923.000000	68.322011
922.000000	68.397871
921.000000	68.443750
920.000000	68.484397
919.000000	68.530980
918.000000	68.575249
917.000000	68.622838
916.000000	68.643866
915.000000	68.693064
914.000000	68.729586
913.000000	68.794480
912.000000	68.808465
911.000000	68.867323
910.000000	68.938656
909.000000	69.009386
908.000000	69.098729
907.000000	69.190587
906.000000	69.299347
905.000000	69.420986
904.000000	69.515259
903.000000	69.641324
902.000000	69.770912
901.000000	69.917502
900.000000	70.064193
899.000000	70.199415
898.000000	70.330611
897.000000	70.446717
896.000000	70.574191
895.000000	70.691001
894.000000	70.793624
893.000000	70.924418
892.000000	71.016880
891.000000	71.118598
890.000000	71.205224
889.000000	71.289335
888.000000	71.377068
887.000000	71.454136
886.000000	71.539052
885.000000	71.606864
884.000000	71.657672
883.000000	71.712103
882.000000	71.778003
881.000000	71.841187
880.000000	71.847626
879.000000	71.846821
878.000000	71.835452
877.000000	71.836157
876.000000	71.768043
875.000000	71.645096
874.000000	71.549214
873.000000	71.543479
872.000000	71.643788
871.000000	71.777299
870.000000	71.936365
869.000000	72.066154
868.000000	72.194936
867.000000	72.319996
866.000000	72.449885
865.000000	72.591545
864.000000	72.727270
863.000000	72.857159
862.000000	73.010490
861.000000	73.164324
860.000000	73.276707
859.000000	73.428328
858.000000	73.593833
857.000000	73.353200
856.000000	73.602800
855.000000	73.825500
854.000000	73.942300
853.000000	74.786800
852.000000	74.649000
851.000000	74.489900
850.000000	74.394400
849.000000	74.823000
848.000000	75.390500
847.000000	75.344100
846.000000	75.254600
845.000000	75.062400
844.000000	75.341800
843.000000	75.695600
842.000000	76.240100
841.000000	76.389800
840.000000	76.385500
839.000000	76.637200
838.000000	76.699400
837.000000	77.305800
836.000000	77.752600
835.000000	77.965600
834.000000	77.954700
833.000000	78.463200
832.000000	78.634500
831.000000	78.931800
830.000000	79.470300
829.000000	79.653100
828.000000	80.104700
827.000000	80.341000
826.000000	80.846100
825.000000	81.070900
824.000000	81.720600
823.000000	82.199200
822.000000	82.491800
821.000000	82.814200
820.000000	83.553800
819.000000	84.070000
818.000000	84.353600
817.000000	84.804500
816.000000	85.119400
815.000000	85.680900
814.000000	86.305200
813.000000	86.678700
812.000000	87.155700
811.000000	87.641000
810.000000	88.067600
809.000000	88.365300
808.000000	88.894600
807.000000	89.335000
806.000000	89.597100
805.000000	90.043200
804.000000	90.362600
803.000000	90.884300
802.000000	91.318700
801.000000	91.811600
800.000000	92.216300
799.000000	92.603100
798.000000	92.995000
797.000000	93.343800
796.000000	93.616800
795.000000	93.976800
794.000000	94.434800
793.000000	94.743300
792.000000	95.105700
791.000000	95.560300
790.000000	95.969900
789.000000	96.143800
788.000000	96.396900
787.000000	96.799700
786.000000	97.069400
785.000000	97.288000
784.000000	97.362000
783.000000	97.625000
782.000000	97.816400
781.000000	97.965300
780.000000	98.202300
779.000000	98.359400
778.000000	98.583400
777.000000	98.683200
776.000000	98.759400
775.000000	98.887200
774.000000	99.094700
773.000000	99.245500
772.000000	99.419600
771.000000	99.533800
770.000000	99.655100
769.000000	99.711800
768.000000	99.785500
767.000000	99.867900
766.000000	99.869000
765.000000	99.901100
764.000000	99.926700
763.000000	99.892400
762.000000	99.963300
761.000000	99.941800
760.000000	99.874600
759.000000	99.889500
758.000000	99.849000
757.000000	99.722800
756.000000	99.612100
755.000000	99.490400
754.000000	99.410600
753.000000	99.357300
752.000000	99.346200
751.000000	99.246500
750.000000	99.138600
749.000000	99.098800
748.000000	99.110100
747.000000	99.039500
746.000000	98.997800
745.000000	98.923600
744.000000	98.772900
743.000000	98.700400
742.000000	98.611000
741.000000	98.554800
740.000000	98.434100
739.000000	98.237500
738.000000	98.052000
737.000000	97.869500
736.000000	97.664600
735.000000	97.410000
734.000000	97.170900
733.000000	96.994700
732.000000	96.725200
731.000000	96.475600
730.000000	96.299300
729.000000	96.112200
728.000000	95.924700
727.000000	95.687200
726.000000	95.473200
725.000000	95.270900
724.000000	95.075100
723.000000	94.858000
722.000000	94.658800
721.000000	94.445100
720.000000	94.076800
719.000000	93.832400
718.000000	93.649300
717.000000	93.324500
716.000000	93.027300
715.000000	92.725700
714.000000	92.350400
713.000000	92.080800
712.000000	91.660300
711.000000	91.187300
710.000000	90.742500
709.000000	90.240500
708.000000	89.697900
707.000000	89.161300
706.000000	88.656100
705.000000	88.127600
704.000000	87.562900
703.000000	86.998100
702.000000	86.489800
701.000000	85.903600
700.000000	85.417200
699.000000	84.984400
698.000000	84.537100
697.000000	84.028100
696.000000	83.515900
695.000000	83.028600
694.000000	82.573700
693.000000	82.085000
692.000000	81.554000
691.000000	80.948700
690.000000	80.433800
689.000000	79.906400
688.000000	79.297300
687.000000	78.720700
686.000000	78.086200
685.000000	77.546100
684.000000	76.966600
683.000000	76.412400
682.000000	75.816000
681.000000	75.260600
680.000000	74.762000
679.000000	74.314200
678.000000	73.888200
677.000000	73.450800
676.000000	73.020400
675.000000	72.654000
674.000000	72.232100
673.000000	71.968500
672.000000	71.491400
671.000000	71.075100
670.000000	70.647000
669.000000	70.172300
668.000000	69.707700
667.000000	69.176600
666.000000	68.621900
665.000000	68.041200
664.000000	67.338900
663.000000	66.701400
662.000000	65.971000
661.000000	65.303700
660.000000	64.676100
659.000000	64.049900
658.000000	63.408200
657.000000	62.913700
656.000000	62.462000
655.000000	62.055700
654.000000	61.759100
653.000000	61.498200
652.000000	61.299200
651.000000	61.212100
650.000000	61.190200
649.000000	61.221300
648.000000	61.276500
647.000000	61.428800
646.000000	61.497600
645.000000	61.571800
644.000000	61.635600
643.000000	61.772500
642.000000	61.780800
641.000000	61.801000
640.000000	61.786500
639.000000	61.777200
638.000000	61.772100
637.000000	61.662500
636.000000	61.544400
635.000000	61.453800
634.000000	61.390100
633.000000	61.351100
632.000000	61.268400
631.000000	61.235800
630.000000	61.252300
629.000000	61.173100
628.000000	61.167400
627.000000	61.163500
626.000000	61.198100
625.000000	61.134100
624.000000	61.168500
623.000000	61.136800
622.000000	61.160400
621.000000	61.111400
620.000000	61.178700
619.000000	61.207100
618.000000	61.247700
617.000000	61.266000
616.000000	61.399100
615.000000	61.462600
614.000000	61.679400
613.000000	61.844200
612.000000	62.118900
611.000000	62.472400
610.000000	62.796200
609.000000	63.186800
608.000000	63.715500
607.000000	64.228500
606.000000	64.707400
605.000000	65.262600
604.000000	65.799100
603.000000	66.399400
602.000000	66.979700
601.000000	67.508800
600.000000	68.093500
599.000000	68.622200
598.000000	69.179500
597.000000	69.669700
596.000000	70.138200
595.000000	70.582900
594.000000	70.978100
593.000000	71.343600
592.000000	71.636700
591.000000	71.898600
590.000000	72.105100
589.000000	72.327400
588.000000	72.508400
587.000000	72.665700
586.000000	72.857000
585.000000	72.975300
584.000000	73.130200
583.000000	73.259500
582.000000	73.351400
581.000000	73.386500
580.000000	73.464400
579.000000	73.416200
578.000000	73.421600
577.000000	73.446200
576.000000	73.438600
575.000000	73.427000
574.000000	73.406300
573.000000	73.369200
572.000000	73.331200
571.000000	73.240000
570.000000	73.141000
569.000000	73.016700
568.000000	72.841000
567.000000	72.639100
566.000000	72.455700
565.000000	72.282400
564.000000	72.034600
563.000000	71.823600
562.000000	71.615700
561.000000	71.348200
560.000000	71.030800
559.000000	70.716700
558.000000	70.380500
557.000000	70.010500
556.000000	69.701800
555.000000	69.299300
554.000000	68.944500
553.000000	68.554900
552.000000	68.108900
551.000000	67.641500
550.000000	67.163200
549.000000	66.649400
548.000000	66.156100
547.000000	65.592700
546.000000	65.016800
545.000000	64.446500
544.000000	63.831100
543.000000	63.188100
542.000000	62.474900
541.000000	61.833000
540.000000	61.146400
539.000000	60.462000
538.000000	59.756300
537.000000	59.101800
536.000000	58.413200
535.000000	57.743600
534.000000	57.058400
533.000000	56.361400
532.000000	55.685200
531.000000	55.043400
530.000000	54.380300
529.000000	53.742900
528.000000	53.067000
527.000000	52.388800
526.000000	51.706400
525.000000	50.997500
524.000000	50.259100
523.000000	49.480400
522.000000	48.717200
521.000000	47.936200
520.000000	47.165200
519.000000	46.380400
518.000000	45.583700
517.000000	44.737800
516.000000	43.942700
515.000000	43.135000
514.000000	42.304700
513.000000	41.470100
512.000000	40.620800
511.000000	39.742300
510.000000	38.851300
509.000000	37.943500
508.000000	37.009700
507.000000	36.103300
506.000000	35.187400
505.000000	34.322100
504.000000	33.454200
503.000000	32.581400
502.000000	31.779600
501.000000	31.004500
500.000000	30.315400
499.000000	29.679600
498.000000	29.156900
497.000000	28.670300
496.000000	28.281200
495.000000	27.944600
494.000000	27.652900
493.000000	27.483800
492.000000	27.370300
491.000000	27.318800
490.000000	27.326700
489.000000	27.386500
488.000000	27.482800
487.000000	27.614700
486.000000	27.780100
485.000000	27.952900
484.000000	28.136000
483.000000	28.335100
482.000000	28.510700
481.000000	28.697500
480.000000	28.841200
479.000000	28.992800
478.000000	29.136000
477.000000	29.285100
476.000000	29.394700
475.000000	29.466000
474.000000	29.543200
473.000000	29.610400
472.000000	29.651700
471.000000	29.673100
470.000000	29.677800
469.000000	29.648800
468.000000	29.600300
467.000000	29.556900
466.000000	29.500700
465.000000	29.385300
464.000000	29.260700
463.000000	29.152100
462.000000	29.015100
461.000000	28.883300
460.000000	28.704900
459.000000	28.543700
458.000000	28.347100
457.000000	28.122200
456.000000	27.941500
455.000000	27.719300
454.000000	27.502600
453.000000	27.239500
452.000000	26.962800
451.000000	26.672900
450.000000	26.382600
449.000000	26.114700
448.000000	25.815400
447.000000	25.511300
446.000000	25.197900
445.000000	24.864500
444.000000	24.518100
443.000000	24.135000
442.000000	23.737100
441.000000	23.334800
440.000000	22.929600
439.000000	22.529200
438.000000	22.112200
437.000000	21.679700
436.000000	21.242000
435.000000	20.784800
434.000000	20.308500
433.000000	19.838000
432.000000	19.376300
431.000000	18.865500
430.000000	18.354500
429.000000	17.883300
428.000000	17.382600
427.000000	16.874000
426.000000	16.376100
425.000000	15.869300
424.000000	15.386500
423.000000	14.905500
422.000000	14.432400
421.000000	13.945500
420.000000	13.465800
419.000000	13.019000
418.000000	12.605400
417.000000	12.186400
416.000000	11.789100
415.000000	11.394700
414.000000	11.029700
413.000000	10.674100
412.000000	10.322300
411.000000	10.020200
410.000000	9.720200
409.000000	9.435200
408.000000	9.195200
407.000000	8.946900
406.000000	8.720800
405.000000	8.524000
404.000000	8.331600
403.000000	8.173100
402.000000	8.002200
401.000000	7.840800
400.000000	7.703500
399.000000	7.571000
398.000000	7.459500
397.000000	7.351600
396.000000	7.261200
395.000000	7.177400
394.000000	7.104800
393.000000	7.025400
392.000000	6.944200
391.000000	6.881100
390.000000	6.816900
389.000000	6.761300
388.000000	6.701700
387.000000	6.621000
386.000000	6.587100
385.000000	6.568100
384.000000	6.518100
383.000000	6.483000
382.000000	6.456400
381.000000	6.428800
380.000000	6.399700
379.000000	6.337800
378.000000	6.306300
377.000000	6.284600
376.000000	6.242800
375.000000	6.299100
374.000000	6.185500
373.000000	6.087900
372.000000	6.139000
371.000000	6.156800
370.000000	6.091500
369.000000	6.030200
368.000000	6.007100
367.000000	6.026300
366.000000	6.047100
365.000000	5.941000
364.000000	5.954400
363.000000	5.889600
362.000000	5.963300
361.000000	5.917500
360.000000	5.928000
359.000000	5.919200
358.000000	5.818600
357.000000	5.867700
356.000000	5.903500
355.000000	5.875800
354.000000	5.810100
353.000000	5.819700
352.000000	5.799200
351.000000	5.790000
350.000000	5.686300
349.000000	5.659400
348.000000	5.664400
347.000000	5.729300
346.000000	5.705700
345.000000	5.611300
344.000000	5.614300
343.000000	5.604100
342.000000	5.655700
341.000000	5.658200
340.000000	5.770500
339.000000	5.660400
338.000000	5.616000
337.000000	5.562300
336.000000	5.636600
335.000000	5.562400
334.000000	5.711300
333.000000	5.731100
332.000000	5.671700
331.000000	5.526500
330.000000	5.515900
329.000000	5.656100
328.000000	5.550600
327.000000	5.509700
326.000000	5.539000
325.000000	5.517800
324.000000	5.452400
323.000000	5.244800
322.000000	5.577100
321.000000	5.686600
320.000000	5.429300
319.000000	5.845800
318.000000	5.767700
317.000000	6.151500
316.000000	5.523300
315.000000	5.481300
314.000000	5.474500
313.000000	5.519800
312.000000	5.480100
311.000000	5.448100
310.000000	5.494600
309.000000	5.508100
308.000000	5.442400
307.000000	5.505100
306.000000	5.499600
305.000000	5.493700
304.000000	5.524300
303.000000	5.532500
302.000000	5.524000
301.000000	5.473000
300.000000	5.508600
299.000000	5.453700
298.000000	5.468100
297.000000	5.499200
296.000000	5.541400
295.000000	5.476600
294.000000	5.551600
293.000000	5.530300
292.000000	5.480400
291.000000	5.500400
290.000000	5.512900
289.000000	5.520900
288.000000	5.540900
287.000000	5.548500
286.000000	5.516500
285.000000	5.559000
284.000000	5.531000
283.000000	5.556700
282.000000	5.575300
281.000000	5.582300
280.000000	5.545700
279.000000	5.611300
278.000000	5.564300
277.000000	5.597000
276.000000	5.609600
275.000000	5.602800
274.000000	5.614300
273.000000	5.620200
272.000000	5.624200
271.000000	5.684200
270.000000	5.721400
269.000000	5.672600
268.000000	5.694000
267.000000	5.717900
266.000000	5.790100
265.000000	5.766300
264.000000	5.808000
263.000000	5.844700
262.000000	5.843900
261.000000	5.881600
260.000000	5.924200
259.000000	5.917600
258.000000	5.967400
257.000000	5.928900
256.000000	5.968000
255.000000	5.957600
254.000000	5.976800
253.000000	5.997400
252.000000	5.960000
251.000000	6.033300
250.000000	5.988300
