PE UV       SUBTECH     SPECTRUM    ASCII       PEDS        4.00        
   -1
CICIMAUCR0210-2.ASC
24/06/06
16:29:53.00
24/06/06
16:29:53.00
Vinicio Soto Monge
C. resplendens. Sex F. Dorsal
250,000000
1
Lambda 1050
1050L1511233
PerkinElmer UV WinLab 6.3.2.0749 / 2.02.05 Lambda 900 UV/VIS/NIR, Aug  7 2015 09:38:08

0
0
3350/servo 860,8/2
0
0
UV/VIS
1
1
1
DoubleDePol,CommonBeamDepol,RBeamAtt,SBeamAtt,60mm sphere, WB InGaAs Detector
0
0
0
0
Program
Program
3350/servo 860,8/2
3350/0,2 860,8/0,2
3350/0,2 860,8/0,2
0
15.00
 
 
 
0
 
860,8
319,2
860,8
Front
100
on
S:100 R:100
0
0
0
0
 
0
 
 
 
0
 
 
0
0
0
0
0
 
 
 
 
0
0


0
0
#HDR
-1
-1
#GR
nm
%R
1.0
0.0
2500,000000
-1,000000
2251
8
92,391500
5,437200
#DATA
2500.000000	6.465684
2499.000000	6.432455
2498.000000	6.358908
2497.000000	6.553411
2496.000000	6.429704
2495.000000	6.432349
2494.000000	6.304833
2493.000000	6.355628
2492.000000	6.364834
2491.000000	6.362400
2490.000000	6.267054
2489.000000	6.365893
2488.000000	6.363141
2487.000000	6.265572
2486.000000	6.344516
2485.000000	6.264514
2484.000000	6.338908
2483.000000	6.274038
2482.000000	6.256895
2481.000000	6.256366
2480.000000	6.220809
2479.000000	6.220492
2478.000000	6.298483
2477.000000	6.285150
2476.000000	6.228746
2475.000000	6.275202
2474.000000	6.253614
2473.000000	6.272874
2472.000000	6.267689
2471.000000	6.281446
2470.000000	6.254778
2469.000000	6.266525
2468.000000	6.240386
2467.000000	6.303457
2466.000000	6.289065
2465.000000	6.300811
2464.000000	6.346739
2463.000000	6.297531
2462.000000	6.346950
2461.000000	6.346950
2460.000000	6.400814
2459.000000	6.397216
2458.000000	6.406211
2457.000000	6.438487
2456.000000	6.459969
2455.000000	6.500500
2454.000000	6.495526
2453.000000	6.536056
2452.000000	6.541453
2451.000000	6.600502
2450.000000	6.618492
2449.000000	6.666218
2448.000000	6.721564
2447.000000	6.740189
2446.000000	6.763999
2445.000000	6.790666
2444.000000	6.819027
2443.000000	6.876806
2442.000000	6.919241
2441.000000	6.938607
2440.000000	6.979772
2439.000000	7.015752
2438.000000	7.052896
2437.000000	7.096918
2436.000000	7.102315
2435.000000	7.124327
2434.000000	7.181894
2433.000000	7.212160
2432.000000	7.231843
2431.000000	7.233853
2430.000000	7.277770
2429.000000	7.302638
2428.000000	7.331422
2427.000000	7.354068
2426.000000	7.379466
2425.000000	7.388673
2424.000000	7.402218
2423.000000	7.429520
2422.000000	7.453225
2421.000000	7.489522
2420.000000	7.497564
2419.000000	7.524444
2418.000000	7.536931
2417.000000	7.534920
2416.000000	7.567090
2415.000000	7.593440
2414.000000	7.596615
2413.000000	7.611748
2412.000000	7.632171
2411.000000	7.636722
2410.000000	7.657781
2409.000000	7.667834
2408.000000	7.665188
2407.000000	7.700216
2406.000000	7.721380
2405.000000	7.734079
2404.000000	7.759371
2403.000000	7.767942
2402.000000	7.783816
2401.000000	7.798525
2400.000000	7.815457
2399.000000	7.858844
2398.000000	7.925936
2397.000000	7.965832
2396.000000	8.016203
2395.000000	8.037897
2394.000000	8.052924
2393.000000	8.049961
2392.000000	8.065517
2391.000000	8.091126
2390.000000	8.124672
2389.000000	8.155043
2388.000000	8.157371
2387.000000	8.157583
2386.000000	8.176843
2385.000000	8.191023
2384.000000	8.200230
2383.000000	8.211659
2382.000000	8.222770
2381.000000	8.211235
2380.000000	8.219172
2379.000000	8.247427
2378.000000	8.244358
2377.000000	8.240972
2376.000000	8.243723
2375.000000	8.234411
2374.000000	8.226685
2373.000000	8.230918
2372.000000	8.230389
2371.000000	8.222982
2370.000000	8.225521
2369.000000	8.214198
2368.000000	8.192822
2367.000000	8.188801
2366.000000	8.162662
2365.000000	8.128058
2364.000000	8.103084
2363.000000	8.070173
2362.000000	8.042553
2361.000000	8.035992
2360.000000	8.020965
2359.000000	7.987419
2358.000000	7.957260
2357.000000	7.915883
2356.000000	7.886782
2355.000000	7.881808
2354.000000	7.863818
2353.000000	7.852495
2352.000000	7.851331
2351.000000	7.859374
2350.000000	7.863712
2349.000000	7.874400
2348.000000	7.898740
2347.000000	7.920963
2346.000000	7.940646
2345.000000	7.966467
2344.000000	8.000542
2343.000000	8.031124
2342.000000	8.064353
2341.000000	8.088904
2340.000000	8.103825
2339.000000	8.133455
2338.000000	8.164991
2337.000000	8.173880
2336.000000	8.197478
2335.000000	8.215468
2334.000000	8.202134
2333.000000	8.191023
2332.000000	8.194939
2331.000000	8.166578
2330.000000	8.140651
2329.000000	8.128376
2328.000000	8.111762
2327.000000	8.073454
2326.000000	8.027209
2325.000000	7.994933
2324.000000	7.961493
2323.000000	7.922867
2322.000000	7.870591
2321.000000	7.814505
2320.000000	7.769847
2319.000000	7.721274
2318.000000	7.656299
2317.000000	7.591112
2316.000000	7.526031
2315.000000	7.466135
2314.000000	7.415234
2313.000000	7.361159
2312.000000	7.311951
2311.000000	7.247716
2310.000000	7.191313
2309.000000	7.172264
2308.000000	7.144433
2307.000000	7.117236
2306.000000	7.099352
2305.000000	7.093003
2304.000000	7.109300
2303.000000	7.127925
2302.000000	7.154169
2301.000000	7.177556
2300.000000	7.229303
2299.000000	7.262320
2298.000000	7.314596
2297.000000	7.374704
2296.000000	7.441478
2295.000000	7.470050
2294.000000	7.506348
2293.000000	7.558307
2292.000000	7.632066
2291.000000	7.665294
2290.000000	7.693972
2289.000000	7.708470
2288.000000	7.740005
2287.000000	7.751752
2286.000000	7.730587
2285.000000	7.715348
2284.000000	7.716512
2283.000000	7.709634
2282.000000	7.674183
2281.000000	7.651431
2280.000000	7.611218
2279.000000	7.584763
2278.000000	7.579577
2277.000000	7.546561
2276.000000	7.489522
2275.000000	7.468040
2274.000000	7.437563
2273.000000	7.428991
2272.000000	7.413753
2271.000000	7.403699
2270.000000	7.411213
2269.000000	7.398302
2268.000000	7.432166
2267.000000	7.464759
2266.000000	7.498411
2265.000000	7.555026
2264.000000	7.631007
2263.000000	7.709740
2262.000000	7.817468
2261.000000	7.912814
2260.000000	8.046786
2259.000000	8.155255
2258.000000	8.294730
2257.000000	8.452406
2256.000000	8.609342
2255.000000	8.778659
2254.000000	8.935383
2253.000000	9.083746
2252.000000	9.236767
2251.000000	9.400792
2250.000000	9.548310
2249.000000	9.697097
2248.000000	9.838794
2247.000000	9.981338
2246.000000	10.106526
2245.000000	10.202931
2244.000000	10.322300
2243.000000	10.432144
2242.000000	10.527808
2241.000000	10.602413
2240.000000	10.699665
2239.000000	10.748132
2238.000000	10.826123
2237.000000	10.912369
2236.000000	10.987609
2235.000000	11.028457
2234.000000	11.098512
2233.000000	11.138936
2232.000000	11.186239
2231.000000	11.254707
2230.000000	11.253331
2229.000000	11.296930
2228.000000	11.307724
2227.000000	11.343492
2226.000000	11.359472
2225.000000	11.358413
2224.000000	11.376615
2223.000000	11.395451
2222.000000	11.399367
2221.000000	11.357038
2220.000000	11.387197
2219.000000	11.383176
2218.000000	11.344021
2217.000000	11.348572
2216.000000	11.326032
2215.000000	11.328042
2214.000000	11.295025
2213.000000	11.295766
2212.000000	11.274496
2211.000000	11.258834
2210.000000	11.219891
2209.000000	11.220738
2208.000000	11.225394
2207.000000	11.184546
2206.000000	11.186028
2205.000000	11.175234
2204.000000	11.163064
2203.000000	11.151423
2202.000000	11.148143
2201.000000	11.121158
2200.000000	11.115973
2199.000000	11.122640
2198.000000	11.100311
2197.000000	11.081051
2196.000000	11.077030
2195.000000	11.093327
2194.000000	11.067188
2193.000000	11.051209
2192.000000	11.042002
2191.000000	11.032902
2190.000000	11.045177
2189.000000	11.022637
2188.000000	11.005282
2187.000000	10.994276
2186.000000	10.978403
2185.000000	10.965598
2184.000000	10.962106
2183.000000	10.946762
2182.000000	10.950042
2181.000000	10.942105
2180.000000	10.935756
2179.000000	10.905385
2178.000000	10.888030
2177.000000	10.880834
2176.000000	10.882950
2175.000000	10.887607
2174.000000	10.874061
2173.000000	10.854272
2172.000000	10.855965
2171.000000	10.862632
2170.000000	10.861997
2169.000000	10.876389
2168.000000	10.865066
2167.000000	10.871310
2166.000000	10.881046
2165.000000	10.889935
2164.000000	10.903268
2163.000000	10.912263
2162.000000	10.922211
2161.000000	10.930042
2160.000000	10.923057
2159.000000	10.943058
2158.000000	10.965598
2157.000000	10.993006
2156.000000	11.017663
2155.000000	11.035653
2154.000000	11.058934
2153.000000	11.082321
2152.000000	11.110258
2151.000000	11.127402
2150.000000	11.133222
2149.000000	11.147402
2148.000000	11.172271
2147.000000	11.188991
2146.000000	11.207298
2145.000000	11.209732
2144.000000	11.256823
2143.000000	11.266771
2142.000000	11.284972
2141.000000	11.295025
2140.000000	11.321058
2139.000000	11.336825
2138.000000	11.338307
2137.000000	11.338624
2136.000000	11.377250
2135.000000	11.372699
2134.000000	11.357038
2133.000000	11.356403
2132.000000	11.375133
2131.000000	11.387621
2130.000000	11.377991
2129.000000	11.384023
2128.000000	11.375133
2127.000000	11.365504
2126.000000	11.365609
2125.000000	11.363493
2124.000000	11.364339
2123.000000	11.354392
2122.000000	11.340106
2121.000000	11.318201
2120.000000	11.303809
2119.000000	11.297777
2118.000000	11.266876
2117.000000	11.248040
2116.000000	11.245077
2115.000000	11.227087
2114.000000	11.199467
2113.000000	11.172906
2112.000000	11.143275
2111.000000	11.129201
2110.000000	11.097771
2109.000000	11.063379
2108.000000	11.047823
2107.000000	11.028245
2106.000000	11.009197
2105.000000	10.974064
2104.000000	10.955016
2103.000000	10.938825
2102.000000	10.919036
2101.000000	10.892474
2100.000000	10.866230
2099.000000	10.852579
2098.000000	10.822102
2097.000000	10.789509
2096.000000	10.783159
2095.000000	10.759984
2094.000000	10.727179
2093.000000	10.709824
2092.000000	10.692998
2091.000000	10.682627
2090.000000	10.667177
2089.000000	10.648658
2088.000000	10.632785
2087.000000	10.608445
2086.000000	10.590244
2085.000000	10.578286
2084.000000	10.552571
2083.000000	10.530877
2082.000000	10.508019
2081.000000	10.498283
2080.000000	10.490241
2079.000000	10.456166
2078.000000	10.426006
2077.000000	10.414472
2076.000000	10.405371
2075.000000	10.369708
2074.000000	10.344523
2073.000000	10.328649
2072.000000	10.300289
2071.000000	10.278171
2070.000000	10.241133
2069.000000	10.213937
2068.000000	10.202508
2067.000000	10.171925
2066.000000	10.139967
2065.000000	10.118167
2064.000000	10.093299
2063.000000	10.085573
2062.000000	10.066843
2061.000000	10.045678
2060.000000	10.027159
2059.000000	10.005995
2058.000000	10.004936
2057.000000	9.998904
2056.000000	9.994671
2055.000000	9.990650
2054.000000	9.992555
2053.000000	10.009593
2052.000000	10.028429
2051.000000	10.045043
2050.000000	10.064091
2049.000000	10.093510
2048.000000	10.134887
2047.000000	10.166846
2046.000000	10.209069
2045.000000	10.258488
2044.000000	10.294574
2043.000000	10.348226
2042.000000	10.371402
2041.000000	10.418916
2040.000000	10.469288
2039.000000	10.514898
2038.000000	10.545904
2037.000000	10.585376
2036.000000	10.647494
2035.000000	10.680828
2034.000000	10.685908
2033.000000	10.716173
2032.000000	10.744640
2031.000000	10.751624
2030.000000	10.776704
2029.000000	10.809721
2028.000000	10.823901
2027.000000	10.823372
2026.000000	10.844642
2025.000000	10.860410
2024.000000	10.873109
2023.000000	10.860833
2022.000000	10.855754
2021.000000	10.865278
2020.000000	10.856283
2019.000000	10.862844
2018.000000	10.870886
2017.000000	10.852685
2016.000000	10.852579
2015.000000	10.850780
2014.000000	10.853320
2013.000000	10.818292
2012.000000	10.806123
2011.000000	10.797551
2010.000000	10.788874
2009.000000	10.769296
2008.000000	10.719665
2007.000000	10.691728
2006.000000	10.675855
2005.000000	10.647071
2004.000000	10.609821
2003.000000	10.579344
2002.000000	10.550666
2001.000000	10.506220
2000.000000	10.460081
1999.000000	10.424525
1998.000000	10.393942
1997.000000	10.349814
1996.000000	10.297960
1995.000000	10.262298
1994.000000	10.231080
1993.000000	10.178486
1992.000000	10.128538
1991.000000	10.083034
1990.000000	10.031075
1989.000000	9.976682
1988.000000	9.931072
1987.000000	9.871176
1986.000000	9.817841
1985.000000	9.761967
1984.000000	9.717309
1983.000000	9.657731
1982.000000	9.611063
1981.000000	9.535399
1980.000000	9.487673
1979.000000	9.441111
1978.000000	9.402380
1977.000000	9.345553
1976.000000	9.302694
1975.000000	9.240894
1974.000000	9.181210
1973.000000	9.121420
1972.000000	9.075810
1971.000000	9.034645
1970.000000	8.996760
1969.000000	8.909668
1968.000000	8.881836
1967.000000	8.837920
1966.000000	8.782468
1965.000000	8.761198
1964.000000	8.702678
1963.000000	8.647544
1962.000000	8.614739
1961.000000	8.539710
1960.000000	8.510080
1959.000000	8.468703
1958.000000	8.426903
1957.000000	8.409654
1956.000000	8.346900
1955.000000	8.320233
1954.000000	8.257480
1953.000000	8.222876
1952.000000	8.198325
1951.000000	8.151869
1950.000000	8.118746
1949.000000	8.068797
1948.000000	8.040437
1947.000000	8.036416
1946.000000	7.986679
1945.000000	7.959588
1944.000000	7.951228
1943.000000	7.921280
1942.000000	7.899904
1941.000000	7.868474
1940.000000	7.857998
1939.000000	7.868792
1938.000000	7.850167
1937.000000	7.838950
1936.000000	7.847627
1935.000000	7.878845
1934.000000	7.855776
1933.000000	7.884665
1932.000000	7.879268
1931.000000	7.899375
1930.000000	7.931333
1929.000000	7.953662
1928.000000	7.979483
1927.000000	8.032394
1926.000000	8.072184
1925.000000	8.116735
1924.000000	8.172927
1923.000000	8.223828
1922.000000	8.279809
1921.000000	8.361187
1920.000000	8.437485
1919.000000	8.534101
1918.000000	8.621194
1917.000000	8.692730
1916.000000	8.776013
1915.000000	8.849243
1914.000000	8.925858
1913.000000	9.044274
1912.000000	9.188829
1911.000000	9.335288
1910.000000	9.432434
1909.000000	9.549156
1908.000000	9.667784
1907.000000	9.754347
1906.000000	9.897526
1905.000000	10.070229
1904.000000	10.265579
1903.000000	10.430557
1902.000000	10.601355
1901.000000	10.778820
1900.000000	10.936074
1899.000000	11.135338
1898.000000	11.372805
1897.000000	11.612600
1896.000000	11.828903
1895.000000	12.027956
1894.000000	12.211030
1893.000000	12.420983
1892.000000	12.694535
1891.000000	12.999941
1890.000000	13.301113
1889.000000	13.605990
1888.000000	13.939756
1887.000000	14.280188
1886.000000	14.586334
1885.000000	14.977139
1884.000000	15.393764
1883.000000	15.867852
1882.000000	16.380988
1881.000000	16.851477
1880.000000	17.360592
1879.000000	17.808118
1878.000000	18.244955
1877.000000	18.756187
1876.000000	19.234401
1875.000000	19.687853
1874.000000	20.114637
1873.000000	20.584492
1872.000000	21.020695
1871.000000	21.453088
1870.000000	21.849501
1869.000000	22.217236
1868.000000	22.590791
1867.000000	22.912070
1866.000000	23.175676
1865.000000	23.363617
1864.000000	23.561718
1863.000000	23.727331
1862.000000	23.849980
1861.000000	24.032948
1860.000000	24.214329
1859.000000	24.374863
1858.000000	24.505977
1857.000000	24.634764
1856.000000	24.705031
1855.000000	24.767784
1854.000000	24.828103
1853.000000	24.908105
1852.000000	24.939111
1851.000000	24.956995
1850.000000	24.963133
1849.000000	24.950540
1848.000000	24.954985
1847.000000	24.999219
1846.000000	25.050225
1845.000000	25.037527
1844.000000	24.982816
1843.000000	24.924190
1842.000000	24.888528
1841.000000	24.916148
1840.000000	24.921968
1839.000000	24.939005
1838.000000	24.907999
1837.000000	24.884189
1836.000000	24.881755
1835.000000	24.863130
1834.000000	24.831807
1833.000000	24.766831
1832.000000	24.681115
1831.000000	24.611906
1830.000000	24.568096
1829.000000	24.527248
1828.000000	24.469998
1827.000000	24.386715
1826.000000	24.323538
1825.000000	24.284596
1824.000000	24.218668
1823.000000	24.151682
1822.000000	24.097289
1821.000000	24.057076
1820.000000	24.045012
1819.000000	24.029879
1818.000000	23.980037
1817.000000	23.939612
1816.000000	23.913474
1815.000000	23.894532
1814.000000	23.875801
1813.000000	23.859610
1812.000000	23.859928
1811.000000	23.827652
1810.000000	23.805111
1809.000000	23.777068
1808.000000	23.724051
1807.000000	23.668494
1806.000000	23.633784
1805.000000	23.601402
1804.000000	23.547855
1803.000000	23.492192
1802.000000	23.438328
1801.000000	23.383618
1800.000000	23.336421
1799.000000	23.282874
1798.000000	23.224672
1797.000000	23.174723
1796.000000	23.114192
1795.000000	23.051122
1794.000000	23.013978
1793.000000	22.963500
1792.000000	22.913129
1791.000000	22.856302
1790.000000	22.802120
1789.000000	22.755981
1788.000000	22.692805
1787.000000	22.636295
1786.000000	22.578093
1785.000000	22.506556
1784.000000	22.436819
1783.000000	22.367187
1782.000000	22.286339
1781.000000	22.209088
1780.000000	22.161996
1779.000000	22.103688
1778.000000	22.015008
1777.000000	21.938921
1776.000000	21.873099
1775.000000	21.793309
1774.000000	21.703253
1773.000000	21.617008
1772.000000	21.512772
1771.000000	21.407795
1770.000000	21.313190
1769.000000	21.207684
1768.000000	21.111914
1767.000000	21.031806
1766.000000	20.921221
1765.000000	20.838361
1764.000000	20.787672
1763.000000	20.740793
1762.000000	20.713914
1761.000000	20.721744
1760.000000	20.754761
1759.000000	20.805874
1758.000000	20.884924
1757.000000	20.953179
1756.000000	21.033393
1755.000000	21.105988
1754.000000	21.162921
1753.000000	21.210435
1752.000000	21.261865
1751.000000	21.279961
1750.000000	21.294141
1749.000000	21.288533
1748.000000	21.260384
1747.000000	21.228637
1746.000000	21.198372
1745.000000	21.121015
1744.000000	21.058473
1743.000000	20.950111
1742.000000	20.829366
1741.000000	20.675923
1740.000000	20.498881
1739.000000	20.317183
1738.000000	20.121516
1737.000000	19.937595
1736.000000	19.760448
1735.000000	19.611555
1734.000000	19.495784
1733.000000	19.419486
1732.000000	19.389538
1731.000000	19.405623
1730.000000	19.463402
1729.000000	19.533457
1728.000000	19.629439
1727.000000	19.737061
1726.000000	19.860450
1725.000000	19.971036
1724.000000	20.050297
1723.000000	20.137707
1722.000000	20.198449
1721.000000	20.233053
1720.000000	20.259721
1719.000000	20.280674
1718.000000	20.318241
1717.000000	20.345967
1716.000000	20.389037
1715.000000	20.424382
1714.000000	20.463007
1713.000000	20.540046
1712.000000	20.589995
1711.000000	20.642377
1710.000000	20.682590
1709.000000	20.708199
1708.000000	20.703120
1707.000000	20.701003
1706.000000	20.666399
1705.000000	20.625657
1704.000000	20.590418
1703.000000	20.509887
1702.000000	20.431683
1701.000000	20.336866
1700.000000	20.220778
1699.000000	20.087335
1698.000000	19.934844
1697.000000	19.788067
1696.000000	19.651873
1695.000000	19.571553
1694.000000	19.510070
1693.000000	19.547003
1692.000000	19.601501
1691.000000	19.727748
1690.000000	19.868493
1689.000000	20.025217
1688.000000	20.161200
1687.000000	20.255382
1686.000000	20.345226
1685.000000	20.380994
1684.000000	20.418456
1683.000000	20.504701
1682.000000	20.611477
1681.000000	20.837832
1680.000000	21.150963
1679.000000	21.543778
1678.000000	22.001992
1677.000000	22.513329
1676.000000	22.994189
1675.000000	23.443196
1674.000000	23.865007
1673.000000	24.230732
1672.000000	24.500792
1671.000000	24.781435
1670.000000	25.006309
1669.000000	25.194568
1668.000000	25.357747
1667.000000	25.479761
1666.000000	25.586431
1665.000000	25.710456
1664.000000	25.778500
1663.000000	25.852893
1662.000000	25.926229
1661.000000	25.938610
1660.000000	25.997554
1659.000000	26.058508
1658.000000	26.058296
1657.000000	26.068032
1656.000000	26.096075
1655.000000	26.103906
1654.000000	26.103694
1653.000000	26.081154
1652.000000	26.060624
1651.000000	26.025914
1650.000000	25.993321
1649.000000	25.961997
1648.000000	25.926335
1647.000000	25.904853
1646.000000	25.842099
1645.000000	25.789929
1644.000000	25.729398
1643.000000	25.709821
1642.000000	25.640930
1641.000000	25.572886
1640.000000	25.522831
1639.000000	25.440183
1638.000000	25.364943
1637.000000	25.325260
1636.000000	25.267692
1635.000000	25.178271
1634.000000	25.125042
1633.000000	25.044194
1632.000000	24.953609
1631.000000	24.884824
1630.000000	24.809055
1629.000000	24.731592
1628.000000	24.657410
1627.000000	24.566085
1626.000000	24.472220
1625.000000	24.405869
1624.000000	24.315708
1623.000000	24.242478
1622.000000	24.170412
1621.000000	24.086812
1620.000000	23.985222
1619.000000	23.938131
1618.000000	23.850298
1617.000000	23.768073
1616.000000	23.710400
1615.000000	23.650715
1614.000000	23.580766
1613.000000	23.503939
1612.000000	23.435895
1611.000000	23.380443
1610.000000	23.281816
1609.000000	23.237794
1608.000000	23.166257
1607.000000	23.100435
1606.000000	23.034402
1605.000000	22.970485
1604.000000	22.912070
1603.000000	22.837994
1602.000000	22.788892
1601.000000	22.708678
1600.000000	22.652910
1599.000000	22.576294
1598.000000	22.509731
1597.000000	22.442745
1596.000000	22.402744
1595.000000	22.338509
1594.000000	22.268772
1593.000000	22.215649
1592.000000	22.152578
1591.000000	22.094270
1590.000000	22.037231
1589.000000	21.979557
1588.000000	21.945271
1587.000000	21.889819
1586.000000	21.849818
1585.000000	21.803045
1584.000000	21.747170
1583.000000	21.688438
1582.000000	21.647379
1581.000000	21.610023
1580.000000	21.570340
1579.000000	21.539545
1578.000000	21.500920
1577.000000	21.479120
1576.000000	21.447373
1575.000000	21.431394
1574.000000	21.406949
1573.000000	21.379329
1572.000000	21.354672
1571.000000	21.330545
1570.000000	21.323349
1569.000000	21.313401
1568.000000	21.305253
1567.000000	21.286840
1566.000000	21.277739
1565.000000	21.275517
1564.000000	21.254881
1563.000000	21.241230
1562.000000	21.229695
1561.000000	21.214245
1560.000000	21.205462
1559.000000	21.201335
1558.000000	21.183768
1557.000000	21.179218
1556.000000	21.176466
1555.000000	21.140275
1554.000000	21.130751
1553.000000	21.115724
1552.000000	21.070008
1551.000000	21.047045
1550.000000	21.023234
1549.000000	20.998895
1548.000000	20.966936
1547.000000	20.931909
1546.000000	20.901855
1545.000000	20.868838
1544.000000	20.836245
1543.000000	20.819842
1542.000000	20.801852
1541.000000	20.766508
1540.000000	20.734337
1539.000000	20.718252
1538.000000	20.715607
1537.000000	20.698675
1536.000000	20.642695
1535.000000	20.617826
1534.000000	20.603540
1533.000000	20.556978
1532.000000	20.512956
1531.000000	20.487029
1530.000000	20.445758
1529.000000	20.409355
1528.000000	20.382052
1527.000000	20.345861
1526.000000	20.299828
1525.000000	20.254536
1524.000000	20.202047
1523.000000	20.144585
1522.000000	20.101515
1521.000000	20.057176
1520.000000	20.008074
1519.000000	19.963522
1518.000000	19.910822
1517.000000	19.860133
1516.000000	19.811560
1515.000000	19.755262
1514.000000	19.702986
1513.000000	19.656635
1512.000000	19.610920
1511.000000	19.545521
1510.000000	19.472503
1509.000000	19.420438
1508.000000	19.365516
1507.000000	19.313557
1506.000000	19.269534
1505.000000	19.209109
1504.000000	19.143499
1503.000000	19.078630
1502.000000	19.026459
1501.000000	18.983706
1500.000000	18.928467
1499.000000	18.885608
1498.000000	18.841374
1497.000000	18.784018
1496.000000	18.733858
1495.000000	18.704651
1494.000000	18.660523
1493.000000	18.596817
1492.000000	18.566023
1491.000000	18.526339
1490.000000	18.487079
1489.000000	18.461893
1488.000000	18.426654
1487.000000	18.399140
1486.000000	18.375435
1485.000000	18.328238
1484.000000	18.283158
1483.000000	18.243791
1482.000000	18.222521
1481.000000	18.201674
1480.000000	18.180086
1479.000000	18.151831
1478.000000	18.123047
1477.000000	18.116486
1476.000000	18.116804
1475.000000	18.095639
1474.000000	18.077438
1473.000000	18.068972
1472.000000	18.067913
1471.000000	18.062622
1470.000000	18.057437
1469.000000	18.054368
1468.000000	18.056696
1467.000000	18.052887
1466.000000	18.045796
1465.000000	18.047384
1464.000000	18.043997
1463.000000	18.044209
1462.000000	18.072358
1461.000000	18.088126
1460.000000	18.103364
1459.000000	18.130667
1458.000000	18.172467
1457.000000	18.213420
1456.000000	18.241252
1455.000000	18.282311
1454.000000	18.339773
1453.000000	18.404748
1452.000000	18.447924
1451.000000	18.506021
1450.000000	18.582214
1449.000000	18.636289
1448.000000	18.704122
1447.000000	18.777457
1446.000000	18.845713
1445.000000	18.917673
1444.000000	19.004871
1443.000000	19.089000
1442.000000	19.146991
1441.000000	19.242126
1440.000000	19.342658
1439.000000	19.420967
1438.000000	19.522346
1437.000000	19.630285
1436.000000	19.713462
1435.000000	19.822672
1434.000000	19.916219
1433.000000	20.050085
1432.000000	20.178766
1431.000000	20.301415
1430.000000	20.402688
1429.000000	20.521845
1428.000000	20.664494
1427.000000	20.820477
1426.000000	20.982281
1425.000000	21.119957
1424.000000	21.323243
1423.000000	21.532561
1422.000000	21.743784
1421.000000	21.928127
1420.000000	22.116810
1419.000000	22.350467
1418.000000	22.585712
1417.000000	22.837253
1416.000000	23.011438
1415.000000	23.249963
1414.000000	23.542882
1413.000000	23.820985
1412.000000	24.104273
1411.000000	24.359730
1410.000000	24.655717
1409.000000	24.983769
1408.000000	25.348752
1407.000000	25.743472
1406.000000	26.127716
1405.000000	26.482117
1404.000000	26.914193
1403.000000	27.322141
1402.000000	27.760354
1401.000000	28.123433
1400.000000	28.591171
1399.000000	29.078169
1398.000000	29.439343
1397.000000	29.721256
1396.000000	30.053752
1395.000000	30.502442
1394.000000	30.917056
1393.000000	31.222779
1392.000000	31.509348
1391.000000	31.919624
1390.000000	32.301222
1389.000000	32.643877
1388.000000	33.064418
1387.000000	33.572263
1386.000000	34.048361
1385.000000	34.563614
1384.000000	35.105110
1383.000000	35.685444
1382.000000	36.319430
1381.000000	36.867488
1380.000000	37.394381
1379.000000	37.652272
1378.000000	38.050695
1377.000000	38.269538
1376.000000	38.512719
1375.000000	38.707010
1374.000000	38.953684
1373.000000	39.199511
1372.000000	39.516874
1371.000000	39.870006
1370.000000	40.250545
1369.000000	40.570449
1368.000000	40.881674
1367.000000	41.196604
1366.000000	41.486665
1365.000000	41.707200
1364.000000	41.948582
1363.000000	42.151234
1362.000000	42.349652
1361.000000	42.518757
1360.000000	42.692095
1359.000000	42.811252
1358.000000	42.871994
1357.000000	42.959087
1356.000000	43.126816
1355.000000	43.306398
1354.000000	43.624714
1353.000000	43.979539
1352.000000	44.351718
1351.000000	44.815647
1350.000000	45.285607
1349.000000	45.737048
1348.000000	46.167748
1347.000000	46.535907
1346.000000	46.897504
1345.000000	47.229894
1344.000000	47.540802
1343.000000	47.906104
1342.000000	48.200080
1341.000000	48.516809
1340.000000	48.827823
1339.000000	49.147303
1338.000000	49.449427
1337.000000	49.739383
1336.000000	50.035793
1335.000000	50.325113
1334.000000	50.587025
1333.000000	50.869361
1332.000000	51.146829
1331.000000	51.404720
1330.000000	51.673405
1329.000000	51.913518
1328.000000	52.148551
1327.000000	52.414696
1326.000000	52.632797
1325.000000	52.839999
1324.000000	53.043814
1323.000000	53.269005
1322.000000	53.447000
1321.000000	53.639809
1320.000000	53.816111
1319.000000	54.000243
1318.000000	54.167020
1317.000000	54.361523
1316.000000	54.510945
1315.000000	54.669891
1314.000000	54.825557
1313.000000	54.958471
1312.000000	55.096464
1311.000000	55.227579
1310.000000	55.349593
1309.000000	55.477004
1308.000000	55.584097
1307.000000	55.689814
1306.000000	55.775425
1305.000000	55.862729
1304.000000	55.942731
1303.000000	56.028765
1302.000000	56.092894
1301.000000	56.136493
1300.000000	56.196600
1299.000000	56.247078
1298.000000	56.286762
1297.000000	56.327080
1296.000000	56.353430
1295.000000	56.379780
1294.000000	56.408987
1293.000000	56.427506
1292.000000	56.440205
1291.000000	56.466343
1290.000000	56.466767
1289.000000	56.460312
1288.000000	56.456290
1287.000000	56.433327
1286.000000	56.418617
1285.000000	56.393961
1284.000000	56.359568
1283.000000	56.313323
1282.000000	56.264327
1281.000000	56.220093
1280.000000	56.161996
1279.000000	56.125382
1278.000000	56.079349
1277.000000	56.025485
1276.000000	55.978605
1275.000000	55.923894
1274.000000	55.870454
1273.000000	55.831723
1272.000000	55.791721
1271.000000	55.759022
1270.000000	55.709074
1269.000000	55.665580
1268.000000	55.636691
1267.000000	55.590763
1266.000000	55.531185
1265.000000	55.496052
1264.000000	55.447373
1263.000000	55.394673
1262.000000	55.346947
1261.000000	55.303136
1260.000000	55.251918
1259.000000	55.212552
1258.000000	55.160064
1257.000000	55.092443
1256.000000	55.030007
1255.000000	54.980799
1254.000000	54.930216
1253.000000	54.849261
1252.000000	54.780688
1251.000000	54.716453
1250.000000	54.639414
1249.000000	54.573275
1248.000000	54.498458
1247.000000	54.404487
1246.000000	54.303426
1245.000000	54.212100
1244.000000	54.096436
1243.000000	53.983523
1242.000000	53.874631
1241.000000	53.751453
1240.000000	53.632613
1239.000000	53.506155
1238.000000	53.369114
1237.000000	53.244666
1236.000000	53.127520
1235.000000	52.984130
1234.000000	52.824548
1233.000000	52.670152
1232.000000	52.531736
1231.000000	52.380832
1230.000000	52.206965
1229.000000	52.046325
1228.000000	51.880289
1227.000000	51.714041
1226.000000	51.556365
1225.000000	51.393186
1224.000000	51.209053
1223.000000	51.031165
1222.000000	50.852747
1221.000000	50.666710
1220.000000	50.500145
1219.000000	50.327336
1218.000000	50.162992
1217.000000	50.000025
1216.000000	49.848909
1215.000000	49.694619
1214.000000	49.548584
1213.000000	49.408897
1212.000000	49.261062
1211.000000	49.121482
1210.000000	48.998833
1209.000000	48.878829
1208.000000	48.747185
1207.000000	48.635225
1206.000000	48.541889
1205.000000	48.456701
1204.000000	48.381567
1203.000000	48.325481
1202.000000	48.274368
1201.000000	48.235743
1200.000000	48.191085
1199.000000	48.132565
1198.000000	48.058806
1197.000000	47.983037
1196.000000	47.877108
1195.000000	47.719326
1194.000000	47.516992
1193.000000	47.258890
1192.000000	46.964490
1191.000000	46.610089
1190.000000	46.197802
1189.000000	45.780965
1188.000000	45.391218
1187.000000	45.078723
1186.000000	44.859987
1185.000000	44.731835
1184.000000	44.743264
1183.000000	44.878717
1182.000000	45.102533
1181.000000	45.467305
1180.000000	45.915254
1179.000000	46.400453
1178.000000	46.880678
1177.000000	47.339950
1176.000000	47.737739
1175.000000	48.095739
1174.000000	48.409292
1173.000000	48.717343
1172.000000	49.020209
1171.000000	49.331329
1170.000000	49.651867
1169.000000	49.954309
1168.000000	50.283313
1167.000000	50.620254
1166.000000	50.956454
1165.000000	51.291278
1164.000000	51.639859
1163.000000	51.984419
1162.000000	52.358715
1161.000000	52.726979
1160.000000	53.100535
1159.000000	53.460122
1158.000000	53.808597
1157.000000	54.138130
1156.000000	54.469780
1155.000000	54.756454
1154.000000	55.044505
1153.000000	55.261759
1152.000000	55.440706
1151.000000	55.570974
1150.000000	55.699020
1149.000000	55.812463
1148.000000	55.899026
1147.000000	55.978605
1146.000000	56.104852
1145.000000	56.258613
1144.000000	56.480841
1143.000000	56.729420
1142.000000	57.046360
1141.000000	57.399174
1140.000000	57.750295
1139.000000	58.127871
1138.000000	58.530846
1137.000000	58.914983
1136.000000	59.327693
1135.000000	59.786013
1134.000000	60.229412
1133.000000	60.662228
1132.000000	60.999380
1131.000000	61.365422
1130.000000	61.714956
1129.000000	62.018351
1128.000000	62.289787
1127.000000	62.510957
1126.000000	62.692867
1125.000000	62.847369
1124.000000	62.966420
1123.000000	63.063248
1122.000000	63.138700
1121.000000	63.215316
1120.000000	63.291614
1119.000000	63.343150
1118.000000	63.391828
1117.000000	63.410982
1116.000000	63.439766
1115.000000	63.460084
1114.000000	63.486752
1113.000000	63.488339
1112.000000	63.505694
1111.000000	63.494054
1110.000000	63.499768
1109.000000	63.530457
1108.000000	63.527282
1107.000000	63.531303
1106.000000	63.536383
1105.000000	63.524848
1104.000000	63.536171
1103.000000	63.538393
1102.000000	63.562839
1101.000000	63.559135
1100.000000	63.566013
1099.000000	63.554161
1098.000000	63.559875
1097.000000	63.545907
1096.000000	63.524425
1095.000000	63.499345
1094.000000	63.514901
1093.000000	63.464529
1092.000000	63.447597
1091.000000	63.441036
1090.000000	63.413099
1089.000000	63.363891
1088.000000	63.339975
1087.000000	63.324631
1086.000000	63.271931
1085.000000	63.228120
1084.000000	63.190870
1083.000000	63.169494
1082.000000	63.112667
1081.000000	63.085365
1080.000000	63.013088
1079.000000	62.965891
1078.000000	62.936578
1077.000000	62.893825
1076.000000	62.826945
1075.000000	62.810648
1074.000000	62.747895
1073.000000	62.703449
1072.000000	62.674136
1071.000000	62.639638
1070.000000	62.594981
1069.000000	62.543657
1068.000000	62.502174
1067.000000	62.463231
1066.000000	62.414976
1065.000000	62.373070
1064.000000	62.320899
1063.000000	62.285660
1062.000000	62.250844
1061.000000	62.214864
1060.000000	62.158990
1059.000000	62.130841
1058.000000	62.083009
1057.000000	62.047875
1056.000000	62.011578
1055.000000	61.962476
1054.000000	61.933375
1053.000000	61.901734
1052.000000	61.845859
1051.000000	61.813372
1050.000000	61.795805
1049.000000	61.783741
1048.000000	61.759719
1047.000000	61.730406
1046.000000	61.707866
1045.000000	61.694956
1044.000000	61.669664
1043.000000	61.654954
1042.000000	61.644901
1041.000000	61.635589
1040.000000	61.620562
1039.000000	61.605641
1038.000000	61.593048
1037.000000	61.586381
1036.000000	61.573576
1035.000000	61.558126
1034.000000	61.528178
1033.000000	61.516009
1032.000000	61.484156
1031.000000	61.461616
1030.000000	61.440769
1029.000000	61.416112
1028.000000	61.402990
1027.000000	61.387963
1026.000000	61.364364
1025.000000	61.335157
1024.000000	61.293463
1023.000000	61.269864
1022.000000	61.248594
1021.000000	61.213990
1020.000000	61.192508
1019.000000	61.172719
1018.000000	61.157692
1017.000000	61.150602
1016.000000	61.138115
1015.000000	61.138855
1014.000000	61.148908
1013.000000	61.166581
1012.000000	61.163300
1011.000000	61.207005
1010.000000	61.237482
1009.000000	61.273674
1008.000000	61.312723
1007.000000	61.372830
1006.000000	61.435477
1005.000000	61.495162
1004.000000	61.552306
1003.000000	61.612943
1002.000000	61.673579
1001.000000	61.739084
1000.000000	61.814536
999.000000	61.883532
998.000000	61.964699
997.000000	62.033272
996.000000	62.111369
995.000000	62.222060
994.000000	62.307883
993.000000	62.395398
992.000000	62.497729
991.000000	62.609373
990.000000	62.731387
989.000000	62.818162
988.000000	62.927583
987.000000	63.054570
986.000000	63.174785
985.000000	63.319975
984.000000	63.462624
983.000000	63.592892
982.000000	63.728346
981.000000	63.882953
980.000000	64.012692
979.000000	64.169205
978.000000	64.317569
977.000000	64.470800
976.000000	64.604138
975.000000	64.765624
974.000000	64.939491
973.000000	65.093252
972.000000	65.255267
971.000000	65.421409
970.000000	65.583953
969.000000	65.746498
968.000000	65.910947
967.000000	66.083015
966.000000	66.252544
965.000000	66.419426
964.000000	66.599961
963.000000	66.787056
962.000000	66.973199
961.000000	67.151722
960.000000	67.317229
959.000000	67.491837
958.000000	67.675017
957.000000	67.849308
956.000000	68.025397
955.000000	68.179582
954.000000	68.346253
953.000000	68.516099
952.000000	68.671447
951.000000	68.836849
950.000000	68.985424
949.000000	69.131460
948.000000	69.291465
947.000000	69.443850
946.000000	69.579409
945.000000	69.720683
944.000000	69.873703
943.000000	70.013495
942.000000	70.140060
941.000000	70.274455
940.000000	70.404723
939.000000	70.529489
938.000000	70.651397
937.000000	70.789708
936.000000	70.908970
935.000000	71.019132
934.000000	71.136490
933.000000	71.245593
932.000000	71.358824
931.000000	71.488986
930.000000	71.604334
929.000000	71.693225
928.000000	71.815556
927.000000	71.923390
926.000000	72.025827
925.000000	72.124454
924.000000	72.213557
923.000000	72.354831
922.000000	72.465098
921.000000	72.540021
920.000000	72.640130
919.000000	72.738334
918.000000	72.831670
917.000000	72.905322
916.000000	72.984796
915.000000	73.057496
914.000000	73.123741
913.000000	73.192844
912.000000	73.287132
911.000000	73.354436
910.000000	73.406289
909.000000	73.444491
908.000000	73.484069
907.000000	73.545129
906.000000	73.606189
905.000000	73.658254
904.000000	73.724922
903.000000	73.789157
902.000000	73.851910
901.000000	73.917943
900.000000	73.981437
899.000000	74.026306
898.000000	74.061334
897.000000	74.099747
896.000000	74.144828
895.000000	74.193189
894.000000	74.252873
893.000000	74.280176
892.000000	74.260387
891.000000	74.252979
890.000000	74.285149
889.000000	74.266101
888.000000	74.265255
887.000000	74.277742
886.000000	74.263456
885.000000	74.218058
884.000000	74.181443
883.000000	74.112446
882.000000	74.069376
881.000000	73.971172
880.000000	73.920166
879.000000	73.824925
878.000000	73.737515
877.000000	73.612961
876.000000	73.442269
875.000000	73.309990
874.000000	73.091148
873.000000	72.813362
872.000000	72.483300
871.000000	72.174614
870.000000	71.998313
869.000000	71.973974
868.000000	72.016620
867.000000	72.089638
866.000000	72.145724
865.000000	72.186043
864.000000	72.216732
863.000000	72.222552
862.000000	72.273982
861.000000	72.326788
860.000000	72.336629
859.000000	72.385414
858.000000	72.406367
857.000000	72.134300
856.000000	72.411800
855.000000	72.673000
854.000000	72.506300
853.000000	72.839100
852.000000	72.820300
851.000000	72.761500
850.000000	72.721200
849.000000	72.366800
848.000000	72.482300
847.000000	72.375000
846.000000	72.074100
845.000000	72.432800
844.000000	72.245100
843.000000	72.434600
842.000000	72.307100
841.000000	72.049600
840.000000	72.168100
839.000000	71.940600
838.000000	72.056100
837.000000	72.116400
836.000000	72.140300
835.000000	72.294700
834.000000	72.460300
833.000000	72.588500
832.000000	72.459500
831.000000	72.907300
830.000000	72.806400
829.000000	73.335200
828.000000	73.362900
827.000000	73.821000
826.000000	74.331500
825.000000	74.582700
824.000000	74.900700
823.000000	75.539100
822.000000	75.655000
821.000000	76.106100
820.000000	76.676600
819.000000	77.156800
818.000000	77.373700
817.000000	77.635400
816.000000	78.030400
815.000000	78.274700
814.000000	78.785200
813.000000	79.249300
812.000000	79.413500
811.000000	79.875700
810.000000	80.053800
809.000000	80.493400
808.000000	80.721800
807.000000	80.927900
806.000000	81.260900
805.000000	81.601500
804.000000	81.695600
803.000000	82.231000
802.000000	82.292200
801.000000	82.635300
800.000000	82.771800
799.000000	82.944400
798.000000	83.004000
797.000000	83.365100
796.000000	83.665300
795.000000	83.845700
794.000000	83.925500
793.000000	84.190400
792.000000	84.415000
791.000000	84.742300
790.000000	84.798400
789.000000	85.142200
788.000000	85.413500
787.000000	85.505300
786.000000	85.731100
785.000000	85.920200
784.000000	86.229600
783.000000	86.242000
782.000000	86.518400
781.000000	86.832600
780.000000	87.077600
779.000000	87.169100
778.000000	87.195200
777.000000	87.510400
776.000000	87.516100
775.000000	87.482200
774.000000	87.576900
773.000000	87.819800
772.000000	87.821600
771.000000	87.920300
770.000000	87.962300
769.000000	87.919900
768.000000	87.991200
767.000000	88.055300
766.000000	88.151400
765.000000	88.234000
764.000000	88.125500
763.000000	88.371600
762.000000	88.602200
761.000000	88.463500
760.000000	88.584100
759.000000	88.492200
758.000000	88.583400
757.000000	88.592600
756.000000	88.589100
755.000000	88.685000
754.000000	88.681400
753.000000	88.786800
752.000000	88.779600
751.000000	88.895700
750.000000	88.824100
749.000000	88.765600
748.000000	88.629500
747.000000	88.506900
746.000000	88.566700
745.000000	88.507700
744.000000	88.345900
743.000000	88.343100
742.000000	88.197000
741.000000	88.102100
740.000000	88.006400
739.000000	87.806900
738.000000	87.685900
737.000000	87.496000
736.000000	87.331100
735.000000	87.120000
734.000000	86.834900
733.000000	86.611000
732.000000	86.444400
731.000000	86.162700
730.000000	85.801400
729.000000	85.538500
728.000000	85.203600
727.000000	84.695600
726.000000	84.270700
725.000000	83.918700
724.000000	83.427800
723.000000	82.896300
722.000000	82.411500
721.000000	81.798100
720.000000	81.330700
719.000000	80.920600
718.000000	80.247200
717.000000	79.696800
716.000000	79.143200
715.000000	78.540700
714.000000	77.987700
713.000000	77.455600
712.000000	76.825200
711.000000	76.270400
710.000000	75.752700
709.000000	75.197800
708.000000	74.651300
707.000000	74.166200
706.000000	73.635300
705.000000	73.180300
704.000000	72.715600
703.000000	72.297300
702.000000	71.897100
701.000000	71.487700
700.000000	71.165300
699.000000	70.802200
698.000000	70.526900
697.000000	70.265300
696.000000	69.983900
695.000000	69.729000
694.000000	69.512500
693.000000	69.333400
692.000000	69.165400
691.000000	68.995200
690.000000	68.854800
689.000000	68.841800
688.000000	68.744700
687.000000	68.607400
686.000000	68.573100
685.000000	68.571200
684.000000	68.570200
683.000000	68.534900
682.000000	68.482400
681.000000	68.496700
680.000000	68.487200
679.000000	68.434900
678.000000	68.426000
677.000000	68.398600
676.000000	68.414700
675.000000	68.378600
674.000000	68.249700
673.000000	68.162400
672.000000	68.068500
671.000000	67.957000
670.000000	67.836700
669.000000	67.642400
668.000000	67.449400
667.000000	67.230300
666.000000	66.980100
665.000000	66.772300
664.000000	66.475500
663.000000	66.166000
662.000000	65.841900
661.000000	65.409500
660.000000	64.932900
659.000000	64.372600
658.000000	63.809400
657.000000	63.210400
656.000000	62.547500
655.000000	61.820200
654.000000	61.066400
653.000000	60.253600
652.000000	59.436500
651.000000	58.633200
650.000000	57.834500
649.000000	57.068400
648.000000	56.343700
647.000000	55.645700
646.000000	55.043500
645.000000	54.574600
644.000000	54.156300
643.000000	53.816700
642.000000	53.602600
641.000000	53.517700
640.000000	53.499700
639.000000	53.545900
638.000000	53.737200
637.000000	54.012800
636.000000	54.366300
635.000000	54.832200
634.000000	55.403400
633.000000	56.054600
632.000000	56.767100
631.000000	57.582200
630.000000	58.480600
629.000000	59.426300
628.000000	60.439600
627.000000	61.553200
626.000000	62.706800
625.000000	63.937900
624.000000	65.200800
623.000000	66.493800
622.000000	67.844200
621.000000	69.176700
620.000000	70.460700
619.000000	71.778300
618.000000	73.069000
617.000000	74.275400
616.000000	75.470700
615.000000	76.592000
614.000000	77.635300
613.000000	78.678000
612.000000	79.725100
611.000000	80.654400
610.000000	81.518300
609.000000	82.335200
608.000000	83.161800
607.000000	83.919900
606.000000	84.648800
605.000000	85.358800
604.000000	85.977900
603.000000	86.628100
602.000000	87.238700
601.000000	87.825500
600.000000	88.378200
599.000000	88.886000
598.000000	89.312900
597.000000	89.750000
596.000000	90.124400
595.000000	90.504800
594.000000	90.837200
593.000000	91.105900
592.000000	91.360700
591.000000	91.585700
590.000000	91.733500
589.000000	91.952700
588.000000	92.028600
587.000000	92.116900
586.000000	92.264300
585.000000	92.305100
584.000000	92.350800
583.000000	92.362000
582.000000	92.378700
581.000000	92.389000
580.000000	92.391500
579.000000	92.359800
578.000000	92.283500
577.000000	92.259400
576.000000	92.207200
575.000000	92.123600
574.000000	92.028900
573.000000	91.973500
572.000000	91.864500
571.000000	91.756600
570.000000	91.607900
569.000000	91.480400
568.000000	91.318200
567.000000	91.157000
566.000000	90.934600
565.000000	90.689500
564.000000	90.413100
563.000000	90.140500
562.000000	89.843000
561.000000	89.547200
560.000000	89.180400
559.000000	88.745900
558.000000	88.325100
557.000000	87.897500
556.000000	87.433800
555.000000	86.946300
554.000000	86.409200
553.000000	85.827700
552.000000	85.241800
551.000000	84.626000
550.000000	83.964300
549.000000	83.290500
548.000000	82.598500
547.000000	81.886400
546.000000	81.164200
545.000000	80.381800
544.000000	79.631000
543.000000	78.782700
542.000000	77.918700
541.000000	77.043200
540.000000	76.133800
539.000000	75.198700
538.000000	74.247700
537.000000	73.237600
536.000000	72.192700
535.000000	71.136100
534.000000	69.995200
533.000000	68.856800
532.000000	67.605100
531.000000	66.308800
530.000000	64.993700
529.000000	63.696800
528.000000	62.245500
527.000000	60.836800
526.000000	59.354200
525.000000	57.874400
524.000000	56.327500
523.000000	54.752400
522.000000	53.173900
521.000000	51.565900
520.000000	49.916300
519.000000	48.376000
518.000000	46.825900
517.000000	45.265500
516.000000	43.814300
515.000000	42.398200
514.000000	41.000600
513.000000	39.691400
512.000000	38.521900
511.000000	37.394200
510.000000	36.365700
509.000000	35.462900
508.000000	34.692500
507.000000	34.002900
506.000000	33.442200
505.000000	32.926100
504.000000	32.518800
503.000000	32.251700
502.000000	32.011600
501.000000	31.875900
500.000000	31.796300
499.000000	31.793000
498.000000	31.776100
497.000000	31.795000
496.000000	31.860400
495.000000	31.948100
494.000000	32.024200
493.000000	32.110500
492.000000	32.195900
491.000000	32.225700
490.000000	32.293200
489.000000	32.318800
488.000000	32.314100
487.000000	32.317800
486.000000	32.260100
485.000000	32.206300
484.000000	32.116600
483.000000	32.017800
482.000000	31.878600
481.000000	31.719900
480.000000	31.554600
479.000000	31.356700
478.000000	31.146500
477.000000	30.953000
476.000000	30.715500
475.000000	30.534900
474.000000	30.272000
473.000000	30.055500
472.000000	29.823900
471.000000	29.583100
470.000000	29.329500
469.000000	29.096900
468.000000	28.848400
467.000000	28.597800
466.000000	28.334000
465.000000	28.064000
464.000000	27.801200
463.000000	27.564900
462.000000	27.303400
461.000000	27.001100
460.000000	26.709900
459.000000	26.447800
458.000000	26.152800
457.000000	25.887600
456.000000	25.530900
455.000000	25.198400
454.000000	24.841300
453.000000	24.443100
452.000000	24.052500
451.000000	23.643800
450.000000	23.189800
449.000000	22.790900
448.000000	22.285500
447.000000	21.828700
446.000000	21.285200
445.000000	20.773300
444.000000	20.263100
443.000000	19.655700
442.000000	19.095400
441.000000	18.501100
440.000000	17.909900
439.000000	17.308500
438.000000	16.714200
437.000000	16.108300
436.000000	15.539500
435.000000	14.988500
434.000000	14.393900
433.000000	13.867000
432.000000	13.319900
431.000000	12.807700
430.000000	12.331700
429.000000	11.877800
428.000000	11.416800
427.000000	11.007900
426.000000	10.589200
425.000000	10.223100
424.000000	9.896100
423.000000	9.564800
422.000000	9.254200
421.000000	8.975500
420.000000	8.717400
419.000000	8.529700
418.000000	8.304300
417.000000	8.105700
416.000000	7.935900
415.000000	7.805000
414.000000	7.654900
413.000000	7.535200
412.000000	7.406100
411.000000	7.295900
410.000000	7.215100
409.000000	7.127900
408.000000	7.054900
407.000000	6.995800
406.000000	6.951100
405.000000	6.875900
404.000000	6.816600
403.000000	6.777300
402.000000	6.766800
401.000000	6.746400
400.000000	6.707500
399.000000	6.675700
398.000000	6.648900
397.000000	6.637100
396.000000	6.599200
395.000000	6.583300
394.000000	6.561800
393.000000	6.530200
392.000000	6.502900
391.000000	6.494500
390.000000	6.491700
389.000000	6.484600
388.000000	6.448300
387.000000	6.421400
386.000000	6.428500
385.000000	6.399900
384.000000	6.390400
383.000000	6.361700
382.000000	6.330400
381.000000	6.315200
380.000000	6.299400
379.000000	6.268200
378.000000	6.256800
377.000000	6.244000
376.000000	6.205700
375.000000	6.200600
374.000000	6.224000
373.000000	6.172200
372.000000	6.166100
371.000000	6.123000
370.000000	6.092500
369.000000	6.049100
368.000000	5.995800
367.000000	6.031900
366.000000	6.072500
365.000000	6.072300
364.000000	6.048100
363.000000	6.011600
362.000000	5.989300
361.000000	5.957500
360.000000	5.947400
359.000000	5.898400
358.000000	5.878900
357.000000	5.894000
356.000000	5.848000
355.000000	5.857500
354.000000	5.871200
353.000000	5.836200
352.000000	5.771900
351.000000	5.739000
350.000000	5.744500
349.000000	5.751200
348.000000	5.741800
347.000000	5.697400
346.000000	5.763200
345.000000	5.743100
344.000000	5.650100
343.000000	5.702400
342.000000	5.669700
341.000000	5.665500
340.000000	5.679900
339.000000	5.694600
338.000000	5.684900
337.000000	5.601900
336.000000	5.604200
335.000000	5.580500
334.000000	5.574300
333.000000	5.573000
332.000000	5.558400
331.000000	5.593600
330.000000	5.551300
329.000000	5.597900
328.000000	5.622500
327.000000	5.477500
326.000000	5.471700
325.000000	5.485100
324.000000	5.476200
323.000000	5.517300
322.000000	5.554500
321.000000	5.534000
320.000000	5.549100
319.000000	5.533000
318.000000	5.630800
317.000000	5.568700
316.000000	5.437200
315.000000	5.463700
314.000000	5.503300
313.000000	5.516500
312.000000	5.533400
311.000000	5.528300
310.000000	5.501600
309.000000	5.513300
308.000000	5.546700
307.000000	5.537800
306.000000	5.544000
305.000000	5.573700
304.000000	5.556200
303.000000	5.548300
302.000000	5.575400
301.000000	5.580300
300.000000	5.582900
299.000000	5.582100
298.000000	5.611600
297.000000	5.629400
296.000000	5.622200
295.000000	5.621900
294.000000	5.615600
293.000000	5.617800
292.000000	5.658600
291.000000	5.670000
290.000000	5.671800
289.000000	5.683600
288.000000	5.678000
287.000000	5.709200
286.000000	5.727800
285.000000	5.705300
284.000000	5.688700
283.000000	5.736900
282.000000	5.762000
281.000000	5.776600
280.000000	5.752400
279.000000	5.777200
278.000000	5.834500
277.000000	5.803100
276.000000	5.789800
275.000000	5.851000
274.000000	5.854000
273.000000	5.842500
272.000000	5.896800
271.000000	5.886000
270.000000	5.869000
269.000000	5.942700
268.000000	5.956600
267.000000	5.960700
266.000000	5.946000
265.000000	5.981500
264.000000	6.029200
263.000000	6.016300
262.000000	6.061400
261.000000	6.079200
260.000000	6.092600
259.000000	6.109100
258.000000	6.105600
257.000000	6.171000
256.000000	6.184700
255.000000	6.185000
254.000000	6.166900
253.000000	6.202400
252.000000	6.244700
251.000000	6.215700
250.000000	6.244100
