PE UV       SUBTECH     SPECTRUM    ASCII       PEDS        4.00        
   -1
CICIMAUCR0003-3.Sample.ASC
24/05/03
16:05:21.00
24/05/03
16:05:21.00
Vinicio Soto Monge
C. kalinini
250,000000
1
Lambda 1050
1050L1511233
PerkinElmer UV WinLab 6.3.2.0749 / 2.02.05 Lambda 900 UV/VIS/NIR, Aug  7 2015 09:38:08

0
0
3350/servo 860,8/2
0
0
UV/VIS
1
1
1
DoubleDePol,CommonBeamDepol,RBeamAtt,SBeamAtt,60mm sphere, WB InGaAs Detector
0
0
0
0
Program
Program
3350/servo 860,8/2
3350/0,2 860,8/0,2
3350/0,2 860,8/0,2
0
15.00
 
 
 
0
 
860,8
319,2
860,8
Front
100
on
S:100 R:100
0
0
0
0
 
0
 
 
 
0
 
 
0
0
0
0
0
 
 
 
 
0
0


0
0
#HDR
-1
-1
#GR
nm
%R
1.0
0.0
2500,000000
-1,000000
2251
8
101,669700
5,424300
#DATA
2500.000000	9.616116
2499.000000	9.476827
2498.000000	9.414356
2497.000000	9.302067
2496.000000	9.405319
2495.000000	9.423281
2494.000000	9.243098
2493.000000	9.334037
2492.000000	9.213501
2491.000000	9.219375
2490.000000	9.190003
2489.000000	9.227170
2488.000000	9.183790
2487.000000	9.094998
2486.000000	9.260269
2485.000000	9.252248
2484.000000	9.097596
2483.000000	9.091609
2482.000000	9.119060
2481.000000	9.151933
2480.000000	9.133407
2479.000000	9.120302
2478.000000	9.195652
2477.000000	9.138603
2476.000000	9.179271
2475.000000	9.127758
2474.000000	9.132955
2473.000000	9.130808
2472.000000	9.186840
2471.000000	9.164812
2470.000000	9.181531
2469.000000	9.149561
2468.000000	9.202204
2467.000000	9.199606
2466.000000	9.217906
2465.000000	9.262076
2464.000000	9.289640
2463.000000	9.348045
2462.000000	9.404754
2461.000000	9.461238
2460.000000	9.490383
2459.000000	9.538394
2458.000000	9.604480
2457.000000	9.688076
2456.000000	9.760488
2455.000000	9.831432
2454.000000	9.933893
2453.000000	10.005740
2452.000000	10.098373
2451.000000	10.223767
2450.000000	10.278556
2449.000000	10.363847
2448.000000	10.472860
2447.000000	10.564702
2446.000000	10.655528
2445.000000	10.749404
2444.000000	10.880446
2443.000000	10.957829
2442.000000	11.033969
2441.000000	11.114740
2440.000000	11.221494
2439.000000	11.290969
2438.000000	11.380326
2437.000000	11.470587
2436.000000	11.546727
2435.000000	11.616880
2434.000000	11.685112
2433.000000	11.774243
2432.000000	11.847785
2431.000000	11.904043
2430.000000	11.962334
2429.000000	12.011814
2428.000000	12.094619
2427.000000	12.151215
2426.000000	12.203519
2425.000000	12.234924
2424.000000	12.276496
2423.000000	12.310951
2422.000000	12.340323
2421.000000	12.369920
2420.000000	12.421207
2419.000000	12.447303
2418.000000	12.504125
2417.000000	12.515648
2416.000000	12.547166
2415.000000	12.584106
2414.000000	12.606248
2413.000000	12.652903
2412.000000	12.689166
2411.000000	12.702609
2410.000000	12.724976
2409.000000	12.765306
2408.000000	12.785188
2407.000000	12.813430
2406.000000	12.852742
2405.000000	12.873415
2404.000000	12.904707
2403.000000	12.926849
2402.000000	12.970228
2401.000000	13.002537
2400.000000	13.030666
2399.000000	13.076418
2398.000000	13.156398
2397.000000	13.234685
2396.000000	13.284051
2395.000000	13.303369
2394.000000	13.315682
2393.000000	13.329012
2392.000000	13.359514
2391.000000	13.398600
2390.000000	13.419273
2389.000000	13.437687
2388.000000	13.459716
2387.000000	13.490895
2386.000000	13.516312
2385.000000	13.505128
2384.000000	13.477113
2383.000000	13.495074
2382.000000	13.518007
2381.000000	13.501514
2380.000000	13.486602
2379.000000	13.469657
2378.000000	13.450791
2377.000000	13.429666
2376.000000	13.416788
2375.000000	13.388207
2374.000000	13.360756
2373.000000	13.343133
2372.000000	13.285859
2371.000000	13.243722
2370.000000	13.210962
2369.000000	13.150750
2368.000000	13.101722
2367.000000	13.056648
2366.000000	12.984236
2365.000000	12.897138
2364.000000	12.831053
2363.000000	12.756607
2362.000000	12.675948
2361.000000	12.616528
2360.000000	12.536886
2359.000000	12.448658
2358.000000	12.394999
2357.000000	12.348908
2356.000000	12.300784
2355.000000	12.283952
2354.000000	12.268927
2353.000000	12.249836
2352.000000	12.238200
2351.000000	12.254580
2350.000000	12.301462
2349.000000	12.323942
2348.000000	12.367096
2347.000000	12.422224
2346.000000	12.461649
2345.000000	12.523781
2344.000000	12.577780
2343.000000	12.631100
2342.000000	12.681484
2341.000000	12.740227
2340.000000	12.778071
2339.000000	12.790384
2338.000000	12.791288
2337.000000	12.806991
2336.000000	12.806539
2335.000000	12.792757
2334.000000	12.753783
2333.000000	12.713905
2332.000000	12.696396
2331.000000	12.657761
2330.000000	12.585462
2329.000000	12.495879
2328.000000	12.444365
2327.000000	12.345406
2326.000000	12.258421
2325.000000	12.161834
2324.000000	12.040959
2323.000000	11.943468
2322.000000	11.834003
2321.000000	11.695844
2320.000000	11.562656
2319.000000	11.429919
2318.000000	11.287241
2317.000000	11.156877
2316.000000	11.024366
2315.000000	10.871183
2314.000000	10.720145
2313.000000	10.613391
2312.000000	10.522340
2311.000000	10.413778
2310.000000	10.317982
2309.000000	10.275732
2308.000000	10.245796
2307.000000	10.226930
2306.000000	10.203772
2305.000000	10.227721
2304.000000	10.290418
2303.000000	10.373223
2302.000000	10.443602
2301.000000	10.554535
2300.000000	10.652252
2299.000000	10.794139
2298.000000	10.871070
2297.000000	10.959636
2296.000000	11.073620
2295.000000	11.177889
2294.000000	11.294471
2293.000000	11.357055
2292.000000	11.423028
2291.000000	11.463244
2290.000000	11.503235
2289.000000	11.532719
2288.000000	11.528314
2287.000000	11.489453
2286.000000	11.494084
2285.000000	11.471943
2284.000000	11.414894
2283.000000	11.338867
2282.000000	11.288145
2281.000000	11.239908
2280.000000	11.175065
2279.000000	11.124117
2278.000000	11.060516
2277.000000	11.033065
2276.000000	10.989460
2275.000000	10.940997
2274.000000	10.955795
2273.000000	10.930378
2272.000000	10.936817
2271.000000	10.968222
2270.000000	11.026965
2269.000000	11.086047
2268.000000	11.200031
2267.000000	11.305203
2266.000000	11.461776
2265.000000	11.618010
2264.000000	11.806552
2263.000000	12.037231
2262.000000	12.280450
2261.000000	12.608055
2260.000000	12.891716
2259.000000	13.172666
2258.000000	13.488974
2257.000000	13.851486
2256.000000	14.157628
2255.000000	14.482635
2254.000000	14.789115
2253.000000	15.137167
2252.000000	15.459237
2251.000000	15.749902
2250.000000	16.006338
2249.000000	16.244247
2248.000000	16.532878
2247.000000	16.764574
2246.000000	16.964639
2245.000000	17.157023
2244.000000	17.329298
2243.000000	17.547889
2242.000000	17.700508
2241.000000	17.829743
2240.000000	17.965981
2239.000000	18.100413
2238.000000	18.241622
2237.000000	18.352894
2236.000000	18.434231
2235.000000	18.502124
2234.000000	18.580072
2233.000000	18.665136
2232.000000	18.720151
2231.000000	18.766242
2230.000000	18.822838
2229.000000	18.816060
2228.000000	18.851984
2227.000000	18.867348
2226.000000	18.879661
2225.000000	18.875368
2224.000000	18.869720
2223.000000	18.825889
2222.000000	18.802165
2221.000000	18.790304
2220.000000	18.751330
2219.000000	18.719812
2218.000000	18.701850
2217.000000	18.639041
2216.000000	18.612041
2215.000000	18.575892
2214.000000	18.533077
2213.000000	18.513647
2212.000000	18.472527
2211.000000	18.462360
2210.000000	18.416721
2209.000000	18.398646
2208.000000	18.357300
2207.000000	18.321490
2206.000000	18.298105
2205.000000	18.291666
2204.000000	18.284775
2203.000000	18.253144
2202.000000	18.251676
2201.000000	18.277658
2200.000000	18.245350
2199.000000	18.222643
2198.000000	18.230099
2197.000000	18.228969
2196.000000	18.217786
2195.000000	18.198807
2194.000000	18.191351
2193.000000	18.183782
2192.000000	18.172260
2191.000000	18.173841
2190.000000	18.156331
2189.000000	18.153281
2188.000000	18.133399
2187.000000	18.118713
2186.000000	18.119052
2185.000000	18.108546
2184.000000	18.076689
2183.000000	18.077028
2182.000000	18.060987
2181.000000	18.016930
2180.000000	18.022352
2179.000000	17.995918
2178.000000	17.995466
2177.000000	17.996144
2176.000000	18.009248
2175.000000	17.996370
2174.000000	17.977956
2173.000000	17.977617
2172.000000	17.984508
2171.000000	18.006763
2170.000000	18.025628
2169.000000	18.027888
2168.000000	18.041670
2167.000000	18.079175
2166.000000	18.102559
2165.000000	18.117358
2164.000000	18.137014
2163.000000	18.181975
2162.000000	18.211008
2161.000000	18.229195
2160.000000	18.271897
2159.000000	18.312452
2158.000000	18.356735
2157.000000	18.410056
2156.000000	18.459762
2155.000000	18.508789
2154.000000	18.571712
2153.000000	18.600067
2152.000000	18.677111
2151.000000	18.731561
2150.000000	18.784317
2149.000000	18.852323
2148.000000	18.916375
2147.000000	18.965403
2146.000000	19.018611
2145.000000	19.064137
2144.000000	19.121976
2143.000000	19.151686
2142.000000	19.206475
2141.000000	19.267478
2140.000000	19.328254
2139.000000	19.362031
2138.000000	19.412867
2137.000000	19.455116
2136.000000	19.497592
2135.000000	19.517587
2134.000000	19.558369
2133.000000	19.593163
2132.000000	19.603894
2131.000000	19.607396
2130.000000	19.638575
2129.000000	19.683762
2128.000000	19.682068
2127.000000	19.684440
2126.000000	19.690766
2125.000000	19.679357
2124.000000	19.684892
2123.000000	19.688507
2122.000000	19.669867
2121.000000	19.663767
2120.000000	19.655746
2119.000000	19.629086
2118.000000	19.609769
2117.000000	19.572377
2116.000000	19.549444
2115.000000	19.529675
2114.000000	19.508663
2113.000000	19.488555
2112.000000	19.450711
2111.000000	19.416256
2110.000000	19.391968
2109.000000	19.350735
2108.000000	19.323510
2107.000000	19.289280
2106.000000	19.250985
2105.000000	19.222517
2104.000000	19.182075
2103.000000	19.156770
2102.000000	19.142310
2101.000000	19.118474
2100.000000	19.076902
2099.000000	19.037815
2098.000000	19.013188
2097.000000	19.000649
2096.000000	18.981783
2095.000000	18.949023
2094.000000	18.924622
2093.000000	18.909710
2092.000000	18.879209
2091.000000	18.883728
2090.000000	18.895476
2089.000000	18.869720
2088.000000	18.833909
2087.000000	18.806797
2086.000000	18.803860
2085.000000	18.786350
2084.000000	18.761949
2083.000000	18.732352
2082.000000	18.724670
2081.000000	18.694056
2080.000000	18.671575
2079.000000	18.651128
2078.000000	18.608539
2077.000000	18.585833
2076.000000	18.531496
2075.000000	18.481225
2074.000000	18.455130
2073.000000	18.406328
2072.000000	18.367241
2071.000000	18.337757
2070.000000	18.301268
2069.000000	18.254274
2068.000000	18.213041
2067.000000	18.169097
2066.000000	18.113630
2065.000000	18.092392
2064.000000	18.073413
2063.000000	18.037038
2062.000000	18.040088
2061.000000	18.029921
2060.000000	18.013880
2059.000000	18.002696
2058.000000	18.001905
2057.000000	18.026532
2056.000000	18.083919
2055.000000	18.145712
2054.000000	18.204342
2053.000000	18.286922
2052.000000	18.378764
2051.000000	18.481903
2050.000000	18.613962
2049.000000	18.761271
2048.000000	18.930270
2047.000000	19.080517
2046.000000	19.247821
2045.000000	19.422017
2044.000000	19.621743
2043.000000	19.783061
2042.000000	19.974088
2041.000000	20.193584
2040.000000	20.361227
2039.000000	20.531695
2038.000000	20.678326
2037.000000	20.847213
2036.000000	21.043211
2035.000000	21.186115
2034.000000	21.333763
2033.000000	21.462094
2032.000000	21.597316
2031.000000	21.736830
2030.000000	21.858496
2029.000000	21.991684
2028.000000	22.092112
2027.000000	22.213100
2026.000000	22.307202
2025.000000	22.416893
2024.000000	22.511560
2023.000000	22.596624
2022.000000	22.686094
2021.000000	22.776920
2020.000000	22.874185
2019.000000	22.918129
2018.000000	23.010649
2017.000000	23.047477
2016.000000	23.113563
2015.000000	23.180778
2014.000000	23.223706
2013.000000	23.272508
2012.000000	23.295779
2011.000000	23.351472
2010.000000	23.373049
2009.000000	23.373952
2008.000000	23.395190
2007.000000	23.416654
2006.000000	23.399935
2005.000000	23.405809
2004.000000	23.400500
2003.000000	23.388299
2002.000000	23.350003
2001.000000	23.324699
2000.000000	23.280754
1999.000000	23.252061
1998.000000	23.215572
1997.000000	23.167900
1996.000000	23.115935
1995.000000	23.056288
1994.000000	22.988621
1993.000000	22.924342
1992.000000	22.841537
1991.000000	22.772175
1990.000000	22.688919
1989.000000	22.625657
1988.000000	22.534266
1987.000000	22.427625
1986.000000	22.339850
1985.000000	22.250605
1984.000000	22.152437
1983.000000	22.049411
1982.000000	21.964685
1981.000000	21.863579
1980.000000	21.779193
1979.000000	21.646795
1978.000000	21.567153
1977.000000	21.473390
1976.000000	21.350143
1975.000000	21.251749
1974.000000	21.139007
1973.000000	21.065578
1972.000000	20.978255
1971.000000	20.857267
1970.000000	20.760906
1969.000000	20.672339
1968.000000	20.606253
1967.000000	20.484926
1966.000000	20.405849
1965.000000	20.340554
1964.000000	20.228152
1963.000000	20.112925
1962.000000	20.018823
1961.000000	19.923479
1960.000000	19.834687
1959.000000	19.749170
1958.000000	19.657215
1957.000000	19.567180
1956.000000	19.470367
1955.000000	19.368696
1954.000000	19.276628
1953.000000	19.206250
1952.000000	19.119604
1951.000000	19.017142
1950.000000	18.962579
1949.000000	18.879887
1948.000000	18.796630
1947.000000	18.759125
1946.000000	18.687391
1945.000000	18.639831
1944.000000	18.570131
1943.000000	18.546746
1942.000000	18.530479
1941.000000	18.521216
1940.000000	18.499413
1939.000000	18.497832
1938.000000	18.488794
1937.000000	18.524153
1936.000000	18.553863
1935.000000	18.559512
1934.000000	18.637007
1933.000000	18.690441
1932.000000	18.785333
1931.000000	18.851080
1930.000000	18.950830
1929.000000	19.071254
1928.000000	19.188401
1927.000000	19.305548
1926.000000	19.457489
1925.000000	19.619032
1924.000000	19.780123
1923.000000	19.974540
1922.000000	20.171781
1921.000000	20.384386
1920.000000	20.606366
1919.000000	20.843146
1918.000000	21.052474
1917.000000	21.295354
1916.000000	21.530891
1915.000000	21.770946
1914.000000	22.065791
1913.000000	22.417910
1912.000000	22.713771
1911.000000	22.980261
1910.000000	23.270813
1909.000000	23.557185
1908.000000	23.860615
1907.000000	24.214881
1906.000000	24.599422
1905.000000	24.962047
1904.000000	25.348960
1903.000000	25.695995
1902.000000	26.067771
1901.000000	26.435592
1900.000000	26.833915
1899.000000	27.223313
1898.000000	27.638807
1897.000000	27.994880
1896.000000	28.302829
1895.000000	28.662517
1894.000000	29.014410
1893.000000	29.409683
1892.000000	29.831502
1891.000000	30.219658
1890.000000	30.593919
1889.000000	30.971568
1888.000000	31.367180
1887.000000	31.788322
1886.000000	32.240869
1885.000000	32.745268
1884.000000	33.307168
1883.000000	33.861724
1882.000000	34.406565
1881.000000	34.925763
1880.000000	35.407004
1879.000000	35.929704
1878.000000	36.425969
1877.000000	36.880436
1876.000000	37.300675
1875.000000	37.697529
1874.000000	38.084781
1873.000000	38.430122
1872.000000	38.727000
1871.000000	38.999251
1870.000000	39.237386
1869.000000	39.444907
1868.000000	39.593120
1867.000000	39.681348
1866.000000	39.743819
1865.000000	39.824816
1864.000000	39.887852
1863.000000	39.949984
1862.000000	40.021492
1861.000000	40.070972
1860.000000	40.112883
1859.000000	40.141238
1858.000000	40.124406
1857.000000	40.105088
1856.000000	40.072554
1855.000000	40.037534
1854.000000	40.004660
1853.000000	39.923098
1852.000000	39.865710
1851.000000	39.840067
1850.000000	39.800189
1849.000000	39.736363
1848.000000	39.656269
1847.000000	39.564540
1846.000000	39.465806
1845.000000	39.380855
1844.000000	39.322677
1843.000000	39.299970
1842.000000	39.284268
1841.000000	39.236821
1840.000000	39.163958
1839.000000	39.102051
1838.000000	39.030882
1837.000000	38.961972
1836.000000	38.890577
1835.000000	38.779304
1834.000000	38.679893
1833.000000	38.585565
1832.000000	38.491576
1831.000000	38.408093
1830.000000	38.305745
1829.000000	38.206334
1828.000000	38.093592
1827.000000	38.000168
1826.000000	37.928095
1825.000000	37.847211
1824.000000	37.787451
1823.000000	37.778188
1822.000000	37.772426
1821.000000	37.729499
1820.000000	37.674710
1819.000000	37.613481
1818.000000	37.592356
1817.000000	37.590662
1816.000000	37.578348
1815.000000	37.558240
1814.000000	37.548073
1813.000000	37.534743
1812.000000	37.487636
1811.000000	37.433637
1810.000000	37.374104
1809.000000	37.325641
1808.000000	37.292315
1807.000000	37.245773
1806.000000	37.176863
1805.000000	37.096656
1804.000000	37.032039
1803.000000	36.985270
1802.000000	36.934548
1801.000000	36.857617
1800.000000	36.770406
1799.000000	36.699689
1798.000000	36.651565
1797.000000	36.606039
1796.000000	36.539840
1795.000000	36.482340
1794.000000	36.418965
1793.000000	36.337290
1792.000000	36.280467
1791.000000	36.211218
1790.000000	36.132593
1789.000000	36.063457
1788.000000	35.991723
1787.000000	35.912194
1786.000000	35.827016
1785.000000	35.726927
1784.000000	35.627516
1783.000000	35.545050
1782.000000	35.438522
1781.000000	35.339336
1780.000000	35.242072
1779.000000	35.132380
1778.000000	35.023706
1777.000000	34.883174
1776.000000	34.743095
1775.000000	34.585393
1774.000000	34.417071
1773.000000	34.248072
1772.000000	34.092177
1771.000000	33.920806
1770.000000	33.760392
1769.000000	33.609242
1768.000000	33.467355
1767.000000	33.342639
1766.000000	33.232835
1765.000000	33.160197
1764.000000	33.124838
1763.000000	33.100211
1762.000000	33.142461
1761.000000	33.185389
1760.000000	33.251023
1759.000000	33.326259
1758.000000	33.420022
1757.000000	33.471196
1756.000000	33.539993
1755.000000	33.559085
1754.000000	33.577950
1753.000000	33.589586
1752.000000	33.561344
1751.000000	33.493338
1750.000000	33.438661
1749.000000	33.354388
1748.000000	33.236450
1747.000000	33.113090
1746.000000	32.953806
1745.000000	32.770912
1744.000000	32.546898
1743.000000	32.322657
1742.000000	32.038545
1741.000000	31.770021
1740.000000	31.466139
1739.000000	31.172989
1738.000000	30.916440
1737.000000	30.716036
1736.000000	30.572003
1735.000000	30.480613
1734.000000	30.457680
1733.000000	30.455986
1732.000000	30.522975
1731.000000	30.612445
1730.000000	30.754106
1729.000000	30.883115
1728.000000	31.026019
1727.000000	31.134919
1726.000000	31.240092
1725.000000	31.323010
1724.000000	31.371812
1723.000000	31.424906
1722.000000	31.449985
1721.000000	31.454956
1720.000000	31.514602
1719.000000	31.567245
1718.000000	31.640109
1717.000000	31.709358
1716.000000	31.816903
1715.000000	31.902193
1714.000000	31.985450
1713.000000	32.078987
1712.000000	32.135584
1711.000000	32.183821
1710.000000	32.217485
1709.000000	32.193310
1708.000000	32.191615
1707.000000	32.161227
1706.000000	32.123044
1705.000000	32.048034
1704.000000	31.976300
1703.000000	31.838593
1702.000000	31.701789
1701.000000	31.517427
1700.000000	31.338147
1699.000000	31.145764
1698.000000	30.973037
1697.000000	30.841204
1696.000000	30.784947
1695.000000	30.781557
1694.000000	30.814657
1693.000000	30.965242
1692.000000	31.161918
1691.000000	31.345377
1690.000000	31.498674
1689.000000	31.626892
1688.000000	31.683827
1687.000000	31.690944
1686.000000	31.751947
1685.000000	31.824246
1684.000000	31.986467
1683.000000	32.311587
1682.000000	32.743461
1681.000000	33.347045
1680.000000	34.025753
1679.000000	34.671474
1678.000000	35.333801
1677.000000	35.903043
1676.000000	36.421450
1675.000000	36.905854
1674.000000	37.303612
1673.000000	37.650986
1672.000000	37.968537
1671.000000	38.237852
1670.000000	38.464238
1669.000000	38.665659
1668.000000	38.870243
1667.000000	39.019133
1666.000000	39.131536
1665.000000	39.272067
1664.000000	39.369445
1663.000000	39.445020
1662.000000	39.548498
1661.000000	39.618651
1660.000000	39.676151
1659.000000	39.737041
1658.000000	39.765170
1657.000000	39.782341
1656.000000	39.806967
1655.000000	39.818151
1654.000000	39.834306
1653.000000	39.819507
1652.000000	39.807419
1651.000000	39.765170
1650.000000	39.741672
1649.000000	39.725857
1648.000000	39.663499
1647.000000	39.598204
1646.000000	39.544770
1645.000000	39.497663
1644.000000	39.435644
1643.000000	39.391248
1642.000000	39.325840
1641.000000	39.250716
1640.000000	39.190392
1639.000000	39.130406
1638.000000	39.055622
1637.000000	38.961068
1636.000000	38.886284
1635.000000	38.809353
1634.000000	38.748351
1633.000000	38.645212
1632.000000	38.563084
1631.000000	38.481070
1630.000000	38.368103
1629.000000	38.292302
1628.000000	38.201702
1627.000000	38.104437
1626.000000	38.022875
1625.000000	37.923125
1624.000000	37.850374
1623.000000	37.756159
1622.000000	37.659798
1621.000000	37.561855
1620.000000	37.476113
1619.000000	37.389919
1618.000000	37.318411
1617.000000	37.233459
1616.000000	37.147265
1615.000000	37.063218
1614.000000	36.979961
1613.000000	36.888118
1612.000000	36.815254
1611.000000	36.744085
1610.000000	36.669413
1609.000000	36.581186
1608.000000	36.502561
1607.000000	36.410831
1606.000000	36.306224
1605.000000	36.232004
1604.000000	36.171002
1603.000000	36.097799
1602.000000	36.016349
1601.000000	35.934900
1600.000000	35.840572
1599.000000	35.765788
1598.000000	35.696200
1597.000000	35.611588
1596.000000	35.554539
1595.000000	35.484951
1594.000000	35.424966
1593.000000	35.371871
1592.000000	35.315500
1591.000000	35.263083
1590.000000	35.212587
1589.000000	35.155087
1588.000000	35.119954
1587.000000	35.079399
1586.000000	35.038504
1585.000000	34.999079
1584.000000	34.955022
1583.000000	34.920567
1582.000000	34.895262
1581.000000	34.868376
1580.000000	34.867133
1579.000000	34.856627
1578.000000	34.836067
1577.000000	34.830080
1576.000000	34.829515
1575.000000	34.837197
1574.000000	34.850414
1573.000000	34.861485
1572.000000	34.876961
1571.000000	34.912094
1570.000000	34.947340
1569.000000	34.979197
1568.000000	35.015233
1567.000000	35.046412
1566.000000	35.084821
1565.000000	35.120745
1564.000000	35.153392
1563.000000	35.182538
1562.000000	35.211570
1561.000000	35.234842
1560.000000	35.254498
1559.000000	35.271443
1558.000000	35.282740
1557.000000	35.296296
1556.000000	35.293133
1555.000000	35.280593
1554.000000	35.286694
1553.000000	35.275736
1552.000000	35.257435
1551.000000	35.232469
1550.000000	35.222641
1549.000000	35.215185
1548.000000	35.189429
1547.000000	35.171015
1546.000000	35.164011
1545.000000	35.163333
1544.000000	35.163107
1543.000000	35.146501
1542.000000	35.140288
1541.000000	35.145936
1540.000000	35.143338
1539.000000	35.132380
1538.000000	35.137238
1537.000000	35.143903
1536.000000	35.144807
1535.000000	35.137464
1534.000000	35.117017
1533.000000	35.113741
1532.000000	35.111707
1531.000000	35.103122
1530.000000	35.083804
1529.000000	35.066407
1528.000000	35.044379
1527.000000	35.018396
1526.000000	35.008342
1525.000000	34.979987
1524.000000	34.964398
1523.000000	34.952762
1522.000000	34.917404
1521.000000	34.870183
1520.000000	34.865552
1519.000000	34.841715
1518.000000	34.813587
1517.000000	34.778228
1516.000000	34.754844
1515.000000	34.707849
1514.000000	34.670570
1513.000000	34.653512
1512.000000	34.625383
1511.000000	34.577372
1510.000000	34.542126
1509.000000	34.516934
1508.000000	34.495697
1507.000000	34.443054
1506.000000	34.406452
1505.000000	34.387135
1504.000000	34.356182
1503.000000	34.333701
1502.000000	34.306137
1501.000000	34.279477
1500.000000	34.263436
1499.000000	34.253608
1498.000000	34.257449
1497.000000	34.267051
1496.000000	34.261063
1495.000000	34.245700
1494.000000	34.259482
1493.000000	34.274394
1492.000000	34.264453
1491.000000	34.296648
1490.000000	34.309639
1489.000000	34.317321
1488.000000	34.342287
1487.000000	34.366462
1486.000000	34.376177
1485.000000	34.405775
1484.000000	34.423849
1483.000000	34.456723
1482.000000	34.491743
1481.000000	34.534557
1480.000000	34.566301
1479.000000	34.616120
1478.000000	34.660742
1477.000000	34.693615
1476.000000	34.745241
1475.000000	34.816863
1474.000000	34.888710
1473.000000	34.955474
1472.000000	34.999305
1471.000000	35.063809
1470.000000	35.087306
1469.000000	35.143790
1468.000000	35.214395
1467.000000	35.279577
1466.000000	35.346679
1465.000000	35.429258
1464.000000	35.493424
1463.000000	35.585266
1462.000000	35.685468
1461.000000	35.773470
1460.000000	35.853451
1459.000000	35.981217
1458.000000	36.082548
1457.000000	36.203197
1456.000000	36.324637
1455.000000	36.435684
1454.000000	36.563902
1453.000000	36.702061
1452.000000	36.835362
1451.000000	36.986852
1450.000000	37.094171
1449.000000	37.207703
1448.000000	37.369585
1447.000000	37.565018
1446.000000	37.716959
1445.000000	37.873984
1444.000000	38.000394
1443.000000	38.153465
1442.000000	38.314669
1441.000000	38.449326
1440.000000	38.641145
1439.000000	38.797379
1438.000000	38.965361
1437.000000	39.081491
1436.000000	39.263256
1435.000000	39.412486
1434.000000	39.591539
1433.000000	39.768333
1432.000000	39.914512
1431.000000	40.078993
1430.000000	40.270811
1429.000000	40.477089
1428.000000	40.727651
1427.000000	40.948728
1426.000000	41.235665
1425.000000	41.487582
1424.000000	41.779264
1423.000000	42.042252
1422.000000	42.289537
1421.000000	42.569470
1420.000000	42.872561
1419.000000	43.156448
1418.000000	43.381592
1417.000000	43.669207
1416.000000	43.951738
1415.000000	44.259461
1414.000000	44.545720
1413.000000	44.777303
1412.000000	45.058027
1411.000000	45.398623
1410.000000	45.796833
1409.000000	46.179114
1408.000000	46.588847
1407.000000	47.006035
1406.000000	47.455645
1405.000000	47.901188
1404.000000	48.361417
1403.000000	48.766517
1402.000000	49.226859
1401.000000	49.684377
1400.000000	50.033333
1399.000000	50.270677
1398.000000	50.518188
1397.000000	50.843534
1396.000000	51.128099
1395.000000	51.283768
1394.000000	51.399672
1393.000000	51.566186
1392.000000	51.762523
1391.000000	51.954003
1390.000000	52.160281
1389.000000	52.462808
1388.000000	52.793576
1387.000000	53.116888
1386.000000	53.500638
1385.000000	53.965160
1384.000000	54.365064
1383.000000	54.792532
1382.000000	55.117200
1381.000000	55.316362
1380.000000	55.418484
1379.000000	55.524787
1378.000000	55.592002
1377.000000	55.724061
1376.000000	55.899273
1375.000000	56.130291
1374.000000	56.438579
1373.000000	56.802447
1372.000000	57.207886
1371.000000	57.607113
1370.000000	57.957650
1369.000000	58.278139
1368.000000	58.583150
1367.000000	58.846929
1366.000000	59.064052
1365.000000	59.286033
1364.000000	59.466781
1363.000000	59.661988
1362.000000	59.820707
1361.000000	59.898542
1360.000000	59.901479
1359.000000	60.024048
1358.000000	60.160513
1357.000000	60.387916
1356.000000	60.761612
1355.000000	61.262735
1354.000000	61.814580
1353.000000	62.376706
1352.000000	63.044681
1351.000000	63.656738
1350.000000	64.194237
1349.000000	64.681464
1348.000000	65.155814
1347.000000	65.577860
1346.000000	65.995726
1345.000000	66.402973
1344.000000	66.746168
1343.000000	67.099191
1342.000000	67.432218
1341.000000	67.748979
1340.000000	68.059187
1339.000000	68.335844
1338.000000	68.622103
1337.000000	68.883509
1336.000000	69.128987
1335.000000	69.379323
1334.000000	69.608759
1333.000000	69.834581
1332.000000	70.030128
1331.000000	70.227707
1330.000000	70.415572
1329.000000	70.584797
1328.000000	70.745888
1327.000000	70.890487
1326.000000	71.031244
1325.000000	71.170984
1324.000000	71.306884
1323.000000	71.431600
1322.000000	71.546714
1321.000000	71.656179
1320.000000	71.751862
1319.000000	71.843366
1318.000000	71.941195
1317.000000	72.031343
1316.000000	72.110420
1315.000000	72.190175
1314.000000	72.274901
1313.000000	72.331272
1312.000000	72.383575
1311.000000	72.445369
1310.000000	72.503547
1309.000000	72.543876
1308.000000	72.576072
1307.000000	72.591096
1306.000000	72.614142
1305.000000	72.635605
1304.000000	72.636509
1303.000000	72.641028
1302.000000	72.629731
1301.000000	72.605104
1300.000000	72.588611
1299.000000	72.577314
1298.000000	72.554382
1297.000000	72.529868
1296.000000	72.515182
1295.000000	72.479485
1294.000000	72.445707
1293.000000	72.418595
1292.000000	72.385722
1291.000000	72.329803
1290.000000	72.260328
1289.000000	72.190514
1288.000000	72.121491
1287.000000	72.043657
1286.000000	71.964580
1285.000000	71.867089
1284.000000	71.769372
1283.000000	71.674706
1282.000000	71.586704
1281.000000	71.502656
1280.000000	71.416236
1279.000000	71.326653
1278.000000	71.242154
1277.000000	71.164771
1276.000000	71.098120
1275.000000	71.037683
1274.000000	70.967982
1273.000000	70.903930
1272.000000	70.849818
1271.000000	70.791301
1270.000000	70.737529
1269.000000	70.676865
1268.000000	70.630775
1267.000000	70.562317
1266.000000	70.503235
1265.000000	70.450366
1264.000000	70.391058
1263.000000	70.339206
1262.000000	70.289613
1261.000000	70.215959
1260.000000	70.159249
1259.000000	70.101862
1258.000000	70.032161
1257.000000	69.973531
1256.000000	69.912755
1255.000000	69.827916
1254.000000	69.740253
1253.000000	69.658465
1252.000000	69.561426
1251.000000	69.468567
1250.000000	69.369156
1249.000000	69.258900
1248.000000	69.119046
1247.000000	68.993991
1246.000000	68.850184
1245.000000	68.684235
1244.000000	68.524499
1243.000000	68.354032
1242.000000	68.186388
1241.000000	68.010272
1240.000000	67.829298
1239.000000	67.645614
1238.000000	67.445323
1237.000000	67.257571
1236.000000	67.054004
1235.000000	66.858796
1234.000000	66.661217
1233.000000	66.444658
1232.000000	66.233296
1231.000000	66.027809
1230.000000	65.813397
1229.000000	65.589044
1228.000000	65.359042
1227.000000	65.151183
1226.000000	64.944452
1225.000000	64.729702
1224.000000	64.518566
1223.000000	64.311722
1222.000000	64.093583
1221.000000	63.902329
1220.000000	63.723276
1219.000000	63.553034
1218.000000	63.372399
1217.000000	63.189053
1216.000000	63.057785
1215.000000	62.927873
1214.000000	62.778756
1213.000000	62.646246
1212.000000	62.519496
1211.000000	62.370492
1210.000000	62.267579
1209.000000	62.156984
1208.000000	62.065029
1207.000000	62.002219
1206.000000	61.949124
1205.000000	61.897837
1204.000000	61.861575
1203.000000	61.821471
1202.000000	61.794133
1201.000000	61.734035
1200.000000	61.685572
1199.000000	61.570571
1198.000000	61.427328
1197.000000	61.254488
1196.000000	61.015901
1195.000000	60.699141
1194.000000	60.321604
1193.000000	59.870413
1192.000000	59.401712
1191.000000	58.910530
1190.000000	58.453238
1189.000000	58.058078
1188.000000	57.791024
1187.000000	57.667437
1186.000000	57.679525
1185.000000	57.827625
1184.000000	58.129248
1183.000000	58.544742
1182.000000	59.069588
1181.000000	59.592287
1180.000000	60.112728
1179.000000	60.631022
1178.000000	61.045273
1177.000000	61.410722
1176.000000	61.776962
1175.000000	62.070677
1174.000000	62.386986
1173.000000	62.748707
1172.000000	63.080153
1171.000000	63.434418
1170.000000	63.812068
1169.000000	64.158991
1168.000000	64.526247
1167.000000	64.930331
1166.000000	65.300412
1165.000000	65.715567
1164.000000	66.079209
1163.000000	66.478435
1162.000000	66.873369
1161.000000	67.233057
1160.000000	67.598167
1159.000000	67.934697
1158.000000	68.253378
1157.000000	68.552741
1156.000000	68.764894
1155.000000	68.941123
1154.000000	69.036354
1153.000000	69.101084
1152.000000	69.125937
1151.000000	69.107298
1150.000000	69.083913
1149.000000	69.042680
1148.000000	69.056688
1147.000000	69.132150
1146.000000	69.257544
1145.000000	69.460546
1144.000000	69.735735
1143.000000	70.036002
1142.000000	70.378180
1141.000000	70.695166
1140.000000	71.057113
1139.000000	71.430922
1138.000000	71.790271
1137.000000	72.184527
1136.000000	72.597197
1135.000000	72.981398
1134.000000	73.318606
1133.000000	73.579447
1132.000000	73.853393
1131.000000	74.125983
1130.000000	74.357453
1129.000000	74.534021
1128.000000	74.673197
1127.000000	74.804917
1126.000000	74.895065
1125.000000	74.964314
1124.000000	75.023847
1123.000000	75.077168
1122.000000	75.101004
1121.000000	75.117497
1120.000000	75.119644
1119.000000	75.133313
1118.000000	75.116029
1117.000000	75.096259
1116.000000	75.064741
1115.000000	75.016053
1114.000000	74.969397
1113.000000	74.930197
1112.000000	74.904893
1111.000000	74.860158
1110.000000	74.810904
1109.000000	74.776336
1108.000000	74.731149
1107.000000	74.686527
1106.000000	74.643599
1105.000000	74.590618
1104.000000	74.521030
1103.000000	74.472567
1102.000000	74.428058
1101.000000	74.368863
1100.000000	74.306053
1099.000000	74.231721
1098.000000	74.189810
1097.000000	74.125192
1096.000000	74.043291
1095.000000	73.978448
1094.000000	73.922868
1093.000000	73.840289
1092.000000	73.759291
1091.000000	73.682135
1090.000000	73.609610
1089.000000	73.533470
1088.000000	73.442983
1087.000000	73.357918
1086.000000	73.278615
1085.000000	73.192421
1084.000000	73.108148
1083.000000	73.021389
1082.000000	72.936889
1081.000000	72.840641
1080.000000	72.776250
1079.000000	72.704741
1078.000000	72.623405
1077.000000	72.544554
1076.000000	72.466719
1075.000000	72.387981
1074.000000	72.319297
1073.000000	72.241011
1072.000000	72.147361
1071.000000	72.058230
1070.000000	71.989658
1069.000000	71.921087
1068.000000	71.848675
1067.000000	71.761126
1066.000000	71.676965
1065.000000	71.603875
1064.000000	71.532706
1063.000000	71.444139
1062.000000	71.353427
1061.000000	71.274575
1060.000000	71.186461
1059.000000	71.092472
1058.000000	71.019043
1057.000000	70.947987
1056.000000	70.860550
1055.000000	70.784071
1054.000000	70.726458
1053.000000	70.655176
1052.000000	70.577793
1051.000000	70.505155
1050.000000	70.450366
1049.000000	70.395238
1048.000000	70.347792
1047.000000	70.294019
1046.000000	70.238665
1045.000000	70.188282
1044.000000	70.123213
1043.000000	70.068762
1042.000000	70.040521
1041.000000	69.990702
1040.000000	69.943821
1039.000000	69.893776
1038.000000	69.846104
1037.000000	69.813795
1036.000000	69.761152
1035.000000	69.713819
1034.000000	69.668067
1033.000000	69.610228
1032.000000	69.549452
1031.000000	69.498616
1030.000000	69.449250
1029.000000	69.395816
1028.000000	69.342834
1027.000000	69.298777
1026.000000	69.238905
1025.000000	69.183776
1024.000000	69.135088
1023.000000	69.087641
1022.000000	69.049910
1021.000000	69.008338
1020.000000	68.959085
1019.000000	68.924742
1018.000000	68.884526
1017.000000	68.870744
1016.000000	68.868485
1015.000000	68.849732
1014.000000	68.850975
1013.000000	68.856849
1012.000000	68.873681
1011.000000	68.907797
1010.000000	68.960553
1009.000000	68.994330
1008.000000	69.044601
1007.000000	69.090465
1006.000000	69.142995
1005.000000	69.201173
1004.000000	69.245683
1003.000000	69.313011
1002.000000	69.367687
1001.000000	69.418748
1000.000000	69.495114
999.000000	69.538946
998.000000	69.598931
997.000000	69.686820
996.000000	69.764428
995.000000	69.843506
994.000000	69.906315
993.000000	69.973757
992.000000	70.055545
991.000000	70.141174
990.000000	70.235841
989.000000	70.340223
988.000000	70.411166
987.000000	70.496457
986.000000	70.607842
985.000000	70.721713
984.000000	70.804970
983.000000	70.898394
982.000000	70.986735
981.000000	71.080836
980.000000	71.181490
979.000000	71.306997
978.000000	71.397823
977.000000	71.487632
976.000000	71.613251
975.000000	71.717746
974.000000	71.807442
973.000000	71.894201
972.000000	72.018126
971.000000	72.112002
970.000000	72.231747
969.000000	72.309695
968.000000	72.412608
967.000000	72.541278
966.000000	72.660458
965.000000	72.759644
964.000000	72.879163
963.000000	72.992469
962.000000	73.138310
961.000000	73.243708
960.000000	73.382206
959.000000	73.507600
958.000000	73.635592
957.000000	73.778383
956.000000	73.890672
955.000000	74.041145
954.000000	74.138184
953.000000	74.240419
952.000000	74.350901
951.000000	74.514252
950.000000	74.628349
949.000000	74.726969
948.000000	74.862191
947.000000	74.987133
946.000000	75.085189
945.000000	75.230013
944.000000	75.362410
943.000000	75.472215
942.000000	75.581793
941.000000	75.731813
940.000000	75.851785
939.000000	75.942836
938.000000	76.076929
937.000000	76.217460
936.000000	76.384313
935.000000	76.510949
934.000000	76.625272
933.000000	76.762301
932.000000	76.884080
931.000000	77.056807
930.000000	77.151699
929.000000	77.262520
928.000000	77.423273
927.000000	77.518843
926.000000	77.603569
925.000000	77.699026
924.000000	77.795500
923.000000	77.874464
922.000000	78.040865
921.000000	78.116666
920.000000	78.207266
919.000000	78.303401
918.000000	78.382591
917.000000	78.473304
916.000000	78.543118
915.000000	78.640496
914.000000	78.713360
913.000000	78.816047
912.000000	78.880777
911.000000	78.970473
910.000000	79.062993
909.000000	79.148397
908.000000	79.266673
907.000000	79.363712
906.000000	79.433074
905.000000	79.452053
904.000000	79.527515
903.000000	79.614048
902.000000	79.731534
901.000000	79.812644
900.000000	79.890705
899.000000	79.986049
898.000000	80.052474
897.000000	80.017228
896.000000	80.101615
895.000000	80.166006
894.000000	80.214469
893.000000	80.240113
892.000000	80.144542
891.000000	80.127484
890.000000	79.999266
889.000000	80.003333
888.000000	80.026153
887.000000	79.958485
886.000000	79.782595
885.000000	79.690527
884.000000	79.486847
883.000000	79.358403
882.000000	79.109762
881.000000	78.963356
880.000000	78.715167
879.000000	78.536792
878.000000	78.164564
877.000000	77.764321
876.000000	77.460213
875.000000	77.232471
874.000000	76.797321
873.000000	76.350309
872.000000	76.092631
871.000000	76.161089
870.000000	76.382731
869.000000	76.623577
868.000000	76.883515
867.000000	77.110692
866.000000	77.337531
865.000000	77.569791
864.000000	77.817868
863.000000	78.061990
862.000000	78.295042
861.000000	78.572828
860.000000	78.822034
859.000000	79.075646
858.000000	81.067033
857.000000	80.657000
856.000000	81.334200
855.000000	81.209900
854.000000	80.993900
853.000000	81.528100
852.000000	81.888400
851.000000	82.521700
850.000000	82.746300
849.000000	82.590200
848.000000	83.169900
847.000000	83.635100
846.000000	84.207100
845.000000	84.347700
844.000000	84.608500
843.000000	84.938900
842.000000	85.520400
841.000000	85.843200
840.000000	86.451900
839.000000	86.771000
838.000000	87.056600
837.000000	87.557200
836.000000	88.058000
835.000000	88.525900
834.000000	88.539300
833.000000	89.035300
832.000000	89.705300
831.000000	90.017600
830.000000	90.303900
829.000000	90.728900
828.000000	91.029900
827.000000	91.457100
826.000000	91.805900
825.000000	92.078700
824.000000	92.758100
823.000000	93.074800
822.000000	93.434500
821.000000	93.491400
820.000000	94.097000
819.000000	94.536100
818.000000	94.775100
817.000000	95.222500
816.000000	95.664500
815.000000	95.884700
814.000000	96.127800
813.000000	96.273600
812.000000	96.495900
811.000000	96.899500
810.000000	97.226000
809.000000	97.353700
808.000000	97.827600
807.000000	97.990800
806.000000	98.107000
805.000000	98.514200
804.000000	98.873400
803.000000	99.167500
802.000000	99.235100
801.000000	99.483700
800.000000	99.788400
799.000000	99.875600
798.000000	100.021200
797.000000	100.206200
796.000000	100.288500
795.000000	100.465500
794.000000	100.619800
793.000000	100.783800
792.000000	100.870100
791.000000	100.954800
790.000000	101.264200
789.000000	101.294700
788.000000	101.220600
787.000000	101.349900
786.000000	101.396400
785.000000	101.515200
784.000000	101.557700
783.000000	101.534200
782.000000	101.458800
781.000000	101.509900
780.000000	101.669700
779.000000	101.639400
778.000000	101.498600
777.000000	101.323400
776.000000	101.235000
775.000000	101.276800
774.000000	101.243500
773.000000	101.226100
772.000000	101.173800
771.000000	101.140000
770.000000	100.990900
769.000000	100.938800
768.000000	100.971800
767.000000	100.974700
766.000000	100.764200
765.000000	100.716500
764.000000	100.590100
763.000000	100.299500
762.000000	100.202700
761.000000	100.244100
760.000000	100.163800
759.000000	99.973700
758.000000	99.776900
757.000000	99.552100
756.000000	99.422000
755.000000	99.351400
754.000000	99.182900
753.000000	99.065400
752.000000	98.955900
751.000000	98.768500
750.000000	98.617500
749.000000	98.460900
748.000000	98.346800
747.000000	98.218000
746.000000	97.987800
745.000000	97.871800
744.000000	97.708700
743.000000	97.400400
742.000000	97.193700
741.000000	97.005100
740.000000	96.707700
739.000000	96.564100
738.000000	96.277400
737.000000	95.934300
736.000000	95.753900
735.000000	95.544900
734.000000	95.295400
733.000000	95.031900
732.000000	94.730300
731.000000	94.521800
730.000000	94.257900
729.000000	93.829100
728.000000	93.496300
727.000000	93.229400
726.000000	92.948000
725.000000	92.595300
724.000000	92.196300
723.000000	91.846600
722.000000	91.470800
721.000000	91.091500
720.000000	90.764900
719.000000	90.416100
718.000000	90.011500
717.000000	89.529100
716.000000	89.077800
715.000000	88.680700
714.000000	88.206500
713.000000	87.817200
712.000000	87.378400
711.000000	86.999500
710.000000	86.621600
709.000000	86.076200
708.000000	85.691900
707.000000	85.395600
706.000000	85.051400
705.000000	84.684400
704.000000	84.275200
703.000000	83.902000
702.000000	83.547500
701.000000	83.168000
700.000000	82.816800
699.000000	82.429400
698.000000	82.089100
697.000000	81.700100
696.000000	81.326700
695.000000	80.921600
694.000000	80.480200
693.000000	80.085300
692.000000	79.643500
691.000000	79.237200
690.000000	78.834000
689.000000	78.459600
688.000000	78.031300
687.000000	77.637700
686.000000	77.251300
685.000000	76.795600
684.000000	76.447700
683.000000	76.010200
682.000000	75.543500
681.000000	75.070000
680.000000	74.648300
679.000000	74.261700
678.000000	73.810100
677.000000	73.397000
676.000000	72.950700
675.000000	72.521500
674.000000	72.066100
673.000000	71.726100
672.000000	71.401200
671.000000	71.087100
670.000000	70.738200
669.000000	70.386900
668.000000	70.137800
667.000000	69.871700
666.000000	69.607800
665.000000	69.459100
664.000000	69.330000
663.000000	69.137200
662.000000	69.014800
661.000000	68.830000
660.000000	68.640300
659.000000	68.534200
658.000000	68.347700
657.000000	68.159100
656.000000	67.985500
655.000000	67.739700
654.000000	67.479900
653.000000	67.210400
652.000000	66.919500
651.000000	66.620800
650.000000	66.338400
649.000000	65.985200
648.000000	65.656600
647.000000	65.253300
646.000000	64.930100
645.000000	64.664400
644.000000	64.313200
643.000000	63.962400
642.000000	63.654200
641.000000	63.363500
640.000000	63.029600
639.000000	62.778100
638.000000	62.486800
637.000000	62.244000
636.000000	61.994400
635.000000	61.895700
634.000000	61.732600
633.000000	61.633300
632.000000	61.643700
631.000000	61.684400
630.000000	61.735400
629.000000	61.954300
628.000000	62.211300
627.000000	62.512300
626.000000	62.952200
625.000000	63.372000
624.000000	63.924200
623.000000	64.518800
622.000000	65.093900
621.000000	65.730400
620.000000	66.392300
619.000000	67.057700
618.000000	67.753800
617.000000	68.404700
616.000000	69.048700
615.000000	69.709100
614.000000	70.344100
613.000000	71.003800
612.000000	71.614800
611.000000	72.161200
610.000000	72.828800
609.000000	73.391100
608.000000	74.010900
607.000000	74.590800
606.000000	75.169100
605.000000	75.720600
604.000000	76.334200
603.000000	76.909900
602.000000	77.432300
601.000000	77.969800
600.000000	78.495300
599.000000	78.910000
598.000000	79.309200
597.000000	79.727500
596.000000	80.089300
595.000000	80.409700
594.000000	80.700300
593.000000	80.987600
592.000000	81.233900
591.000000	81.461900
590.000000	81.681100
589.000000	81.929400
588.000000	82.177700
587.000000	82.330000
586.000000	82.551700
585.000000	82.721800
584.000000	82.910100
583.000000	83.027200
582.000000	83.190100
581.000000	83.287700
580.000000	83.293900
579.000000	83.361600
578.000000	83.419300
577.000000	83.403500
576.000000	83.395400
575.000000	83.374100
574.000000	83.359300
573.000000	83.260300
572.000000	83.120900
571.000000	83.036000
570.000000	82.868300
569.000000	82.704800
568.000000	82.517500
567.000000	82.347000
566.000000	82.204400
565.000000	81.996400
564.000000	81.791500
563.000000	81.579900
562.000000	81.292900
561.000000	81.052900
560.000000	80.785200
559.000000	80.410900
558.000000	80.106600
557.000000	79.724000
556.000000	79.372600
555.000000	78.981200
554.000000	78.557400
553.000000	78.141400
552.000000	77.588100
551.000000	77.075700
550.000000	76.541400
549.000000	75.982800
548.000000	75.348700
547.000000	74.714300
546.000000	74.056000
545.000000	73.388900
544.000000	72.654500
543.000000	71.923900
542.000000	71.180400
541.000000	70.388200
540.000000	69.618500
539.000000	68.779000
538.000000	67.958000
537.000000	67.097000
536.000000	66.223000
535.000000	65.377000
534.000000	64.476200
533.000000	63.590100
532.000000	62.670000
531.000000	61.739100
530.000000	60.803100
529.000000	59.905800
528.000000	58.988100
527.000000	58.067500
526.000000	57.153800
525.000000	56.246700
524.000000	55.325800
523.000000	54.458800
522.000000	53.579200
521.000000	52.728900
520.000000	51.918200
519.000000	51.050900
518.000000	50.243600
517.000000	49.437600
516.000000	48.699200
515.000000	47.955300
514.000000	47.205200
513.000000	46.445600
512.000000	45.744600
511.000000	45.090900
510.000000	44.415100
509.000000	43.798000
508.000000	43.222000
507.000000	42.641400
506.000000	42.071600
505.000000	41.486200
504.000000	40.982400
503.000000	40.494100
502.000000	40.031600
501.000000	39.564300
500.000000	39.119700
499.000000	38.738200
498.000000	38.342300
497.000000	37.963900
496.000000	37.615000
495.000000	37.236700
494.000000	36.882200
493.000000	36.565900
492.000000	36.278600
491.000000	35.959200
490.000000	35.619800
489.000000	35.295100
488.000000	34.960200
487.000000	34.639700
486.000000	34.303800
485.000000	33.935700
484.000000	33.588400
483.000000	33.224900
482.000000	32.827700
481.000000	32.439100
480.000000	32.041600
479.000000	31.628300
478.000000	31.207800
477.000000	30.812900
476.000000	30.395100
475.000000	29.967700
474.000000	29.518300
473.000000	29.082800
472.000000	28.669600
471.000000	28.265900
470.000000	27.886500
469.000000	27.497400
468.000000	27.130600
467.000000	26.773400
466.000000	26.437300
465.000000	26.133800
464.000000	25.876100
463.000000	25.644000
462.000000	25.428900
461.000000	25.240000
460.000000	25.095800
459.000000	24.967900
458.000000	24.874600
457.000000	24.799000
456.000000	24.756100
455.000000	24.747100
454.000000	24.723400
453.000000	24.736500
452.000000	24.786400
451.000000	24.813000
450.000000	24.860300
449.000000	24.917500
448.000000	24.925700
447.000000	24.924100
446.000000	24.968600
445.000000	25.013300
444.000000	25.040900
443.000000	25.061200
442.000000	25.038100
441.000000	24.992500
440.000000	24.943700
439.000000	24.894300
438.000000	24.811800
437.000000	24.711100
436.000000	24.603600
435.000000	24.493400
434.000000	24.368000
433.000000	24.217400
432.000000	24.025600
431.000000	23.855200
430.000000	23.668300
429.000000	23.459900
428.000000	23.257500
427.000000	23.037900
426.000000	22.814500
425.000000	22.543600
424.000000	22.262900
423.000000	21.978200
422.000000	21.695900
421.000000	21.388100
420.000000	21.066400
419.000000	20.758500
418.000000	20.430500
417.000000	20.062700
416.000000	19.713200
415.000000	19.361800
414.000000	18.989500
413.000000	18.608000
412.000000	18.193200
411.000000	17.782300
410.000000	17.392700
409.000000	16.990100
408.000000	16.606700
407.000000	16.188200
406.000000	15.769700
405.000000	15.360400
404.000000	14.931000
403.000000	14.490900
402.000000	14.084100
401.000000	13.673600
400.000000	13.290900
399.000000	12.885100
398.000000	12.485400
397.000000	12.123000
396.000000	11.736300
395.000000	11.362500
394.000000	11.014100
393.000000	10.708700
392.000000	10.357800
391.000000	10.007200
390.000000	9.708800
389.000000	9.410700
388.000000	9.142800
387.000000	8.855800
386.000000	8.625500
385.000000	8.427700
384.000000	8.184700
383.000000	8.005600
382.000000	7.786000
381.000000	7.585100
380.000000	7.417200
379.000000	7.279800
378.000000	7.125200
377.000000	7.001100
376.000000	6.678800
375.000000	6.510400
374.000000	6.373500
373.000000	6.333700
372.000000	6.307700
371.000000	6.373900
370.000000	6.327100
369.000000	6.166600
368.000000	6.076600
367.000000	6.038100
366.000000	6.121600
365.000000	6.105000
364.000000	5.845000
363.000000	5.964200
362.000000	5.985300
361.000000	5.917500
360.000000	5.799900
359.000000	5.860200
358.000000	5.888100
357.000000	5.871300
356.000000	5.803500
355.000000	5.829000
354.000000	5.800400
353.000000	5.653500
352.000000	5.860900
351.000000	5.917300
350.000000	5.868400
349.000000	5.635600
348.000000	5.424300
347.000000	5.719100
346.000000	5.913300
345.000000	5.663200
344.000000	5.683500
343.000000	5.609400
342.000000	5.760000
341.000000	5.541500
340.000000	5.620000
339.000000	5.728400
338.000000	5.595300
337.000000	5.694400
336.000000	5.699400
335.000000	5.641800
334.000000	5.936000
333.000000	5.718200
332.000000	6.134100
331.000000	5.814900
330.000000	5.741900
329.000000	5.482200
328.000000	5.826100
327.000000	5.746500
326.000000	5.576800
325.000000	5.714700
324.000000	5.860500
323.000000	5.586000
322.000000	6.315200
321.000000	6.388200
320.000000	5.779500
319.000000	6.139800
318.000000	6.176200
317.000000	6.155400
316.000000	5.596200
315.000000	5.523400
314.000000	5.495600
313.000000	5.485400
312.000000	5.474600
311.000000	5.565100
310.000000	5.507600
309.000000	5.542900
308.000000	5.530700
307.000000	5.567800
306.000000	5.567900
305.000000	5.533900
304.000000	5.610800
303.000000	5.572100
302.000000	5.533600
301.000000	5.554300
300.000000	5.575600
299.000000	5.579300
298.000000	5.593200
297.000000	5.565400
296.000000	5.561100
295.000000	5.567000
294.000000	5.645000
293.000000	5.597200
292.000000	5.642800
291.000000	5.694500
290.000000	5.692900
289.000000	5.651700
288.000000	5.671400
287.000000	5.618700
286.000000	5.651900
285.000000	5.663900
284.000000	5.684100
283.000000	5.684300
282.000000	5.711900
281.000000	5.743400
280.000000	5.749800
279.000000	5.730900
278.000000	5.757500
277.000000	5.795600
276.000000	5.841000
275.000000	5.781500
274.000000	5.794700
273.000000	5.820800
272.000000	5.836100
271.000000	5.810900
270.000000	5.859500
269.000000	5.888900
268.000000	5.930900
267.000000	5.901200
266.000000	5.936200
265.000000	5.959100
264.000000	5.972300
263.000000	6.013100
262.000000	6.037800
261.000000	6.092800
260.000000	6.093700
259.000000	6.145800
258.000000	6.137500
257.000000	6.165000
256.000000	6.107100
255.000000	6.161600
254.000000	6.163900
253.000000	6.170300
252.000000	6.196700
251.000000	6.206600
250.000000	6.223200
