PE UV       SUBTECH     SPECTRUM    ASCII       PEDS        4.00        
   -1
CICIMAUCR0003-2.Sample.ASC
24/05/03
14:40:28.00
24/05/03
14:40:28.00
Vinicio Soto Monge
C. kalinini
250,000000
1
Lambda 1050
1050L1511233
PerkinElmer UV WinLab 6.3.2.0749 / 2.02.05 Lambda 900 UV/VIS/NIR, Aug  7 2015 09:38:08

0
0
3350/servo 860,8/2
0
0
UV/VIS
1
1
1
DoubleDePol,CommonBeamDepol,RBeamAtt,SBeamAtt,60mm sphere, WB InGaAs Detector
0
0
0
0
Program
Program
3350/servo 860,8/2
3350/0,2 860,8/0,2
3350/0,2 860,8/0,2
0
15.00
 
 
 
0
 
860,8
319,2
860,8
Front
100
on
S:100 R:100
0
0
0
0
 
0
 
 
 
0
 
 
0
0
0
0
0
 
 
 
 
0
0


0
0
#HDR
-1
-1
#GR
nm
%R
1.0
0.0
2500,000000
-1,000000
2251
8
99,737200
5,267900
#DATA
2500.000000	9.438688
2499.000000	9.504941
2498.000000	9.289036
2497.000000	9.350157
2496.000000	9.247512
2495.000000	9.266641
2494.000000	9.146966
2493.000000	9.111040
2492.000000	9.136468
2491.000000	9.167495
2490.000000	9.091794
2489.000000	9.053186
2488.000000	9.068116
2487.000000	9.094944
2486.000000	8.939576
2485.000000	9.081063
2484.000000	8.986000
2483.000000	8.985300
2482.000000	9.066483
2481.000000	9.023442
2480.000000	8.966987
2479.000000	8.984367
2478.000000	8.957189
2477.000000	8.998014
2476.000000	9.045371
2475.000000	8.974919
2474.000000	9.028341
2473.000000	9.043738
2472.000000	9.009795
2471.000000	9.004313
2470.000000	9.035106
2469.000000	9.023442
2468.000000	9.063450
2467.000000	9.074765
2466.000000	9.112557
2465.000000	9.086196
2464.000000	9.131569
2463.000000	9.166679
2462.000000	9.183592
2461.000000	9.227333
2460.000000	9.289853
2459.000000	9.326712
2458.000000	9.424575
2457.000000	9.473681
2456.000000	9.528153
2455.000000	9.627066
2454.000000	9.699500
2453.000000	9.785349
2452.000000	9.869915
2451.000000	9.941766
2450.000000	10.027498
2449.000000	10.142041
2448.000000	10.220308
2447.000000	10.323653
2446.000000	10.406469
2445.000000	10.465140
2444.000000	10.573501
2443.000000	10.669730
2442.000000	10.747764
2441.000000	10.832563
2440.000000	10.891234
2439.000000	11.011842
2438.000000	11.043685
2437.000000	11.141898
2436.000000	11.219465
2435.000000	11.313012
2434.000000	11.354304
2433.000000	11.411692
2432.000000	11.484826
2431.000000	11.558427
2430.000000	11.604618
2429.000000	11.649992
2428.000000	11.711695
2427.000000	11.739806
2426.000000	11.767100
2425.000000	11.837669
2424.000000	11.878377
2423.000000	11.929233
2422.000000	11.940781
2421.000000	11.961543
2420.000000	11.983938
2419.000000	12.015082
2418.000000	12.073286
2417.000000	12.094748
2416.000000	12.131374
2415.000000	12.171966
2414.000000	12.197510
2413.000000	12.215706
2412.000000	12.253965
2411.000000	12.281842
2410.000000	12.314736
2409.000000	12.337947
2408.000000	12.367341
2407.000000	12.407233
2406.000000	12.426829
2405.000000	12.457972
2404.000000	12.486550
2403.000000	12.511861
2402.000000	12.551869
2401.000000	12.573448
2400.000000	12.600159
2399.000000	12.653465
2398.000000	12.740130
2397.000000	12.837759
2396.000000	12.909728
2395.000000	12.944604
2394.000000	12.957318
2393.000000	12.978197
2392.000000	13.006541
2391.000000	13.050865
2390.000000	13.111635
2389.000000	13.146628
2388.000000	13.143712
2387.000000	13.135897
2386.000000	13.159808
2385.000000	13.190719
2384.000000	13.184420
2383.000000	13.182437
2382.000000	13.189552
2381.000000	13.173806
2380.000000	13.169490
2379.000000	13.163308
2378.000000	13.138346
2377.000000	13.146861
2376.000000	13.157009
2375.000000	13.119450
2374.000000	13.097288
2373.000000	13.077809
2372.000000	13.025087
2371.000000	13.007357
2370.000000	12.982279
2369.000000	12.914976
2368.000000	12.856305
2367.000000	12.797751
2366.000000	12.730332
2365.000000	12.659413
2364.000000	12.603308
2363.000000	12.551169
2362.000000	12.465787
2361.000000	12.389970
2360.000000	12.349612
2359.000000	12.284642
2358.000000	12.209758
2357.000000	12.146304
2356.000000	12.111661
2355.000000	12.098131
2354.000000	12.088333
2353.000000	12.084834
2352.000000	12.095215
2351.000000	12.109329
2350.000000	12.160185
2349.000000	12.224338
2348.000000	12.284059
2347.000000	12.335265
2346.000000	12.381338
2345.000000	12.435927
2344.000000	12.507662
2343.000000	12.590944
2342.000000	12.629086
2341.000000	12.649032
2340.000000	12.692073
2339.000000	12.735464
2338.000000	12.754477
2337.000000	12.767657
2336.000000	12.775589
2335.000000	12.757976
2334.000000	12.725083
2333.000000	12.688341
2332.000000	12.652065
2331.000000	12.610657
2330.000000	12.549070
2329.000000	12.482001
2328.000000	12.409682
2327.000000	12.320918
2326.000000	12.252565
2325.000000	12.145254
2324.000000	12.018698
2323.000000	11.917919
2322.000000	11.807109
2321.000000	11.670287
2320.000000	11.536965
2319.000000	11.398394
2318.000000	11.231946
2317.000000	11.095708
2316.000000	10.986997
2315.000000	10.860090
2314.000000	10.714988
2313.000000	10.574784
2312.000000	10.461291
2311.000000	10.369377
2310.000000	10.306973
2309.000000	10.279562
2308.000000	10.236171
2307.000000	10.209927
2306.000000	10.214359
2305.000000	10.243753
2304.000000	10.288660
2303.000000	10.360628
2302.000000	10.461874
2301.000000	10.547256
2300.000000	10.659349
2299.000000	10.773892
2298.000000	10.891001
2297.000000	11.000528
2296.000000	11.078678
2295.000000	11.204185
2294.000000	11.292133
2293.000000	11.378099
2292.000000	11.421373
2291.000000	11.456949
2290.000000	11.488442
2289.000000	11.505239
2288.000000	11.515736
2287.000000	11.478877
2286.000000	11.437819
2285.000000	11.420323
2284.000000	11.397694
2283.000000	11.321877
2282.000000	11.290734
2281.000000	11.215966
2280.000000	11.148663
2279.000000	11.107955
2278.000000	11.047418
2277.000000	11.002627
2276.000000	10.948389
2275.000000	10.910363
2274.000000	10.931942
2273.000000	10.909897
2272.000000	10.926810
2271.000000	10.947805
2270.000000	11.009159
2269.000000	11.072846
2268.000000	11.174675
2267.000000	11.282685
2266.000000	11.419973
2265.000000	11.629113
2264.000000	11.827871
2263.000000	12.030828
2262.000000	12.272511
2261.000000	12.575431
2260.000000	12.861438
2259.000000	13.155376
2258.000000	13.502737
2257.000000	13.819070
2256.000000	14.144502
2255.000000	14.461536
2254.000000	14.790933
2253.000000	15.102135
2252.000000	15.429549
2251.000000	15.714973
2250.000000	15.962371
2249.000000	16.226916
2248.000000	16.463466
2247.000000	16.742241
2246.000000	16.942049
2245.000000	17.129610
2244.000000	17.345631
2243.000000	17.515346
2242.000000	17.682611
2241.000000	17.837161
2240.000000	17.938057
2239.000000	18.104156
2238.000000	18.219748
2237.000000	18.328109
2236.000000	18.406026
2235.000000	18.500156
2234.000000	18.586005
2233.000000	18.671853
2232.000000	18.733090
2231.000000	18.767150
2230.000000	18.792695
2229.000000	18.817073
2228.000000	18.852065
2227.000000	18.851132
2226.000000	18.887875
2225.000000	18.879943
2224.000000	18.879243
2223.000000	18.849966
2222.000000	18.852882
2221.000000	18.820922
2220.000000	18.778931
2219.000000	18.731574
2218.000000	18.712795
2217.000000	18.679902
2216.000000	18.632311
2215.000000	18.597319
2214.000000	18.563026
2213.000000	18.532582
2212.000000	18.538881
2211.000000	18.495257
2210.000000	18.487092
2209.000000	18.441718
2208.000000	18.447200
2207.000000	18.415357
2206.000000	18.406026
2205.000000	18.386080
2204.000000	18.359835
2203.000000	18.338723
2202.000000	18.348171
2201.000000	18.315045
2200.000000	18.318427
2199.000000	18.324609
2198.000000	18.332424
2197.000000	18.313878
2196.000000	18.308279
2195.000000	18.308979
2194.000000	18.291949
2193.000000	18.290200
2192.000000	18.280985
2191.000000	18.277253
2190.000000	18.256490
2189.000000	18.233745
2188.000000	18.238761
2187.000000	18.224997
2186.000000	18.213449
2185.000000	18.215549
2184.000000	18.197586
2183.000000	18.181489
2182.000000	18.158744
2181.000000	18.146847
2180.000000	18.147430
2179.000000	18.134366
2178.000000	18.127834
2177.000000	18.115470
2176.000000	18.118619
2175.000000	18.131333
2174.000000	18.113020
2173.000000	18.129933
2172.000000	18.133433
2171.000000	18.137632
2170.000000	18.135882
2169.000000	18.167609
2168.000000	18.192687
2167.000000	18.215432
2166.000000	18.234328
2165.000000	18.253574
2164.000000	18.292649
2163.000000	18.306296
2162.000000	18.323210
2161.000000	18.370333
2160.000000	18.420956
2159.000000	18.493157
2158.000000	18.530250
2157.000000	18.547629
2156.000000	18.593120
2155.000000	18.671737
2154.000000	18.716177
2153.000000	18.783247
2152.000000	18.839468
2151.000000	18.904904
2150.000000	18.973840
2149.000000	19.032861
2148.000000	19.067737
2147.000000	19.110545
2146.000000	19.175398
2145.000000	19.242000
2144.000000	19.301021
2143.000000	19.337180
2142.000000	19.383021
2141.000000	19.426178
2140.000000	19.483450
2139.000000	19.536172
2138.000000	19.572098
2137.000000	19.625637
2136.000000	19.642783
2135.000000	19.665528
2134.000000	19.705187
2133.000000	19.743562
2132.000000	19.749044
2131.000000	19.772373
2130.000000	19.816230
2129.000000	19.835709
2128.000000	19.832560
2127.000000	19.835593
2126.000000	19.844807
2125.000000	19.852506
2124.000000	19.848190
2123.000000	19.863120
2122.000000	19.852506
2121.000000	19.833493
2120.000000	19.815414
2119.000000	19.807132
2118.000000	19.809231
2117.000000	19.769690
2116.000000	19.747994
2115.000000	19.714868
2114.000000	19.673460
2113.000000	19.665412
2112.000000	19.650831
2111.000000	19.613856
2110.000000	19.570815
2109.000000	19.533139
2108.000000	19.505612
2107.000000	19.483800
2106.000000	19.456272
2105.000000	19.420463
2104.000000	19.382904
2103.000000	19.347912
2102.000000	19.315835
2101.000000	19.299622
2100.000000	19.270694
2099.000000	19.235702
2098.000000	19.205141
2097.000000	19.180996
2096.000000	19.175631
2095.000000	19.163733
2094.000000	19.154285
2093.000000	19.112178
2092.000000	19.074386
2091.000000	19.079401
2090.000000	19.078935
2089.000000	19.068787
2088.000000	19.050124
2087.000000	19.030645
2086.000000	19.000318
2085.000000	18.982821
2084.000000	18.970457
2083.000000	18.947479
2082.000000	18.915985
2081.000000	18.883559
2080.000000	18.846583
2079.000000	18.839818
2078.000000	18.821972
2077.000000	18.778348
2076.000000	18.730991
2075.000000	18.686550
2074.000000	18.665904
2073.000000	18.628579
2072.000000	18.580872
2071.000000	18.544363
2070.000000	18.504705
2069.000000	18.468429
2068.000000	18.429471
2067.000000	18.372433
2066.000000	18.324143
2065.000000	18.296382
2064.000000	18.283435
2063.000000	18.258007
2062.000000	18.221264
2061.000000	18.201552
2060.000000	18.193737
2059.000000	18.199336
2058.000000	18.209600
2057.000000	18.234678
2056.000000	18.288217
2055.000000	18.352370
2054.000000	18.407425
2053.000000	18.475311
2052.000000	18.573407
2051.000000	18.693549
2050.000000	18.832703
2049.000000	18.968708
2048.000000	19.120692
2047.000000	19.287607
2046.000000	19.484849
2045.000000	19.690956
2044.000000	19.852856
2043.000000	20.026653
2042.000000	20.203599
2041.000000	20.402590
2040.000000	20.589685
2039.000000	20.788210
2038.000000	20.935179
2037.000000	21.107226
2036.000000	21.296420
2035.000000	21.444322
2034.000000	21.588725
2033.000000	21.743976
2032.000000	21.896311
2031.000000	22.028816
2030.000000	22.167387
2029.000000	22.267000
2028.000000	22.392623
2027.000000	22.512065
2026.000000	22.624158
2025.000000	22.719222
2024.000000	22.826532
2023.000000	22.932793
2022.000000	23.020159
2021.000000	23.106007
2020.000000	23.199904
2019.000000	23.281554
2018.000000	23.354222
2017.000000	23.419775
2016.000000	23.495009
2015.000000	23.562778
2014.000000	23.601620
2013.000000	23.667290
2012.000000	23.708464
2011.000000	23.749756
2010.000000	23.791630
2009.000000	23.805277
2008.000000	23.803994
2007.000000	23.858816
2006.000000	23.848552
2005.000000	23.839104
2004.000000	23.870364
2003.000000	23.830122
2002.000000	23.827323
2001.000000	23.803761
2000.000000	23.784982
1999.000000	23.743690
1998.000000	23.692484
1997.000000	23.644894
1996.000000	23.616550
1995.000000	23.550064
1994.000000	23.503291
1993.000000	23.449285
1992.000000	23.372885
1991.000000	23.303599
1990.000000	23.235247
1989.000000	23.144616
1988.000000	23.073114
1987.000000	22.971752
1986.000000	22.921363
1985.000000	22.798538
1984.000000	22.695893
1983.000000	22.651686
1982.000000	22.546824
1981.000000	22.457010
1980.000000	22.356581
1979.000000	22.244488
1978.000000	22.166921
1977.000000	22.047129
1976.000000	21.974228
1975.000000	21.879281
1974.000000	21.788067
1973.000000	21.683322
1972.000000	21.608088
1971.000000	21.498561
1970.000000	21.419127
1969.000000	21.292571
1968.000000	21.238332
1967.000000	21.127172
1966.000000	21.051005
1965.000000	20.964106
1964.000000	20.860061
1963.000000	20.790076
1962.000000	20.697812
1961.000000	20.606831
1960.000000	20.494971
1959.000000	20.419270
1958.000000	20.354767
1957.000000	20.295630
1956.000000	20.159741
1955.000000	20.069810
1954.000000	19.998892
1953.000000	19.908844
1952.000000	19.821246
1951.000000	19.745078
1950.000000	19.670194
1949.000000	19.591694
1948.000000	19.543054
1947.000000	19.459188
1946.000000	19.414514
1945.000000	19.358759
1944.000000	19.309420
1943.000000	19.274660
1942.000000	19.253198
1941.000000	19.236751
1940.000000	19.216922
1939.000000	19.220422
1938.000000	19.214706
1937.000000	19.239784
1936.000000	19.266729
1935.000000	19.315835
1934.000000	19.353744
1933.000000	19.433527
1932.000000	19.483916
1931.000000	19.573964
1930.000000	19.678476
1929.000000	19.792202
1928.000000	19.921675
1927.000000	20.074709
1926.000000	20.198933
1925.000000	20.340770
1924.000000	20.500803
1923.000000	20.677283
1922.000000	20.881057
1921.000000	21.100344
1920.000000	21.327680
1919.000000	21.545218
1918.000000	21.777569
1917.000000	22.026017
1916.000000	22.264550
1915.000000	22.504600
1914.000000	22.827116
1913.000000	23.147299
1912.000000	23.441470
1911.000000	23.719545
1910.000000	24.001120
1909.000000	24.276279
1908.000000	24.559486
1907.000000	24.932624
1906.000000	25.302380
1905.000000	25.668637
1904.000000	26.032794
1903.000000	26.391002
1902.000000	26.736146
1901.000000	27.123632
1900.000000	27.539111
1899.000000	27.966372
1898.000000	28.347209
1897.000000	28.715915
1896.000000	29.039947
1895.000000	29.382525
1894.000000	29.722187
1893.000000	30.108856
1892.000000	30.541365
1891.000000	30.908439
1890.000000	31.298257
1889.000000	31.708021
1888.000000	32.081159
1887.000000	32.475877
1886.000000	32.936847
1885.000000	33.452989
1884.000000	34.006922
1883.000000	34.548026
1882.000000	35.129954
1881.000000	35.708732
1880.000000	36.216476
1879.000000	36.739850
1878.000000	37.251092
1877.000000	37.698649
1876.000000	38.132908
1875.000000	38.553869
1874.000000	38.922459
1873.000000	39.286383
1872.000000	39.599334
1871.000000	39.867144
1870.000000	40.103345
1869.000000	40.339545
1868.000000	40.481032
1867.000000	40.591726
1866.000000	40.675591
1865.000000	40.738928
1864.000000	40.798066
1863.000000	40.876799
1862.000000	40.957632
1861.000000	40.995658
1860.000000	41.033100
1859.000000	41.044881
1858.000000	41.043364
1857.000000	41.033216
1856.000000	40.998224
1855.000000	40.966614
1854.000000	40.923339
1853.000000	40.816962
1852.000000	40.755025
1851.000000	40.707318
1850.000000	40.647597
1849.000000	40.606889
1848.000000	40.555800
1847.000000	40.436825
1846.000000	40.322399
1845.000000	40.247748
1844.000000	40.186044
1843.000000	40.163882
1842.000000	40.162249
1841.000000	40.127256
1840.000000	40.061237
1839.000000	40.000933
1838.000000	39.949494
1837.000000	39.884174
1836.000000	39.791677
1835.000000	39.677251
1834.000000	39.558042
1833.000000	39.460063
1832.000000	39.380746
1831.000000	39.304812
1830.000000	39.211148
1829.000000	39.101388
1828.000000	38.994194
1827.000000	38.911728
1826.000000	38.820514
1825.000000	38.739331
1824.000000	38.694190
1823.000000	38.676694
1822.000000	38.661880
1821.000000	38.645667
1820.000000	38.604492
1819.000000	38.553753
1818.000000	38.521560
1817.000000	38.513511
1816.000000	38.522493
1815.000000	38.496948
1814.000000	38.485750
1813.000000	38.466038
1812.000000	38.431395
1811.000000	38.384738
1810.000000	38.334699
1809.000000	38.275678
1808.000000	38.230537
1807.000000	38.180148
1806.000000	38.117861
1805.000000	38.043910
1804.000000	37.987571
1803.000000	37.929950
1802.000000	37.861015
1801.000000	37.791846
1800.000000	37.726060
1799.000000	37.644527
1798.000000	37.570809
1797.000000	37.517620
1796.000000	37.459415
1795.000000	37.375666
1794.000000	37.324227
1793.000000	37.249459
1792.000000	37.175508
1791.000000	37.092459
1790.000000	37.027256
1789.000000	36.933709
1788.000000	36.855559
1787.000000	36.769360
1786.000000	36.681995
1785.000000	36.567802
1784.000000	36.468656
1783.000000	36.353997
1782.000000	36.247969
1781.000000	36.150107
1780.000000	36.020517
1779.000000	35.915189
1778.000000	35.783267
1777.000000	35.628133
1776.000000	35.476031
1775.000000	35.327896
1774.000000	35.159464
1773.000000	34.948575
1772.000000	34.784459
1771.000000	34.609379
1770.000000	34.441415
1769.000000	34.267618
1768.000000	34.094404
1767.000000	33.976479
1766.000000	33.867068
1765.000000	33.763140
1764.000000	33.713917
1763.000000	33.690472
1762.000000	33.720566
1761.000000	33.776437
1760.000000	33.852022
1759.000000	33.929705
1758.000000	34.002373
1757.000000	34.063144
1756.000000	34.118899
1755.000000	34.140011
1754.000000	34.152609
1753.000000	34.130913
1752.000000	34.105835
1751.000000	34.054979
1750.000000	33.988376
1749.000000	33.873250
1748.000000	33.759058
1747.000000	33.619320
1746.000000	33.436425
1745.000000	33.247232
1744.000000	33.030160
1743.000000	32.766666
1742.000000	32.490807
1741.000000	32.174590
1740.000000	31.865721
1739.000000	31.587646
1738.000000	31.313887
1737.000000	31.108830
1736.000000	30.934100
1735.000000	30.835187
1734.000000	30.804744
1733.000000	30.836937
1732.000000	30.907272
1731.000000	31.003385
1730.000000	31.134025
1729.000000	31.282160
1728.000000	31.426913
1727.000000	31.539823
1726.000000	31.662181
1725.000000	31.747563
1724.000000	31.802384
1723.000000	31.852657
1722.000000	31.893482
1721.000000	31.910512
1720.000000	31.934890
1719.000000	32.006975
1718.000000	32.068679
1717.000000	32.144496
1716.000000	32.261838
1715.000000	32.374748
1714.000000	32.444733
1713.000000	32.558926
1712.000000	32.620980
1711.000000	32.657839
1710.000000	32.704845
1709.000000	32.663321
1708.000000	32.665654
1707.000000	32.624012
1706.000000	32.600451
1705.000000	32.550294
1704.000000	32.473194
1703.000000	32.346987
1702.000000	32.205850
1701.000000	32.003242
1700.000000	31.810549
1699.000000	31.612724
1698.000000	31.464005
1697.000000	31.317036
1696.000000	31.276445
1695.000000	31.293708
1694.000000	31.361943
1693.000000	31.530958
1692.000000	31.709771
1691.000000	31.916227
1690.000000	32.088858
1689.000000	32.228362
1688.000000	32.250057
1687.000000	32.301147
1686.000000	32.343371
1685.000000	32.436102
1684.000000	32.584237
1683.000000	32.930548
1682.000000	33.412630
1681.000000	34.039816
1680.000000	34.737569
1679.000000	35.425408
1678.000000	36.117213
1677.000000	36.722237
1676.000000	37.305914
1675.000000	37.784031
1674.000000	38.199044
1673.000000	38.551187
1672.000000	38.852240
1671.000000	39.176156
1670.000000	39.382962
1669.000000	39.626161
1668.000000	39.782695
1667.000000	39.956725
1666.000000	40.093897
1665.000000	40.194092
1664.000000	40.320999
1663.000000	40.423644
1662.000000	40.478699
1661.000000	40.565714
1660.000000	40.621586
1659.000000	40.655762
1658.000000	40.690755
1657.000000	40.712684
1656.000000	40.730996
1655.000000	40.718516
1654.000000	40.739745
1653.000000	40.701136
1652.000000	40.667776
1651.000000	40.650980
1650.000000	40.606073
1649.000000	40.544019
1648.000000	40.501678
1647.000000	40.451288
1646.000000	40.390751
1645.000000	40.330447
1644.000000	40.256029
1643.000000	40.187210
1642.000000	40.104511
1641.000000	40.028227
1640.000000	39.965124
1639.000000	39.894905
1638.000000	39.801008
1637.000000	39.733356
1636.000000	39.627444
1635.000000	39.553377
1634.000000	39.462162
1633.000000	39.361850
1632.000000	39.243692
1631.000000	39.152244
1630.000000	39.056481
1629.000000	38.952203
1628.000000	38.846758
1627.000000	38.754727
1626.000000	38.652432
1625.000000	38.545238
1624.000000	38.440843
1623.000000	38.329333
1622.000000	38.243368
1621.000000	38.157752
1620.000000	38.040877
1619.000000	37.953978
1618.000000	37.861248
1617.000000	37.780415
1616.000000	37.682085
1615.000000	37.601252
1614.000000	37.523452
1613.000000	37.418591
1612.000000	37.333092
1611.000000	37.250276
1610.000000	37.167110
1609.000000	37.086860
1608.000000	37.011393
1607.000000	36.926011
1606.000000	36.830364
1605.000000	36.742532
1604.000000	36.657267
1603.000000	36.582383
1602.000000	36.496417
1601.000000	36.411852
1600.000000	36.334984
1599.000000	36.249369
1598.000000	36.160021
1597.000000	36.104033
1596.000000	36.041629
1595.000000	35.975960
1594.000000	35.912273
1593.000000	35.861300
1592.000000	35.809978
1591.000000	35.753990
1590.000000	35.715031
1589.000000	35.674323
1588.000000	35.626150
1587.000000	35.588941
1586.000000	35.543684
1585.000000	35.501576
1584.000000	35.468799
1583.000000	35.454919
1582.000000	35.439755
1581.000000	35.420043
1580.000000	35.409428
1579.000000	35.398697
1578.000000	35.406046
1577.000000	35.410245
1576.000000	35.415144
1575.000000	35.433223
1574.000000	35.456085
1573.000000	35.474748
1572.000000	35.492128
1571.000000	35.522921
1570.000000	35.569812
1569.000000	35.612386
1568.000000	35.644812
1567.000000	35.698118
1566.000000	35.738826
1565.000000	35.774169
1564.000000	35.824558
1563.000000	35.852786
1562.000000	35.879847
1561.000000	35.907841
1560.000000	35.928836
1559.000000	35.951348
1558.000000	35.967328
1557.000000	35.973860
1556.000000	35.988440
1555.000000	35.994389
1554.000000	35.986807
1553.000000	35.976076
1552.000000	35.964529
1551.000000	35.949015
1550.000000	35.939334
1549.000000	35.923354
1548.000000	35.890578
1547.000000	35.886612
1546.000000	35.874014
1545.000000	35.851619
1544.000000	35.845904
1543.000000	35.848586
1542.000000	35.845787
1541.000000	35.827591
1540.000000	35.833306
1539.000000	35.844271
1538.000000	35.844037
1537.000000	35.848120
1536.000000	35.843454
1535.000000	35.827941
1534.000000	35.809511
1533.000000	35.788982
1532.000000	35.779184
1531.000000	35.769736
1530.000000	35.749324
1529.000000	35.730778
1528.000000	35.715381
1527.000000	35.690886
1526.000000	35.658226
1525.000000	35.625100
1524.000000	35.592090
1523.000000	35.571211
1522.000000	35.536918
1521.000000	35.491778
1520.000000	35.449670
1519.000000	35.420160
1518.000000	35.398697
1517.000000	35.366971
1516.000000	35.332211
1515.000000	35.285438
1514.000000	35.248112
1513.000000	35.203438
1512.000000	35.171245
1511.000000	35.130537
1510.000000	35.088429
1509.000000	35.056352
1508.000000	35.008179
1507.000000	34.968054
1506.000000	34.941810
1505.000000	34.900052
1504.000000	34.875207
1503.000000	34.863426
1502.000000	34.824001
1501.000000	34.796124
1500.000000	34.800439
1499.000000	34.786676
1498.000000	34.771512
1497.000000	34.763347
1496.000000	34.767780
1495.000000	34.770579
1494.000000	34.793558
1493.000000	34.798457
1492.000000	34.808371
1491.000000	34.831933
1490.000000	34.850712
1489.000000	34.880573
1488.000000	34.926996
1487.000000	34.929329
1486.000000	34.949508
1485.000000	34.990333
1484.000000	35.032091
1483.000000	35.071983
1482.000000	35.126921
1481.000000	35.166346
1480.000000	35.205655
1479.000000	35.268641
1478.000000	35.313899
1477.000000	35.377469
1476.000000	35.454686
1475.000000	35.512890
1474.000000	35.581709
1473.000000	35.657876
1472.000000	35.757839
1471.000000	35.803446
1470.000000	35.870515
1469.000000	35.921371
1468.000000	35.985524
1467.000000	36.074522
1466.000000	36.146724
1465.000000	36.246570
1464.000000	36.326586
1463.000000	36.413251
1462.000000	36.527444
1461.000000	36.629273
1460.000000	36.720837
1459.000000	36.849727
1458.000000	36.967535
1457.000000	37.097941
1456.000000	37.237679
1455.000000	37.350122
1454.000000	37.489976
1453.000000	37.629480
1452.000000	37.781231
1451.000000	37.928201
1450.000000	38.074003
1449.000000	38.195078
1448.000000	38.365376
1447.000000	38.529608
1446.000000	38.693607
1445.000000	38.852357
1444.000000	39.004692
1443.000000	39.164725
1442.000000	39.324058
1441.000000	39.497155
1440.000000	39.665003
1439.000000	39.813255
1438.000000	39.969906
1437.000000	40.103928
1436.000000	40.286006
1435.000000	40.434375
1434.000000	40.595575
1433.000000	40.776254
1432.000000	40.948184
1431.000000	41.107401
1430.000000	41.292979
1429.000000	41.482289
1428.000000	41.737852
1427.000000	41.964255
1426.000000	42.235798
1425.000000	42.506641
1424.000000	42.796264
1423.000000	43.071073
1422.000000	43.304940
1421.000000	43.593980
1420.000000	43.919528
1419.000000	44.192821
1418.000000	44.443718
1417.000000	44.674670
1416.000000	44.991470
1415.000000	45.331482
1414.000000	45.589845
1413.000000	45.832694
1412.000000	46.089657
1411.000000	46.467577
1410.000000	46.856696
1409.000000	47.251180
1408.000000	47.705618
1407.000000	48.123430
1406.000000	48.617527
1405.000000	49.066483
1404.000000	49.512523
1403.000000	49.959262
1402.000000	50.435046
1401.000000	50.979415
1400.000000	51.345555
1399.000000	51.589337
1398.000000	51.834286
1397.000000	52.159484
1396.000000	52.472902
1395.000000	52.649032
1394.000000	52.778155
1393.000000	52.949386
1392.000000	53.159575
1391.000000	53.357750
1390.000000	53.568989
1389.000000	53.916816
1388.000000	54.236999
1387.000000	54.578294
1386.000000	55.005788
1385.000000	55.502684
1384.000000	55.974152
1383.000000	56.423457
1382.000000	56.778166
1381.000000	56.993721
1380.000000	57.115496
1379.000000	57.219657
1378.000000	57.291042
1377.000000	57.420165
1376.000000	57.600028
1375.000000	57.856757
1374.000000	58.208317
1373.000000	58.647241
1372.000000	59.084533
1371.000000	59.528007
1370.000000	59.905344
1369.000000	60.302045
1368.000000	60.637508
1367.000000	60.898436
1366.000000	61.149800
1365.000000	61.401514
1364.000000	61.607388
1363.000000	61.817227
1362.000000	61.993007
1361.000000	62.083521
1360.000000	62.102184
1359.000000	62.215910
1358.000000	62.360896
1357.000000	62.604912
1356.000000	63.018875
1355.000000	63.597421
1354.000000	64.225889
1353.000000	64.840127
1352.000000	65.570424
1351.000000	66.250564
1350.000000	66.855238
1349.000000	67.409522
1348.000000	67.943743
1347.000000	68.399347
1346.000000	68.805729
1345.000000	69.266932
1344.000000	69.713205
1343.000000	70.072930
1342.000000	70.416208
1341.000000	70.766835
1340.000000	71.109763
1339.000000	71.434961
1338.000000	71.718285
1337.000000	72.009191
1336.000000	72.285400
1335.000000	72.547261
1334.000000	72.794076
1333.000000	73.030743
1332.000000	73.264378
1331.000000	73.464886
1330.000000	73.673675
1329.000000	73.870217
1328.000000	74.049030
1327.000000	74.210696
1326.000000	74.372246
1325.000000	74.523297
1324.000000	74.674582
1323.000000	74.804405
1322.000000	74.926763
1321.000000	75.049704
1320.000000	75.172994
1319.000000	75.270157
1318.000000	75.375952
1317.000000	75.478597
1316.000000	75.564212
1315.000000	75.658459
1314.000000	75.747691
1313.000000	75.822342
1312.000000	75.900609
1311.000000	75.966978
1310.000000	76.021800
1309.000000	76.073472
1308.000000	76.115580
1307.000000	76.147074
1306.000000	76.183816
1305.000000	76.206678
1304.000000	76.217409
1303.000000	76.218459
1302.000000	76.212277
1301.000000	76.207494
1300.000000	76.187665
1299.000000	76.167136
1298.000000	76.160371
1297.000000	76.141008
1296.000000	76.104149
1295.000000	76.070906
1294.000000	76.032648
1293.000000	76.001971
1292.000000	75.963362
1291.000000	75.914022
1290.000000	75.853019
1289.000000	75.762154
1288.000000	75.687970
1287.000000	75.607487
1286.000000	75.502975
1285.000000	75.399863
1284.000000	75.308533
1283.000000	75.207287
1282.000000	75.092045
1281.000000	74.994648
1280.000000	74.897019
1279.000000	74.782010
1278.000000	74.686596
1277.000000	74.597015
1276.000000	74.503701
1275.000000	74.414237
1274.000000	74.337136
1273.000000	74.267034
1272.000000	74.184685
1271.000000	74.111667
1270.000000	74.040398
1269.000000	73.961548
1268.000000	73.901827
1267.000000	73.828809
1266.000000	73.749843
1265.000000	73.668893
1264.000000	73.603923
1263.000000	73.524607
1262.000000	73.453221
1261.000000	73.376471
1260.000000	73.293538
1259.000000	73.224486
1258.000000	73.163949
1257.000000	73.071801
1256.000000	72.987936
1255.000000	72.899754
1254.000000	72.793493
1253.000000	72.706945
1252.000000	72.599284
1251.000000	72.489174
1250.000000	72.369382
1249.000000	72.249240
1248.000000	72.115102
1247.000000	71.969299
1246.000000	71.808333
1245.000000	71.629870
1244.000000	71.477069
1243.000000	71.291841
1242.000000	71.102647
1241.000000	70.898990
1240.000000	70.697782
1239.000000	70.495291
1238.000000	70.263173
1237.000000	70.065582
1236.000000	69.837779
1235.000000	69.618492
1234.000000	69.395355
1233.000000	69.161488
1232.000000	68.943483
1231.000000	68.691303
1230.000000	68.456852
1229.000000	68.212836
1228.000000	67.976869
1227.000000	67.739502
1226.000000	67.509367
1225.000000	67.258120
1224.000000	67.030551
1223.000000	66.805082
1222.000000	66.569464
1221.000000	66.354843
1220.000000	66.146053
1219.000000	65.946828
1218.000000	65.758334
1217.000000	65.565875
1216.000000	65.398143
1215.000000	65.245808
1214.000000	65.081926
1213.000000	64.929358
1212.000000	64.764076
1211.000000	64.616990
1210.000000	64.482852
1209.000000	64.364693
1208.000000	64.256566
1207.000000	64.146106
1206.000000	64.104931
1205.000000	64.046960
1204.000000	63.998087
1203.000000	63.949797
1202.000000	63.925768
1201.000000	63.843886
1200.000000	63.776466
1199.000000	63.639295
1198.000000	63.454534
1197.000000	63.248660
1196.000000	62.979567
1195.000000	62.628707
1194.000000	62.191765
1193.000000	61.683788
1192.000000	61.123789
1191.000000	60.585368
1190.000000	60.073192
1189.000000	59.650598
1188.000000	59.369957
1187.000000	59.211323
1186.000000	59.226603
1185.000000	59.414397
1184.000000	59.746711
1183.000000	60.229960
1182.000000	60.804423
1181.000000	61.396848
1180.000000	61.998022
1179.000000	62.561638
1178.000000	63.049435
1177.000000	63.481595
1176.000000	63.871530
1175.000000	64.227172
1174.000000	64.605209
1173.000000	64.993628
1172.000000	65.382396
1171.000000	65.799859
1170.000000	66.242866
1169.000000	66.659045
1168.000000	67.089222
1167.000000	67.508784
1166.000000	67.934412
1165.000000	68.424076
1164.000000	68.837222
1163.000000	69.287695
1162.000000	69.749248
1161.000000	70.151547
1160.000000	70.563061
1159.000000	70.954862
1158.000000	71.325317
1157.000000	71.625555
1156.000000	71.872719
1155.000000	72.070311
1154.000000	72.151378
1153.000000	72.219497
1152.000000	72.238393
1151.000000	72.190103
1150.000000	72.141580
1149.000000	72.115685
1148.000000	72.092823
1147.000000	72.139830
1146.000000	72.313277
1145.000000	72.543412
1144.000000	72.818571
1143.000000	73.176196
1142.000000	73.526123
1141.000000	73.931221
1140.000000	74.303077
1139.000000	74.726955
1138.000000	75.153165
1137.000000	75.583692
1136.000000	76.028098
1135.000000	76.476238
1134.000000	76.830130
1133.000000	77.140982
1132.000000	77.453466
1131.000000	77.770733
1130.000000	78.035394
1129.000000	78.250483
1128.000000	78.407017
1127.000000	78.513394
1126.000000	78.621755
1125.000000	78.695123
1124.000000	78.780038
1123.000000	78.836377
1122.000000	78.902046
1121.000000	78.917326
1120.000000	78.939022
1119.000000	78.948353
1118.000000	78.945787
1117.000000	78.930507
1116.000000	78.906245
1115.000000	78.858539
1114.000000	78.822263
1113.000000	78.805116
1112.000000	78.771174
1111.000000	78.725800
1110.000000	78.688941
1109.000000	78.652082
1108.000000	78.610907
1107.000000	78.563200
1106.000000	78.529491
1105.000000	78.466154
1104.000000	78.410516
1103.000000	78.349395
1102.000000	78.296440
1101.000000	78.226221
1100.000000	78.155419
1099.000000	78.088933
1098.000000	78.016732
1097.000000	77.955145
1096.000000	77.852266
1095.000000	77.761868
1094.000000	77.703081
1093.000000	77.619098
1092.000000	77.524035
1091.000000	77.402494
1090.000000	77.329709
1089.000000	77.217266
1088.000000	77.114504
1087.000000	77.010809
1086.000000	76.907231
1085.000000	76.802253
1084.000000	76.701357
1083.000000	76.604194
1082.000000	76.505748
1081.000000	76.409635
1080.000000	76.326003
1079.000000	76.229073
1078.000000	76.130277
1077.000000	76.033931
1076.000000	75.952864
1075.000000	75.876697
1074.000000	75.785949
1073.000000	75.695202
1072.000000	75.590107
1071.000000	75.521755
1070.000000	75.434040
1069.000000	75.356589
1068.000000	75.266541
1067.000000	75.170195
1066.000000	75.077348
1065.000000	74.983684
1064.000000	74.897952
1063.000000	74.810004
1062.000000	74.727888
1061.000000	74.635040
1060.000000	74.544876
1059.000000	74.448996
1058.000000	74.356849
1057.000000	74.271467
1056.000000	74.166139
1055.000000	74.066993
1054.000000	73.974496
1053.000000	73.873600
1052.000000	73.789501
1051.000000	73.719866
1050.000000	73.649180
1049.000000	73.555050
1048.000000	73.459404
1047.000000	73.399683
1046.000000	73.332380
1045.000000	73.266944
1044.000000	73.192060
1043.000000	73.122424
1042.000000	73.046840
1041.000000	72.960291
1040.000000	72.889956
1039.000000	72.831752
1038.000000	72.771564
1037.000000	72.678950
1036.000000	72.604883
1035.000000	72.552977
1034.000000	72.463162
1033.000000	72.362850
1032.000000	72.293798
1031.000000	72.230928
1030.000000	72.140880
1029.000000	72.053631
1028.000000	71.982013
1027.000000	71.898731
1026.000000	71.816848
1025.000000	71.746396
1024.000000	71.672328
1023.000000	71.590095
1022.000000	71.513928
1021.000000	71.462372
1020.000000	71.397286
1019.000000	71.336049
1018.000000	71.280294
1017.000000	71.228155
1016.000000	71.191062
1015.000000	71.152804
1014.000000	71.128542
1013.000000	71.102764
1012.000000	71.104164
1011.000000	71.111862
1010.000000	71.101014
1009.000000	71.112329
1008.000000	71.134841
1007.000000	71.147438
1006.000000	71.159452
1005.000000	71.179048
1004.000000	71.202377
1003.000000	71.244951
1002.000000	71.261048
1001.000000	71.280177
1000.000000	71.312720
999.000000	71.325317
998.000000	71.343747
997.000000	71.377340
996.000000	71.413266
995.000000	71.488967
994.000000	71.521860
993.000000	71.551487
992.000000	71.602459
991.000000	71.645150
990.000000	71.694957
989.000000	71.743363
988.000000	71.803084
987.000000	71.851024
986.000000	71.927891
985.000000	71.996593
984.000000	72.054331
983.000000	72.108570
982.000000	72.195002
981.000000	72.246908
980.000000	72.331123
979.000000	72.425604
978.000000	72.467012
977.000000	72.548078
976.000000	72.623195
975.000000	72.707994
974.000000	72.815655
973.000000	72.865578
972.000000	72.916434
971.000000	73.014647
970.000000	73.113676
969.000000	73.182495
968.000000	73.244199
967.000000	73.325148
966.000000	73.412047
965.000000	73.498712
964.000000	73.576979
963.000000	73.670409
962.000000	73.749143
961.000000	73.868351
960.000000	73.963181
959.000000	74.053929
958.000000	74.137095
957.000000	74.216645
956.000000	74.330954
955.000000	74.406538
954.000000	74.522947
953.000000	74.604713
952.000000	74.677382
951.000000	74.757282
950.000000	74.858410
949.000000	74.926763
948.000000	75.050520
947.000000	75.122488
946.000000	75.196323
945.000000	75.301417
944.000000	75.400330
943.000000	75.549166
942.000000	75.637230
941.000000	75.700567
940.000000	75.853019
939.000000	75.926736
938.000000	76.006170
937.000000	76.124678
936.000000	76.225107
935.000000	76.409868
934.000000	76.494084
933.000000	76.585648
932.000000	76.691209
931.000000	76.791522
930.000000	76.929859
929.000000	77.011859
928.000000	77.108905
927.000000	77.187172
926.000000	77.343006
925.000000	77.444252
924.000000	77.502339
923.000000	77.585272
922.000000	77.681385
921.000000	77.765951
920.000000	77.811558
919.000000	77.982439
918.000000	78.047175
917.000000	78.087883
916.000000	78.060589
915.000000	78.141072
914.000000	78.300755
913.000000	78.334232
912.000000	78.379489
911.000000	78.426029
910.000000	78.410632
909.000000	78.444692
908.000000	78.648816
907.000000	78.714602
906.000000	78.739097
905.000000	78.699439
904.000000	78.791936
903.000000	78.851540
902.000000	78.914993
901.000000	78.967716
900.000000	78.994310
899.000000	79.019155
898.000000	78.918493
897.000000	78.937855
896.000000	78.969582
895.000000	79.028836
894.000000	78.981246
893.000000	78.824246
892.000000	78.843608
891.000000	78.769191
890.000000	78.580114
889.000000	78.573348
888.000000	78.491815
887.000000	78.282093
886.000000	78.118677
885.000000	77.890175
884.000000	77.733758
883.000000	77.453466
882.000000	77.251792
881.000000	76.947589
880.000000	76.757812
879.000000	76.449060
878.000000	76.210527
877.000000	75.724479
876.000000	75.296635
875.000000	74.890020
874.000000	74.381927
873.000000	73.898678
872.000000	73.725115
871.000000	73.891213
870.000000	74.080290
869.000000	74.334337
868.000000	74.551058
867.000000	74.787725
866.000000	75.014828
865.000000	75.255810
864.000000	75.487345
863.000000	75.730311
862.000000	75.969078
861.000000	76.219858
860.000000	76.445911
859.000000	76.697158
858.000000	79.042600
857.000000	78.413400
856.000000	79.262000
855.000000	79.452400
854.000000	79.768700
853.000000	79.599600
852.000000	79.924600
851.000000	79.853500
850.000000	80.696500
849.000000	80.762000
848.000000	80.819800
847.000000	81.424600
846.000000	81.755600
845.000000	81.636600
844.000000	82.099300
843.000000	82.721900
842.000000	82.884200
841.000000	83.100700
840.000000	83.497600
839.000000	84.094100
838.000000	84.318300
837.000000	84.876900
836.000000	84.942700
835.000000	85.269000
834.000000	85.842300
833.000000	86.103800
832.000000	86.684300
831.000000	86.746400
830.000000	87.569000
829.000000	87.601400
828.000000	87.778500
827.000000	88.264400
826.000000	88.844500
825.000000	89.118600
824.000000	89.518300
823.000000	89.972300
822.000000	90.269000
821.000000	90.687200
820.000000	91.039700
819.000000	91.186100
818.000000	91.441700
817.000000	91.887500
816.000000	92.362800
815.000000	92.547500
814.000000	92.805500
813.000000	93.166400
812.000000	93.443800
811.000000	93.790200
810.000000	94.007900
809.000000	94.266300
808.000000	94.578900
807.000000	94.942100
806.000000	95.183000
805.000000	95.598400
804.000000	95.844100
803.000000	96.201000
802.000000	96.238500
801.000000	96.561900
800.000000	96.737100
799.000000	96.912200
798.000000	97.192000
797.000000	97.302000
796.000000	97.667000
795.000000	97.953000
794.000000	97.967100
793.000000	98.099800
792.000000	98.311000
791.000000	98.414800
790.000000	98.632900
789.000000	98.682500
788.000000	98.814300
787.000000	98.833500
786.000000	98.872900
785.000000	99.080300
784.000000	99.283200
783.000000	99.288900
782.000000	99.329600
781.000000	99.432100
780.000000	99.537100
779.000000	99.580700
778.000000	99.552700
777.000000	99.670500
776.000000	99.683800
775.000000	99.731700
774.000000	99.737200
773.000000	99.576600
772.000000	99.601000
771.000000	99.630600
770.000000	99.587600
769.000000	99.609100
768.000000	99.528800
767.000000	99.372300
766.000000	99.324500
765.000000	99.246800
764.000000	99.164200
763.000000	99.286400
762.000000	99.204100
761.000000	98.966600
760.000000	98.909400
759.000000	98.745500
758.000000	98.730700
757.000000	98.713200
756.000000	98.464800
755.000000	98.252500
754.000000	98.126600
753.000000	98.121200
752.000000	98.046600
751.000000	97.843400
750.000000	97.619300
749.000000	97.418300
748.000000	97.239500
747.000000	97.029000
746.000000	96.903900
745.000000	96.761800
744.000000	96.558500
743.000000	96.399200
742.000000	96.164200
741.000000	95.964000
740.000000	95.763600
739.000000	95.544500
738.000000	95.390200
737.000000	95.147400
736.000000	94.850300
735.000000	94.658900
734.000000	94.484200
733.000000	94.231600
732.000000	93.931800
731.000000	93.660600
730.000000	93.480800
729.000000	93.197900
728.000000	92.786800
727.000000	92.532700
726.000000	92.240800
725.000000	91.897900
724.000000	91.525700
723.000000	91.151200
722.000000	90.832700
721.000000	90.521400
720.000000	90.155800
719.000000	89.820400
718.000000	89.445700
717.000000	89.032500
716.000000	88.702100
715.000000	88.342100
714.000000	87.919000
713.000000	87.583700
712.000000	87.219300
711.000000	86.832800
710.000000	86.427700
709.000000	85.981400
708.000000	85.573100
707.000000	85.198900
706.000000	84.833900
705.000000	84.548200
704.000000	84.155100
703.000000	83.769000
702.000000	83.416800
701.000000	83.000400
700.000000	82.666300
699.000000	82.410400
698.000000	82.117600
697.000000	81.730700
696.000000	81.363000
695.000000	81.010200
694.000000	80.697600
693.000000	80.369200
692.000000	80.005800
691.000000	79.652000
690.000000	79.275000
689.000000	78.991100
688.000000	78.658800
687.000000	78.236000
686.000000	77.909800
685.000000	77.490300
684.000000	77.106000
683.000000	76.727000
682.000000	76.333400
681.000000	75.884000
680.000000	75.510200
679.000000	75.113600
678.000000	74.763900
677.000000	74.304100
676.000000	73.917800
675.000000	73.495700
674.000000	73.067700
673.000000	72.688300
672.000000	72.287600
671.000000	71.920200
670.000000	71.515300
669.000000	71.160200
668.000000	70.802300
667.000000	70.435300
666.000000	70.103100
665.000000	69.794200
664.000000	69.508300
663.000000	69.216500
662.000000	68.944700
661.000000	68.681700
660.000000	68.434600
659.000000	68.201500
658.000000	68.011500
657.000000	67.828000
656.000000	67.648600
655.000000	67.428800
654.000000	67.282800
653.000000	67.137900
652.000000	66.914600
651.000000	66.707100
650.000000	66.488800
649.000000	66.257300
648.000000	66.031800
647.000000	65.793200
646.000000	65.478200
645.000000	65.228700
644.000000	64.930500
643.000000	64.733600
642.000000	64.534800
641.000000	64.240600
640.000000	63.936500
639.000000	63.673000
638.000000	63.389300
637.000000	63.123100
636.000000	62.929900
635.000000	62.695300
634.000000	62.399500
633.000000	62.203800
632.000000	62.009100
631.000000	61.865000
630.000000	61.696900
629.000000	61.622300
628.000000	61.584800
627.000000	61.568700
626.000000	61.630300
625.000000	61.702900
624.000000	61.879400
623.000000	62.124000
622.000000	62.390400
621.000000	62.717600
620.000000	63.099000
619.000000	63.547700
618.000000	63.952600
617.000000	64.400300
616.000000	64.894500
615.000000	65.409300
614.000000	65.964600
613.000000	66.494200
612.000000	66.955000
611.000000	67.474900
610.000000	68.006300
609.000000	68.515100
608.000000	68.979400
607.000000	69.553100
606.000000	70.046100
605.000000	70.529300
604.000000	71.049700
603.000000	71.524300
602.000000	71.979300
601.000000	72.481200
600.000000	72.935100
599.000000	73.408400
598.000000	73.890100
597.000000	74.275100
596.000000	74.643600
595.000000	75.112300
594.000000	75.368600
593.000000	75.754700
592.000000	76.068700
591.000000	76.391600
590.000000	76.650400
589.000000	76.877900
588.000000	77.186700
587.000000	77.393700
586.000000	77.617900
585.000000	77.874800
584.000000	78.071300
583.000000	78.239000
582.000000	78.455900
581.000000	78.691100
580.000000	78.886000
579.000000	78.996400
578.000000	79.173400
577.000000	79.271600
576.000000	79.340200
575.000000	79.382200
574.000000	79.468000
573.000000	79.489300
572.000000	79.461300
571.000000	79.443100
570.000000	79.413500
569.000000	79.365200
568.000000	79.282700
567.000000	79.153200
566.000000	79.081400
565.000000	78.984500
564.000000	78.808500
563.000000	78.687600
562.000000	78.475000
561.000000	78.334900
560.000000	78.151500
559.000000	78.011400
558.000000	77.782700
557.000000	77.582700
556.000000	77.301100
555.000000	77.064200
554.000000	76.731600
553.000000	76.359900
552.000000	75.992700
551.000000	75.665700
550.000000	75.315900
549.000000	74.834100
548.000000	74.396600
547.000000	73.951600
546.000000	73.425700
545.000000	72.926900
544.000000	72.402500
543.000000	71.834700
542.000000	71.204200
541.000000	70.597000
540.000000	69.971300
539.000000	69.321800
538.000000	68.661400
537.000000	67.975100
536.000000	67.281000
535.000000	66.581800
534.000000	65.808200
533.000000	65.075600
532.000000	64.305900
531.000000	63.502800
530.000000	62.709800
529.000000	61.900700
528.000000	61.113600
527.000000	60.275600
526.000000	59.466700
525.000000	58.663600
524.000000	57.830500
523.000000	56.948300
522.000000	56.123400
521.000000	55.267000
520.000000	54.433300
519.000000	53.632500
518.000000	52.825700
517.000000	52.016900
516.000000	51.237600
515.000000	50.457200
514.000000	49.685400
513.000000	48.916400
512.000000	48.199500
511.000000	47.469600
510.000000	46.774700
509.000000	46.086300
508.000000	45.406800
507.000000	44.774100
506.000000	44.112600
505.000000	43.505900
504.000000	42.932200
503.000000	42.347800
502.000000	41.787500
501.000000	41.235800
500.000000	40.714600
499.000000	40.216300
498.000000	39.736600
497.000000	39.235800
496.000000	38.827800
495.000000	38.402100
494.000000	37.970500
493.000000	37.560200
492.000000	37.126300
491.000000	36.747100
490.000000	36.379500
489.000000	35.999500
488.000000	35.629300
487.000000	35.266200
486.000000	34.901700
485.000000	34.557200
484.000000	34.156400
483.000000	33.755700
482.000000	33.393500
481.000000	33.015900
480.000000	32.631000
479.000000	32.243200
478.000000	31.856600
477.000000	31.464700
476.000000	31.078600
475.000000	30.683500
474.000000	30.301500
473.000000	29.922200
472.000000	29.547400
471.000000	29.154300
470.000000	28.762500
469.000000	28.382600
468.000000	28.013400
467.000000	27.666200
466.000000	27.317200
465.000000	26.996100
464.000000	26.658300
463.000000	26.337500
462.000000	26.056500
461.000000	25.793400
460.000000	25.551000
459.000000	25.322700
458.000000	25.120500
457.000000	24.966100
456.000000	24.816600
455.000000	24.659800
454.000000	24.539400
453.000000	24.459500
452.000000	24.369600
451.000000	24.286800
450.000000	24.223800
449.000000	24.178000
448.000000	24.153400
447.000000	24.151900
446.000000	24.121600
445.000000	24.094800
444.000000	24.087800
443.000000	24.046800
442.000000	23.979200
441.000000	23.934800
440.000000	23.882000
439.000000	23.836000
438.000000	23.791500
437.000000	23.718600
436.000000	23.657500
435.000000	23.589500
434.000000	23.484300
433.000000	23.380000
432.000000	23.270100
431.000000	23.136600
430.000000	23.002200
429.000000	22.868600
428.000000	22.717400
427.000000	22.551400
426.000000	22.359000
425.000000	22.151500
424.000000	21.944700
423.000000	21.696300
422.000000	21.446800
421.000000	21.228000
420.000000	20.978100
419.000000	20.714600
418.000000	20.425200
417.000000	20.141100
416.000000	19.886800
415.000000	19.582200
414.000000	19.273400
413.000000	18.963800
412.000000	18.618700
411.000000	18.270500
410.000000	17.923400
409.000000	17.564700
408.000000	17.210200
407.000000	16.844500
406.000000	16.463100
405.000000	16.087600
404.000000	15.722900
403.000000	15.355900
402.000000	14.940000
401.000000	14.538100
400.000000	14.163300
399.000000	13.777200
398.000000	13.402500
397.000000	13.028800
396.000000	12.652600
395.000000	12.268200
394.000000	11.906600
393.000000	11.546100
392.000000	11.203400
391.000000	10.867700
390.000000	10.518500
389.000000	10.194100
388.000000	9.890800
387.000000	9.590300
386.000000	9.326100
385.000000	9.037400
384.000000	8.776500
383.000000	8.557900
382.000000	8.296500
381.000000	8.087300
380.000000	7.882700
379.000000	7.720200
378.000000	7.589600
377.000000	7.422600
376.000000	7.190000
375.000000	6.845700
374.000000	6.539600
373.000000	6.512600
372.000000	6.470900
371.000000	6.537800
370.000000	6.362400
369.000000	6.346100
368.000000	6.469000
367.000000	6.289400
366.000000	6.203400
365.000000	6.247300
364.000000	6.179100
363.000000	6.038000
362.000000	5.949400
361.000000	5.906500
360.000000	5.969300
359.000000	6.067600
358.000000	5.940300
357.000000	5.966800
356.000000	5.798200
355.000000	5.805100
354.000000	5.831100
353.000000	5.677300
352.000000	5.815500
351.000000	5.751400
350.000000	5.745500
349.000000	5.771000
348.000000	5.741000
347.000000	5.569700
346.000000	5.656600
345.000000	5.842300
344.000000	5.572000
343.000000	5.512600
342.000000	5.713600
341.000000	5.578000
340.000000	5.690100
339.000000	5.715600
338.000000	5.316100
337.000000	5.727400
336.000000	5.594600
335.000000	5.550900
334.000000	5.716200
333.000000	5.646100
332.000000	5.640200
331.000000	5.267900
330.000000	5.817600
329.000000	5.716300
328.000000	5.730300
327.000000	5.811700
326.000000	5.969000
325.000000	6.151600
324.000000	5.706700
323.000000	5.711200
322.000000	5.737200
321.000000	5.775400
320.000000	6.352500
319.000000	6.194600
318.000000	6.186500
317.000000	5.813500
316.000000	5.510200
315.000000	5.503600
314.000000	5.460200
313.000000	5.486800
312.000000	5.497600
311.000000	5.480900
310.000000	5.572000
309.000000	5.522200
308.000000	5.473300
307.000000	5.551600
306.000000	5.537800
305.000000	5.519300
304.000000	5.526100
303.000000	5.529200
302.000000	5.526900
301.000000	5.551200
300.000000	5.587500
299.000000	5.596300
298.000000	5.653500
297.000000	5.562400
296.000000	5.563500
295.000000	5.560500
294.000000	5.593600
293.000000	5.669300
292.000000	5.677100
291.000000	5.669300
290.000000	5.696700
289.000000	5.672500
288.000000	5.670000
287.000000	5.653200
286.000000	5.700200
285.000000	5.702100
284.000000	5.728100
283.000000	5.746100
282.000000	5.762200
281.000000	5.733400
280.000000	5.729000
279.000000	5.804900
278.000000	5.764200
277.000000	5.814000
276.000000	5.826900
275.000000	5.768500
274.000000	5.793400
273.000000	5.849400
272.000000	5.898600
271.000000	5.815300
270.000000	5.883000
269.000000	5.907900
268.000000	5.896300
267.000000	5.907200
266.000000	5.955700
265.000000	5.967300
264.000000	6.004500
263.000000	6.014700
262.000000	6.056100
261.000000	6.056400
260.000000	6.106000
259.000000	6.143100
258.000000	6.106600
257.000000	6.168200
256.000000	6.143800
255.000000	6.169800
254.000000	6.148600
253.000000	6.178200
252.000000	6.230600
251.000000	6.272300
250.000000	6.241800
