PE UV       SUBTECH     SPECTRUM    ASCII       PEDS        4.00        
   -1
CICIMAUCR0251-2.Sample.ASC
24/05/27
16:17:18.00
24/05/27
16:17:18.00
Vinicio Soto Monge
C. resplendens, F
250,000000
1
Lambda 1050
1050L1511233
PerkinElmer UV WinLab 6.3.2.0749 / 2.02.05 Lambda 900 UV/VIS/NIR, Aug  7 2015 09:38:08

0
0
3350/servo 860,8/2
0
0
UV/VIS
1
1
1
DoubleDePol,CommonBeamDepol,RBeamAtt,SBeamAtt,60mm sphere, WB InGaAs Detector
0
0
0
0
Program
Program
3350/servo 860,8/2
3350/0,2 860,8/0,2
3350/0,2 860,8/0,2
0
15.00
 
 
 
0
 
860,8
319,2
860,8
Front
100
on
S:100 R:100
0
0
0
0
 
0
 
 
 
0
 
 
0
0
0
0
0
 
 
 
 
0
0


0
0
#HDR
-1
-1
#GR
nm
%R
1.0
0.0
2500,000000
-1,000000
2251
8
92,106900
5,126500
#DATA
2500.000000	5.538352
2499.000000	5.612616
2498.000000	5.626476
2497.000000	5.697430
2496.000000	5.535043
2495.000000	5.698154
2494.000000	5.571554
2493.000000	5.593171
2492.000000	5.488602
2491.000000	5.448057
2490.000000	5.568658
2489.000000	5.605687
2488.000000	5.499255
2487.000000	5.511047
2486.000000	5.447333
2485.000000	5.524286
2484.000000	5.424060
2483.000000	5.429853
2482.000000	5.528320
2481.000000	5.399754
2480.000000	5.474535
2479.000000	5.451263
2478.000000	5.363346
2477.000000	5.413924
2476.000000	5.354865
2475.000000	5.366759
2474.000000	5.400478
2473.000000	5.427577
2472.000000	5.430784
2471.000000	5.357657
2470.000000	5.343280
2469.000000	5.346280
2468.000000	5.320215
2467.000000	5.356726
2466.000000	5.340177
2465.000000	5.302425
2464.000000	5.358588
2463.000000	5.332523
2462.000000	5.386929
2461.000000	5.388583
2460.000000	5.394065
2459.000000	5.356209
2458.000000	5.349176
2457.000000	5.376792
2456.000000	5.369345
2455.000000	5.376068
2454.000000	5.408132
2453.000000	5.405236
2452.000000	5.427887
2451.000000	5.471949
2450.000000	5.468640
2449.000000	5.439472
2448.000000	5.486223
2447.000000	5.516322
2446.000000	5.537318
2445.000000	5.545593
2444.000000	5.569485
2443.000000	5.587896
2442.000000	5.587276
2441.000000	5.616857
2440.000000	5.625856
2439.000000	5.654713
2438.000000	5.656885
2437.000000	5.687191
2436.000000	5.695879
2435.000000	5.698465
2434.000000	5.722461
2433.000000	5.763213
2432.000000	5.781520
2431.000000	5.785451
2430.000000	5.806137
2429.000000	5.812446
2428.000000	5.819169
2427.000000	5.838925
2426.000000	5.853716
2425.000000	5.861680
2424.000000	5.875436
2423.000000	5.876781
2422.000000	5.893847
2421.000000	5.898605
2420.000000	5.902535
2419.000000	5.939564
2418.000000	5.948045
2417.000000	5.948976
2416.000000	5.970387
2415.000000	5.988694
2414.000000	5.995003
2413.000000	5.994900
2412.000000	6.014242
2411.000000	6.023240
2410.000000	6.041858
2409.000000	6.056235
2408.000000	6.064406
2407.000000	6.082507
2406.000000	6.086954
2405.000000	6.095229
2404.000000	6.114881
2403.000000	6.119432
2402.000000	6.134222
2401.000000	6.152116
2400.000000	6.161011
2399.000000	6.167734
2398.000000	6.174044
2397.000000	6.177767
2396.000000	6.197109
2395.000000	6.210038
2394.000000	6.220898
2393.000000	6.220278
2392.000000	6.235482
2391.000000	6.263098
2390.000000	6.271373
2389.000000	6.274889
2388.000000	6.288853
2387.000000	6.303230
2386.000000	6.313056
2385.000000	6.300127
2384.000000	6.303540
2383.000000	6.318020
2382.000000	6.315435
2381.000000	6.320813
2380.000000	6.332397
2379.000000	6.332191
2378.000000	6.322675
2377.000000	6.324847
2376.000000	6.318020
2375.000000	6.316986
2374.000000	6.322571
2373.000000	6.320503
2372.000000	6.317090
2371.000000	6.318641
2370.000000	6.299610
2369.000000	6.273338
2368.000000	6.269511
2367.000000	6.264753
2366.000000	6.237551
2365.000000	6.216968
2364.000000	6.211279
2363.000000	6.201970
2362.000000	6.182215
2361.000000	6.173630
2360.000000	6.162356
2359.000000	6.128740
2358.000000	6.101952
2357.000000	6.089540
2356.000000	6.081369
2355.000000	6.069267
2354.000000	6.057786
2353.000000	6.065957
2352.000000	6.070508
2351.000000	6.064303
2350.000000	6.062751
2349.000000	6.077025
2348.000000	6.079714
2347.000000	6.076714
2346.000000	6.098125
2345.000000	6.124396
2344.000000	6.144359
2343.000000	6.159356
2342.000000	6.178388
2341.000000	6.202280
2340.000000	6.196902
2339.000000	6.213451
2338.000000	6.246859
2337.000000	6.237137
2336.000000	6.231448
2335.000000	6.236413
2334.000000	6.230310
2333.000000	6.240654
2332.000000	6.233620
2331.000000	6.220071
2330.000000	6.205280
2329.000000	6.186662
2328.000000	6.156564
2327.000000	6.129361
2326.000000	6.119121
2325.000000	6.089643
2324.000000	6.060682
2323.000000	6.040720
2322.000000	6.010208
2321.000000	5.984867
2320.000000	5.947114
2319.000000	5.893020
2318.000000	5.860749
2317.000000	5.834064
2316.000000	5.793518
2315.000000	5.734562
2314.000000	5.723288
2313.000000	5.703533
2312.000000	5.667125
2311.000000	5.651093
2310.000000	5.620684
2309.000000	5.581070
2308.000000	5.566796
2307.000000	5.553350
2306.000000	5.550557
2305.000000	5.548385
2304.000000	5.556660
2303.000000	5.549730
2302.000000	5.558005
2301.000000	5.580966
2300.000000	5.602790
2299.000000	5.637233
2298.000000	5.647576
2297.000000	5.659471
2296.000000	5.694741
2295.000000	5.707153
2294.000000	5.746974
2293.000000	5.766936
2292.000000	5.780796
2291.000000	5.786899
2290.000000	5.790209
2289.000000	5.797139
2288.000000	5.790829
2287.000000	5.795690
2286.000000	5.785347
2285.000000	5.782968
2284.000000	5.775211
2283.000000	5.744078
2282.000000	5.713152
2281.000000	5.704360
2280.000000	5.683674
2279.000000	5.658747
2278.000000	5.628648
2277.000000	5.630924
2276.000000	5.590585
2275.000000	5.580966
2274.000000	5.556660
2273.000000	5.552005
2272.000000	5.542800
2271.000000	5.524493
2270.000000	5.529768
2269.000000	5.531319
2268.000000	5.521286
2267.000000	5.542593
2266.000000	5.559866
2265.000000	5.600618
2264.000000	5.630096
2263.000000	5.655334
2262.000000	5.696913
2261.000000	5.756904
2260.000000	5.845234
2259.000000	5.881953
2258.000000	5.955079
2257.000000	6.062234
2256.000000	6.156977
2255.000000	6.223174
2254.000000	6.330949
2253.000000	6.411730
2252.000000	6.521264
2251.000000	6.594493
2250.000000	6.710027
2249.000000	6.793082
2248.000000	6.887205
2247.000000	6.986086
2246.000000	7.046283
2245.000000	7.117444
2244.000000	7.190570
2243.000000	7.261834
2242.000000	7.314895
2241.000000	7.375816
2240.000000	7.437979
2239.000000	7.471077
2238.000000	7.540066
2237.000000	7.579887
2236.000000	7.609055
2235.000000	7.653323
2234.000000	7.685697
2233.000000	7.706694
2232.000000	7.738137
2231.000000	7.790163
2230.000000	7.798024
2229.000000	7.818917
2228.000000	7.842500
2227.000000	7.841362
2226.000000	7.846741
2225.000000	7.867530
2224.000000	7.852222
2223.000000	7.862979
2222.000000	7.866496
2221.000000	7.871771
2220.000000	7.841569
2219.000000	7.841052
2218.000000	7.846844
2217.000000	7.819228
2216.000000	7.805782
2215.000000	7.804644
2214.000000	7.794714
2213.000000	7.762651
2212.000000	7.770511
2211.000000	7.726863
2210.000000	7.753962
2209.000000	7.715382
2208.000000	7.701626
2207.000000	7.723036
2206.000000	7.713314
2205.000000	7.695524
2204.000000	7.673286
2203.000000	7.678250
2202.000000	7.685801
2201.000000	7.680836
2200.000000	7.659633
2199.000000	7.638015
2198.000000	7.651668
2197.000000	7.640291
2196.000000	7.628086
2195.000000	7.640912
2194.000000	7.635223
2193.000000	7.626328
2192.000000	7.634913
2191.000000	7.614537
2190.000000	7.606159
2189.000000	7.608848
2188.000000	7.600987
2187.000000	7.599539
2186.000000	7.598401
2185.000000	7.603262
2184.000000	7.592609
2183.000000	7.583921
2182.000000	7.574715
2181.000000	7.573474
2180.000000	7.575026
2179.000000	7.569751
2178.000000	7.555787
2177.000000	7.575439
2176.000000	7.567061
2175.000000	7.567579
2174.000000	7.573578
2173.000000	7.565717
2172.000000	7.571923
2171.000000	7.578025
2170.000000	7.594574
2169.000000	7.621156
2168.000000	7.621156
2167.000000	7.634706
2166.000000	7.632223
2165.000000	7.658495
2164.000000	7.648876
2163.000000	7.666149
2162.000000	7.674941
2161.000000	7.690455
2160.000000	7.720140
2159.000000	7.741137
2158.000000	7.760582
2157.000000	7.768546
2156.000000	7.785612
2155.000000	7.817573
2154.000000	7.832157
2153.000000	7.861531
2152.000000	7.882114
2151.000000	7.905904
2150.000000	7.933520
2149.000000	7.938381
2148.000000	7.965273
2147.000000	7.976341
2146.000000	8.002509
2145.000000	8.022161
2144.000000	8.020506
2143.000000	8.040882
2142.000000	8.063223
2141.000000	8.075014
2140.000000	8.092701
2139.000000	8.112767
2138.000000	8.107388
2137.000000	8.128282
2136.000000	8.136866
2135.000000	8.146279
2134.000000	8.139866
2133.000000	8.154657
2132.000000	8.175446
2131.000000	8.179377
2130.000000	8.174102
2129.000000	8.181549
2128.000000	8.173895
2127.000000	8.177101
2126.000000	8.170895
2125.000000	8.162518
2124.000000	8.165103
2123.000000	8.178963
2122.000000	8.155691
2121.000000	8.136453
2120.000000	8.127351
2119.000000	8.120835
2118.000000	8.110595
2117.000000	8.090839
2116.000000	8.074807
2115.000000	8.060844
2114.000000	8.039744
2113.000000	8.008197
2112.000000	8.004784
2111.000000	7.995062
2110.000000	7.976030
2109.000000	7.961550
2108.000000	7.933313
2107.000000	7.904662
2106.000000	7.887182
2105.000000	7.874977
2104.000000	7.856670
2103.000000	7.850361
2102.000000	7.820883
2101.000000	7.796163
2100.000000	7.787578
2099.000000	7.767926
2098.000000	7.759031
2097.000000	7.736379
2096.000000	7.726656
2095.000000	7.718899
2094.000000	7.690662
2093.000000	7.677733
2092.000000	7.663977
2091.000000	7.641739
2090.000000	7.627672
2089.000000	7.619708
2088.000000	7.601194
2087.000000	7.591264
2086.000000	7.593747
2085.000000	7.575336
2084.000000	7.554650
2083.000000	7.540997
2082.000000	7.522275
2081.000000	7.500658
2080.000000	7.487626
2079.000000	7.474904
2078.000000	7.454217
2077.000000	7.436841
2076.000000	7.412017
2075.000000	7.395675
2074.000000	7.387814
2073.000000	7.356474
2072.000000	7.329272
2071.000000	7.314792
2070.000000	7.305276
2069.000000	7.275074
2068.000000	7.241045
2067.000000	7.221806
2066.000000	7.199569
2065.000000	7.184261
2064.000000	7.170194
2063.000000	7.157679
2062.000000	7.134924
2061.000000	7.114031
2060.000000	7.093137
2059.000000	7.084966
2058.000000	7.071210
2057.000000	7.066142
2056.000000	7.061798
2055.000000	7.055799
2054.000000	7.045145
2053.000000	7.060453
2052.000000	7.071313
2051.000000	7.070279
2050.000000	7.077830
2049.000000	7.097688
2048.000000	7.109273
2047.000000	7.140716
2046.000000	7.169884
2045.000000	7.190570
2044.000000	7.225737
2043.000000	7.255318
2042.000000	7.298760
2041.000000	7.321928
2040.000000	7.355130
2039.000000	7.381919
2038.000000	7.429497
2037.000000	7.461044
2036.000000	7.481110
2035.000000	7.485867
2034.000000	7.518138
2033.000000	7.540583
2032.000000	7.565924
2031.000000	7.586920
2030.000000	7.593436
2029.000000	7.606055
2028.000000	7.628396
2027.000000	7.634809
2026.000000	7.646807
2025.000000	7.654978
2024.000000	7.669872
2023.000000	7.668011
2022.000000	7.684870
2021.000000	7.702350
2020.000000	7.691800
2019.000000	7.686318
2018.000000	7.693558
2017.000000	7.699557
2016.000000	7.702971
2015.000000	7.690145
2014.000000	7.680733
2013.000000	7.681457
2012.000000	7.660253
2011.000000	7.656633
2010.000000	7.641532
2009.000000	7.614226
2008.000000	7.598918
2007.000000	7.588265
2006.000000	7.584541
2005.000000	7.566751
2004.000000	7.550616
2003.000000	7.522689
2002.000000	7.508002
2001.000000	7.482144
2000.000000	7.466319
1999.000000	7.431152
1998.000000	7.391021
1997.000000	7.359577
1996.000000	7.350682
1995.000000	7.336616
1994.000000	7.299794
1993.000000	7.255318
1992.000000	7.232563
1991.000000	7.199362
1990.000000	7.159437
1989.000000	7.138647
1988.000000	7.095206
1987.000000	7.063039
1986.000000	7.039663
1985.000000	7.002842
1984.000000	6.972433
1983.000000	6.926199
1982.000000	6.893101
1981.000000	6.871380
1980.000000	6.843453
1979.000000	6.812631
1978.000000	6.789255
1977.000000	6.754812
1976.000000	6.714371
1975.000000	6.681479
1974.000000	6.658104
1973.000000	6.645589
1972.000000	6.605457
1971.000000	6.562636
1970.000000	6.569877
1969.000000	6.535641
1968.000000	6.523539
1967.000000	6.484752
1966.000000	6.475443
1965.000000	6.460136
1964.000000	6.412867
1963.000000	6.411626
1962.000000	6.374908
1961.000000	6.376770
1960.000000	6.353601
1959.000000	6.346774
1958.000000	6.311608
1957.000000	6.295369
1956.000000	6.288129
1955.000000	6.273648
1954.000000	6.244687
1953.000000	6.247790
1952.000000	6.237033
1951.000000	6.233517
1950.000000	6.193075
1949.000000	6.205590
1948.000000	6.180870
1947.000000	6.154288
1946.000000	6.176836
1945.000000	6.158529
1944.000000	6.143014
1943.000000	6.166596
1942.000000	6.128844
1941.000000	6.116536
1940.000000	6.135153
1939.000000	6.139808
1938.000000	6.147565
1937.000000	6.138256
1936.000000	6.158115
1935.000000	6.155012
1934.000000	6.191213
1933.000000	6.200108
1932.000000	6.184180
1931.000000	6.203625
1930.000000	6.227828
1929.000000	6.226897
1928.000000	6.298886
1927.000000	6.318124
1926.000000	6.341913
1925.000000	6.393629
1924.000000	6.394663
1923.000000	6.424348
1922.000000	6.469858
1921.000000	6.505956
1920.000000	6.564188
1919.000000	6.625419
1918.000000	6.666171
1917.000000	6.721714
1916.000000	6.768879
1915.000000	6.825146
1914.000000	6.892273
1913.000000	6.962917
1912.000000	7.051558
1911.000000	7.121478
1910.000000	7.210015
1909.000000	7.278797
1908.000000	7.341580
1907.000000	7.422154
1906.000000	7.524861
1905.000000	7.643808
1904.000000	7.762547
1903.000000	7.868875
1902.000000	7.996303
1901.000000	8.109250
1900.000000	8.255089
1899.000000	8.396790
1898.000000	8.549352
1897.000000	8.699328
1896.000000	8.849614
1895.000000	9.004451
1894.000000	9.154324
1893.000000	9.335019
1892.000000	9.517266
1891.000000	9.728990
1890.000000	9.982915
1889.000000	10.221222
1888.000000	10.436773
1887.000000	10.694421
1886.000000	10.962723
1885.000000	11.300945
1884.000000	11.630892
1883.000000	12.011624
1882.000000	12.394011
1881.000000	12.827907
1880.000000	13.233359
1879.000000	13.649775
1878.000000	14.059157
1877.000000	14.468333
1876.000000	14.885680
1875.000000	15.287305
1874.000000	15.661004
1873.000000	16.035530
1872.000000	16.406332
1871.000000	16.753449
1870.000000	17.088568
1869.000000	17.393588
1868.000000	17.678956
1867.000000	17.921089
1866.000000	18.131573
1865.000000	18.307200
1864.000000	18.473725
1863.000000	18.606634
1862.000000	18.756403
1861.000000	18.904931
1860.000000	19.038772
1859.000000	19.176646
1858.000000	19.274079
1857.000000	19.325381
1856.000000	19.407506
1855.000000	19.475874
1854.000000	19.493768
1853.000000	19.511765
1852.000000	19.509800
1851.000000	19.533692
1850.000000	19.547863
1849.000000	19.558930
1848.000000	19.569376
1847.000000	19.532451
1846.000000	19.495630
1845.000000	19.456636
1844.000000	19.424779
1843.000000	19.388992
1842.000000	19.386095
1841.000000	19.403679
1840.000000	19.393232
1839.000000	19.380303
1838.000000	19.347205
1837.000000	19.321037
1836.000000	19.295800
1835.000000	19.235913
1834.000000	19.188334
1833.000000	19.136308
1832.000000	19.086764
1831.000000	19.038565
1830.000000	18.980850
1829.000000	18.922204
1828.000000	18.879591
1827.000000	18.810291
1826.000000	18.736338
1825.000000	18.675003
1824.000000	18.615323
1823.000000	18.589051
1822.000000	18.571054
1821.000000	18.555539
1820.000000	18.536818
1819.000000	18.514890
1818.000000	18.486654
1817.000000	18.461003
1816.000000	18.449315
1815.000000	18.457589
1814.000000	18.450970
1813.000000	18.438454
1812.000000	18.431318
1811.000000	18.418182
1810.000000	18.401322
1809.000000	18.374223
1808.000000	18.335747
1807.000000	18.297374
1806.000000	18.269447
1805.000000	18.236763
1804.000000	18.191460
1803.000000	18.152776
1802.000000	18.104060
1801.000000	18.073030
1800.000000	18.048414
1799.000000	17.990595
1798.000000	17.937742
1797.000000	17.894611
1796.000000	17.859754
1795.000000	17.829449
1794.000000	17.790765
1793.000000	17.748979
1792.000000	17.707399
1791.000000	17.654442
1790.000000	17.591763
1789.000000	17.548218
1788.000000	17.513465
1787.000000	17.467438
1786.000000	17.413447
1785.000000	17.358938
1784.000000	17.305464
1783.000000	17.250335
1782.000000	17.178036
1781.000000	17.106668
1780.000000	17.049988
1779.000000	16.994238
1778.000000	16.929076
1777.000000	16.844676
1776.000000	16.776101
1775.000000	16.704629
1774.000000	16.611644
1773.000000	16.522590
1772.000000	16.424226
1771.000000	16.332275
1770.000000	16.239807
1769.000000	16.124171
1768.000000	16.035116
1767.000000	15.951854
1766.000000	15.856903
1765.000000	15.778605
1764.000000	15.732372
1763.000000	15.708479
1762.000000	15.692343
1761.000000	15.690895
1760.000000	15.737853
1759.000000	15.789569
1758.000000	15.849973
1757.000000	15.915549
1756.000000	15.969954
1755.000000	16.017843
1754.000000	16.074110
1753.000000	16.115896
1752.000000	16.122206
1751.000000	16.140203
1750.000000	16.141237
1749.000000	16.118792
1748.000000	16.106070
1747.000000	16.049700
1746.000000	15.971609
1745.000000	15.898690
1744.000000	15.820288
1743.000000	15.685000
1742.000000	15.550849
1741.000000	15.376877
1740.000000	15.193596
1739.000000	15.028622
1738.000000	14.829930
1737.000000	14.636203
1736.000000	14.472781
1735.000000	14.339043
1734.000000	14.234371
1733.000000	14.188240
1732.000000	14.151522
1731.000000	14.159176
1730.000000	14.202824
1729.000000	14.270468
1728.000000	14.345249
1727.000000	14.413825
1726.000000	14.497914
1725.000000	14.576833
1724.000000	14.623791
1723.000000	14.687401
1722.000000	14.740979
1721.000000	14.758666
1720.000000	14.763837
1719.000000	14.788558
1718.000000	14.813588
1717.000000	14.846479
1716.000000	14.881336
1715.000000	14.929121
1714.000000	14.991697
1713.000000	15.050550
1712.000000	15.115815
1711.000000	15.159257
1710.000000	15.181701
1709.000000	15.197526
1708.000000	15.209628
1707.000000	15.187390
1706.000000	15.154602
1705.000000	15.118401
1704.000000	15.064203
1703.000000	15.018176
1702.000000	14.946187
1701.000000	14.856926
1700.000000	14.730636
1699.000000	14.615413
1698.000000	14.487468
1697.000000	14.355903
1696.000000	14.262090
1695.000000	14.203134
1694.000000	14.153280
1693.000000	14.188343
1692.000000	14.267055
1691.000000	14.372555
1690.000000	14.508154
1689.000000	14.628342
1688.000000	14.730222
1687.000000	14.808313
1686.000000	14.898195
1685.000000	14.901608
1684.000000	14.929328
1683.000000	15.019624
1682.000000	15.174875
1681.000000	15.415353
1680.000000	15.758229
1679.000000	16.170922
1678.000000	16.647845
1677.000000	17.134698
1676.000000	17.577799
1675.000000	18.009316
1674.000000	18.374741
1673.000000	18.703343
1672.000000	19.001536
1671.000000	19.255048
1670.000000	19.452292
1669.000000	19.668361
1668.000000	19.819784
1667.000000	19.960141
1666.000000	20.067710
1665.000000	20.186967
1664.000000	20.265678
1663.000000	20.376143
1662.000000	20.443374
1661.000000	20.494883
1660.000000	20.558907
1659.000000	20.590661
1658.000000	20.658926
1657.000000	20.661718
1656.000000	20.695334
1655.000000	20.708159
1654.000000	20.692851
1653.000000	20.719950
1652.000000	20.693368
1651.000000	20.675682
1650.000000	20.676819
1649.000000	20.638032
1648.000000	20.602659
1647.000000	20.561286
1646.000000	20.520017
1645.000000	20.481127
1644.000000	20.439030
1643.000000	20.358870
1642.000000	20.324531
1641.000000	20.277677
1640.000000	20.218514
1639.000000	20.138561
1638.000000	20.088707
1637.000000	20.029027
1636.000000	19.936559
1635.000000	19.873672
1634.000000	19.825059
1633.000000	19.747589
1632.000000	19.666188
1631.000000	19.593062
1630.000000	19.518798
1629.000000	19.409264
1628.000000	19.335931
1627.000000	19.259081
1626.000000	19.167958
1625.000000	19.097211
1624.000000	19.006087
1623.000000	18.941236
1622.000000	18.840080
1621.000000	18.747301
1620.000000	18.681829
1619.000000	18.597843
1618.000000	18.515511
1617.000000	18.430490
1616.000000	18.367293
1615.000000	18.284031
1614.000000	18.189288
1613.000000	18.120092
1612.000000	18.037760
1611.000000	17.946120
1610.000000	17.884992
1609.000000	17.806177
1608.000000	17.751565
1607.000000	17.674301
1606.000000	17.596107
1605.000000	17.528566
1604.000000	17.446855
1603.000000	17.371040
1602.000000	17.295017
1601.000000	17.215582
1600.000000	17.155178
1599.000000	17.085465
1598.000000	17.008305
1597.000000	16.935592
1596.000000	16.869189
1595.000000	16.815922
1594.000000	16.754276
1593.000000	16.689839
1592.000000	16.628193
1591.000000	16.568823
1590.000000	16.495077
1589.000000	16.463944
1588.000000	16.386680
1587.000000	16.341481
1586.000000	16.305280
1585.000000	16.255426
1584.000000	16.215708
1583.000000	16.177128
1582.000000	16.139168
1581.000000	16.097589
1580.000000	16.047528
1579.000000	16.025083
1578.000000	16.013189
1577.000000	15.982262
1576.000000	15.965093
1575.000000	15.938925
1574.000000	15.926099
1573.000000	15.918445
1572.000000	15.910895
1571.000000	15.898897
1570.000000	15.899000
1569.000000	15.878727
1568.000000	15.880382
1567.000000	15.883278
1566.000000	15.884106
1565.000000	15.896724
1564.000000	15.902206
1563.000000	15.912860
1562.000000	15.910791
1561.000000	15.904585
1560.000000	15.910171
1559.000000	15.918859
1558.000000	15.918342
1557.000000	15.918549
1556.000000	15.923617
1555.000000	15.929409
1554.000000	15.915032
1553.000000	15.911722
1552.000000	15.906033
1551.000000	15.886485
1550.000000	15.864764
1549.000000	15.858351
1548.000000	15.849249
1547.000000	15.820082
1546.000000	15.807153
1545.000000	15.800430
1544.000000	15.783363
1543.000000	15.774779
1542.000000	15.760919
1541.000000	15.739508
1540.000000	15.726683
1539.000000	15.709513
1538.000000	15.696791
1537.000000	15.692137
1536.000000	15.674760
1535.000000	15.661314
1534.000000	15.639386
1533.000000	15.610632
1532.000000	15.581672
1531.000000	15.552504
1530.000000	15.523026
1529.000000	15.491893
1528.000000	15.453623
1527.000000	15.422490
1526.000000	15.384221
1525.000000	15.341400
1524.000000	15.294752
1523.000000	15.244898
1522.000000	15.209835
1521.000000	15.170944
1520.000000	15.133088
1519.000000	15.085406
1518.000000	15.025416
1517.000000	14.967701
1516.000000	14.912365
1515.000000	14.863442
1514.000000	14.810899
1513.000000	14.757114
1512.000000	14.703226
1511.000000	14.641064
1510.000000	14.578177
1509.000000	14.522945
1508.000000	14.468436
1507.000000	14.396758
1506.000000	14.330252
1505.000000	14.282363
1504.000000	14.224234
1503.000000	14.153280
1502.000000	14.077361
1501.000000	14.024094
1500.000000	13.975791
1499.000000	13.916215
1498.000000	13.859741
1497.000000	13.802957
1496.000000	13.751758
1495.000000	13.704904
1494.000000	13.654739
1493.000000	13.624744
1492.000000	13.587716
1491.000000	13.537448
1490.000000	13.493800
1489.000000	13.452427
1488.000000	13.410848
1487.000000	13.374336
1486.000000	13.343927
1485.000000	13.309071
1484.000000	13.274318
1483.000000	13.244426
1482.000000	13.231083
1481.000000	13.200261
1480.000000	13.172024
1479.000000	13.148441
1478.000000	13.141098
1477.000000	13.131065
1476.000000	13.129410
1475.000000	13.118860
1474.000000	13.108724
1473.000000	13.091244
1472.000000	13.109448
1471.000000	13.140994
1470.000000	13.118033
1469.000000	13.109861
1468.000000	13.133444
1467.000000	13.148545
1466.000000	13.163749
1465.000000	13.160957
1464.000000	13.179367
1463.000000	13.198916
1462.000000	13.226843
1461.000000	13.249598
1460.000000	13.291798
1459.000000	13.337515
1458.000000	13.385300
1457.000000	13.429052
1456.000000	13.469493
1455.000000	13.523588
1454.000000	13.587716
1453.000000	13.652981
1452.000000	13.726107
1451.000000	13.785581
1450.000000	13.850536
1449.000000	13.925213
1448.000000	14.005683
1447.000000	14.086774
1446.000000	14.158348
1445.000000	14.255471
1444.000000	14.330252
1443.000000	14.394173
1442.000000	14.487468
1441.000000	14.574971
1440.000000	14.679334
1439.000000	14.766630
1438.000000	14.865924
1437.000000	14.973183
1436.000000	15.044861
1435.000000	15.147052
1434.000000	15.257930
1433.000000	15.364569
1432.000000	15.473068
1431.000000	15.583430
1430.000000	15.710444
1429.000000	15.823081
1428.000000	15.969540
1427.000000	16.106587
1426.000000	16.256253
1425.000000	16.395369
1424.000000	16.586510
1423.000000	16.755104
1422.000000	16.932593
1421.000000	17.113702
1420.000000	17.296052
1419.000000	17.501363
1418.000000	17.727362
1417.000000	17.956049
1416.000000	18.119678
1415.000000	18.344952
1414.000000	18.599911
1413.000000	18.872764
1412.000000	19.105072
1411.000000	19.323002
1410.000000	19.624816
1409.000000	19.950626
1408.000000	20.283365
1407.000000	20.643101
1406.000000	21.009766
1405.000000	21.365157
1404.000000	21.782401
1403.000000	22.159823
1402.000000	22.555139
1401.000000	22.950765
1400.000000	23.379179
1399.000000	23.792905
1398.000000	24.132472
1397.000000	24.429527
1396.000000	24.771266
1395.000000	25.123347
1394.000000	25.473774
1393.000000	25.764934
1392.000000	26.044406
1391.000000	26.402693
1390.000000	26.747845
1389.000000	27.087204
1388.000000	27.493691
1387.000000	27.984784
1386.000000	28.463363
1385.000000	28.986934
1384.000000	29.555291
1383.000000	30.131923
1382.000000	30.752099
1381.000000	31.321180
1380.000000	31.780727
1379.000000	32.090401
1378.000000	32.401007
1377.000000	32.630832
1376.000000	32.879585
1375.000000	33.065555
1374.000000	33.353923
1373.000000	33.657701
1372.000000	34.028401
1371.000000	34.403858
1370.000000	34.822239
1369.000000	35.196351
1368.000000	35.538503
1367.000000	35.893481
1366.000000	36.175435
1365.000000	36.415190
1364.000000	36.700765
1363.000000	36.903284
1362.000000	37.144694
1361.000000	37.321148
1360.000000	37.497706
1359.000000	37.593690
1358.000000	37.691951
1357.000000	37.835617
1356.000000	38.020656
1355.000000	38.315023
1354.000000	38.707856
1353.000000	39.121790
1352.000000	39.582475
1351.000000	40.182792
1350.000000	40.756631
1349.000000	41.258378
1348.000000	41.782570
1347.000000	42.202296
1346.000000	42.682529
1345.000000	43.029646
1344.000000	43.439132
1343.000000	43.842412
1342.000000	44.227384
1341.000000	44.566020
1340.000000	44.955957
1339.000000	45.295110
1338.000000	45.680910
1337.000000	46.018407
1336.000000	46.351354
1335.000000	46.672199
1334.000000	46.992113
1333.000000	47.313889
1332.000000	47.641250
1331.000000	47.928377
1330.000000	48.231845
1329.000000	48.512662
1328.000000	48.797823
1327.000000	49.047714
1326.000000	49.305569
1325.000000	49.547393
1324.000000	49.784561
1323.000000	50.015524
1322.000000	50.247522
1321.000000	50.454178
1320.000000	50.635908
1319.000000	50.842357
1318.000000	51.021191
1317.000000	51.205609
1316.000000	51.378754
1315.000000	51.554898
1314.000000	51.709528
1313.000000	51.865503
1312.000000	52.032339
1311.000000	52.171040
1310.000000	52.303330
1309.000000	52.439446
1308.000000	52.547015
1307.000000	52.648378
1306.000000	52.751396
1305.000000	52.832796
1304.000000	52.924023
1303.000000	52.998908
1302.000000	53.084239
1301.000000	53.138023
1300.000000	53.181464
1299.000000	53.234732
1298.000000	53.276311
1297.000000	53.325338
1296.000000	53.356057
1295.000000	53.384087
1294.000000	53.399602
1293.000000	53.415530
1292.000000	53.446456
1291.000000	53.429183
1290.000000	53.431459
1289.000000	53.420392
1288.000000	53.412221
1287.000000	53.400222
1286.000000	53.359057
1285.000000	53.323269
1284.000000	53.269278
1283.000000	53.220975
1282.000000	53.161192
1281.000000	53.119405
1280.000000	53.056312
1279.000000	53.000976
1278.000000	52.944709
1277.000000	52.885857
1276.000000	52.831038
1275.000000	52.781598
1274.000000	52.728020
1273.000000	52.676304
1272.000000	52.623347
1271.000000	52.583836
1270.000000	52.544532
1269.000000	52.497781
1268.000000	52.454857
1267.000000	52.417001
1266.000000	52.364768
1265.000000	52.304260
1264.000000	52.243753
1263.000000	52.193382
1262.000000	52.128013
1261.000000	52.074228
1260.000000	52.024167
1259.000000	51.965418
1258.000000	51.899119
1257.000000	51.849575
1256.000000	51.792067
1255.000000	51.713459
1254.000000	51.631127
1253.000000	51.566379
1252.000000	51.490667
1251.000000	51.386718
1250.000000	51.296319
1249.000000	51.191542
1248.000000	51.094317
1247.000000	50.997505
1246.000000	50.866353
1245.000000	50.742028
1244.000000	50.612946
1243.000000	50.459660
1242.000000	50.315373
1241.000000	50.152261
1240.000000	50.006215
1239.000000	49.853964
1238.000000	49.671614
1237.000000	49.495884
1236.000000	49.318809
1235.000000	49.127667
1234.000000	48.932802
1233.000000	48.753348
1232.000000	48.568205
1231.000000	48.364548
1230.000000	48.161925
1229.000000	47.959716
1228.000000	47.755542
1227.000000	47.551368
1226.000000	47.349366
1225.000000	47.115404
1224.000000	46.889509
1223.000000	46.681921
1222.000000	46.477230
1221.000000	46.282468
1220.000000	46.081190
1219.000000	45.869569
1218.000000	45.669325
1217.000000	45.492664
1216.000000	45.313831
1215.000000	45.152374
1214.000000	44.987297
1213.000000	44.818290
1212.000000	44.674313
1211.000000	44.519269
1210.000000	44.373947
1209.000000	44.242589
1208.000000	44.112885
1207.000000	43.999524
1206.000000	43.898058
1205.000000	43.814071
1204.000000	43.758529
1203.000000	43.701538
1202.000000	43.648477
1201.000000	43.604519
1200.000000	43.555699
1199.000000	43.488779
1198.000000	43.421134
1197.000000	43.331976
1196.000000	43.183655
1195.000000	42.986204
1194.000000	42.741485
1193.000000	42.422398
1192.000000	42.043942
1191.000000	41.613459
1190.000000	41.112850
1189.000000	40.642029
1188.000000	40.227061
1187.000000	39.879220
1186.000000	39.670288
1185.000000	39.583716
1184.000000	39.632846
1183.000000	39.817161
1182.000000	40.146488
1181.000000	40.589796
1180.000000	41.104989
1179.000000	41.649867
1178.000000	42.221327
1177.000000	42.707870
1176.000000	43.154074
1175.000000	43.542563
1174.000000	43.900954
1173.000000	44.235349
1172.000000	44.587637
1171.000000	44.960715
1170.000000	45.314451
1169.000000	45.675738
1168.000000	46.070744
1167.000000	46.458819
1166.000000	46.837483
1165.000000	47.261035
1164.000000	47.686036
1163.000000	48.113209
1162.000000	48.552173
1161.000000	49.003135
1160.000000	49.427515
1159.000000	49.856964
1158.000000	50.276069
1157.000000	50.696725
1156.000000	51.068355
1155.000000	51.428918
1154.000000	51.726905
1153.000000	51.991793
1152.000000	52.176833
1151.000000	52.333014
1150.000000	52.454236
1149.000000	52.570080
1148.000000	52.654894
1147.000000	52.773530
1146.000000	52.910887
1145.000000	53.112165
1144.000000	53.390603
1143.000000	53.729445
1142.000000	54.114832
1141.000000	54.555347
1140.000000	55.020376
1139.000000	55.474752
1138.000000	55.952192
1137.000000	56.468109
1136.000000	57.009160
1135.000000	57.562830
1134.000000	58.119603
1133.000000	58.625280
1132.000000	59.105824
1131.000000	59.552649
1130.000000	60.001542
1129.000000	60.378240
1128.000000	60.688329
1127.000000	60.977213
1126.000000	61.186766
1125.000000	61.355359
1124.000000	61.513610
1123.000000	61.640003
1122.000000	61.763708
1121.000000	61.849039
1120.000000	61.925165
1119.000000	62.001497
1118.000000	62.058798
1117.000000	62.094999
1116.000000	62.126029
1115.000000	62.139785
1114.000000	62.161403
1113.000000	62.165333
1112.000000	62.165333
1111.000000	62.181572
1110.000000	62.178262
1109.000000	62.185606
1108.000000	62.184985
1107.000000	62.195432
1106.000000	62.207533
1105.000000	62.227806
1104.000000	62.212912
1103.000000	62.225530
1102.000000	62.241459
1101.000000	62.240011
1100.000000	62.250974
1099.000000	62.240424
1098.000000	62.236597
1097.000000	62.251181
1096.000000	62.257387
1095.000000	62.221496
1094.000000	62.199879
1093.000000	62.221600
1092.000000	62.196466
1091.000000	62.191708
1090.000000	62.173297
1089.000000	62.163161
1088.000000	62.135338
1087.000000	62.123547
1086.000000	62.082691
1085.000000	62.075451
1084.000000	62.051455
1083.000000	62.011633
1082.000000	61.995808
1081.000000	61.962814
1080.000000	61.956091
1079.000000	61.941817
1078.000000	61.898583
1077.000000	61.881103
1076.000000	61.848522
1075.000000	61.826180
1074.000000	61.814389
1073.000000	61.802288
1072.000000	61.783360
1071.000000	61.761743
1070.000000	61.740436
1069.000000	61.724197
1068.000000	61.697822
1067.000000	61.693581
1066.000000	61.680652
1065.000000	61.654070
1064.000000	61.651795
1063.000000	61.643934
1062.000000	61.611560
1061.000000	61.600699
1060.000000	61.577117
1059.000000	61.584150
1058.000000	61.578979
1057.000000	61.570187
1056.000000	61.549397
1055.000000	61.526642
1054.000000	61.516403
1053.000000	61.502750
1052.000000	61.499647
1051.000000	61.492200
1050.000000	61.492924
1049.000000	61.501198
1048.000000	61.496647
1047.000000	61.525711
1046.000000	61.546398
1045.000000	61.556327
1044.000000	61.574324
1043.000000	61.610319
1042.000000	61.637521
1041.000000	61.655518
1040.000000	61.681273
1039.000000	61.723680
1038.000000	61.743849
1037.000000	61.767948
1036.000000	61.801150
1035.000000	61.819457
1034.000000	61.838696
1033.000000	61.869415
1032.000000	61.886998
1031.000000	61.914201
1030.000000	61.932301
1029.000000	61.950195
1028.000000	61.981328
1027.000000	61.991051
1026.000000	61.992188
1025.000000	61.995395
1024.000000	62.021459
1023.000000	62.028596
1022.000000	62.046904
1021.000000	62.074003
1020.000000	62.089931
1019.000000	62.102860
1018.000000	62.137717
1017.000000	62.173918
1016.000000	62.224806
1015.000000	62.260800
1014.000000	62.316653
1013.000000	62.380885
1012.000000	62.438910
1011.000000	62.516380
1010.000000	62.608124
1009.000000	62.710314
1008.000000	62.819538
1007.000000	62.931969
1006.000000	63.025781
1005.000000	63.138418
1004.000000	63.247952
1003.000000	63.330801
1002.000000	63.433819
1001.000000	63.557834
1000.000000	63.670160
999.000000	63.787452
998.000000	63.899158
997.000000	64.009933
996.000000	64.122984
995.000000	64.249481
994.000000	64.365221
993.000000	64.470825
992.000000	64.588737
991.000000	64.716165
990.000000	64.841628
989.000000	64.956747
988.000000	65.076521
987.000000	65.193606
986.000000	65.322792
985.000000	65.437808
984.000000	65.567408
983.000000	65.696904
982.000000	65.826814
981.000000	65.931487
980.000000	66.030782
979.000000	66.145901
978.000000	66.255642
977.000000	66.358350
976.000000	66.467160
975.000000	66.562007
974.000000	66.693882
973.000000	66.805071
972.000000	66.900021
971.000000	67.008107
970.000000	67.121986
969.000000	67.237415
968.000000	67.332573
967.000000	67.411388
966.000000	67.509751
965.000000	67.632111
964.000000	67.748161
963.000000	67.829975
962.000000	67.914272
961.000000	68.012843
960.000000	68.117309
959.000000	68.240496
958.000000	68.343617
957.000000	68.416330
956.000000	68.506832
955.000000	68.623607
954.000000	68.734072
953.000000	68.839882
952.000000	68.932040
951.000000	69.001753
950.000000	69.085533
949.000000	69.179655
948.000000	69.259298
947.000000	69.341112
946.000000	69.423134
945.000000	69.485917
944.000000	69.546217
943.000000	69.603208
942.000000	69.659682
941.000000	69.703330
940.000000	69.743979
939.000000	69.804072
938.000000	69.841411
937.000000	69.862304
936.000000	69.900781
935.000000	69.935017
934.000000	69.986216
933.000000	70.029864
932.000000	70.055929
931.000000	70.077960
930.000000	70.088923
929.000000	70.125435
928.000000	70.146845
927.000000	70.135364
926.000000	70.151396
925.000000	70.159464
924.000000	70.147362
923.000000	70.151603
922.000000	70.146328
921.000000	70.142501
920.000000	70.142811
919.000000	70.173220
918.000000	70.178702
917.000000	70.166187
916.000000	70.164015
915.000000	70.162463
914.000000	70.200112
913.000000	70.204456
912.000000	70.199699
911.000000	70.201560
910.000000	70.208283
909.000000	70.237968
908.000000	70.287926
907.000000	70.315542
906.000000	70.353605
905.000000	70.382359
904.000000	70.427765
903.000000	70.481240
902.000000	70.541644
901.000000	70.605564
900.000000	70.686448
899.000000	70.753679
898.000000	70.795879
897.000000	70.853180
896.000000	70.904896
895.000000	70.949268
894.000000	71.005949
893.000000	71.049286
892.000000	71.064387
891.000000	71.076903
890.000000	71.109173
889.000000	71.104829
888.000000	71.117241
887.000000	71.122102
886.000000	71.113724
885.000000	71.092004
884.000000	71.093038
883.000000	71.074524
882.000000	71.051252
881.000000	71.053320
880.000000	71.044115
879.000000	71.038736
878.000000	71.034185
877.000000	71.018774
876.000000	71.016292
875.000000	71.017636
874.000000	71.008948
873.000000	70.976884
872.000000	70.950923
871.000000	70.924031
870.000000	70.943579
869.000000	71.011844
868.000000	71.115069
867.000000	71.239704
866.000000	71.365063
865.000000	71.481114
864.000000	71.615058
863.000000	71.746312
862.000000	71.903322
861.000000	72.023509
860.000000	72.183311
859.000000	72.358525
858.000000	72.518533
857.000000	71.925500
856.000000	73.058300
855.000000	72.571800
854.000000	73.073900
853.000000	73.331300
852.000000	73.710500
851.000000	74.134000
850.000000	73.922100
849.000000	73.889000
848.000000	74.444300
847.000000	74.780200
846.000000	74.969100
845.000000	74.946800
844.000000	74.947700
843.000000	75.522800
842.000000	75.886700
841.000000	76.063000
840.000000	76.409800
839.000000	76.712000
838.000000	77.144700
837.000000	77.112300
836.000000	77.578400
835.000000	78.236100
834.000000	78.385600
833.000000	78.605100
832.000000	79.161900
831.000000	79.505300
830.000000	79.937900
829.000000	80.399300
828.000000	80.660000
827.000000	80.991600
826.000000	81.281300
825.000000	81.541500
824.000000	81.591000
823.000000	82.056500
822.000000	82.131800
821.000000	82.201000
820.000000	82.395100
819.000000	82.247200
818.000000	82.253600
817.000000	82.316800
816.000000	81.968300
815.000000	81.966700
814.000000	81.895200
813.000000	81.368100
812.000000	81.653400
811.000000	81.569200
810.000000	81.638200
809.000000	81.819600
808.000000	81.610300
807.000000	81.549700
806.000000	81.764300
805.000000	81.729900
804.000000	82.042600
803.000000	82.025100
802.000000	82.300600
801.000000	82.537800
800.000000	82.870100
799.000000	82.906700
798.000000	83.274000
797.000000	83.685200
796.000000	83.724100
795.000000	84.186300
794.000000	84.481800
793.000000	84.642400
792.000000	84.984800
791.000000	85.104000
790.000000	85.669200
789.000000	85.840700
788.000000	85.958100
787.000000	86.044300
786.000000	86.381500
785.000000	86.405500
784.000000	86.479100
783.000000	86.436200
782.000000	86.390200
781.000000	86.493800
780.000000	86.251400
779.000000	86.262500
778.000000	85.912300
777.000000	85.727600
776.000000	85.641000
775.000000	85.447300
774.000000	85.108500
773.000000	84.945300
772.000000	84.774500
771.000000	84.618900
770.000000	84.452500
769.000000	84.281600
768.000000	84.128300
767.000000	84.116100
766.000000	83.847900
765.000000	83.846000
764.000000	83.829800
763.000000	83.803100
762.000000	83.973000
761.000000	83.890100
760.000000	83.915000
759.000000	83.814200
758.000000	83.883000
757.000000	83.986800
756.000000	83.820700
755.000000	83.863900
754.000000	83.802200
753.000000	83.816500
752.000000	83.694900
751.000000	83.605900
750.000000	83.447700
749.000000	83.338600
748.000000	83.189300
747.000000	83.070700
746.000000	82.817300
745.000000	82.486900
744.000000	82.197600
743.000000	81.886900
742.000000	81.395200
741.000000	81.067000
740.000000	80.691800
739.000000	80.188000
738.000000	79.877400
737.000000	79.452900
736.000000	79.072900
735.000000	78.664500
734.000000	78.350900
733.000000	78.018700
732.000000	77.581900
731.000000	77.314900
730.000000	77.056400
729.000000	76.783900
728.000000	76.587400
727.000000	76.399900
726.000000	76.204800
725.000000	75.958700
724.000000	75.906900
723.000000	75.673600
722.000000	75.490000
721.000000	75.430400
720.000000	75.336500
719.000000	75.196300
718.000000	75.037500
717.000000	74.857900
716.000000	74.752700
715.000000	74.629600
714.000000	74.511400
713.000000	74.425100
712.000000	74.353600
711.000000	74.238800
710.000000	74.183400
709.000000	74.172200
708.000000	74.087500
707.000000	74.138000
706.000000	74.244700
705.000000	74.377400
704.000000	74.529000
703.000000	74.644500
702.000000	74.799500
701.000000	74.946800
700.000000	75.050100
699.000000	75.143000
698.000000	75.176800
697.000000	75.187800
696.000000	75.264300
695.000000	75.309400
694.000000	75.204900
693.000000	75.026200
692.000000	74.942500
691.000000	74.836200
690.000000	74.622200
689.000000	74.348700
688.000000	74.131000
687.000000	73.924900
686.000000	73.707900
685.000000	73.374600
684.000000	72.972700
683.000000	72.573600
682.000000	72.171700
681.000000	71.686600
680.000000	71.133800
679.000000	70.518200
678.000000	69.873500
677.000000	69.199900
676.000000	68.417400
675.000000	67.638500
674.000000	66.846100
673.000000	65.987200
672.000000	65.076400
671.000000	64.207600
670.000000	63.343500
669.000000	62.500700
668.000000	61.664300
667.000000	60.863800
666.000000	60.098500
665.000000	59.317600
664.000000	58.565800
663.000000	57.821500
662.000000	57.059200
661.000000	56.311700
660.000000	55.644700
659.000000	55.023500
658.000000	54.412900
657.000000	53.853900
656.000000	53.385400
655.000000	52.957200
654.000000	52.683000
653.000000	52.567600
652.000000	52.594100
651.000000	52.767500
650.000000	53.112200
649.000000	53.615600
648.000000	54.245700
647.000000	55.016900
646.000000	55.842000
645.000000	56.742900
644.000000	57.750700
643.000000	58.772100
642.000000	59.819400
641.000000	60.815900
640.000000	61.742200
639.000000	62.671500
638.000000	63.563200
637.000000	64.458600
636.000000	65.375300
635.000000	66.273600
634.000000	67.187900
633.000000	68.188400
632.000000	69.197500
631.000000	70.231700
630.000000	71.297800
629.000000	72.333100
628.000000	73.359600
627.000000	74.425700
626.000000	75.413600
625.000000	76.336800
624.000000	77.260000
623.000000	78.148800
622.000000	78.991800
621.000000	79.797400
620.000000	80.520400
619.000000	81.219000
618.000000	81.907600
617.000000	82.562100
616.000000	83.186000
615.000000	83.798900
614.000000	84.422500
613.000000	84.981800
612.000000	85.514100
611.000000	86.000900
610.000000	86.527900
609.000000	87.041200
608.000000	87.484300
607.000000	87.857700
606.000000	88.224500
605.000000	88.622100
604.000000	88.962900
603.000000	89.260100
602.000000	89.524000
601.000000	89.819400
600.000000	90.120200
599.000000	90.305800
598.000000	90.510700
597.000000	90.729700
596.000000	90.862500
595.000000	91.020300
594.000000	91.209600
593.000000	91.377000
592.000000	91.493100
591.000000	91.608900
590.000000	91.711000
589.000000	91.802400
588.000000	91.876000
587.000000	91.962400
586.000000	92.033300
585.000000	92.056100
584.000000	92.058800
583.000000	92.063300
582.000000	92.089900
581.000000	92.106900
580.000000	92.037600
579.000000	91.985600
578.000000	91.899600
577.000000	91.837600
576.000000	91.744900
575.000000	91.603800
574.000000	91.474200
573.000000	91.327200
572.000000	91.148800
571.000000	90.956500
570.000000	90.818100
569.000000	90.560400
568.000000	90.315700
567.000000	90.084200
566.000000	89.822500
565.000000	89.572500
564.000000	89.248700
563.000000	88.965200
562.000000	88.647500
561.000000	88.252700
560.000000	87.890600
559.000000	87.484900
558.000000	87.047200
557.000000	86.580100
556.000000	86.083100
555.000000	85.591100
554.000000	85.028900
553.000000	84.442400
552.000000	83.758000
551.000000	83.078500
550.000000	82.348300
549.000000	81.561400
548.000000	80.726600
547.000000	79.838000
546.000000	78.843800
545.000000	77.925300
544.000000	76.909000
543.000000	75.825100
542.000000	74.711100
541.000000	73.507800
540.000000	72.296900
539.000000	71.031800
538.000000	69.730100
537.000000	68.397800
536.000000	66.953300
535.000000	65.482000
534.000000	63.937300
533.000000	62.318500
532.000000	60.672500
531.000000	58.998300
530.000000	57.309800
529.000000	55.589300
528.000000	53.876900
527.000000	52.206800
526.000000	50.592000
525.000000	48.970600
524.000000	47.471100
523.000000	45.979200
522.000000	44.613000
521.000000	43.318300
520.000000	42.100700
519.000000	41.024000
518.000000	40.048000
517.000000	39.119700
516.000000	38.346500
515.000000	37.583400
514.000000	36.953000
513.000000	36.447800
512.000000	35.960800
511.000000	35.600700
510.000000	35.288800
509.000000	34.997800
508.000000	34.765700
507.000000	34.590900
506.000000	34.425100
505.000000	34.297300
504.000000	34.155700
503.000000	34.047100
502.000000	33.943000
501.000000	33.830100
500.000000	33.700800
499.000000	33.570300
498.000000	33.365800
497.000000	33.210800
496.000000	32.958500
495.000000	32.679800
494.000000	32.378400
493.000000	31.974200
492.000000	31.628000
491.000000	31.177600
490.000000	30.726000
489.000000	30.228600
488.000000	29.779700
487.000000	29.264000
486.000000	28.807400
485.000000	28.314100
484.000000	27.852000
483.000000	27.413000
482.000000	26.963600
481.000000	26.594900
480.000000	26.234000
479.000000	25.879500
478.000000	25.607000
477.000000	25.365000
476.000000	25.150200
475.000000	24.986900
474.000000	24.872400
473.000000	24.800500
472.000000	24.765900
471.000000	24.739200
470.000000	24.764600
469.000000	24.789000
468.000000	24.890600
467.000000	24.959300
466.000000	25.056100
465.000000	25.182500
464.000000	25.297300
463.000000	25.415300
462.000000	25.541700
461.000000	25.651000
460.000000	25.804100
459.000000	25.916300
458.000000	26.052700
457.000000	26.170600
456.000000	26.261300
455.000000	26.370100
454.000000	26.432100
453.000000	26.485900
452.000000	26.547300
451.000000	26.584300
450.000000	26.595100
449.000000	26.609700
448.000000	26.554400
447.000000	26.507900
446.000000	26.453400
445.000000	26.442600
444.000000	26.321600
443.000000	26.203700
442.000000	26.071000
441.000000	25.984000
440.000000	25.798600
439.000000	25.630400
438.000000	25.430000
437.000000	25.266900
436.000000	25.030100
435.000000	24.759500
434.000000	24.500700
433.000000	24.267400
432.000000	24.001700
431.000000	23.687500
430.000000	23.388700
429.000000	23.043200
428.000000	22.702600
427.000000	22.324400
426.000000	21.997500
425.000000	21.631200
424.000000	21.230000
423.000000	20.822100
422.000000	20.371900
421.000000	19.958200
420.000000	19.505600
419.000000	19.043500
418.000000	18.597400
417.000000	18.135400
416.000000	17.659100
415.000000	17.222200
414.000000	16.763200
413.000000	16.281600
412.000000	15.817000
411.000000	15.399000
410.000000	14.934400
409.000000	14.482600
408.000000	14.090400
407.000000	13.668200
406.000000	13.260100
405.000000	12.883900
404.000000	12.503700
403.000000	12.146500
402.000000	11.811600
401.000000	11.473500
400.000000	11.153400
399.000000	10.840400
398.000000	10.565800
397.000000	10.293800
396.000000	10.052300
395.000000	9.821600
394.000000	9.579100
393.000000	9.346900
392.000000	9.132900
391.000000	8.947800
390.000000	8.771400
389.000000	8.570400
388.000000	8.420500
387.000000	8.293800
386.000000	8.186100
385.000000	8.026000
384.000000	7.867100
383.000000	7.755200
382.000000	7.665700
381.000000	7.559600
380.000000	7.443700
379.000000	7.367400
378.000000	7.317300
377.000000	7.215900
376.000000	7.231600
375.000000	7.102600
374.000000	6.662000
373.000000	6.631600
372.000000	6.702300
371.000000	6.682100
370.000000	6.678800
369.000000	6.669800
368.000000	6.762800
367.000000	6.684600
366.000000	6.622300
365.000000	6.546700
364.000000	6.550400
363.000000	6.619200
362.000000	6.591100
361.000000	6.531500
360.000000	6.423900
359.000000	6.288200
358.000000	6.404300
357.000000	6.329200
356.000000	6.225700
355.000000	6.204500
354.000000	6.167300
353.000000	6.162900
352.000000	6.107000
351.000000	5.955300
350.000000	5.896000
349.000000	5.941200
348.000000	5.988100
347.000000	6.139800
346.000000	6.192200
345.000000	6.167000
344.000000	6.185900
343.000000	6.185300
342.000000	6.082500
341.000000	6.055500
340.000000	6.115300
339.000000	6.253500
338.000000	6.262000
337.000000	6.101800
336.000000	5.964700
335.000000	6.059800
334.000000	6.003200
333.000000	5.945300
332.000000	6.135200
331.000000	6.120600
330.000000	6.417300
329.000000	6.424600
328.000000	5.940800
327.000000	6.233000
326.000000	6.336900
325.000000	6.234100
324.000000	6.696300
323.000000	6.523200
322.000000	6.175300
321.000000	6.742900
320.000000	6.845200
319.000000	6.613900
318.000000	6.636000
317.000000	7.015100
316.000000	6.564500
315.000000	5.973700
314.000000	5.949300
313.000000	5.926200
312.000000	5.950200
311.000000	5.968700
310.000000	5.968200
309.000000	5.957000
308.000000	6.012300
307.000000	6.056300
306.000000	6.054000
305.000000	6.062900
304.000000	6.037800
303.000000	6.046900
302.000000	6.086000
301.000000	6.096000
300.000000	6.130600
299.000000	6.105100
298.000000	6.075100
297.000000	6.100100
296.000000	6.102500
295.000000	6.096400
294.000000	6.101200
293.000000	6.157500
292.000000	6.182000
291.000000	6.188400
290.000000	6.177300
289.000000	6.186400
288.000000	6.202700
287.000000	6.194000
286.000000	6.223300
285.000000	6.213300
284.000000	6.214200
283.000000	6.244600
282.000000	6.284100
281.000000	6.313400
280.000000	6.290200
279.000000	6.278400
278.000000	6.318500
277.000000	6.307300
276.000000	6.288900
275.000000	6.296700
274.000000	6.335300
273.000000	6.363100
272.000000	6.370100
271.000000	6.373700
270.000000	6.378200
269.000000	6.370800
268.000000	6.406800
267.000000	6.388700
266.000000	6.457100
265.000000	6.479100
264.000000	6.516200
263.000000	6.509600
262.000000	6.532000
261.000000	6.602400
260.000000	6.645300
259.000000	6.670200
258.000000	6.652500
257.000000	6.709600
256.000000	6.716500
255.000000	6.756100
254.000000	6.749200
253.000000	6.744100
252.000000	6.759500
251.000000	6.765800
250.000000	6.858200
