PE UV       SUBTECH     SPECTRUM    ASCII       PEDS        4.00        
   -1
CICIMAUCR0004-2.Sample.ASC
24/05/03
14:52:45.00
24/05/03
14:52:45.00
Vinicio Soto Monge
C. kalinini
250,000000
1
Lambda 1050
1050L1511233
PerkinElmer UV WinLab 6.3.2.0749 / 2.02.05 Lambda 900 UV/VIS/NIR, Aug  7 2015 09:38:08

0
0
3350/servo 860,8/2
0
0
UV/VIS
1
1
1
DoubleDePol,CommonBeamDepol,RBeamAtt,SBeamAtt,60mm sphere, WB InGaAs Detector
0
0
0
0
Program
Program
3350/servo 860,8/2
3350/0,2 860,8/0,2
3350/0,2 860,8/0,2
0
15.00
 
 
 
0
 
860,8
319,2
860,8
Front
100
on
S:100 R:100
0
0
0
0
 
0
 
 
 
0
 
 
0
0
0
0
0
 
 
 
 
0
0


0
0
#HDR
-1
-1
#GR
nm
%R
1.0
0.0
2500,000000
-1,000000
2251
8
96,189800
5,469500
#DATA
2500.000000	9.336954
2499.000000	9.303254
2498.000000	9.342843
2497.000000	9.353313
2496.000000	9.273153
2495.000000	9.145660
2494.000000	9.249377
2493.000000	9.171835
2492.000000	9.165400
2491.000000	9.111415
2490.000000	8.998973
2489.000000	9.055030
2488.000000	9.078369
2487.000000	9.133009
2486.000000	9.166818
2485.000000	9.009334
2484.000000	9.031255
2483.000000	8.943352
2482.000000	9.001699
2481.000000	9.003444
2480.000000	8.995810
2479.000000	9.040525
2478.000000	9.031364
2477.000000	9.000827
2476.000000	8.997337
2475.000000	8.978796
2474.000000	8.997228
2473.000000	9.012169
2472.000000	9.056666
2471.000000	9.056012
2470.000000	9.050777
2469.000000	9.065173
2468.000000	9.070081
2467.000000	9.144679
2466.000000	9.122866
2465.000000	9.172271
2464.000000	9.192884
2463.000000	9.217750
2462.000000	9.257012
2461.000000	9.323975
2460.000000	9.365528
2459.000000	9.457248
2458.000000	9.520504
2457.000000	9.581578
2456.000000	9.662611
2455.000000	9.732301
2454.000000	9.797410
2453.000000	9.905163
2452.000000	10.008226
2451.000000	10.100928
2450.000000	10.211080
2449.000000	10.267028
2448.000000	10.350351
2447.000000	10.463775
2446.000000	10.542299
2445.000000	10.640781
2444.000000	10.716033
2443.000000	10.829348
2442.000000	10.902310
2441.000000	11.000574
2440.000000	11.089350
2439.000000	11.169946
2438.000000	11.259377
2437.000000	11.333211
2436.000000	11.418497
2435.000000	11.495713
2434.000000	11.572383
2433.000000	11.654506
2432.000000	11.724305
2431.000000	11.751352
2430.000000	11.821588
2429.000000	11.903820
2428.000000	11.957042
2427.000000	12.024442
2426.000000	12.043854
2425.000000	12.095768
2424.000000	12.130885
2423.000000	12.178436
2422.000000	12.210827
2421.000000	12.256415
2420.000000	12.286843
2419.000000	12.316726
2418.000000	12.342464
2417.000000	12.373329
2416.000000	12.405502
2415.000000	12.442037
2414.000000	12.457742
2413.000000	12.488606
2412.000000	12.526232
2411.000000	12.570729
2410.000000	12.600503
2409.000000	12.612936
2408.000000	12.633767
2407.000000	12.647290
2406.000000	12.675101
2405.000000	12.702257
2404.000000	12.727123
2403.000000	12.764095
2402.000000	12.783508
2401.000000	12.802812
2400.000000	12.836512
2399.000000	12.875883
2398.000000	12.919289
2397.000000	12.977964
2396.000000	13.017663
2395.000000	13.023225
2394.000000	13.040674
2393.000000	13.061941
2392.000000	13.091388
2391.000000	13.105348
2390.000000	13.139484
2389.000000	13.156716
2388.000000	13.144610
2387.000000	13.143192
2386.000000	13.161514
2385.000000	13.161405
2384.000000	13.160533
2383.000000	13.155407
2382.000000	13.130214
2381.000000	13.105348
2380.000000	13.092479
2379.000000	13.089534
2378.000000	13.066522
2377.000000	13.034349
2376.000000	13.004139
2375.000000	12.970548
2374.000000	12.949826
2373.000000	12.913073
2372.000000	12.852435
2371.000000	12.817644
2370.000000	12.781763
2369.000000	12.719162
2368.000000	12.655797
2367.000000	12.598431
2366.000000	12.529613
2365.000000	12.457742
2364.000000	12.391760
2363.000000	12.333412
2362.000000	12.264594
2361.000000	12.186616
2360.000000	12.124014
2359.000000	12.056506
2358.000000	11.998158
2357.000000	11.965112
2356.000000	11.921924
2355.000000	11.885497
2354.000000	11.870665
2353.000000	11.860850
2352.000000	11.846344
2351.000000	11.849071
2350.000000	11.883753
2349.000000	11.930758
2348.000000	11.961077
2347.000000	11.989324
2346.000000	12.036220
2345.000000	12.072101
2344.000000	12.100784
2343.000000	12.151062
2342.000000	12.178109
2341.000000	12.208210
2340.000000	12.220861
2339.000000	12.227950
2338.000000	12.250526
2337.000000	12.240383
2336.000000	12.200903
2335.000000	12.182144
2334.000000	12.161423
2333.000000	12.118452
2332.000000	12.056069
2331.000000	12.006228
2330.000000	11.949844
2329.000000	11.900221
2328.000000	11.830749
2327.000000	11.748407
2326.000000	11.652652
2325.000000	11.559622
2324.000000	11.474773
2323.000000	11.361567
2322.000000	11.266139
2321.000000	11.144099
2320.000000	11.014425
2319.000000	10.895766
2318.000000	10.788668
2317.000000	10.645580
2316.000000	10.512307
2315.000000	10.402809
2314.000000	10.294621
2313.000000	10.201155
2312.000000	10.120886
2311.000000	10.023603
2310.000000	9.951296
2309.000000	9.867646
2308.000000	9.838963
2307.000000	9.834600
2306.000000	9.854886
2305.000000	9.854995
2304.000000	9.898946
2303.000000	9.968418
2302.000000	10.053050
2301.000000	10.142371
2300.000000	10.203445
2299.000000	10.301710
2298.000000	10.390377
2297.000000	10.478280
2296.000000	10.576762
2295.000000	10.666083
2294.000000	10.745807
2293.000000	10.807318
2292.000000	10.851488
2291.000000	10.883224
2290.000000	10.908636
2289.000000	10.935901
2288.000000	10.930121
2287.000000	10.922923
2286.000000	10.910926
2285.000000	10.874936
2284.000000	10.840254
2283.000000	10.800120
2282.000000	10.751151
2281.000000	10.730102
2280.000000	10.683206
2279.000000	10.636310
2278.000000	10.610898
2277.000000	10.557131
2276.000000	10.534010
2275.000000	10.533138
2274.000000	10.493658
2273.000000	10.504018
2272.000000	10.511871
2271.000000	10.546661
2270.000000	10.579271
2269.000000	10.663466
2268.000000	10.757150
2267.000000	10.860431
2266.000000	10.999266
2265.000000	11.149443
2264.000000	11.338773
2263.000000	11.533448
2262.000000	11.763894
2261.000000	12.012772
2260.000000	12.286625
2259.000000	12.541392
2258.000000	12.842074
2257.000000	13.122361
2256.000000	13.467104
2255.000000	13.732014
2254.000000	14.012083
2253.000000	14.291607
2252.000000	14.581492
2251.000000	14.823063
2250.000000	15.091354
2249.000000	15.324745
2248.000000	15.551483
2247.000000	15.792072
2246.000000	15.975295
2245.000000	16.137033
2244.000000	16.310222
2243.000000	16.513076
2242.000000	16.633916
2241.000000	16.759119
2240.000000	16.930236
2239.000000	17.021520
2238.000000	17.116294
2237.000000	17.241606
2236.000000	17.310751
2235.000000	17.376842
2234.000000	17.445659
2233.000000	17.516549
2232.000000	17.541415
2231.000000	17.591365
2230.000000	17.624738
2229.000000	17.620266
2228.000000	17.635644
2227.000000	17.639461
2226.000000	17.632481
2225.000000	17.613723
2224.000000	17.597691
2223.000000	17.581986
2222.000000	17.555811
2221.000000	17.508806
2220.000000	17.476306
2219.000000	17.407597
2218.000000	17.377496
2217.000000	17.343033
2216.000000	17.297663
2215.000000	17.266144
2214.000000	17.177260
2213.000000	17.159810
2212.000000	17.139961
2211.000000	17.084448
2210.000000	17.049003
2209.000000	17.017376
2208.000000	16.991419
2207.000000	16.971570
2206.000000	16.939070
2205.000000	16.945177
2204.000000	16.910605
2203.000000	16.899917
2202.000000	16.843750
2201.000000	16.844404
2200.000000	16.835461
2199.000000	16.831753
2198.000000	16.818448
2197.000000	16.803616
2196.000000	16.782567
2195.000000	16.806124
2194.000000	16.798926
2193.000000	16.779186
2192.000000	16.763045
2191.000000	16.764790
2190.000000	16.746904
2189.000000	16.740469
2188.000000	16.745268
2187.000000	16.714185
2186.000000	16.694009
2185.000000	16.678631
2184.000000	16.669361
2183.000000	16.653220
2182.000000	16.641005
2181.000000	16.641332
2180.000000	16.616685
2179.000000	16.623119
2178.000000	16.595963
2177.000000	16.587347
2176.000000	16.596726
2175.000000	16.587674
2174.000000	16.592473
2173.000000	16.599126
2172.000000	16.610032
2171.000000	16.617012
2170.000000	16.636970
2169.000000	16.664453
2168.000000	16.685720
2167.000000	16.695318
2166.000000	16.744177
2165.000000	16.753011
2164.000000	16.785948
2163.000000	16.815940
2162.000000	16.855856
2161.000000	16.888901
2160.000000	16.938306
2159.000000	16.980186
2158.000000	17.025010
2157.000000	17.096009
2156.000000	17.151957
2155.000000	17.215540
2154.000000	17.274978
2153.000000	17.344341
2152.000000	17.411196
2151.000000	17.491574
2150.000000	17.546650
2149.000000	17.604998
2148.000000	17.657129
2147.000000	17.730745
2146.000000	17.793019
2145.000000	17.857147
2144.000000	17.911787
2143.000000	17.978424
2142.000000	18.048441
2141.000000	18.093265
2140.000000	18.150740
2139.000000	18.211269
2138.000000	18.252276
2137.000000	18.302990
2136.000000	18.345742
2135.000000	18.378024
2134.000000	18.435718
2133.000000	18.479887
2132.000000	18.502136
2131.000000	18.527329
2130.000000	18.556885
2129.000000	18.575534
2128.000000	18.600182
2127.000000	18.608362
2126.000000	18.619813
2125.000000	18.636063
2124.000000	18.638571
2123.000000	18.628865
2122.000000	18.629738
2121.000000	18.625484
2120.000000	18.620249
2119.000000	18.620140
2118.000000	18.607925
2117.000000	18.584368
2116.000000	18.558739
2115.000000	18.541616
2114.000000	18.513587
2113.000000	18.489048
2112.000000	18.476834
2111.000000	18.458075
2110.000000	18.432446
2109.000000	18.399509
2108.000000	18.370935
2107.000000	18.333418
2106.000000	18.306262
2105.000000	18.284450
2104.000000	18.260674
2103.000000	18.236681
2102.000000	18.219231
2101.000000	18.197419
2100.000000	18.178769
2099.000000	18.145833
2098.000000	18.113114
2097.000000	18.104717
2096.000000	18.070580
2095.000000	18.060001
2094.000000	18.069599
2093.000000	18.045387
2092.000000	18.035354
2091.000000	18.042115
2090.000000	18.041134
2089.000000	18.023357
2088.000000	18.003726
2087.000000	18.005798
2086.000000	18.003835
2085.000000	17.988893
2084.000000	17.977006
2083.000000	17.970462
2082.000000	17.953667
2081.000000	17.912987
2080.000000	17.866309
2079.000000	17.843079
2078.000000	17.813523
2077.000000	17.781023
2076.000000	17.749504
2075.000000	17.723656
2074.000000	17.682104
2073.000000	17.645023
2072.000000	17.604016
2071.000000	17.547413
2070.000000	17.501608
2069.000000	17.457220
2068.000000	17.397236
2067.000000	17.343469
2066.000000	17.291338
2065.000000	17.268435
2064.000000	17.228955
2063.000000	17.190456
2062.000000	17.151085
2061.000000	17.127855
2060.000000	17.117385
2059.000000	17.106370
2058.000000	17.126328
2057.000000	17.146613
2056.000000	17.204852
2055.000000	17.247386
2054.000000	17.309442
2053.000000	17.396582
2052.000000	17.499863
2051.000000	17.625174
2050.000000	17.750158
2049.000000	17.900445
2048.000000	18.065891
2047.000000	18.263401
2046.000000	18.447060
2045.000000	18.629738
2044.000000	18.857457
2043.000000	19.072090
2042.000000	19.278979
2041.000000	19.493285
2040.000000	19.693739
2039.000000	19.895175
2038.000000	20.094649
2037.000000	20.292268
2036.000000	20.477672
2035.000000	20.637774
2034.000000	20.820778
2033.000000	21.016653
2032.000000	21.182098
2031.000000	21.321043
2030.000000	21.468821
2029.000000	21.616926
2028.000000	21.760559
2027.000000	21.896559
2026.000000	22.015436
2025.000000	22.135294
2024.000000	22.282527
2023.000000	22.369994
2022.000000	22.477528
2021.000000	22.590298
2020.000000	22.716263
2019.000000	22.814310
2018.000000	22.902649
2017.000000	22.985209
2016.000000	23.083582
2015.000000	23.145856
2014.000000	23.233432
2013.000000	23.289817
2012.000000	23.358743
2011.000000	23.425489
2010.000000	23.487654
2009.000000	23.526043
2008.000000	23.549601
2007.000000	23.570649
2006.000000	23.613074
2005.000000	23.629106
2004.000000	23.638376
2003.000000	23.625943
2002.000000	23.626925
2001.000000	23.623435
2000.000000	23.622126
1999.000000	23.617110
1998.000000	23.597479
1997.000000	23.535205
1996.000000	23.536513
1995.000000	23.487763
1994.000000	23.451336
1993.000000	23.390916
1992.000000	23.342711
1991.000000	23.291671
1990.000000	23.231360
1989.000000	23.151418
1988.000000	23.068859
1987.000000	23.009529
1986.000000	22.920099
1985.000000	22.845283
1984.000000	22.762178
1983.000000	22.681473
1982.000000	22.602840
1981.000000	22.529551
1980.000000	22.424525
1979.000000	22.357016
1978.000000	22.264314
1977.000000	22.170848
1976.000000	22.079673
1975.000000	21.986753
1974.000000	21.932113
1973.000000	21.850644
1972.000000	21.769721
1971.000000	21.684217
1970.000000	21.607328
1969.000000	21.547672
1968.000000	21.444500
1967.000000	21.357796
1966.000000	21.292141
1965.000000	21.231176
1964.000000	21.144254
1963.000000	21.057551
1962.000000	20.983825
1961.000000	20.916316
1960.000000	20.816961
1959.000000	20.745308
1958.000000	20.664821
1957.000000	20.573318
1956.000000	20.497521
1955.000000	20.419215
1954.000000	20.353778
1953.000000	20.269801
1952.000000	20.184515
1951.000000	20.113298
1950.000000	20.046553
1949.000000	20.006200
1948.000000	19.959413
1947.000000	19.897902
1946.000000	19.833338
1945.000000	19.806945
1944.000000	19.751215
1943.000000	19.747397
1942.000000	19.732456
1941.000000	19.734310
1940.000000	19.715661
1939.000000	19.730166
1938.000000	19.754377
1937.000000	19.768119
1936.000000	19.811307
1935.000000	19.854278
1934.000000	19.919060
1933.000000	19.989841
1932.000000	20.101956
1931.000000	20.185933
1930.000000	20.286924
1929.000000	20.428049
1928.000000	20.547907
1927.000000	20.685979
1926.000000	20.852297
1925.000000	21.023087
1924.000000	21.176754
1923.000000	21.352888
1922.000000	21.562831
1921.000000	21.821525
1920.000000	22.031904
1919.000000	22.235958
1918.000000	22.475783
1917.000000	22.697178
1916.000000	22.937549
1915.000000	23.230924
1914.000000	23.509902
1913.000000	23.811675
1912.000000	24.137877
1911.000000	24.421218
1910.000000	24.722009
1909.000000	24.998152
1908.000000	25.306360
1907.000000	25.689056
1906.000000	26.051030
1905.000000	26.435253
1904.000000	26.773125
1903.000000	27.120812
1902.000000	27.454976
1901.000000	27.854358
1900.000000	28.252323
1899.000000	28.642435
1898.000000	28.982815
1897.000000	29.348716
1896.000000	29.658013
1895.000000	29.968184
1894.000000	30.293623
1893.000000	30.627568
1892.000000	31.013536
1891.000000	31.379109
1890.000000	31.699204
1889.000000	32.038276
1888.000000	32.391198
1887.000000	32.725471
1886.000000	33.114710
1885.000000	33.536669
1884.000000	34.003342
1883.000000	34.446894
1882.000000	34.863508
1881.000000	35.323747
1880.000000	35.706333
1879.000000	36.074961
1878.000000	36.468563
1877.000000	36.819849
1876.000000	37.134709
1875.000000	37.450441
1874.000000	37.753523
1873.000000	38.010144
1872.000000	38.230339
1871.000000	38.415961
1870.000000	38.577153
1869.000000	38.713589
1868.000000	38.790913
1867.000000	38.851552
1866.000000	38.865075
1865.000000	38.864966
1864.000000	38.852533
1863.000000	38.865184
1862.000000	38.902265
1861.000000	38.923314
1860.000000	38.925386
1859.000000	38.926040
1858.000000	38.906191
1857.000000	38.854823
1856.000000	38.794731
1855.000000	38.738237
1854.000000	38.666365
1853.000000	38.580098
1852.000000	38.497975
1851.000000	38.418578
1850.000000	38.353142
1849.000000	38.298393
1848.000000	38.250188
1847.000000	38.145816
1846.000000	38.025521
1845.000000	37.934564
1844.000000	37.837500
1843.000000	37.785805
1842.000000	37.773154
1841.000000	37.757122
1840.000000	37.710334
1839.000000	37.631919
1838.000000	37.543907
1837.000000	37.470618
1836.000000	37.387731
1835.000000	37.281724
1834.000000	37.163610
1833.000000	37.063383
1832.000000	36.963810
1831.000000	36.862383
1830.000000	36.788658
1829.000000	36.698246
1828.000000	36.588203
1827.000000	36.503790
1826.000000	36.433336
1825.000000	36.356448
1824.000000	36.306280
1823.000000	36.277596
1822.000000	36.267781
1821.000000	36.277705
1820.000000	36.256657
1819.000000	36.202126
1818.000000	36.162864
1817.000000	36.140506
1816.000000	36.148032
1815.000000	36.136253
1814.000000	36.099717
1813.000000	36.072234
1812.000000	36.043006
1811.000000	35.995019
1810.000000	35.949322
1809.000000	35.888357
1808.000000	35.847350
1807.000000	35.810923
1806.000000	35.732726
1805.000000	35.665654
1804.000000	35.609923
1803.000000	35.547649
1802.000000	35.497481
1801.000000	35.431826
1800.000000	35.363445
1799.000000	35.319493
1798.000000	35.250675
1797.000000	35.180440
1796.000000	35.128963
1795.000000	35.077595
1794.000000	35.019793
1793.000000	34.943777
1792.000000	34.883793
1791.000000	34.819447
1790.000000	34.741468
1789.000000	34.677777
1788.000000	34.620519
1787.000000	34.536760
1786.000000	34.462708
1785.000000	34.371314
1784.000000	34.278503
1783.000000	34.188528
1782.000000	34.099098
1781.000000	34.011958
1780.000000	33.912603
1779.000000	33.798852
1778.000000	33.659908
1777.000000	33.528380
1776.000000	33.399469
1775.000000	33.248529
1774.000000	33.097370
1773.000000	32.932142
1772.000000	32.779020
1771.000000	32.600596
1770.000000	32.448237
1769.000000	32.312129
1768.000000	32.161733
1767.000000	32.040675
1766.000000	31.949718
1765.000000	31.884608
1764.000000	31.849163
1763.000000	31.841311
1762.000000	31.879155
1761.000000	31.937830
1760.000000	32.005884
1759.000000	32.075247
1758.000000	32.134468
1757.000000	32.195215
1756.000000	32.254762
1755.000000	32.273521
1754.000000	32.268831
1753.000000	32.258034
1752.000000	32.224225
1751.000000	32.173184
1750.000000	32.106439
1749.000000	32.012210
1748.000000	31.907511
1747.000000	31.751990
1746.000000	31.591779
1745.000000	31.388816
1744.000000	31.182363
1743.000000	30.937411
1742.000000	30.662904
1741.000000	30.374328
1740.000000	30.085097
1739.000000	29.809063
1738.000000	29.580253
1737.000000	29.376963
1736.000000	29.255905
1735.000000	29.164293
1734.000000	29.116742
1733.000000	29.122959
1732.000000	29.179562
1731.000000	29.250561
1730.000000	29.369001
1729.000000	29.483843
1728.000000	29.604355
1727.000000	29.699566
1726.000000	29.759877
1725.000000	29.851706
1724.000000	29.884207
1723.000000	29.912999
1722.000000	29.952697
1721.000000	29.989887
1720.000000	30.049434
1719.000000	30.118252
1718.000000	30.211063
1717.000000	30.308237
1716.000000	30.433003
1715.000000	30.543373
1714.000000	30.651780
1713.000000	30.730740
1712.000000	30.795632
1711.000000	30.861832
1710.000000	30.873283
1709.000000	30.899785
1708.000000	30.911127
1707.000000	30.897059
1706.000000	30.848526
1705.000000	30.812536
1704.000000	30.730631
1703.000000	30.620588
1702.000000	30.486007
1701.000000	30.324160
1700.000000	30.139955
1699.000000	29.952370
1698.000000	29.810917
1697.000000	29.710036
1696.000000	29.653215
1695.000000	29.678299
1694.000000	29.737955
1693.000000	29.846908
1692.000000	29.990214
1691.000000	30.133957
1690.000000	30.255015
1689.000000	30.332557
1688.000000	30.370620
1687.000000	30.403011
1686.000000	30.418607
1685.000000	30.504329
1684.000000	30.711000
1683.000000	31.036112
1682.000000	31.497005
1681.000000	32.048637
1680.000000	32.704095
1679.000000	33.309385
1678.000000	33.927326
1677.000000	34.447875
1676.000000	34.933307
1675.000000	35.355265
1674.000000	35.748322
1673.000000	36.055657
1672.000000	36.345760
1671.000000	36.602163
1670.000000	36.829992
1669.000000	37.027393
1668.000000	37.231555
1667.000000	37.376716
1666.000000	37.520022
1665.000000	37.623413
1664.000000	37.763011
1663.000000	37.866510
1662.000000	37.945580
1661.000000	38.037518
1660.000000	38.107317
1659.000000	38.169700
1658.000000	38.212125
1657.000000	38.244844
1656.000000	38.251278
1655.000000	38.254550
1654.000000	38.275054
1653.000000	38.254659
1652.000000	38.259785
1651.000000	38.251060
1650.000000	38.209072
1649.000000	38.173736
1648.000000	38.126185
1647.000000	38.095103
1646.000000	38.042644
1645.000000	37.987895
1644.000000	37.943835
1643.000000	37.897374
1642.000000	37.835100
1641.000000	37.775444
1640.000000	37.709898
1639.000000	37.658748
1638.000000	37.603891
1637.000000	37.514351
1636.000000	37.438336
1635.000000	37.382387
1634.000000	37.311497
1633.000000	37.232428
1632.000000	37.164156
1631.000000	37.071235
1630.000000	36.985404
1629.000000	36.909061
1628.000000	36.807634
1627.000000	36.718422
1626.000000	36.635208
1625.000000	36.553412
1624.000000	36.467036
1623.000000	36.382950
1622.000000	36.295482
1621.000000	36.213032
1620.000000	36.138216
1619.000000	36.056747
1618.000000	35.978878
1617.000000	35.902535
1616.000000	35.826628
1615.000000	35.742869
1614.000000	35.667180
1613.000000	35.580913
1612.000000	35.517985
1611.000000	35.442732
1610.000000	35.370534
1609.000000	35.293209
1608.000000	35.213595
1607.000000	35.126455
1606.000000	35.053384
1605.000000	34.979767
1604.000000	34.889137
1603.000000	34.817702
1602.000000	34.736124
1601.000000	34.653129
1600.000000	34.584093
1599.000000	34.511785
1598.000000	34.444385
1597.000000	34.380912
1596.000000	34.309150
1595.000000	34.244585
1594.000000	34.190818
1593.000000	34.141304
1592.000000	34.084047
1591.000000	34.035951
1590.000000	33.996035
1589.000000	33.944121
1588.000000	33.889591
1587.000000	33.862871
1586.000000	33.825027
1585.000000	33.794817
1584.000000	33.777585
1583.000000	33.739522
1582.000000	33.706259
1581.000000	33.690009
1580.000000	33.683792
1579.000000	33.678012
1578.000000	33.673649
1577.000000	33.690881
1576.000000	33.697861
1575.000000	33.702987
1574.000000	33.732434
1573.000000	33.744430
1572.000000	33.764498
1571.000000	33.801251
1570.000000	33.837569
1569.000000	33.883811
1568.000000	33.931579
1567.000000	33.960699
1566.000000	33.987201
1565.000000	34.042168
1564.000000	34.084374
1563.000000	34.116765
1562.000000	34.156900
1561.000000	34.186892
1560.000000	34.207286
1559.000000	34.232698
1558.000000	34.261163
1557.000000	34.270978
1556.000000	34.261708
1555.000000	34.265416
1554.000000	34.278940
1553.000000	34.258327
1552.000000	34.224845
1551.000000	34.200306
1550.000000	34.179148
1549.000000	34.158863
1548.000000	34.147412
1547.000000	34.127235
1546.000000	34.115457
1545.000000	34.130834
1544.000000	34.133234
1543.000000	34.119274
1542.000000	34.117093
1541.000000	34.115893
1540.000000	34.122546
1539.000000	34.142177
1538.000000	34.153737
1537.000000	34.162244
1536.000000	34.165516
1535.000000	34.175768
1534.000000	34.182420
1533.000000	34.173368
1532.000000	34.170315
1531.000000	34.167697
1530.000000	34.162462
1529.000000	34.138469
1528.000000	34.134324
1527.000000	34.132579
1526.000000	34.111094
1525.000000	34.101279
1524.000000	34.070414
1523.000000	34.064634
1522.000000	34.050565
1521.000000	34.028644
1520.000000	34.008686
1519.000000	33.981420
1518.000000	33.953719
1517.000000	33.943467
1516.000000	33.919474
1515.000000	33.904968
1514.000000	33.877158
1513.000000	33.849347
1512.000000	33.818592
1511.000000	33.796562
1510.000000	33.768424
1509.000000	33.732870
1508.000000	33.701133
1507.000000	33.660344
1506.000000	33.630243
1505.000000	33.616283
1504.000000	33.596543
1503.000000	33.585528
1502.000000	33.576258
1501.000000	33.557826
1500.000000	33.554227
1499.000000	33.544412
1498.000000	33.523363
1497.000000	33.528707
1496.000000	33.547684
1495.000000	33.562407
1494.000000	33.576912
1493.000000	33.595234
1492.000000	33.627735
1491.000000	33.645839
1490.000000	33.656418
1489.000000	33.703750
1488.000000	33.720110
1487.000000	33.773986
1486.000000	33.784129
1485.000000	33.788600
1484.000000	33.829498
1483.000000	33.889155
1482.000000	33.931361
1481.000000	33.986764
1480.000000	34.053292
1479.000000	34.103133
1478.000000	34.161153
1477.000000	34.211976
1476.000000	34.287119
1475.000000	34.379712
1474.000000	34.466743
1473.000000	34.540687
1472.000000	34.615394
1471.000000	34.701443
1470.000000	34.780949
1469.000000	34.839842
1468.000000	34.918257
1467.000000	35.013467
1466.000000	35.082503
1465.000000	35.176078
1464.000000	35.268452
1463.000000	35.366062
1462.000000	35.493119
1461.000000	35.599235
1460.000000	35.707860
1459.000000	35.832190
1458.000000	35.942560
1457.000000	36.073652
1456.000000	36.232445
1455.000000	36.361028
1454.000000	36.491029
1453.000000	36.648296
1452.000000	36.821594
1451.000000	36.943852
1450.000000	37.069054
1449.000000	37.214324
1448.000000	37.408126
1447.000000	37.568228
1446.000000	37.749378
1445.000000	37.918532
1444.000000	38.049624
1443.000000	38.224013
1442.000000	38.425340
1441.000000	38.564611
1440.000000	38.739873
1439.000000	38.900847
1438.000000	39.081671
1437.000000	39.208291
1436.000000	39.386061
1435.000000	39.560450
1434.000000	39.731567
1433.000000	39.909882
1432.000000	40.070529
1431.000000	40.252444
1430.000000	40.454643
1429.000000	40.694469
1428.000000	40.914118
1427.000000	41.135731
1426.000000	41.410238
1425.000000	41.687690
1424.000000	41.974194
1423.000000	42.209112
1422.000000	42.469114
1421.000000	42.757799
1420.000000	43.054446
1419.000000	43.311176
1418.000000	43.526572
1417.000000	43.774032
1416.000000	44.046140
1415.000000	44.356965
1414.000000	44.575414
1413.000000	44.767689
1412.000000	44.987993
1411.000000	45.280168
1410.000000	45.667009
1409.000000	46.040434
1408.000000	46.408298
1407.000000	46.781942
1406.000000	47.200083
1405.000000	47.595212
1404.000000	47.988487
1403.000000	48.407827
1402.000000	48.799903
1401.000000	49.245963
1400.000000	49.563332
1399.000000	49.781236
1398.000000	49.955843
1397.000000	50.193270
1396.000000	50.432986
1395.000000	50.554480
1394.000000	50.608139
1393.000000	50.735740
1392.000000	50.892025
1391.000000	51.045256
1390.000000	51.191289
1389.000000	51.448019
1388.000000	51.720345
1387.000000	51.992781
1386.000000	52.315384
1385.000000	52.688046
1384.000000	53.010540
1383.000000	53.353538
1382.000000	53.588129
1381.000000	53.710714
1380.000000	53.736016
1379.000000	53.760991
1378.000000	53.767316
1377.000000	53.859146
1376.000000	54.003543
1375.000000	54.219485
1374.000000	54.532381
1373.000000	54.907443
1372.000000	55.300173
1371.000000	55.690503
1370.000000	56.039390
1369.000000	56.372354
1368.000000	56.688195
1367.000000	56.935328
1366.000000	57.152251
1365.000000	57.394694
1364.000000	57.560795
1363.000000	57.748707
1362.000000	57.891687
1361.000000	57.967048
1360.000000	57.963449
1359.000000	58.069675
1358.000000	58.207310
1357.000000	58.448663
1356.000000	58.882290
1355.000000	59.457152
1354.000000	60.067459
1353.000000	60.666969
1352.000000	61.402914
1351.000000	62.093163
1350.000000	62.702379
1349.000000	63.268735
1348.000000	63.787866
1347.000000	64.247778
1346.000000	64.659593
1345.000000	65.104781
1344.000000	65.526521
1343.000000	65.890568
1342.000000	66.250906
1341.000000	66.590414
1340.000000	66.903092
1339.000000	67.213590
1338.000000	67.506747
1337.000000	67.775692
1336.000000	68.031440
1335.000000	68.265050
1334.000000	68.505748
1333.000000	68.718308
1332.000000	68.918327
1331.000000	69.122707
1330.000000	69.296660
1329.000000	69.458943
1328.000000	69.603450
1327.000000	69.747629
1326.000000	69.896933
1325.000000	70.027153
1324.000000	70.132942
1323.000000	70.246039
1322.000000	70.359462
1321.000000	70.460235
1320.000000	70.543121
1319.000000	70.621864
1318.000000	70.689154
1317.000000	70.773895
1316.000000	70.860381
1315.000000	70.941195
1314.000000	70.993763
1313.000000	71.036406
1312.000000	71.090391
1311.000000	71.149720
1310.000000	71.193018
1309.000000	71.221264
1308.000000	71.243404
1307.000000	71.258672
1306.000000	71.263253
1305.000000	71.265434
1304.000000	71.259000
1303.000000	71.237624
1302.000000	71.218865
1301.000000	71.194981
1300.000000	71.167170
1299.000000	71.141759
1298.000000	71.103587
1297.000000	71.057563
1296.000000	71.030516
1295.000000	70.990709
1294.000000	70.941631
1293.000000	70.903787
1292.000000	70.852965
1291.000000	70.782293
1290.000000	70.711621
1289.000000	70.627099
1288.000000	70.547048
1287.000000	70.466997
1286.000000	70.365024
1285.000000	70.254327
1284.000000	70.145920
1283.000000	70.043185
1282.000000	69.934560
1281.000000	69.828552
1280.000000	69.721781
1279.000000	69.605194
1278.000000	69.506821
1277.000000	69.420990
1276.000000	69.326543
1275.000000	69.236458
1274.000000	69.159897
1273.000000	69.084863
1272.000000	69.017900
1271.000000	68.942320
1270.000000	68.862269
1269.000000	68.799123
1268.000000	68.732813
1267.000000	68.649818
1266.000000	68.571512
1265.000000	68.485790
1264.000000	68.428860
1263.000000	68.366586
1262.000000	68.298968
1261.000000	68.229932
1260.000000	68.161659
1259.000000	68.088043
1258.000000	67.999813
1257.000000	67.909074
1256.000000	67.828695
1255.000000	67.750826
1254.000000	67.658233
1253.000000	67.555497
1252.000000	67.467375
1251.000000	67.349916
1250.000000	67.239874
1249.000000	67.093513
1248.000000	66.963840
1247.000000	66.834057
1246.000000	66.679190
1245.000000	66.508072
1244.000000	66.309799
1243.000000	66.125049
1242.000000	65.939754
1241.000000	65.739409
1240.000000	65.522595
1239.000000	65.326394
1238.000000	65.106744
1237.000000	64.899419
1236.000000	64.677152
1235.000000	64.443215
1234.000000	64.226947
1233.000000	63.971744
1232.000000	63.756347
1231.000000	63.537789
1230.000000	63.310178
1229.000000	63.060864
1228.000000	62.842632
1227.000000	62.619384
1226.000000	62.399843
1225.000000	62.181394
1224.000000	61.965343
1223.000000	61.756491
1222.000000	61.545675
1221.000000	61.350456
1220.000000	61.169087
1219.000000	60.979647
1218.000000	60.840594
1217.000000	60.698378
1216.000000	60.545802
1215.000000	60.405767
1214.000000	60.269113
1213.000000	60.154054
1212.000000	60.024707
1211.000000	59.890125
1210.000000	59.812474
1209.000000	59.720208
1208.000000	59.636667
1207.000000	59.573630
1206.000000	59.535785
1205.000000	59.492161
1204.000000	59.475147
1203.000000	59.448100
1202.000000	59.404803
1201.000000	59.347764
1200.000000	59.289525
1199.000000	59.176974
1198.000000	59.031377
1197.000000	58.816199
1196.000000	58.569721
1195.000000	58.234248
1194.000000	57.847299
1193.000000	57.387933
1192.000000	56.885269
1191.000000	56.355231
1190.000000	55.898810
1189.000000	55.535636
1188.000000	55.284468
1187.000000	55.161447
1186.000000	55.181950
1185.000000	55.346742
1184.000000	55.648514
1183.000000	56.077234
1182.000000	56.587423
1181.000000	57.103610
1180.000000	57.649789
1179.000000	58.099666
1178.000000	58.535802
1177.000000	58.900285
1176.000000	59.243065
1175.000000	59.539384
1174.000000	59.871258
1173.000000	60.221781
1172.000000	60.591171
1171.000000	60.953800
1170.000000	61.357109
1169.000000	61.719955
1168.000000	62.104724
1167.000000	62.499525
1166.000000	62.922901
1165.000000	63.353584
1164.000000	63.767145
1163.000000	64.184195
1162.000000	64.588376
1161.000000	64.974998
1160.000000	65.364456
1159.000000	65.738645
1158.000000	66.067029
1157.000000	66.364875
1156.000000	66.610263
1155.000000	66.760658
1154.000000	66.838310
1153.000000	66.880408
1152.000000	66.873537
1151.000000	66.818134
1150.000000	66.752043
1149.000000	66.706673
1148.000000	66.673191
1147.000000	66.720851
1146.000000	66.870919
1145.000000	67.064721
1144.000000	67.345663
1143.000000	67.681245
1142.000000	68.011700
1141.000000	68.394178
1140.000000	68.776656
1139.000000	69.162297
1138.000000	69.571604
1137.000000	69.993344
1136.000000	70.414320
1135.000000	70.826244
1134.000000	71.195962
1133.000000	71.470797
1132.000000	71.751629
1131.000000	72.037806
1130.000000	72.289956
1129.000000	72.452239
1128.000000	72.600017
1127.000000	72.698717
1126.000000	72.792401
1125.000000	72.863073
1124.000000	72.927310
1123.000000	72.980750
1122.000000	73.029391
1121.000000	73.033317
1120.000000	73.060147
1119.000000	73.043460
1118.000000	73.031463
1117.000000	73.014559
1116.000000	72.971698
1115.000000	72.933308
1114.000000	72.897863
1113.000000	72.858710
1112.000000	72.816722
1111.000000	72.775824
1110.000000	72.735907
1109.000000	72.689993
1108.000000	72.644405
1107.000000	72.589111
1106.000000	72.532181
1105.000000	72.497390
1104.000000	72.433371
1103.000000	72.379713
1102.000000	72.308823
1101.000000	72.241533
1100.000000	72.165517
1099.000000	72.093209
1098.000000	72.002907
1097.000000	71.929290
1096.000000	71.838660
1095.000000	71.750648
1094.000000	71.661654
1093.000000	71.563390
1092.000000	71.457927
1091.000000	71.337851
1090.000000	71.253765
1089.000000	71.138814
1088.000000	71.038696
1087.000000	70.926145
1086.000000	70.807704
1085.000000	70.709658
1084.000000	70.588491
1083.000000	70.476703
1082.000000	70.364152
1081.000000	70.268832
1080.000000	70.164461
1079.000000	70.065215
1078.000000	69.967605
1077.000000	69.863343
1076.000000	69.767914
1075.000000	69.673140
1074.000000	69.586872
1073.000000	69.480865
1072.000000	69.389144
1071.000000	69.309420
1070.000000	69.209193
1069.000000	69.128270
1068.000000	69.041675
1067.000000	68.947555
1066.000000	68.855289
1065.000000	68.765423
1064.000000	68.670430
1063.000000	68.606957
1062.000000	68.517526
1061.000000	68.429078
1060.000000	68.337575
1059.000000	68.247382
1058.000000	68.165040
1057.000000	68.074520
1056.000000	67.968076
1055.000000	67.876246
1054.000000	67.793796
1053.000000	67.696731
1052.000000	67.616571
1051.000000	67.544373
1050.000000	67.448944
1049.000000	67.364749
1048.000000	67.290369
1047.000000	67.224823
1046.000000	67.138228
1045.000000	67.053706
1044.000000	66.990341
1043.000000	66.910945
1042.000000	66.820315
1041.000000	66.742881
1040.000000	66.672101
1039.000000	66.599030
1038.000000	66.504255
1037.000000	66.412099
1036.000000	66.328449
1035.000000	66.245780
1034.000000	66.160167
1033.000000	66.049906
1032.000000	65.941499
1031.000000	65.848361
1030.000000	65.741481
1029.000000	65.640490
1028.000000	65.547243
1027.000000	65.435891
1026.000000	65.327048
1025.000000	65.223767
1024.000000	65.122994
1023.000000	65.016878
1022.000000	64.919050
1021.000000	64.827547
1020.000000	64.744006
1019.000000	64.648360
1018.000000	64.550750
1017.000000	64.490112
1016.000000	64.421839
1015.000000	64.347787
1014.000000	64.312560
1013.000000	64.264137
1012.000000	64.219094
1011.000000	64.197391
1010.000000	64.169035
1009.000000	64.153440
1008.000000	64.139480
1007.000000	64.117013
1006.000000	64.094874
1005.000000	64.083204
1004.000000	64.068699
1003.000000	64.060738
1002.000000	64.050050
1001.000000	64.026274
1000.000000	64.024856
999.000000	64.014386
998.000000	64.003153
997.000000	64.012205
996.000000	64.014496
995.000000	64.013296
994.000000	64.015041
993.000000	64.011660
992.000000	64.021148
991.000000	64.021912
990.000000	64.018204
989.000000	64.012751
988.000000	64.037726
987.000000	64.052449
986.000000	64.051249
985.000000	64.072080
984.000000	64.099781
983.000000	64.111124
982.000000	64.118976
981.000000	64.133590
980.000000	64.159002
979.000000	64.156384
978.000000	64.178087
977.000000	64.188557
976.000000	64.221930
975.000000	64.225311
974.000000	64.236653
973.000000	64.260647
972.000000	64.285731
971.000000	64.282350
970.000000	64.281696
969.000000	64.316377
968.000000	64.363273
967.000000	64.373525
966.000000	64.402426
965.000000	64.426856
964.000000	64.469717
963.000000	64.508325
962.000000	64.566346
961.000000	64.628510
960.000000	64.677697
959.000000	64.743243
958.000000	64.813369
957.000000	64.860048
956.000000	64.901709
955.000000	64.952204
954.000000	65.001500
953.000000	65.091476
952.000000	65.137281
951.000000	65.181996
950.000000	65.231947
949.000000	65.291712
948.000000	65.345479
947.000000	65.430874
946.000000	65.486823
945.000000	65.537318
944.000000	65.622931
943.000000	65.693058
942.000000	65.730575
941.000000	65.805173
940.000000	65.897438
939.000000	65.975090
938.000000	66.037037
937.000000	66.124722
936.000000	66.184815
935.000000	66.316452
934.000000	66.402828
933.000000	66.476772
932.000000	66.546135
931.000000	66.634584
930.000000	66.760767
929.000000	66.820206
928.000000	66.870265
927.000000	66.989469
926.000000	67.035820
925.000000	67.097549
924.000000	67.157969
923.000000	67.229295
922.000000	67.273683
921.000000	67.351225
920.000000	67.404992
919.000000	67.542628
918.000000	67.576110
917.000000	67.617553
916.000000	67.645691
915.000000	67.729122
914.000000	67.746681
913.000000	67.825424
912.000000	67.868939
911.000000	67.927832
910.000000	67.978546
909.000000	68.024351
908.000000	68.112364
907.000000	68.193287
906.000000	68.228296
905.000000	68.317726
904.000000	68.414682
903.000000	68.498768
902.000000	68.575438
901.000000	68.675883
900.000000	68.788871
899.000000	68.891388
898.000000	68.951372
897.000000	68.953008
896.000000	69.056289
895.000000	69.118999
894.000000	69.185418
893.000000	69.160770
892.000000	69.242348
891.000000	69.278556
890.000000	69.301132
889.000000	69.271031
888.000000	69.285972
887.000000	69.276266
886.000000	69.258816
885.000000	69.230896
884.000000	69.193379
883.000000	69.132305
882.000000	69.086281
881.000000	68.986054
880.000000	68.932832
879.000000	68.817336
878.000000	68.786690
877.000000	68.607393
876.000000	68.405302
875.000000	68.125560
874.000000	67.902312
873.000000	67.729341
872.000000	67.679936
871.000000	67.894677
870.000000	68.131231
869.000000	68.370839
868.000000	68.620262
867.000000	68.879937
866.000000	69.128597
865.000000	69.390453
864.000000	69.695170
863.000000	69.949392
862.000000	70.247347
861.000000	70.512475
860.000000	70.822209
859.000000	71.121691
858.000000	72.540033
857.000000	72.537100
856.000000	72.428300
855.000000	72.654700
854.000000	73.342800
853.000000	73.445700
852.000000	74.108000
851.000000	74.450700
850.000000	74.520500
849.000000	74.816900
848.000000	75.227000
847.000000	75.756400
846.000000	76.167500
845.000000	76.671200
844.000000	77.166500
843.000000	77.445300
842.000000	77.443900
841.000000	77.889500
840.000000	78.365000
839.000000	78.850700
838.000000	79.391200
837.000000	79.613800
836.000000	80.033800
835.000000	80.437200
834.000000	80.690200
833.000000	81.299500
832.000000	81.827100
831.000000	82.111400
830.000000	82.500800
829.000000	82.916600
828.000000	83.596000
827.000000	84.066900
826.000000	84.448000
825.000000	85.096000
824.000000	85.427100
823.000000	85.994100
822.000000	86.264900
821.000000	86.614200
820.000000	87.283300
819.000000	87.683300
818.000000	88.163600
817.000000	88.521700
816.000000	88.912200
815.000000	89.345200
814.000000	90.032900
813.000000	90.288900
812.000000	90.788600
811.000000	91.162000
810.000000	91.455700
809.000000	91.807900
808.000000	92.133900
807.000000	92.557300
806.000000	92.883200
805.000000	93.020200
804.000000	93.517000
803.000000	93.670900
802.000000	93.821300
801.000000	94.107700
800.000000	94.344100
799.000000	94.719100
798.000000	94.944000
797.000000	95.065100
796.000000	95.136800
795.000000	95.263900
794.000000	95.382600
793.000000	95.431500
792.000000	95.670700
791.000000	95.798400
790.000000	95.801500
789.000000	95.854000
788.000000	95.826600
787.000000	95.902900
786.000000	95.931100
785.000000	96.034300
784.000000	96.018400
783.000000	95.980000
782.000000	96.099800
781.000000	96.056400
780.000000	96.022100
779.000000	96.076300
778.000000	96.095500
777.000000	96.107600
776.000000	96.149600
775.000000	96.189800
774.000000	96.118500
773.000000	96.113800
772.000000	96.132100
771.000000	96.095700
770.000000	96.057300
769.000000	95.943800
768.000000	95.991400
767.000000	96.034200
766.000000	95.990300
765.000000	95.969700
764.000000	95.951900
763.000000	95.925700
762.000000	95.794000
761.000000	95.744100
760.000000	95.760100
759.000000	95.660200
758.000000	95.577900
757.000000	95.387400
756.000000	95.352200
755.000000	95.360500
754.000000	95.159700
753.000000	95.091000
752.000000	95.029100
751.000000	94.921900
750.000000	94.834300
749.000000	94.748100
748.000000	94.612200
747.000000	94.427300
746.000000	94.287800
745.000000	94.096400
744.000000	93.910000
743.000000	93.687000
742.000000	93.530500
741.000000	93.370600
740.000000	93.053200
739.000000	92.794900
738.000000	92.610600
737.000000	92.293400
736.000000	92.004500
735.000000	91.774700
734.000000	91.428500
733.000000	91.007600
732.000000	90.670200
731.000000	90.384500
730.000000	89.945700
729.000000	89.457100
728.000000	89.084900
727.000000	88.642800
726.000000	88.185200
725.000000	87.674000
724.000000	87.133400
723.000000	86.594900
722.000000	86.076100
721.000000	85.608400
720.000000	85.088800
719.000000	84.607800
718.000000	84.064000
717.000000	83.525200
716.000000	83.013100
715.000000	82.476100
714.000000	81.948900
713.000000	81.436900
712.000000	80.991500
711.000000	80.562800
710.000000	80.157500
709.000000	79.782300
708.000000	79.334900
707.000000	78.935600
706.000000	78.535200
705.000000	78.178400
704.000000	77.779200
703.000000	77.450400
702.000000	77.133600
701.000000	76.793300
700.000000	76.410500
699.000000	76.110400
698.000000	75.794800
697.000000	75.519500
696.000000	75.277100
695.000000	75.078400
694.000000	74.778600
693.000000	74.404800
692.000000	74.125500
691.000000	73.809900
690.000000	73.589400
689.000000	73.370800
688.000000	73.050300
687.000000	72.813100
686.000000	72.541200
685.000000	72.344300
684.000000	72.127600
683.000000	71.880300
682.000000	71.651000
681.000000	71.469400
680.000000	71.238700
679.000000	71.002400
678.000000	70.857500
677.000000	70.666000
676.000000	70.498500
675.000000	70.318000
674.000000	70.108900
673.000000	69.956700
672.000000	69.832700
671.000000	69.662500
670.000000	69.531900
669.000000	69.431500
668.000000	69.326200
667.000000	69.159500
666.000000	69.066600
665.000000	68.888100
664.000000	68.793400
663.000000	68.696600
662.000000	68.569400
661.000000	68.448400
660.000000	68.313800
659.000000	68.145700
658.000000	68.018500
657.000000	67.916100
656.000000	67.741300
655.000000	67.573200
654.000000	67.453200
653.000000	67.268200
652.000000	67.159200
651.000000	66.979500
650.000000	66.767500
649.000000	66.627700
648.000000	66.477400
647.000000	66.228800
646.000000	66.048400
645.000000	65.802000
644.000000	65.633300
643.000000	65.387600
642.000000	65.233900
641.000000	65.009800
640.000000	64.809400
639.000000	64.641500
638.000000	64.451600
637.000000	64.296200
636.000000	64.139100
635.000000	64.022900
634.000000	63.918900
633.000000	63.806000
632.000000	63.811500
631.000000	63.714800
630.000000	63.682700
629.000000	63.777600
628.000000	63.747900
627.000000	63.847100
626.000000	64.006900
625.000000	64.149900
624.000000	64.300500
623.000000	64.507800
622.000000	64.782000
621.000000	65.036600
620.000000	65.351200
619.000000	65.710700
618.000000	66.000600
617.000000	66.471100
616.000000	66.917500
615.000000	67.300700
614.000000	67.760400
613.000000	68.322200
612.000000	68.773300
611.000000	69.324000
610.000000	69.800100
609.000000	70.360000
608.000000	70.825100
607.000000	71.335600
606.000000	71.908400
605.000000	72.352500
604.000000	72.907800
603.000000	73.433500
602.000000	73.896200
601.000000	74.414000
600.000000	74.821300
599.000000	75.311300
598.000000	75.690400
597.000000	76.128500
596.000000	76.447400
595.000000	76.805400
594.000000	77.181700
593.000000	77.532300
592.000000	77.822900
591.000000	78.091300
590.000000	78.304900
589.000000	78.421100
588.000000	78.601400
587.000000	78.799300
586.000000	78.888000
585.000000	78.964100
584.000000	79.012900
583.000000	79.049800
582.000000	79.085000
581.000000	79.044300
580.000000	78.989300
579.000000	78.931800
578.000000	78.895200
577.000000	78.732800
576.000000	78.593300
575.000000	78.461700
574.000000	78.285900
573.000000	78.131600
572.000000	77.915800
571.000000	77.762500
570.000000	77.535500
569.000000	77.325500
568.000000	77.054500
567.000000	76.872000
566.000000	76.612100
565.000000	76.297300
564.000000	76.028300
563.000000	75.738500
562.000000	75.423000
561.000000	75.024800
560.000000	74.657200
559.000000	74.170200
558.000000	73.725000
557.000000	73.289900
556.000000	72.901200
555.000000	72.392100
554.000000	71.899000
553.000000	71.333500
552.000000	70.783500
551.000000	70.232200
550.000000	69.639900
549.000000	69.036200
548.000000	68.429500
547.000000	67.855200
546.000000	67.227400
545.000000	66.545400
544.000000	65.839500
543.000000	65.189400
542.000000	64.461300
541.000000	63.732100
540.000000	62.998500
539.000000	62.282100
538.000000	61.502100
537.000000	60.735600
536.000000	59.923400
535.000000	59.132100
534.000000	58.307800
533.000000	57.462300
532.000000	56.633100
531.000000	55.783700
530.000000	54.932000
529.000000	54.075600
528.000000	53.210100
527.000000	52.356400
526.000000	51.473100
525.000000	50.606200
524.000000	49.766800
523.000000	48.893700
522.000000	48.038900
521.000000	47.187800
520.000000	46.345800
519.000000	45.490100
518.000000	44.667600
517.000000	43.867100
516.000000	43.098700
515.000000	42.340900
514.000000	41.594000
513.000000	40.865700
512.000000	40.150700
511.000000	39.464300
510.000000	38.789600
509.000000	38.186200
508.000000	37.606500
507.000000	37.037600
506.000000	36.489500
505.000000	35.950400
504.000000	35.432800
503.000000	34.960000
502.000000	34.510200
501.000000	34.085400
500.000000	33.689400
499.000000	33.291900
498.000000	32.885500
497.000000	32.531800
496.000000	32.196900
495.000000	31.878800
494.000000	31.589900
493.000000	31.286300
492.000000	31.037200
491.000000	30.782500
490.000000	30.537500
489.000000	30.283600
488.000000	30.077900
487.000000	29.872000
486.000000	29.667400
485.000000	29.468600
484.000000	29.275600
483.000000	29.087300
482.000000	28.906400
481.000000	28.759100
480.000000	28.582600
479.000000	28.425200
478.000000	28.262900
477.000000	28.112200
476.000000	27.966300
475.000000	27.817700
474.000000	27.675300
473.000000	27.534300
472.000000	27.416300
471.000000	27.291000
470.000000	27.150800
469.000000	27.016500
468.000000	26.905000
467.000000	26.796900
466.000000	26.701200
465.000000	26.600100
464.000000	26.506800
463.000000	26.415800
462.000000	26.322200
461.000000	26.228700
460.000000	26.132100
459.000000	26.057700
458.000000	25.988800
457.000000	25.936700
456.000000	25.872900
455.000000	25.813600
454.000000	25.787100
453.000000	25.735100
452.000000	25.686600
451.000000	25.638300
450.000000	25.584300
449.000000	25.507700
448.000000	25.416800
447.000000	25.369500
446.000000	25.321400
445.000000	25.235800
444.000000	25.138400
443.000000	25.035300
442.000000	24.916900
441.000000	24.796300
440.000000	24.650100
439.000000	24.493100
438.000000	24.348800
437.000000	24.168900
436.000000	23.980700
435.000000	23.759100
434.000000	23.562000
433.000000	23.356600
432.000000	23.099400
431.000000	22.838100
430.000000	22.578000
429.000000	22.316700
428.000000	22.056500
427.000000	21.742000
426.000000	21.426300
425.000000	21.125600
424.000000	20.801400
423.000000	20.469300
422.000000	20.126500
421.000000	19.747300
420.000000	19.389600
419.000000	19.053100
418.000000	18.676700
417.000000	18.309900
416.000000	17.950500
415.000000	17.572300
414.000000	17.180400
413.000000	16.804200
412.000000	16.433900
411.000000	16.077900
410.000000	15.690700
409.000000	15.325100
408.000000	14.958900
407.000000	14.563600
406.000000	14.222700
405.000000	13.875300
404.000000	13.532600
403.000000	13.197700
402.000000	12.861400
401.000000	12.526000
400.000000	12.195700
399.000000	11.863400
398.000000	11.551400
397.000000	11.254200
396.000000	10.974300
395.000000	10.703800
394.000000	10.429000
393.000000	10.172800
392.000000	9.925300
391.000000	9.660500
390.000000	9.425700
389.000000	9.205000
388.000000	8.997100
387.000000	8.791400
386.000000	8.611900
385.000000	8.435600
384.000000	8.262700
383.000000	8.110400
382.000000	7.925500
381.000000	7.782000
380.000000	7.634100
379.000000	7.517400
378.000000	7.400100
377.000000	7.294600
376.000000	7.039700
375.000000	6.927000
374.000000	6.834100
373.000000	6.764300
372.000000	6.758100
371.000000	6.693100
370.000000	6.637900
369.000000	6.631100
368.000000	6.555300
367.000000	6.442500
366.000000	6.412400
365.000000	6.412400
364.000000	6.315900
363.000000	6.274700
362.000000	6.259300
361.000000	6.277600
360.000000	6.187600
359.000000	6.172800
358.000000	6.089400
357.000000	6.096300
356.000000	6.051300
355.000000	5.978900
354.000000	5.975200
353.000000	6.009100
352.000000	5.837800
351.000000	5.768900
350.000000	5.876200
349.000000	5.869400
348.000000	5.803800
347.000000	5.762800
346.000000	5.718300
345.000000	5.832700
344.000000	5.740400
343.000000	5.824800
342.000000	5.840700
341.000000	5.713500
340.000000	5.630800
339.000000	5.646500
338.000000	5.718500
337.000000	5.557000
336.000000	5.585000
335.000000	5.712500
334.000000	5.666600
333.000000	5.730100
332.000000	5.664200
331.000000	5.541800
330.000000	5.578200
329.000000	5.573100
328.000000	5.569900
327.000000	5.615200
326.000000	5.601200
325.000000	5.565900
324.000000	5.713900
323.000000	5.506000
322.000000	5.482200
321.000000	5.602700
320.000000	5.469500
319.000000	5.545100
318.000000	5.738400
317.000000	5.831700
316.000000	5.672000
315.000000	5.615100
314.000000	5.611900
313.000000	5.614900
312.000000	5.645900
311.000000	5.618400
310.000000	5.605500
309.000000	5.622500
308.000000	5.609200
307.000000	5.685500
306.000000	5.644300
305.000000	5.611800
304.000000	5.617200
303.000000	5.647600
302.000000	5.659900
301.000000	5.677500
300.000000	5.661400
299.000000	5.681100
298.000000	5.642800
297.000000	5.665900
296.000000	5.709800
295.000000	5.695000
294.000000	5.671000
293.000000	5.679100
292.000000	5.683800
291.000000	5.724100
290.000000	5.723700
289.000000	5.690700
288.000000	5.737000
287.000000	5.691800
286.000000	5.711900
285.000000	5.724300
284.000000	5.718200
283.000000	5.763100
282.000000	5.744400
281.000000	5.763600
280.000000	5.765100
279.000000	5.794500
278.000000	5.835300
277.000000	5.783300
276.000000	5.789100
275.000000	5.805700
274.000000	5.878800
273.000000	5.850500
272.000000	5.876900
271.000000	5.864600
270.000000	5.927600
269.000000	5.910600
268.000000	5.942100
267.000000	5.981000
266.000000	5.943900
265.000000	5.989600
264.000000	6.049300
263.000000	6.049600
262.000000	6.064800
261.000000	6.070400
260.000000	6.123200
259.000000	6.100000
258.000000	6.125600
257.000000	6.172800
256.000000	6.186000
255.000000	6.172800
254.000000	6.182600
253.000000	6.211200
252.000000	6.204700
251.000000	6.203100
250.000000	6.216400
