PE UV       SUBTECH     SPECTRUM    ASCII       PEDS        4.00        
   -1
CICIMAUCR0205-1.Sample.ASC
24/05/31
12:07:00.00
24/05/31
12:07:00.00
Vinicio Soto Monge
C. cupreomarginata. Sex F. Dorsal
250,000000
1
Lambda 1050
1050L1511233
PerkinElmer UV WinLab 6.3.2.0749 / 2.02.05 Lambda 900 UV/VIS/NIR, Aug  7 2015 09:38:08

0
0
3350/servo 860,8/2
0
0
UV/VIS
1
1
1
DoubleDePol,CommonBeamDepol,RBeamAtt,SBeamAtt,60mm sphere, WB InGaAs Detector
0
0
0
0
Program
Program
3350/servo 860,8/2
3350/0,2 860,8/0,2
3350/0,2 860,8/0,2
0
15.00
 
 
 
0
 
860,8
319,2
860,8
Front
100
on
S:100 R:100
0
0
0
0
 
0
 
 
 
0
 
 
0
0
0
0
0
 
 
 
 
0
0


0
0
#HDR
-1
-1
#GR
nm
%R
1.0
0.0
2500,000000
-1,000000
2251
8
67,318600
5,349800
#DATA
2500.000000	6.736524
2499.000000	6.652214
2498.000000	6.795416
2497.000000	6.593218
2496.000000	6.657131
2495.000000	6.694369
2494.000000	6.622926
2493.000000	6.568741
2492.000000	6.655666
2491.000000	6.669579
2490.000000	6.633909
2489.000000	6.544160
2488.000000	6.537988
2487.000000	6.573762
2486.000000	6.572403
2485.000000	6.564139
2484.000000	6.487151
2483.000000	6.538825
2482.000000	6.558490
2481.000000	6.496670
2480.000000	6.479201
2479.000000	6.513511
2478.000000	6.556921
2477.000000	6.515603
2476.000000	6.502109
2475.000000	6.491231
2474.000000	6.484118
2473.000000	6.525854
2472.000000	6.453260
2471.000000	6.473867
2470.000000	6.517591
2469.000000	6.513093
2468.000000	6.527842
2467.000000	6.511314
2466.000000	6.490603
2465.000000	6.527214
2464.000000	6.515812
2463.000000	6.553888
2462.000000	6.544160
2461.000000	6.612465
2460.000000	6.596252
2459.000000	6.601587
2458.000000	6.671148
2457.000000	6.667591
2456.000000	6.704411
2455.000000	6.735583
2454.000000	6.750855
2453.000000	6.817173
2452.000000	6.853575
2451.000000	6.868428
2450.000000	6.896462
2449.000000	6.933282
2448.000000	6.982132
2447.000000	7.000123
2446.000000	7.064349
2445.000000	7.098345
2444.000000	7.140605
2443.000000	7.195626
2442.000000	7.231714
2441.000000	7.260270
2440.000000	7.289768
2439.000000	7.336212
2438.000000	7.384120
2437.000000	7.430145
2436.000000	7.444581
2435.000000	7.467489
2434.000000	7.515710
2433.000000	7.560585
2432.000000	7.597405
2431.000000	7.624916
2430.000000	7.657133
2429.000000	7.659539
2428.000000	7.673661
2427.000000	7.701903
2426.000000	7.749707
2425.000000	7.790502
2424.000000	7.794058
2423.000000	7.820941
2422.000000	7.835586
2421.000000	7.851276
2420.000000	7.879728
2419.000000	7.917385
2418.000000	7.923348
2417.000000	7.933180
2416.000000	7.963097
2415.000000	7.979415
2414.000000	7.992490
2413.000000	8.022302
2412.000000	8.037365
2411.000000	8.049080
2410.000000	8.071256
2409.000000	8.081402
2408.000000	8.093222
2407.000000	8.110691
2406.000000	8.139771
2405.000000	8.149080
2404.000000	8.173453
2403.000000	8.191968
2402.000000	8.212993
2401.000000	8.228055
2400.000000	8.251696
2399.000000	8.267805
2398.000000	8.285796
2397.000000	8.302428
2396.000000	8.326487
2395.000000	8.346152
2394.000000	8.361947
2393.000000	8.377637
2392.000000	8.398872
2391.000000	8.416654
2390.000000	8.416027
2389.000000	8.425441
2388.000000	8.448140
2387.000000	8.452638
2386.000000	8.455776
2385.000000	8.456299
2384.000000	8.460064
2383.000000	8.469060
2382.000000	8.466654
2381.000000	8.464772
2380.000000	8.456717
2379.000000	8.450441
2378.000000	8.449081
2377.000000	8.436947
2376.000000	8.422512
2375.000000	8.438307
2374.000000	8.426696
2373.000000	8.402638
2372.000000	8.381926
2371.000000	8.365399
2370.000000	8.347407
2369.000000	8.325859
2368.000000	8.282344
2367.000000	8.259436
2366.000000	8.245106
2365.000000	8.214248
2364.000000	8.167909
2363.000000	8.119478
2362.000000	8.075649
2361.000000	8.027846
2360.000000	7.998452
2359.000000	7.975858
2358.000000	7.933076
2357.000000	7.884331
2356.000000	7.864456
2355.000000	7.856506
2354.000000	7.824184
2353.000000	7.795418
2352.000000	7.789456
2351.000000	7.800648
2350.000000	7.798452
2349.000000	7.810377
2348.000000	7.829310
2347.000000	7.836946
2346.000000	7.874080
2345.000000	7.907030
2344.000000	7.922720
2343.000000	7.947825
2342.000000	7.982448
2341.000000	8.006298
2340.000000	8.022825
2339.000000	8.030461
2338.000000	8.038306
2337.000000	8.055775
2336.000000	8.055879
2335.000000	8.059227
2334.000000	8.053787
2333.000000	8.034017
2332.000000	8.000335
2331.000000	7.971360
2330.000000	7.950021
2329.000000	7.927741
2328.000000	7.882657
2327.000000	7.830565
2326.000000	7.794791
2325.000000	7.750021
2324.000000	7.693117
2323.000000	7.621045
2322.000000	7.564351
2321.000000	7.509853
2320.000000	7.438200
2319.000000	7.375752
2318.000000	7.286003
2317.000000	7.213304
2316.000000	7.155040
2315.000000	7.090396
2314.000000	7.027006
2313.000000	6.955249
2312.000000	6.873659
2311.000000	6.816127
2310.000000	6.774809
2309.000000	6.735897
2308.000000	6.700436
2307.000000	6.660583
2306.000000	6.658281
2305.000000	6.653574
2304.000000	6.655980
2303.000000	6.679307
2302.000000	6.684014
2301.000000	6.737675
2300.000000	6.774914
2299.000000	6.833491
2298.000000	6.864140
2297.000000	6.913094
2296.000000	6.965604
2295.000000	7.006609
2294.000000	7.072613
2293.000000	7.113827
2292.000000	7.161944
2291.000000	7.191337
2290.000000	7.192488
2289.000000	7.222718
2288.000000	7.236630
2287.000000	7.239873
2286.000000	7.238618
2285.000000	7.230982
2284.000000	7.204413
2283.000000	7.189141
2282.000000	7.154203
2281.000000	7.115919
2280.000000	7.097090
2279.000000	7.052843
2278.000000	7.022195
2277.000000	6.998554
2276.000000	6.951797
2275.000000	6.924705
2274.000000	6.909537
2273.000000	6.905562
2272.000000	6.871357
2271.000000	6.872508
2270.000000	6.889663
2269.000000	6.908073
2268.000000	6.916650
2267.000000	6.958178
2266.000000	7.015500
2265.000000	7.082864
2264.000000	7.149601
2263.000000	7.249915
2262.000000	7.351798
2261.000000	7.437049
2260.000000	7.563932
2259.000000	7.732761
2258.000000	7.862573
2257.000000	8.014561
2256.000000	8.175754
2255.000000	8.346361
2254.000000	8.482659
2253.000000	8.670525
2252.000000	8.840191
2251.000000	8.994062
2250.000000	9.169167
2249.000000	9.312368
2248.000000	9.422619
2247.000000	9.564879
2246.000000	9.689356
2245.000000	9.775654
2244.000000	9.905361
2243.000000	10.028793
2242.000000	10.106094
2241.000000	10.197831
2240.000000	10.278793
2239.000000	10.350237
2238.000000	10.464359
2237.000000	10.494903
2236.000000	10.573773
2235.000000	10.626493
2234.000000	10.683188
2233.000000	10.727016
2232.000000	10.785489
2231.000000	10.806305
2230.000000	10.833606
2229.000000	10.867602
2228.000000	10.899192
2227.000000	10.911954
2226.000000	10.945218
2225.000000	10.928481
2224.000000	10.932351
2223.000000	10.943649
2222.000000	10.944172
2221.000000	10.949402
2220.000000	10.952226
2219.000000	10.952540
2218.000000	10.939046
2217.000000	10.911431
2216.000000	10.897519
2215.000000	10.902121
2214.000000	10.884653
2213.000000	10.855991
2212.000000	10.873042
2211.000000	10.853690
2210.000000	10.820426
2209.000000	10.836431
2208.000000	10.824611
2207.000000	10.796054
2206.000000	10.763836
2205.000000	10.769589
2204.000000	10.770531
2203.000000	10.765092
2202.000000	10.753376
2201.000000	10.755050
2200.000000	10.741974
2199.000000	10.729108
2198.000000	10.728794
2197.000000	10.716242
2196.000000	10.721368
2195.000000	10.711849
2194.000000	10.708292
2193.000000	10.694903
2192.000000	10.687372
2191.000000	10.702121
2190.000000	10.688941
2189.000000	10.679526
2188.000000	10.690614
2187.000000	10.681932
2186.000000	10.677434
2185.000000	10.667393
2184.000000	10.646158
2183.000000	10.635384
2182.000000	10.630468
2181.000000	10.616765
2180.000000	10.623878
2179.000000	10.616451
2178.000000	10.603689
2177.000000	10.606305
2176.000000	10.618961
2175.000000	10.647309
2174.000000	10.651388
2173.000000	10.631828
2172.000000	10.623564
2171.000000	10.643752
2170.000000	10.688104
2169.000000	10.686849
2168.000000	10.697623
2167.000000	10.705259
2166.000000	10.731409
2165.000000	10.736430
2164.000000	10.775656
2163.000000	10.768230
2162.000000	10.808920
2161.000000	10.840406
2160.000000	10.851703
2159.000000	10.859548
2158.000000	10.884653
2157.000000	10.918021
2156.000000	10.952958
2155.000000	10.976075
2154.000000	10.987372
2153.000000	11.014569
2152.000000	11.049088
2151.000000	11.073251
2150.000000	11.121159
2149.000000	11.133816
2148.000000	11.168754
2147.000000	11.212059
2146.000000	11.223147
2145.000000	11.225030
2144.000000	11.254110
2143.000000	11.288419
2142.000000	11.297624
2141.000000	11.322520
2140.000000	11.330993
2139.000000	11.346369
2138.000000	11.356411
2137.000000	11.353587
2136.000000	11.358712
2135.000000	11.366244
2134.000000	11.392499
2133.000000	11.384758
2132.000000	11.375449
2131.000000	11.375658
2130.000000	11.368231
2129.000000	11.368650
2128.000000	11.361014
2127.000000	11.348461
2126.000000	11.326076
2125.000000	11.329214
2124.000000	11.307143
2123.000000	11.296474
2122.000000	11.268859
2121.000000	11.231829
2120.000000	11.201285
2119.000000	11.183503
2118.000000	11.165302
2117.000000	11.129109
2116.000000	11.105887
2115.000000	11.070532
2114.000000	11.039883
2113.000000	11.029527
2112.000000	10.980887
2111.000000	10.938000
2110.000000	10.908816
2109.000000	10.885699
2108.000000	10.858920
2107.000000	10.825134
2106.000000	10.784234
2105.000000	10.750656
2104.000000	10.726598
2103.000000	10.707978
2102.000000	10.689255
2101.000000	10.647727
2100.000000	10.614673
2099.000000	10.587371
2098.000000	10.560279
2097.000000	10.525028
2096.000000	10.483501
2095.000000	10.469589
2094.000000	10.446785
2093.000000	10.427225
2092.000000	10.408082
2091.000000	10.376701
2090.000000	10.349818
2089.000000	10.327224
2088.000000	10.309128
2087.000000	10.297726
2086.000000	10.264986
2085.000000	10.229002
2084.000000	10.211011
2083.000000	10.188626
2082.000000	10.163835
2081.000000	10.133291
2080.000000	10.101596
2079.000000	10.068751
2078.000000	10.042182
2077.000000	10.022726
2076.000000	9.996575
2075.000000	9.966240
2074.000000	9.923457
2073.000000	9.894273
2072.000000	9.874294
2071.000000	9.840089
2070.000000	9.808394
2069.000000	9.787369
2068.000000	9.751804
2067.000000	9.713101
2066.000000	9.676909
2065.000000	9.639879
2064.000000	9.621469
2063.000000	9.610068
2062.000000	9.576908
2061.000000	9.554419
2060.000000	9.529942
2059.000000	9.506720
2058.000000	9.488728
2057.000000	9.463624
2056.000000	9.468331
2055.000000	9.495737
2054.000000	9.496783
2053.000000	9.491866
2052.000000	9.493854
2051.000000	9.507452
2050.000000	9.554105
2049.000000	9.600967
2048.000000	9.634649
2047.000000	9.676072
2046.000000	9.726490
2045.000000	9.777118
2044.000000	9.822725
2043.000000	9.866554
2042.000000	9.928478
2041.000000	9.978688
2040.000000	10.024399
2039.000000	10.076073
2038.000000	10.132768
2037.000000	10.165508
2036.000000	10.213103
2035.000000	10.268647
2034.000000	10.301283
2033.000000	10.323877
2032.000000	10.367601
2031.000000	10.390614
2030.000000	10.431513
2029.000000	10.446681
2028.000000	10.465509
2027.000000	10.497308
2026.000000	10.513208
2025.000000	10.534129
2024.000000	10.547413
2023.000000	10.551074
2022.000000	10.554003
2021.000000	10.570426
2020.000000	10.572936
2019.000000	10.587999
2018.000000	10.599610
2017.000000	10.597099
2016.000000	10.589359
2015.000000	10.591660
2014.000000	10.581514
2013.000000	10.569798
2012.000000	10.555363
2011.000000	10.545949
2010.000000	10.522413
2009.000000	10.523250
2008.000000	10.500656
2007.000000	10.466346
2006.000000	10.451492
2005.000000	10.425969
2004.000000	10.386325
2003.000000	10.362998
2002.000000	10.336325
2001.000000	10.278375
2000.000000	10.262684
1999.000000	10.215927
1998.000000	10.175341
1997.000000	10.128374
1996.000000	10.085069
1995.000000	10.050968
1994.000000	9.998353
1993.000000	9.947516
1992.000000	9.907453
1991.000000	9.850654
1990.000000	9.782244
1989.000000	9.730361
1988.000000	9.690402
1987.000000	9.637683
1986.000000	9.606616
1985.000000	9.502431
1984.000000	9.456092
1983.000000	9.406197
1982.000000	9.356720
1981.000000	9.295318
1980.000000	9.228267
1979.000000	9.171468
1978.000000	9.124606
1977.000000	9.078058
1976.000000	9.012995
1975.000000	8.961007
1974.000000	8.912472
1973.000000	8.866446
1972.000000	8.795003
1971.000000	8.738622
1970.000000	8.706718
1969.000000	8.655044
1968.000000	8.613412
1967.000000	8.571780
1966.000000	8.513830
1965.000000	8.476696
1964.000000	8.440399
1963.000000	8.390085
1962.000000	8.348453
1961.000000	8.284646
1960.000000	8.249185
1959.000000	8.232344
1958.000000	8.178997
1957.000000	8.142177
1956.000000	8.094792
1955.000000	8.061528
1954.000000	8.029206
1953.000000	7.981716
1952.000000	7.934122
1951.000000	7.890398
1950.000000	7.870732
1949.000000	7.854205
1948.000000	7.812887
1947.000000	7.784749
1946.000000	7.781506
1945.000000	7.728786
1944.000000	7.708703
1943.000000	7.714247
1942.000000	7.708284
1941.000000	7.701067
1940.000000	7.685481
1939.000000	7.668117
1938.000000	7.683493
1937.000000	7.690397
1936.000000	7.679832
1935.000000	7.709330
1934.000000	7.702008
1933.000000	7.739037
1932.000000	7.764665
1931.000000	7.785795
1930.000000	7.837887
1929.000000	7.864352
1928.000000	7.912364
1927.000000	7.970314
1926.000000	8.019478
1925.000000	8.083494
1924.000000	8.137992
1923.000000	8.217386
1922.000000	8.288202
1921.000000	8.382449
1920.000000	8.445838
1919.000000	8.530253
1918.000000	8.632241
1917.000000	8.745212
1916.000000	8.817701
1915.000000	8.925547
1914.000000	9.052116
1913.000000	9.193330
1912.000000	9.339146
1911.000000	9.434962
1910.000000	9.567390
1909.000000	9.703373
1908.000000	9.808290
1907.000000	9.977328
1906.000000	10.161638
1905.000000	10.337998
1904.000000	10.529108
1903.000000	10.710489
1902.000000	10.872623
1901.000000	11.070427
1900.000000	11.270428
1899.000000	11.488838
1898.000000	11.707249
1897.000000	11.953588
1896.000000	12.159970
1895.000000	12.348778
1894.000000	12.581937
1893.000000	12.811436
1892.000000	13.077127
1891.000000	13.382776
1890.000000	13.668342
1889.000000	13.975665
1888.000000	14.289160
1887.000000	14.566566
1886.000000	14.909873
1885.000000	15.281422
1884.000000	15.715942
1883.000000	16.181738
1882.000000	16.630275
1881.000000	17.096489
1880.000000	17.538959
1879.000000	17.963123
1878.000000	18.435405
1877.000000	18.881536
1876.000000	19.294403
1875.000000	19.706329
1874.000000	20.099740
1873.000000	20.500682
1872.000000	20.865955
1871.000000	21.212818
1870.000000	21.517317
1869.000000	21.805811
1868.000000	22.065436
1867.000000	22.261043
1866.000000	22.441273
1865.000000	22.574642
1864.000000	22.717216
1863.000000	22.844203
1862.000000	22.978095
1861.000000	23.123702
1860.000000	23.248807
1859.000000	23.329246
1858.000000	23.402050
1857.000000	23.471192
1856.000000	23.526737
1855.000000	23.551632
1854.000000	23.588766
1853.000000	23.587615
1852.000000	23.580084
1851.000000	23.584477
1850.000000	23.581235
1849.000000	23.572971
1848.000000	23.556235
1847.000000	23.536151
1846.000000	23.488034
1845.000000	23.435105
1844.000000	23.403096
1843.000000	23.383535
1842.000000	23.385209
1841.000000	23.400690
1840.000000	23.368996
1839.000000	23.343995
1838.000000	23.306548
1837.000000	23.276945
1836.000000	23.233117
1835.000000	23.165962
1834.000000	23.100271
1833.000000	23.045878
1832.000000	23.000166
1831.000000	22.938973
1830.000000	22.877572
1829.000000	22.820563
1828.000000	22.738868
1827.000000	22.665542
1826.000000	22.603512
1825.000000	22.536880
1824.000000	22.475165
1823.000000	22.436043
1822.000000	22.416692
1821.000000	22.403930
1820.000000	22.367319
1819.000000	22.320039
1818.000000	22.285311
1817.000000	22.264285
1816.000000	22.252256
1815.000000	22.231440
1814.000000	22.211147
1813.000000	22.196712
1812.000000	22.186670
1811.000000	22.163030
1810.000000	22.118574
1809.000000	22.073072
1808.000000	22.038239
1807.000000	22.005917
1806.000000	21.957904
1805.000000	21.898699
1804.000000	21.854661
1803.000000	21.815016
1802.000000	21.770456
1801.000000	21.722861
1800.000000	21.655288
1799.000000	21.592422
1798.000000	21.540434
1797.000000	21.495350
1796.000000	21.449325
1795.000000	21.392003
1794.000000	21.342316
1793.000000	21.295141
1792.000000	21.237191
1791.000000	21.172232
1790.000000	21.119199
1789.000000	21.056960
1788.000000	20.994303
1787.000000	20.935725
1786.000000	20.869930
1785.000000	20.799010
1784.000000	20.734260
1783.000000	20.680181
1782.000000	20.597649
1781.000000	20.508214
1780.000000	20.437816
1779.000000	20.375787
1778.000000	20.295347
1777.000000	20.205180
1776.000000	20.123171
1775.000000	20.034991
1774.000000	19.931225
1773.000000	19.822333
1772.000000	19.720659
1771.000000	19.605596
1770.000000	19.486245
1769.000000	19.383943
1768.000000	19.290428
1767.000000	19.195030
1766.000000	19.101725
1765.000000	19.026725
1764.000000	18.969402
1763.000000	18.935929
1762.000000	18.926306
1761.000000	18.959360
1760.000000	18.992833
1759.000000	19.040114
1758.000000	19.107373
1757.000000	19.180281
1756.000000	19.244298
1755.000000	19.303085
1754.000000	19.351098
1753.000000	19.382374
1752.000000	19.403399
1751.000000	19.406537
1750.000000	19.389592
1749.000000	19.365638
1748.000000	19.330700
1747.000000	19.287604
1746.000000	19.213127
1745.000000	19.118670
1744.000000	18.999319
1743.000000	18.873481
1742.000000	18.705803
1741.000000	18.523899
1740.000000	18.322852
1739.000000	18.134672
1738.000000	17.952245
1737.000000	17.771596
1736.000000	17.604336
1735.000000	17.466155
1734.000000	17.383833
1733.000000	17.336343
1732.000000	17.331009
1731.000000	17.362076
1730.000000	17.442306
1729.000000	17.532264
1728.000000	17.631637
1727.000000	17.732370
1726.000000	17.823897
1725.000000	17.907475
1724.000000	17.978605
1723.000000	18.026408
1722.000000	18.066366
1721.000000	18.114484
1720.000000	18.137705
1719.000000	18.170237
1718.000000	18.212706
1717.000000	18.267517
1716.000000	18.296179
1715.000000	18.366262
1714.000000	18.450154
1713.000000	18.524004
1712.000000	18.575050
1711.000000	18.604443
1710.000000	18.657895
1709.000000	18.679129
1708.000000	18.668460
1707.000000	18.657163
1706.000000	18.643983
1705.000000	18.610928
1704.000000	18.545970
1703.000000	18.487811
1702.000000	18.414589
1701.000000	18.316681
1700.000000	18.161764
1699.000000	18.026408
1698.000000	17.902454
1697.000000	17.756219
1696.000000	17.658625
1695.000000	17.624524
1694.000000	17.618457
1693.000000	17.663018
1692.000000	17.777140
1691.000000	17.927245
1690.000000	18.061555
1689.000000	18.190844
1688.000000	18.306430
1687.000000	18.368773
1686.000000	18.392936
1685.000000	18.420551
1684.000000	18.484254
1683.000000	18.588648
1682.000000	18.792519
1681.000000	19.082269
1680.000000	19.489278
1679.000000	19.935514
1678.000000	20.416373
1677.000000	20.935516
1676.000000	21.340224
1675.000000	21.764807
1674.000000	22.118574
1673.000000	22.430604
1672.000000	22.686776
1671.000000	22.932802
1670.000000	23.141589
1669.000000	23.311255
1668.000000	23.469937
1667.000000	23.604247
1666.000000	23.699959
1665.000000	23.798808
1664.000000	23.892323
1663.000000	23.939813
1662.000000	24.020880
1661.000000	24.080504
1660.000000	24.124437
1659.000000	24.170567
1658.000000	24.210420
1657.000000	24.226111
1656.000000	24.232910
1655.000000	24.264186
1654.000000	24.233119
1653.000000	24.247241
1652.000000	24.207073
1651.000000	24.213140
1650.000000	24.167533
1649.000000	24.163245
1648.000000	24.114500
1647.000000	24.081236
1646.000000	24.028307
1645.000000	23.983851
1644.000000	23.921403
1643.000000	23.871194
1642.000000	23.816486
1641.000000	23.764499
1640.000000	23.702678
1639.000000	23.677365
1638.000000	23.578829
1637.000000	23.536046
1636.000000	23.474644
1635.000000	23.403410
1634.000000	23.334686
1633.000000	23.261778
1632.000000	23.182803
1631.000000	23.125689
1630.000000	23.049957
1629.000000	22.994831
1628.000000	22.884475
1627.000000	22.791274
1626.000000	22.723178
1625.000000	22.656546
1624.000000	22.576211
1623.000000	22.498491
1622.000000	22.416587
1621.000000	22.345980
1620.000000	22.267005
1619.000000	22.198700
1618.000000	22.114180
1617.000000	22.032799
1616.000000	21.977046
1615.000000	21.904243
1614.000000	21.824222
1613.000000	21.760100
1612.000000	21.663970
1611.000000	21.613970
1610.000000	21.538761
1609.000000	21.478928
1608.000000	21.417317
1607.000000	21.352358
1606.000000	21.274429
1605.000000	21.211040
1604.000000	21.140015
1603.000000	21.079554
1602.000000	20.994303
1601.000000	20.921186
1600.000000	20.854867
1599.000000	20.776938
1598.000000	20.720767
1597.000000	20.659365
1596.000000	20.586352
1595.000000	20.521812
1594.000000	20.459992
1593.000000	20.404971
1592.000000	20.360828
1591.000000	20.295452
1590.000000	20.229970
1589.000000	20.187292
1588.000000	20.137711
1587.000000	20.099112
1586.000000	20.037815
1585.000000	20.001309
1584.000000	19.948694
1583.000000	19.909154
1582.000000	19.879865
1581.000000	19.850890
1580.000000	19.801099
1579.000000	19.771287
1578.000000	19.746183
1577.000000	19.714592
1576.000000	19.697751
1575.000000	19.701726
1574.000000	19.693358
1573.000000	19.655806
1572.000000	19.641057
1571.000000	19.642521
1570.000000	19.617626
1569.000000	19.600052
1568.000000	19.628086
1567.000000	19.615324
1566.000000	19.622751
1565.000000	19.639488
1564.000000	19.627877
1563.000000	19.618149
1562.000000	19.617939
1561.000000	19.621496
1560.000000	19.633211
1559.000000	19.626412
1558.000000	19.608316
1557.000000	19.624006
1556.000000	19.630910
1555.000000	19.613755
1554.000000	19.591370
1553.000000	19.579027
1552.000000	19.569613
1551.000000	19.537605
1550.000000	19.518253
1549.000000	19.505805
1548.000000	19.487395
1547.000000	19.465952
1546.000000	19.440010
1545.000000	19.432270
1544.000000	19.422228
1543.000000	19.410408
1542.000000	19.389173
1541.000000	19.378294
1540.000000	19.365219
1539.000000	19.342939
1538.000000	19.326412
1537.000000	19.313859
1536.000000	19.299947
1535.000000	19.287708
1534.000000	19.261662
1533.000000	19.244612
1532.000000	19.219194
1531.000000	19.191579
1530.000000	19.175365
1529.000000	19.147541
1528.000000	19.114068
1527.000000	19.080386
1526.000000	19.049005
1525.000000	19.020867
1524.000000	18.985825
1523.000000	18.946808
1522.000000	18.915009
1521.000000	18.891578
1520.000000	18.845971
1519.000000	18.811870
1518.000000	18.786347
1517.000000	18.736347
1516.000000	18.696807
1515.000000	18.656535
1514.000000	18.594924
1513.000000	18.553606
1512.000000	18.530280
1511.000000	18.484254
1510.000000	18.432267
1509.000000	18.381848
1508.000000	18.330175
1507.000000	18.296388
1506.000000	18.255279
1505.000000	18.199107
1504.000000	18.154860
1503.000000	18.121597
1502.000000	18.069191
1501.000000	18.016471
1500.000000	17.983416
1499.000000	17.936345
1498.000000	17.897433
1497.000000	17.876931
1496.000000	17.840633
1495.000000	17.796596
1494.000000	17.769713
1493.000000	17.735508
1492.000000	17.721805
1491.000000	17.710089
1490.000000	17.682056
1489.000000	17.657369
1488.000000	17.634671
1487.000000	17.613018
1486.000000	17.591679
1485.000000	17.567516
1484.000000	17.564587
1483.000000	17.548059
1482.000000	17.527976
1481.000000	17.522641
1480.000000	17.508729
1479.000000	17.501197
1478.000000	17.503289
1477.000000	17.494712
1476.000000	17.485193
1475.000000	17.495026
1474.000000	17.504649
1473.000000	17.520863
1472.000000	17.527034
1471.000000	17.536449
1470.000000	17.542097
1469.000000	17.542202
1468.000000	17.547536
1467.000000	17.566156
1466.000000	17.575988
1465.000000	17.585507
1464.000000	17.609252
1463.000000	17.642411
1462.000000	17.663332
1461.000000	17.682265
1460.000000	17.723478
1459.000000	17.761135
1458.000000	17.796282
1457.000000	17.849839
1456.000000	17.898479
1455.000000	17.970550
1454.000000	18.033939
1453.000000	18.091262
1452.000000	18.168982
1451.000000	18.244923
1450.000000	18.320969
1449.000000	18.374003
1448.000000	18.437811
1447.000000	18.545447
1446.000000	18.630803
1445.000000	18.709464
1444.000000	18.763753
1443.000000	18.864695
1442.000000	18.962498
1441.000000	19.060511
1440.000000	19.169926
1439.000000	19.261767
1438.000000	19.359361
1437.000000	19.451935
1436.000000	19.560303
1435.000000	19.644404
1434.000000	19.749634
1433.000000	19.898275
1432.000000	20.002564
1431.000000	20.113966
1430.000000	20.251728
1429.000000	20.363339
1428.000000	20.540222
1427.000000	20.688340
1426.000000	20.859470
1425.000000	21.027148
1424.000000	21.202044
1423.000000	21.385517
1422.000000	21.571606
1421.000000	21.786146
1420.000000	22.002046
1419.000000	22.235834
1418.000000	22.438345
1417.000000	22.667006
1416.000000	22.899015
1415.000000	23.156652
1414.000000	23.425167
1413.000000	23.658222
1412.000000	23.898599
1411.000000	24.158537
1410.000000	24.473183
1409.000000	24.824125
1408.000000	25.144000
1407.000000	25.495256
1406.000000	25.830822
1405.000000	26.233857
1404.000000	26.597770
1403.000000	26.979884
1402.000000	27.349759
1401.000000	27.764719
1400.000000	28.165452
1399.000000	28.524135
1398.000000	28.798717
1397.000000	29.088990
1396.000000	29.407505
1395.000000	29.730310
1394.000000	30.014515
1393.000000	30.244537
1392.000000	30.532613
1391.000000	30.818179
1390.000000	31.108556
1389.000000	31.432825
1388.000000	31.828851
1387.000000	32.238894
1386.000000	32.660234
1385.000000	33.118812
1384.000000	33.630215
1383.000000	34.152183
1382.000000	34.665992
1381.000000	35.140680
1380.000000	35.481894
1379.000000	35.712962
1378.000000	35.957209
1377.000000	36.130222
1376.000000	36.298633
1375.000000	36.505223
1374.000000	36.746960
1373.000000	37.011396
1372.000000	37.352715
1371.000000	37.700519
1370.000000	38.052926
1369.000000	38.360354
1368.000000	38.668513
1367.000000	38.989226
1366.000000	39.210042
1365.000000	39.424792
1364.000000	39.647909
1363.000000	39.825629
1362.000000	40.035253
1361.000000	40.174271
1360.000000	40.294041
1359.000000	40.333058
1358.000000	40.462870
1357.000000	40.600004
1356.000000	40.764126
1355.000000	41.032223
1354.000000	41.419462
1353.000000	41.857016
1352.000000	42.306494
1351.000000	42.788085
1350.000000	43.266015
1349.000000	43.731184
1348.000000	44.127524
1347.000000	44.508487
1346.000000	44.876480
1345.000000	45.209954
1344.000000	45.577737
1343.000000	45.898135
1342.000000	46.197404
1341.000000	46.535166
1340.000000	46.838933
1339.000000	47.148557
1338.000000	47.442282
1337.000000	47.736320
1336.000000	48.017492
1335.000000	48.295840
1334.000000	48.559649
1333.000000	48.821469
1332.000000	49.079002
1331.000000	49.338730
1330.000000	49.574296
1329.000000	49.799819
1328.000000	50.027644
1327.000000	50.232875
1326.000000	50.439047
1325.000000	50.634550
1324.000000	50.835805
1323.000000	51.011643
1322.000000	51.194698
1321.000000	51.372418
1320.000000	51.500765
1319.000000	51.659971
1318.000000	51.822942
1317.000000	51.954532
1316.000000	52.098675
1315.000000	52.226709
1314.000000	52.355893
1313.000000	52.481207
1312.000000	52.570433
1311.000000	52.696898
1310.000000	52.798468
1309.000000	52.890623
1308.000000	52.971899
1307.000000	53.063949
1306.000000	53.139263
1305.000000	53.202025
1304.000000	53.265833
1303.000000	53.311440
1302.000000	53.366565
1301.000000	53.414473
1300.000000	53.423051
1299.000000	53.452758
1298.000000	53.470122
1297.000000	53.504536
1296.000000	53.528072
1295.000000	53.543344
1294.000000	53.564265
1293.000000	53.574411
1292.000000	53.557152
1291.000000	53.552967
1290.000000	53.557152
1289.000000	53.532988
1288.000000	53.505792
1287.000000	53.479955
1286.000000	53.449306
1285.000000	53.417716
1284.000000	53.363950
1283.000000	53.325038
1282.000000	53.262486
1281.000000	53.202025
1280.000000	53.151816
1279.000000	53.110393
1278.000000	53.050456
1277.000000	53.001920
1276.000000	52.936752
1275.000000	52.886961
1274.000000	52.860706
1273.000000	52.811020
1272.000000	52.767401
1271.000000	52.736229
1270.000000	52.693969
1269.000000	52.653488
1268.000000	52.608300
1267.000000	52.568237
1266.000000	52.526396
1265.000000	52.482044
1264.000000	52.442190
1263.000000	52.412902
1262.000000	52.361437
1261.000000	52.306730
1260.000000	52.279010
1259.000000	52.236541
1258.000000	52.183926
1257.000000	52.126395
1256.000000	52.081938
1255.000000	52.041143
1254.000000	51.975034
1253.000000	51.914574
1252.000000	51.856415
1251.000000	51.790306
1250.000000	51.723151
1249.000000	51.644176
1248.000000	51.566456
1247.000000	51.487167
1246.000000	51.397522
1245.000000	51.300556
1244.000000	51.190304
1243.000000	51.064572
1242.000000	50.947103
1241.000000	50.828274
1240.000000	50.700345
1239.000000	50.561118
1238.000000	50.421578
1237.000000	50.277436
1236.000000	50.133921
1235.000000	49.990301
1234.000000	49.824087
1233.000000	49.654735
1232.000000	49.497099
1231.000000	49.327538
1230.000000	49.154629
1229.000000	48.981721
1228.000000	48.796260
1227.000000	48.618122
1226.000000	48.435067
1225.000000	48.245631
1224.000000	48.076384
1223.000000	47.892806
1222.000000	47.709960
1221.000000	47.523453
1220.000000	47.346570
1219.000000	47.177741
1218.000000	47.009540
1217.000000	46.855146
1216.000000	46.705773
1215.000000	46.558702
1214.000000	46.417907
1213.000000	46.279831
1212.000000	46.140500
1211.000000	46.006818
1210.000000	45.880248
1209.000000	45.764871
1208.000000	45.662674
1207.000000	45.566963
1206.000000	45.482339
1205.000000	45.407548
1204.000000	45.351167
1203.000000	45.311104
1202.000000	45.268845
1201.000000	45.231397
1200.000000	45.195937
1199.000000	45.149284
1198.000000	45.067694
1197.000000	44.953363
1196.000000	44.809743
1195.000000	44.614136
1194.000000	44.380140
1193.000000	44.074281
1192.000000	43.694259
1191.000000	43.259321
1190.000000	42.809633
1189.000000	42.390595
1188.000000	42.017895
1187.000000	41.763710
1186.000000	41.615174
1185.000000	41.558898
1184.000000	41.656283
1183.000000	41.888920
1182.000000	42.235573
1181.000000	42.663294
1180.000000	43.166224
1179.000000	43.661623
1178.000000	44.135578
1177.000000	44.567379
1176.000000	44.948970
1175.000000	45.280247
1174.000000	45.609641
1173.000000	45.920520
1172.000000	46.223136
1171.000000	46.563409
1170.000000	46.907448
1169.000000	47.247407
1168.000000	47.603161
1167.000000	47.969166
1166.000000	48.320317
1165.000000	48.668645
1164.000000	49.067600
1163.000000	49.468752
1162.000000	49.849715
1161.000000	50.246578
1160.000000	50.630261
1159.000000	51.020011
1158.000000	51.396686
1157.000000	51.740306
1156.000000	52.070118
1155.000000	52.357148
1154.000000	52.611856
1153.000000	52.818237
1152.000000	52.966669
1151.000000	53.079535
1150.000000	53.156418
1149.000000	53.234243
1148.000000	53.327653
1147.000000	53.414473
1146.000000	53.551921
1145.000000	53.743763
1144.000000	53.994810
1143.000000	54.328806
1142.000000	54.662594
1141.000000	55.049520
1140.000000	55.465316
1139.000000	55.884145
1138.000000	56.286866
1137.000000	56.733311
1136.000000	57.188856
1135.000000	57.671389
1134.000000	58.140741
1133.000000	58.567416
1132.000000	58.965325
1131.000000	59.306226
1130.000000	59.669929
1129.000000	59.974219
1128.000000	60.247755
1127.000000	60.464283
1126.000000	60.615852
1125.000000	60.765225
1124.000000	60.877464
1123.000000	60.999745
1122.000000	61.083845
1121.000000	61.168574
1120.000000	61.240331
1119.000000	61.269829
1118.000000	61.333428
1117.000000	61.377465
1116.000000	61.366587
1115.000000	61.374327
1114.000000	61.392110
1113.000000	61.383428
1112.000000	61.386984
1111.000000	61.395457
1110.000000	61.396294
1109.000000	61.403511
1108.000000	61.379871
1107.000000	61.388239
1106.000000	61.384265
1105.000000	61.379244
1104.000000	61.376838
1103.000000	61.354139
1102.000000	61.340018
1101.000000	61.342005
1100.000000	61.328093
1099.000000	61.320143
1098.000000	61.291063
1097.000000	61.301210
1096.000000	61.268260
1095.000000	61.245980
1094.000000	61.212821
1093.000000	61.181858
1092.000000	61.168783
1091.000000	61.137820
1090.000000	61.110205
1089.000000	61.066272
1088.000000	61.036669
1087.000000	60.981544
1086.000000	60.933950
1085.000000	60.898489
1084.000000	60.869933
1083.000000	60.809263
1082.000000	60.793782
1081.000000	60.721292
1080.000000	60.694514
1079.000000	60.624639
1078.000000	60.607798
1077.000000	60.565329
1076.000000	60.536564
1075.000000	60.483007
1074.000000	60.445245
1073.000000	60.401731
1072.000000	60.360099
1071.000000	60.320663
1070.000000	60.286040
1069.000000	60.232379
1068.000000	60.179031
1067.000000	60.159052
1066.000000	60.119617
1065.000000	60.063968
1064.000000	60.036353
1063.000000	59.987922
1062.000000	59.946081
1061.000000	59.887294
1060.000000	59.830076
1059.000000	59.795034
1058.000000	59.746499
1057.000000	59.689909
1056.000000	59.640222
1055.000000	59.566373
1054.000000	59.517209
1053.000000	59.470661
1052.000000	59.415535
1051.000000	59.370975
1050.000000	59.320556
1049.000000	59.266790
1048.000000	59.254656
1047.000000	59.182480
1046.000000	59.127669
1045.000000	59.076727
1044.000000	59.052668
1043.000000	59.007898
1042.000000	58.959990
1041.000000	58.910304
1040.000000	58.873484
1039.000000	58.836036
1038.000000	58.778609
1037.000000	58.714278
1036.000000	58.660931
1035.000000	58.620868
1034.000000	58.558734
1033.000000	58.469822
1032.000000	58.422332
1031.000000	58.365010
1030.000000	58.296809
1029.000000	58.216683
1028.000000	58.162708
1027.000000	58.079967
1026.000000	57.989799
1025.000000	57.921912
1024.000000	57.829339
1023.000000	57.741682
1022.000000	57.654129
1021.000000	57.575886
1020.000000	57.480279
1019.000000	57.411555
1018.000000	57.327350
1017.000000	57.243563
1016.000000	57.168772
1015.000000	57.102768
1014.000000	57.031115
1013.000000	56.990006
1012.000000	56.931847
1011.000000	56.909043
1010.000000	56.878813
1009.000000	56.843039
1008.000000	56.807160
1007.000000	56.807579
1006.000000	56.792620
1005.000000	56.769503
1004.000000	56.736344
1003.000000	56.720340
1002.000000	56.708311
1001.000000	56.697014
1000.000000	56.681323
999.000000	56.661553
998.000000	56.652976
997.000000	56.617620
996.000000	56.622432
995.000000	56.619294
994.000000	56.609043
993.000000	56.592097
992.000000	56.579126
991.000000	56.590214
990.000000	56.588645
989.000000	56.579126
988.000000	56.590528
987.000000	56.609252
986.000000	56.616365
985.000000	56.612494
984.000000	56.647955
983.000000	56.674315
982.000000	56.677976
981.000000	56.688541
980.000000	56.730486
979.000000	56.768248
978.000000	56.774838
977.000000	56.774733
976.000000	56.810194
975.000000	56.861240
974.000000	56.883625
973.000000	56.883625
972.000000	56.906114
971.000000	56.931010
970.000000	56.954336
969.000000	56.992726
968.000000	57.011345
967.000000	57.044086
966.000000	57.072015
965.000000	57.093981
964.000000	57.127036
963.000000	57.151094
962.000000	57.200571
961.000000	57.243145
960.000000	57.267308
959.000000	57.303500
958.000000	57.336555
957.000000	57.369923
956.000000	57.405070
955.000000	57.436137
954.000000	57.461869
953.000000	57.477037
952.000000	57.503710
951.000000	57.523376
950.000000	57.539798
949.000000	57.563020
948.000000	57.585405
947.000000	57.599840
946.000000	57.617936
945.000000	57.647016
944.000000	57.665635
943.000000	57.672748
942.000000	57.699840
941.000000	57.717309
940.000000	57.729861
939.000000	57.756954
938.000000	57.785719
937.000000	57.829339
936.000000	57.869715
935.000000	57.904967
934.000000	57.934569
933.000000	57.984778
932.000000	58.025678
931.000000	58.061975
930.000000	58.110511
929.000000	58.173691
928.000000	58.216683
927.000000	58.258106
926.000000	58.309570
925.000000	58.367206
924.000000	58.423901
923.000000	58.474529
922.000000	58.524006
921.000000	58.574424
920.000000	58.627353
919.000000	58.676621
918.000000	58.714278
917.000000	58.738965
916.000000	58.772228
915.000000	58.795659
914.000000	58.812396
913.000000	58.818463
912.000000	58.835618
911.000000	58.850367
910.000000	58.867835
909.000000	58.895764
908.000000	58.929237
907.000000	58.960095
906.000000	58.984677
905.000000	59.024635
904.000000	59.071183
903.000000	59.132689
902.000000	59.194510
901.000000	59.255493
900.000000	59.316163
899.000000	59.370242
898.000000	59.443360
897.000000	59.527879
896.000000	59.606122
895.000000	59.666059
894.000000	59.726310
893.000000	59.793988
892.000000	59.871081
891.000000	59.958424
890.000000	60.039491
889.000000	60.091897
888.000000	60.192002
887.000000	60.264596
886.000000	60.345768
885.000000	60.434890
884.000000	60.512505
883.000000	60.596083
882.000000	60.675999
881.000000	60.767003
880.000000	60.862506
879.000000	60.925581
878.000000	61.005707
877.000000	61.063134
876.000000	61.079452
875.000000	61.084055
874.000000	61.082276
873.000000	61.123176
872.000000	61.097444
871.000000	60.995456
870.000000	60.939493
869.000000	60.977255
868.000000	61.091691
867.000000	61.227151
866.000000	61.394411
865.000000	61.530813
864.000000	61.689391
863.000000	61.833220
862.000000	61.954350
861.000000	62.082174
860.000000	62.216380
859.000000	62.341275
858.000000	62.491067
857.000000	62.093900
856.000000	62.517000
855.000000	62.862300
854.000000	62.981600
853.000000	62.717400
852.000000	63.200600
851.000000	63.453400
850.000000	63.527400
849.000000	63.508700
848.000000	63.334700
847.000000	63.158700
846.000000	63.514100
845.000000	63.861900
844.000000	63.660300
843.000000	64.053500
842.000000	63.955400
841.000000	63.770200
840.000000	64.213900
839.000000	64.473100
838.000000	64.666300
837.000000	64.716700
836.000000	64.505300
835.000000	64.703500
834.000000	64.757100
833.000000	65.018500
832.000000	64.921800
831.000000	65.000800
830.000000	65.265300
829.000000	65.282100
828.000000	65.044000
827.000000	65.234400
826.000000	65.299600
825.000000	65.349200
824.000000	65.324800
823.000000	65.449900
822.000000	65.448600
821.000000	65.385900
820.000000	65.529600
819.000000	65.623500
818.000000	65.502100
817.000000	65.500400
816.000000	65.693100
815.000000	65.721300
814.000000	65.663500
813.000000	65.610600
812.000000	65.598900
811.000000	65.637000
810.000000	65.172700
809.000000	65.428800
808.000000	65.406900
807.000000	65.406300
806.000000	65.271000
805.000000	65.306300
804.000000	65.071200
803.000000	65.118000
802.000000	64.871100
801.000000	65.089900
800.000000	64.764000
799.000000	64.734200
798.000000	64.718400
797.000000	64.600100
796.000000	64.574100
795.000000	64.488600
794.000000	64.242900
793.000000	64.272500
792.000000	64.193800
791.000000	64.070500
790.000000	64.012300
789.000000	63.777400
788.000000	63.783500
787.000000	63.843600
786.000000	63.646700
785.000000	63.668200
784.000000	63.482900
783.000000	63.342100
782.000000	63.170000
781.000000	63.259900
780.000000	63.214700
779.000000	62.996400
778.000000	62.997600
777.000000	62.839000
776.000000	62.690200
775.000000	62.501500
774.000000	62.614100
773.000000	62.451200
772.000000	62.275700
771.000000	62.182800
770.000000	62.181400
769.000000	62.078900
768.000000	61.825500
767.000000	61.839200
766.000000	61.729200
765.000000	61.531300
764.000000	61.450300
763.000000	61.305400
762.000000	61.319800
761.000000	61.185200
760.000000	60.974500
759.000000	60.917800
758.000000	60.701000
757.000000	60.682200
756.000000	60.550400
755.000000	60.541400
754.000000	60.417600
753.000000	60.312000
752.000000	60.153700
751.000000	59.994800
750.000000	59.958900
749.000000	59.858000
748.000000	59.666200
747.000000	59.484100
746.000000	59.437300
745.000000	59.366700
744.000000	59.156800
743.000000	59.065200
742.000000	58.838500
741.000000	58.742500
740.000000	58.618100
739.000000	58.546300
738.000000	58.413200
737.000000	58.256000
736.000000	58.247800
735.000000	58.095700
734.000000	57.902500
733.000000	57.869200
732.000000	57.656100
731.000000	57.612700
730.000000	57.408400
729.000000	57.301300
728.000000	57.228500
727.000000	57.074300
726.000000	56.889400
725.000000	56.739400
724.000000	56.622800
723.000000	56.501600
722.000000	56.301400
721.000000	56.175000
720.000000	55.978900
719.000000	55.863300
718.000000	55.735600
717.000000	55.603100
716.000000	55.512300
715.000000	55.332500
714.000000	55.286800
713.000000	55.105600
712.000000	54.991500
711.000000	54.874000
710.000000	54.834900
709.000000	54.691100
708.000000	54.595200
707.000000	54.540900
706.000000	54.482500
705.000000	54.386900
704.000000	54.328300
703.000000	54.308800
702.000000	54.335500
701.000000	54.355400
700.000000	54.385500
699.000000	54.411200
698.000000	54.502100
697.000000	54.580500
696.000000	54.709000
695.000000	54.739700
694.000000	54.767100
693.000000	54.855800
692.000000	54.973800
691.000000	54.999100
690.000000	55.038900
689.000000	55.115700
688.000000	55.202900
687.000000	55.259300
686.000000	55.233600
685.000000	55.250600
684.000000	55.302200
683.000000	55.235700
682.000000	55.170800
681.000000	55.171400
680.000000	55.163400
679.000000	55.088900
678.000000	55.043300
677.000000	55.004800
676.000000	54.948800
675.000000	54.875900
674.000000	54.809300
673.000000	54.666300
672.000000	54.613200
671.000000	54.465900
670.000000	54.261300
669.000000	54.098600
668.000000	53.904900
667.000000	53.625100
666.000000	53.367400
665.000000	53.125300
664.000000	52.863000
663.000000	52.596700
662.000000	52.336900
661.000000	52.106400
660.000000	51.859500
659.000000	51.689700
658.000000	51.559900
657.000000	51.461500
656.000000	51.429400
655.000000	51.372700
654.000000	51.335500
653.000000	51.346000
652.000000	51.332400
651.000000	51.364500
650.000000	51.467400
649.000000	51.603300
648.000000	51.718600
647.000000	51.845700
646.000000	51.999700
645.000000	52.176000
644.000000	52.367000
643.000000	52.601300
642.000000	52.871500
641.000000	53.162600
640.000000	53.462200
639.000000	53.811800
638.000000	54.185100
637.000000	54.600200
636.000000	55.083200
635.000000	55.581800
634.000000	56.047800
633.000000	56.548100
632.000000	57.085200
631.000000	57.602700
630.000000	58.120300
629.000000	58.584700
628.000000	59.042000
627.000000	59.423500
626.000000	59.801200
625.000000	60.165300
624.000000	60.509800
623.000000	60.858200
622.000000	61.194000
621.000000	61.515500
620.000000	61.862400
619.000000	62.225200
618.000000	62.536200
617.000000	62.878500
616.000000	63.202600
615.000000	63.567400
614.000000	63.896500
613.000000	64.185500
612.000000	64.453600
611.000000	64.732100
610.000000	64.985900
609.000000	65.222500
608.000000	65.438900
607.000000	65.592900
606.000000	65.703900
605.000000	65.793000
604.000000	65.881600
603.000000	65.935400
602.000000	65.976900
601.000000	66.021000
600.000000	66.049300
599.000000	66.072800
598.000000	66.150400
597.000000	66.247600
596.000000	66.326600
595.000000	66.438700
594.000000	66.532500
593.000000	66.630700
592.000000	66.729600
591.000000	66.829400
590.000000	66.952900
589.000000	67.066100
588.000000	67.131700
587.000000	67.189000
586.000000	67.262200
585.000000	67.296100
584.000000	67.318600
583.000000	67.295300
582.000000	67.280900
581.000000	67.262000
580.000000	67.214000
579.000000	67.152300
578.000000	67.073800
577.000000	66.973300
576.000000	66.846500
575.000000	66.768700
574.000000	66.639300
573.000000	66.533100
572.000000	66.380600
571.000000	66.220500
570.000000	66.052300
569.000000	65.885000
568.000000	65.708400
567.000000	65.483300
566.000000	65.240800
565.000000	65.019700
564.000000	64.757400
563.000000	64.466800
562.000000	64.116500
561.000000	63.791700
560.000000	63.391300
559.000000	62.876000
558.000000	62.375600
557.000000	61.874400
556.000000	61.323900
555.000000	60.824800
554.000000	60.213600
553.000000	59.625200
552.000000	59.001200
551.000000	58.344700
550.000000	57.700000
549.000000	57.022600
548.000000	56.341800
547.000000	55.671100
546.000000	54.964600
545.000000	54.269000
544.000000	53.537300
543.000000	52.769300
542.000000	52.023600
541.000000	51.257400
540.000000	50.480100
539.000000	49.751600
538.000000	48.998800
537.000000	48.308000
536.000000	47.605500
535.000000	46.927600
534.000000	46.240100
533.000000	45.540100
532.000000	44.879800
531.000000	44.206600
530.000000	43.556100
529.000000	42.941900
528.000000	42.367200
527.000000	41.784100
526.000000	41.235200
525.000000	40.711500
524.000000	40.159200
523.000000	39.664200
522.000000	39.168300
521.000000	38.695200
520.000000	38.202500
519.000000	37.748400
518.000000	37.312200
517.000000	36.880300
516.000000	36.438800
515.000000	36.003000
514.000000	35.611500
513.000000	35.180900
512.000000	34.764600
511.000000	34.357700
510.000000	33.940000
509.000000	33.516200
508.000000	33.174000
507.000000	32.793100
506.000000	32.404300
505.000000	32.036500
504.000000	31.676800
503.000000	31.348300
502.000000	30.945100
501.000000	30.628900
500.000000	30.288000
499.000000	29.964600
498.000000	29.695900
497.000000	29.371700
496.000000	29.058300
495.000000	28.725900
494.000000	28.449700
493.000000	28.144300
492.000000	27.831700
491.000000	27.528400
490.000000	27.234800
489.000000	26.956800
488.000000	26.665700
487.000000	26.373900
486.000000	26.067900
485.000000	25.810800
484.000000	25.527700
483.000000	25.233400
482.000000	24.947400
481.000000	24.641400
480.000000	24.379200
479.000000	24.047900
478.000000	23.751400
477.000000	23.463800
476.000000	23.144100
475.000000	22.827100
474.000000	22.522100
473.000000	22.192600
472.000000	21.881600
471.000000	21.585800
470.000000	21.300300
469.000000	21.024900
468.000000	20.749800
467.000000	20.475800
466.000000	20.248200
465.000000	20.005900
464.000000	19.797800
463.000000	19.618400
462.000000	19.389100
461.000000	19.218500
460.000000	19.109100
459.000000	18.948800
458.000000	18.837000
457.000000	18.711000
456.000000	18.645100
455.000000	18.541600
454.000000	18.468200
453.000000	18.424600
452.000000	18.350000
451.000000	18.278800
450.000000	18.248800
449.000000	18.175200
448.000000	18.116200
447.000000	18.035800
446.000000	17.979700
445.000000	17.928500
444.000000	17.876600
443.000000	17.783500
442.000000	17.721100
441.000000	17.626300
440.000000	17.516000
439.000000	17.401200
438.000000	17.264200
437.000000	17.145900
436.000000	17.017200
435.000000	16.898400
434.000000	16.754800
433.000000	16.587900
432.000000	16.486800
431.000000	16.320200
430.000000	16.123900
429.000000	15.980400
428.000000	15.804200
427.000000	15.642300
426.000000	15.458500
425.000000	15.243600
424.000000	15.072600
423.000000	14.878900
422.000000	14.673600
421.000000	14.474200
420.000000	14.299900
419.000000	14.102800
418.000000	13.897000
417.000000	13.697200
416.000000	13.477500
415.000000	13.285900
414.000000	13.038500
413.000000	12.817100
412.000000	12.586100
411.000000	12.331000
410.000000	12.092800
409.000000	11.873200
408.000000	11.651000
407.000000	11.387000
406.000000	11.138200
405.000000	10.927700
404.000000	10.666500
403.000000	10.398200
402.000000	10.162200
401.000000	9.925700
400.000000	9.694200
399.000000	9.455700
398.000000	9.221100
397.000000	8.995500
396.000000	8.778100
395.000000	8.580100
394.000000	8.361000
393.000000	8.172900
392.000000	7.973400
391.000000	7.786500
390.000000	7.627900
389.000000	7.483100
388.000000	7.321700
387.000000	7.171300
386.000000	7.037200
385.000000	6.919500
384.000000	6.805200
383.000000	6.709000
382.000000	6.593300
381.000000	6.484900
380.000000	6.409600
379.000000	6.321900
378.000000	6.273700
377.000000	6.214900
376.000000	6.126600
375.000000	5.953000
374.000000	5.712600
373.000000	5.708500
372.000000	5.662500
371.000000	5.627100
370.000000	5.722900
369.000000	5.907300
368.000000	5.818000
367.000000	5.667400
366.000000	5.761500
365.000000	5.734200
364.000000	5.774800
363.000000	5.829000
362.000000	5.792400
361.000000	5.820700
360.000000	5.668900
359.000000	5.596700
358.000000	5.488500
357.000000	5.604000
356.000000	5.544000
355.000000	5.447900
354.000000	5.609300
353.000000	5.605400
352.000000	5.709800
351.000000	5.867400
350.000000	5.666200
349.000000	5.595300
348.000000	5.498600
347.000000	5.349800
346.000000	5.496100
345.000000	5.668100
344.000000	5.572900
343.000000	5.708200
342.000000	5.667700
341.000000	5.597400
340.000000	5.726800
339.000000	5.622300
338.000000	5.688200
337.000000	5.942200
336.000000	5.881000
335.000000	5.688500
334.000000	5.983800
333.000000	6.056700
332.000000	5.901300
331.000000	5.711900
330.000000	5.549800
329.000000	5.748800
328.000000	5.643400
327.000000	5.740600
326.000000	6.309300
325.000000	6.449300
324.000000	6.242700
323.000000	6.002800
322.000000	6.319200
321.000000	6.420100
320.000000	6.293700
319.000000	6.738200
318.000000	6.713600
317.000000	6.420300
316.000000	5.857200
315.000000	5.454500
314.000000	5.521000
313.000000	5.512500
312.000000	5.478700
311.000000	5.480100
310.000000	5.432900
309.000000	5.466100
308.000000	5.538600
307.000000	5.551300
306.000000	5.491400
305.000000	5.496500
304.000000	5.515200
303.000000	5.516600
302.000000	5.527000
301.000000	5.559100
300.000000	5.566200
299.000000	5.514900
298.000000	5.523500
297.000000	5.558400
296.000000	5.552500
295.000000	5.544700
294.000000	5.553300
293.000000	5.579100
292.000000	5.566300
291.000000	5.588300
290.000000	5.630700
289.000000	5.568200
288.000000	5.620100
287.000000	5.618100
286.000000	5.577000
285.000000	5.614100
284.000000	5.658000
283.000000	5.642100
282.000000	5.621000
281.000000	5.622400
280.000000	5.664300
279.000000	5.700700
278.000000	5.702500
277.000000	5.675600
276.000000	5.682900
275.000000	5.721800
274.000000	5.742000
273.000000	5.775400
272.000000	5.744700
271.000000	5.756900
270.000000	5.793500
269.000000	5.825100
268.000000	5.847900
267.000000	5.873600
266.000000	5.868000
265.000000	5.864800
264.000000	5.882100
263.000000	5.900100
262.000000	5.912700
261.000000	5.947200
260.000000	5.977400
259.000000	5.990700
258.000000	6.035000
257.000000	6.059600
256.000000	6.060700
255.000000	6.034000
254.000000	6.079700
253.000000	6.056600
252.000000	6.104400
251.000000	6.105000
250.000000	6.117500
