PE UV       SUBTECH     SPECTRUM    ASCII       PEDS        4.00        
   -1
CICIMAUCR0071-3.Sample.ASC
24/04/18
16:44:28.00
24/04/18
16:44:28.00
Vinicio Soto Monge
C. resplendens
250,000000
1
Lambda 1050
1050L1511233
PerkinElmer UV WinLab 6.3.2.0749 / 2.02.05 Lambda 900 UV/VIS/NIR, Aug  7 2015 09:38:08

0
0
3350/servo 860,8/2
0
0
UV/VIS
1
1
1
DoubleDePol,CommonBeamDepol,RBeamAtt,SBeamAtt,60mm sphere, WB InGaAs Detector
0
0
0
0
Program
Program
3350/servo 860,8/2
3350/0,2 860,8/0,2
3350/0,2 860,8/0,2
0
15.00
 
 
 
0
 
860,8
319,2
860,8
Front
100
on
S:100 R:100
0
0
0
0
 
0
 
 
 
0
 
 
0
0
0
0
0
 
 
 
 
0
0


0
0
#HDR
-1
-1
#GR
nm
%R
1.0
0.0
2500,000000
-1,000000
2251
8
72,832800
4,915400
#DATA
2482.000000	13.653086
2481.000000	13.595362
2480.000000	13.555216
2479.000000	13.616954
2478.000000	13.574964
2477.000000	13.639198
2476.000000	13.639523
2475.000000	13.693124
2474.000000	13.692798
2473.000000	13.715367
2472.000000	13.716018
2471.000000	13.763976
2470.000000	13.793055
2469.000000	13.847524
2468.000000	13.826149
2467.000000	13.884849
2466.000000	13.903837
2465.000000	13.912626
2464.000000	13.980983
2463.000000	14.012449
2462.000000	14.049232
2461.000000	14.028725
2460.000000	14.080047
2459.000000	14.135817
2458.000000	14.230215
2457.000000	14.293039
2456.000000	14.355320
2455.000000	14.381795
2454.000000	14.432140
2453.000000	14.509177
2452.000000	14.610954
2451.000000	14.687448
2450.000000	14.739313
2449.000000	14.829588
2448.000000	14.913569
2447.000000	14.970534
2446.000000	15.066342
2445.000000	15.152277
2444.000000	15.239731
2443.000000	15.322410
2442.000000	15.422016
2441.000000	15.477461
2440.000000	15.560249
2439.000000	15.640216
2438.000000	15.728321
2437.000000	15.819138
2436.000000	15.906592
2435.000000	15.980917
2434.000000	16.074447
2433.000000	16.145625
2432.000000	16.228413
2431.000000	16.299700
2430.000000	16.356122
2429.000000	16.428385
2428.000000	16.516815
2427.000000	16.577034
2426.000000	16.629659
2425.000000	16.702898
2424.000000	16.761165
2423.000000	16.821818
2422.000000	16.880952
2421.000000	16.939761
2420.000000	17.002042
2419.000000	17.093619
2418.000000	17.172392
2417.000000	17.217313
2416.000000	17.261040
2415.000000	17.312687
2414.000000	17.351748
2413.000000	17.386144
2412.000000	17.441915
2411.000000	17.480325
2410.000000	17.502894
2409.000000	17.545752
2408.000000	17.597834
2407.000000	17.620945
2406.000000	17.642537
2405.000000	17.658379
2404.000000	17.693642
2403.000000	17.725108
2402.000000	17.722070
2401.000000	17.736935
2400.000000	17.770463
2399.000000	17.794551
2398.000000	17.826885
2397.000000	17.828946
2396.000000	17.831225
2395.000000	17.851949
2394.000000	17.871154
2393.000000	17.872999
2392.000000	17.901426
2391.000000	17.936148
2390.000000	17.926925
2389.000000	17.933109
2388.000000	17.943634
2387.000000	17.947540
2386.000000	17.963599
2385.000000	17.960235
2384.000000	17.975534
2383.000000	17.984866
2382.000000	17.979006
2381.000000	17.970218
2380.000000	17.960561
2379.000000	17.963273
2378.000000	17.950904
2377.000000	17.938318
2376.000000	17.931373
2375.000000	17.922910
2374.000000	17.909564
2373.000000	17.913145
2372.000000	17.918895
2371.000000	17.907177
2370.000000	17.909998
2369.000000	17.918895
2368.000000	17.920849
2367.000000	17.923236
2366.000000	17.920523
2365.000000	17.913253
2364.000000	17.918244
2363.000000	17.914555
2362.000000	17.915857
2361.000000	17.920198
2360.000000	17.899039
2359.000000	17.902620
2358.000000	17.908045
2357.000000	17.889708
2356.000000	17.864644
2355.000000	17.835348
2354.000000	17.822979
2353.000000	17.810067
2352.000000	17.785328
2351.000000	17.773501
2350.000000	17.766231
2349.000000	17.749847
2348.000000	17.734982
2347.000000	17.737044
2346.000000	17.750390
2345.000000	17.747677
2344.000000	17.737261
2343.000000	17.731293
2342.000000	17.718598
2341.000000	17.712522
2340.000000	17.719792
2339.000000	17.764929
2338.000000	17.778601
2337.000000	17.751475
2336.000000	17.779035
2335.000000	17.795310
2334.000000	17.780011
2333.000000	17.789776
2332.000000	17.811152
2331.000000	17.824823
2330.000000	17.851949
2329.000000	17.866054
2328.000000	17.880485
2327.000000	17.922259
2326.000000	17.952206
2325.000000	17.951121
2324.000000	17.969567
2323.000000	17.980308
2322.000000	17.976945
2321.000000	17.972822
2320.000000	17.965118
2319.000000	17.957957
2318.000000	17.942875
2317.000000	17.935388
2316.000000	17.892095
2315.000000	17.866163
2314.000000	17.837843
2313.000000	17.800952
2312.000000	17.759287
2311.000000	17.732161
2310.000000	17.713499
2309.000000	17.703516
2308.000000	17.660549
2307.000000	17.646227
2306.000000	17.657836
2305.000000	17.628432
2304.000000	17.631579
2303.000000	17.624743
2302.000000	17.627130
2301.000000	17.648614
2300.000000	17.653605
2299.000000	17.661417
2298.000000	17.683226
2297.000000	17.701455
2296.000000	17.723806
2295.000000	17.734440
2294.000000	17.771765
2293.000000	17.796721
2292.000000	17.834046
2291.000000	17.875169
2290.000000	17.918027
2289.000000	17.923670
2288.000000	17.965877
2287.000000	18.004071
2286.000000	18.034343
2285.000000	18.088812
2284.000000	18.108451
2283.000000	18.168345
2282.000000	18.226177
2281.000000	18.252218
2280.000000	18.286939
2279.000000	18.321117
2278.000000	18.375803
2277.000000	18.403797
2276.000000	18.423979
2275.000000	18.453709
2274.000000	18.480943
2273.000000	18.504488
2272.000000	18.546913
2271.000000	18.614293
2270.000000	18.644240
2269.000000	18.654331
2268.000000	18.703809
2267.000000	18.769345
2266.000000	18.834772
2265.000000	18.887613
2264.000000	18.956622
2263.000000	19.054166
2262.000000	19.125236
2261.000000	19.237754
2260.000000	19.337034
2259.000000	19.458016
2258.000000	19.615888
2257.000000	19.737412
2256.000000	19.874668
2255.000000	20.018652
2254.000000	20.186290
2253.000000	20.319532
2252.000000	20.466988
2251.000000	20.605330
2250.000000	20.723924
2249.000000	20.921292
2248.000000	21.040863
2247.000000	21.134718
2246.000000	21.261992
2245.000000	21.399249
2244.000000	21.493430
2243.000000	21.600848
2242.000000	21.680056
2241.000000	21.747219
2240.000000	21.807764
2239.000000	21.912362
2238.000000	21.950772
2237.000000	21.999815
2236.000000	21.997103
2235.000000	22.028894
2234.000000	22.080325
2233.000000	22.079240
2232.000000	22.076744
2231.000000	22.073055
2230.000000	22.033126
2229.000000	22.040287
2228.000000	22.021950
2227.000000	21.978549
2226.000000	21.943611
2225.000000	21.888816
2224.000000	21.858435
2223.000000	21.793659
2222.000000	21.740601
2221.000000	21.669748
2220.000000	21.598136
2219.000000	21.559617
2218.000000	21.469342
2217.000000	21.401094
2216.000000	21.316895
2215.000000	21.258629
2214.000000	21.209260
2213.000000	21.119093
2212.000000	21.074390
2211.000000	20.991711
2210.000000	20.937459
2209.000000	20.884726
2208.000000	20.829932
2207.000000	20.772425
2206.000000	20.722948
2205.000000	20.699186
2204.000000	20.636037
2203.000000	20.599905
2202.000000	20.557589
2201.000000	20.529595
2200.000000	20.494223
2199.000000	20.457440
2198.000000	20.375086
2197.000000	20.366406
2196.000000	20.341233
2195.000000	20.294902
2194.000000	20.260832
2193.000000	20.235551
2192.000000	20.220686
2191.000000	20.185314
2190.000000	20.174029
2189.000000	20.122165
2188.000000	20.100030
2187.000000	20.067913
2186.000000	20.040787
2185.000000	20.036338
2184.000000	19.999230
2183.000000	19.958108
2182.000000	19.953550
2181.000000	19.921976
2180.000000	19.893548
2179.000000	19.873800
2178.000000	19.831159
2177.000000	19.830399
2176.000000	19.814883
2175.000000	19.798065
2174.000000	19.776473
2173.000000	19.778426
2172.000000	19.755749
2171.000000	19.780162
2170.000000	19.773001
2169.000000	19.784828
2168.000000	19.795136
2167.000000	19.812930
2166.000000	19.816185
2165.000000	19.854270
2164.000000	19.885736
2163.000000	19.924906
2162.000000	19.956589
2161.000000	19.992937
2160.000000	20.043825
2159.000000	20.104696
2158.000000	20.169906
2157.000000	20.248788
2156.000000	20.323221
2155.000000	20.403514
2154.000000	20.471003
2153.000000	20.558891
2152.000000	20.670324
2151.000000	20.758645
2150.000000	20.861941
2149.000000	20.948960
2148.000000	21.043575
2147.000000	21.132982
2146.000000	21.219893
2145.000000	21.312229
2144.000000	21.406519
2143.000000	21.504172
2142.000000	21.606708
2141.000000	21.695355
2140.000000	21.782049
2139.000000	21.877098
2138.000000	21.964986
2137.000000	22.042674
2136.000000	22.127524
2135.000000	22.208250
2134.000000	22.293425
2133.000000	22.372416
2132.000000	22.437301
2131.000000	22.511734
2130.000000	22.596150
2129.000000	22.650293
2128.000000	22.714418
2127.000000	22.784295
2126.000000	22.830734
2125.000000	22.893340
2124.000000	22.958442
2123.000000	22.998046
2122.000000	23.042098
2121.000000	23.106007
2120.000000	23.132482
2119.000000	23.154182
2118.000000	23.185323
2117.000000	23.220370
2116.000000	23.241528
2115.000000	23.240768
2114.000000	23.266917
2113.000000	23.298275
2112.000000	23.313791
2111.000000	23.318674
2110.000000	23.337228
2109.000000	23.352310
2108.000000	23.347644
2107.000000	23.350031
2106.000000	23.350248
2105.000000	23.357409
2104.000000	23.368043
2103.000000	23.383884
2102.000000	23.375963
2101.000000	23.380520
2100.000000	23.399834
2099.000000	23.391262
2098.000000	23.395602
2097.000000	23.416218
2096.000000	23.428370
2095.000000	23.443778
2094.000000	23.450722
2093.000000	23.464502
2092.000000	23.487722
2091.000000	23.522877
2090.000000	23.543493
2089.000000	23.567689
2088.000000	23.593187
2087.000000	23.604037
2086.000000	23.631597
2085.000000	23.629970
2084.000000	23.615213
2083.000000	23.611307
2082.000000	23.604688
2081.000000	23.596442
2080.000000	23.560962
2079.000000	23.528845
2078.000000	23.475678
2077.000000	23.442910
2076.000000	23.404283
2075.000000	23.344389
2074.000000	23.275815
2073.000000	23.216463
2072.000000	23.144200
2071.000000	23.052623
2070.000000	22.950522
2069.000000	22.867300
2068.000000	22.780388
2067.000000	22.690439
2066.000000	22.586927
2065.000000	22.483957
2064.000000	22.382507
2063.000000	22.284311
2062.000000	22.195121
2061.000000	22.099421
2060.000000	22.017610
2059.000000	21.952942
2058.000000	21.886972
2057.000000	21.823931
2056.000000	21.774237
2055.000000	21.758395
2054.000000	21.763929
2053.000000	21.763278
2052.000000	21.794744
2051.000000	21.825776
2050.000000	21.895652
2049.000000	21.989399
2048.000000	22.080542
2047.000000	22.195664
2046.000000	22.298091
2045.000000	22.427861
2044.000000	22.564141
2043.000000	22.716697
2042.000000	22.849397
2041.000000	22.965387
2040.000000	23.091034
2039.000000	23.238381
2038.000000	23.384644
2037.000000	23.508229
2036.000000	23.630729
2035.000000	23.747587
2034.000000	23.859020
2033.000000	23.964377
2032.000000	24.056496
2031.000000	24.144059
2030.000000	24.253755
2029.000000	24.343488
2028.000000	24.411085
2027.000000	24.472715
2026.000000	24.546715
2025.000000	24.636230
2024.000000	24.695907
2023.000000	24.762202
2022.000000	24.815911
2021.000000	24.858119
2020.000000	24.891755
2019.000000	24.943620
2018.000000	24.966623
2017.000000	24.984960
2016.000000	25.027493
2015.000000	25.049845
2014.000000	25.074692
2013.000000	25.072305
2012.000000	25.065252
2011.000000	25.062974
2010.000000	25.056463
2009.000000	25.066554
2008.000000	25.029989
2007.000000	25.025540
2006.000000	24.985285
2005.000000	24.941124
2004.000000	24.907488
2003.000000	24.871031
2002.000000	24.826762
2001.000000	24.767844
2000.000000	24.694605
1999.000000	24.638942
1998.000000	24.559301
1997.000000	24.505158
1996.000000	24.432461
1995.000000	24.356942
1994.000000	24.281641
1993.000000	24.190064
1992.000000	24.093388
1991.000000	24.014289
1990.000000	23.933888
1989.000000	23.846868
1988.000000	23.732071
1987.000000	23.638107
1986.000000	23.542841
1985.000000	23.451699
1984.000000	23.369887
1983.000000	23.238273
1982.000000	23.120655
1981.000000	23.046222
1980.000000	22.962783
1979.000000	22.857100
1978.000000	22.762160
1977.000000	22.665483
1976.000000	22.579874
1975.000000	22.485151
1974.000000	22.385870
1973.000000	22.287783
1972.000000	22.228974
1971.000000	22.108319
1970.000000	22.017067
1969.000000	21.937209
1968.000000	21.867875
1967.000000	21.759046
1966.000000	21.654232
1965.000000	21.558315
1964.000000	21.485835
1963.000000	21.380804
1962.000000	21.305502
1961.000000	21.216638
1960.000000	21.125170
1959.000000	21.031531
1958.000000	20.946573
1957.000000	20.855105
1956.000000	20.767109
1955.000000	20.660558
1954.000000	20.591876
1953.000000	20.507894
1952.000000	20.406118
1951.000000	20.327670
1950.000000	20.246944
1949.000000	20.174897
1948.000000	20.094171
1947.000000	20.019737
1946.000000	19.958650
1945.000000	19.909390
1944.000000	19.832678
1943.000000	19.805118
1942.000000	19.725259
1941.000000	19.685439
1940.000000	19.655383
1939.000000	19.658964
1938.000000	19.643014
1937.000000	19.628474
1936.000000	19.630210
1935.000000	19.644316
1934.000000	19.629885
1933.000000	19.678386
1932.000000	19.685656
1931.000000	19.712998
1930.000000	19.751626
1929.000000	19.829423
1928.000000	19.923821
1927.000000	20.013770
1926.000000	20.130085
1925.000000	20.238263
1924.000000	20.330166
1923.000000	20.401669
1922.000000	20.582870
1921.000000	20.769496
1920.000000	21.001693
1919.000000	21.218374
1918.000000	21.396754
1917.000000	21.549201
1916.000000	21.688953
1915.000000	21.877098
1914.000000	22.168646
1913.000000	22.529420
1912.000000	22.886396
1911.000000	23.190097
1910.000000	23.478933
1909.000000	23.691057
1908.000000	23.959169
1907.000000	24.312673
1906.000000	24.761551
1905.000000	25.325986
1904.000000	25.849514
1903.000000	26.264323
1902.000000	26.699638
1901.000000	27.163056
1900.000000	27.711323
1899.000000	28.380789
1898.000000	28.968986
1897.000000	29.553602
1896.000000	30.015284
1895.000000	30.418916
1894.000000	30.899478
1893.000000	31.434291
1892.000000	32.052217
1891.000000	32.715390
1890.000000	33.295340
1889.000000	33.804221
1888.000000	34.331981
1887.000000	34.763608
1886.000000	35.203806
1885.000000	35.668309
1884.000000	36.175236
1883.000000	36.660680
1882.000000	37.046844
1881.000000	37.393621
1880.000000	37.688750
1879.000000	37.959791
1878.000000	38.280310
1877.000000	38.580105
1876.000000	38.859718
1875.000000	39.118824
1874.000000	39.378473
1873.000000	39.670021
1872.000000	39.956904
1871.000000	40.209391
1870.000000	40.472837
1869.000000	40.705252
1868.000000	40.885042
1867.000000	41.013401
1866.000000	41.053547
1865.000000	41.109752
1864.000000	41.168995
1863.000000	41.181473
1862.000000	41.248419
1861.000000	41.353668
1860.000000	41.477144
1859.000000	41.595305
1858.000000	41.694043
1857.000000	41.766197
1856.000000	41.794625
1855.000000	41.824030
1854.000000	41.904756
1853.000000	41.948917
1852.000000	41.959116
1851.000000	41.958248
1850.000000	41.923636
1849.000000	41.917668
1848.000000	42.018468
1847.000000	42.168202
1846.000000	42.189252
1845.000000	42.086174
1844.000000	41.955753
1843.000000	41.870578
1842.000000	41.907794
1841.000000	41.990365
1840.000000	42.001324
1839.000000	41.962588
1838.000000	41.903454
1837.000000	41.909205
1836.000000	41.933184
1835.000000	41.927867
1834.000000	41.865478
1833.000000	41.756107
1832.000000	41.682867
1831.000000	41.650099
1830.000000	41.663445
1829.000000	41.661926
1828.000000	41.612231
1827.000000	41.575014
1826.000000	41.585539
1825.000000	41.575448
1824.000000	41.515880
1823.000000	41.458265
1822.000000	41.484848
1821.000000	41.565141
1820.000000	41.628181
1819.000000	41.631979
1818.000000	41.584888
1817.000000	41.536062
1816.000000	41.530854
1815.000000	41.543766
1814.000000	41.539100
1813.000000	41.521088
1812.000000	41.488103
1811.000000	41.476385
1810.000000	41.440253
1809.000000	41.394573
1808.000000	41.358225
1807.000000	41.333377
1806.000000	41.333486
1805.000000	41.310266
1804.000000	41.277932
1803.000000	41.251349
1802.000000	41.243537
1801.000000	41.231493
1800.000000	41.210552
1799.000000	41.178760
1798.000000	41.146969
1797.000000	41.118866
1796.000000	41.112465
1795.000000	41.087834
1794.000000	41.068304
1793.000000	41.064615
1792.000000	41.047146
1791.000000	41.016439
1790.000000	41.002768
1789.000000	41.012099
1788.000000	41.011882
1787.000000	41.002551
1786.000000	41.018718
1785.000000	41.019911
1784.000000	41.021756
1783.000000	41.005263
1782.000000	41.011231
1781.000000	41.001357
1780.000000	40.977378
1779.000000	40.920956
1778.000000	40.890141
1777.000000	40.866813
1776.000000	40.823954
1775.000000	40.782180
1774.000000	40.737477
1773.000000	40.685721
1772.000000	40.646985
1771.000000	40.595880
1770.000000	40.558338
1769.000000	40.510054
1768.000000	40.444192
1767.000000	40.396994
1766.000000	40.353592
1765.000000	40.336340
1764.000000	40.300751
1763.000000	40.276121
1762.000000	40.254312
1761.000000	40.259303
1760.000000	40.268200
1759.000000	40.282848
1758.000000	40.280244
1757.000000	40.293590
1756.000000	40.296845
1755.000000	40.315725
1754.000000	40.319305
1753.000000	40.336449
1752.000000	40.339921
1751.000000	40.336557
1750.000000	40.326792
1749.000000	40.309757
1748.000000	40.276555
1747.000000	40.219808
1746.000000	40.190403
1745.000000	40.124433
1744.000000	40.062695
1743.000000	39.989780
1742.000000	39.901242
1741.000000	39.812811
1740.000000	39.726226
1739.000000	39.635300
1738.000000	39.538298
1737.000000	39.465058
1736.000000	39.384874
1735.000000	39.291344
1734.000000	39.214090
1733.000000	39.139440
1732.000000	39.061751
1731.000000	38.988403
1730.000000	38.928835
1729.000000	38.868832
1728.000000	38.827492
1727.000000	38.748502
1726.000000	38.727452
1725.000000	38.695986
1724.000000	38.696420
1723.000000	38.721268
1722.000000	38.796026
1721.000000	38.899647
1720.000000	39.038748
1719.000000	39.210075
1718.000000	39.421982
1717.000000	39.647127
1716.000000	39.861638
1715.000000	40.080164
1714.000000	40.295543
1713.000000	40.479673
1712.000000	40.663912
1711.000000	40.828511
1710.000000	40.964032
1709.000000	41.077744
1708.000000	41.209901
1707.000000	41.303322
1706.000000	41.410415
1705.000000	41.497869
1704.000000	41.560150
1703.000000	41.610387
1702.000000	41.661492
1701.000000	41.706521
1700.000000	41.734948
1699.000000	41.768910
1698.000000	41.792347
1697.000000	41.807320
1696.000000	41.800159
1695.000000	41.758819
1694.000000	41.691656
1693.000000	41.640768
1692.000000	41.556677
1691.000000	41.479098
1690.000000	41.406183
1689.000000	41.375911
1688.000000	41.375477
1687.000000	41.410957
1686.000000	41.498845
1685.000000	41.651509
1684.000000	41.810467
1683.000000	41.976368
1682.000000	42.193375
1681.000000	42.406150
1680.000000	42.633465
1679.000000	42.816944
1678.000000	43.025162
1677.000000	43.197899
1676.000000	43.334396
1675.000000	43.501275
1674.000000	43.631804
1673.000000	43.810184
1672.000000	43.960135
1671.000000	44.116272
1670.000000	44.268393
1669.000000	44.455779
1668.000000	44.613434
1667.000000	44.801145
1666.000000	44.939595
1665.000000	45.097684
1664.000000	45.247636
1663.000000	45.379034
1662.000000	45.537991
1661.000000	45.686532
1660.000000	45.798182
1659.000000	45.896378
1658.000000	46.007377
1657.000000	46.083546
1656.000000	46.179788
1655.000000	46.247929
1654.000000	46.308582
1653.000000	46.332670
1652.000000	46.387355
1651.000000	46.413505
1650.000000	46.441065
1649.000000	46.452132
1648.000000	46.460704
1647.000000	46.467539
1646.000000	46.471011
1645.000000	46.476003
1644.000000	46.482513
1643.000000	46.480994
1642.000000	46.466780
1641.000000	46.500958
1640.000000	46.495967
1639.000000	46.483381
1638.000000	46.475026
1637.000000	46.469926
1636.000000	46.461246
1635.000000	46.443777
1634.000000	46.414156
1633.000000	46.396795
1632.000000	46.369669
1631.000000	46.361206
1630.000000	46.343412
1629.000000	46.298383
1628.000000	46.243371
1627.000000	46.228289
1626.000000	46.192917
1625.000000	46.154833
1624.000000	46.133783
1623.000000	46.093854
1622.000000	46.069441
1621.000000	46.026907
1620.000000	45.991101
1619.000000	45.967447
1618.000000	45.940756
1617.000000	45.902128
1616.000000	45.872941
1615.000000	45.836158
1614.000000	45.809575
1613.000000	45.778977
1612.000000	45.735901
1611.000000	45.701072
1610.000000	45.658321
1609.000000	45.622298
1608.000000	45.563489
1607.000000	45.507502
1606.000000	45.452924
1605.000000	45.392814
1604.000000	45.322612
1603.000000	45.252953
1602.000000	45.187200
1601.000000	45.112332
1600.000000	45.053415
1599.000000	44.991134
1598.000000	44.938185
1597.000000	44.892613
1596.000000	44.834455
1595.000000	44.765664
1594.000000	44.712064
1593.000000	44.658029
1592.000000	44.615387
1591.000000	44.568188
1590.000000	44.526089
1589.000000	44.491802
1588.000000	44.444060
1587.000000	44.403588
1586.000000	44.364202
1585.000000	44.311903
1584.000000	44.276423
1583.000000	44.249948
1582.000000	44.209910
1581.000000	44.173778
1580.000000	44.144916
1579.000000	44.112365
1578.000000	44.075257
1577.000000	44.058114
1576.000000	44.038366
1575.000000	44.035220
1574.000000	44.029252
1573.000000	44.013193
1572.000000	44.030771
1571.000000	44.034894
1570.000000	44.042489
1569.000000	44.069398
1568.000000	44.079272
1567.000000	44.083070
1566.000000	44.088820
1565.000000	44.122782
1564.000000	44.129835
1563.000000	44.110521
1562.000000	44.120503
1561.000000	44.120829
1560.000000	44.103902
1559.000000	44.095873
1558.000000	44.076993
1557.000000	44.032616
1556.000000	43.999522
1555.000000	43.941364
1554.000000	43.875286
1553.000000	43.818864
1552.000000	43.773292
1551.000000	43.724032
1550.000000	43.616071
1549.000000	43.520588
1548.000000	43.452014
1547.000000	43.389842
1546.000000	43.331358
1545.000000	43.271356
1544.000000	43.214934
1543.000000	43.154389
1542.000000	43.100897
1541.000000	43.063898
1540.000000	43.013877
1539.000000	42.979916
1538.000000	42.938251
1537.000000	42.891269
1536.000000	42.861756
1535.000000	42.822369
1534.000000	42.753035
1533.000000	42.696397
1532.000000	42.659289
1531.000000	42.629016
1530.000000	42.569556
1529.000000	42.505539
1528.000000	42.452373
1527.000000	42.395734
1526.000000	42.323796
1525.000000	42.257718
1524.000000	42.200862
1523.000000	42.140968
1522.000000	42.075866
1521.000000	42.029427
1520.000000	41.968665
1519.000000	41.888264
1518.000000	41.817194
1517.000000	41.750356
1516.000000	41.669521
1515.000000	41.606372
1514.000000	41.542897
1513.000000	41.488754
1512.000000	41.406509
1511.000000	41.338586
1510.000000	41.259595
1509.000000	41.177133
1508.000000	41.122230
1507.000000	41.055175
1506.000000	40.984214
1505.000000	40.938642
1504.000000	40.877663
1503.000000	40.809198
1502.000000	40.758418
1501.000000	40.708615
1500.000000	40.659463
1499.000000	40.630167
1498.000000	40.595772
1497.000000	40.563980
1496.000000	40.562027
1495.000000	40.542497
1494.000000	40.529910
1493.000000	40.521989
1492.000000	40.538807
1491.000000	40.552262
1490.000000	40.565174
1489.000000	40.579822
1488.000000	40.599352
1487.000000	40.609552
1486.000000	40.627563
1485.000000	40.643079
1484.000000	40.674220
1483.000000	40.689302
1482.000000	40.715885
1481.000000	40.745723
1480.000000	40.770137
1479.000000	40.791295
1478.000000	40.820699
1477.000000	40.852382
1476.000000	40.916291
1475.000000	40.943525
1474.000000	40.979440
1473.000000	41.042697
1472.000000	41.140893
1471.000000	41.207731
1470.000000	41.251132
1469.000000	41.320791
1468.000000	41.381987
1467.000000	41.449585
1466.000000	41.561343
1465.000000	41.627964
1464.000000	41.703591
1463.000000	41.794625
1462.000000	41.870361
1461.000000	41.958031
1460.000000	42.051887
1459.000000	42.141836
1458.000000	42.228856
1457.000000	42.325858
1456.000000	42.410599
1455.000000	42.504671
1454.000000	42.592667
1453.000000	42.686306
1452.000000	42.786563
1451.000000	42.867506
1450.000000	42.985558
1449.000000	43.036121
1448.000000	43.111965
1447.000000	43.207556
1446.000000	43.324414
1445.000000	43.430639
1444.000000	43.495524
1443.000000	43.570608
1442.000000	43.683452
1441.000000	43.802046
1440.000000	43.897095
1439.000000	44.001150
1438.000000	44.146110
1437.000000	44.251141
1436.000000	44.360730
1435.000000	44.482687
1434.000000	44.627539
1433.000000	44.790403
1432.000000	44.965853
1431.000000	45.111681
1430.000000	45.232554
1429.000000	45.415599
1428.000000	45.621322
1427.000000	45.812071
1426.000000	45.989257
1425.000000	46.220043
1424.000000	46.456906
1423.000000	46.681291
1422.000000	46.918696
1421.000000	47.166192
1420.000000	47.447976
1419.000000	47.794427
1418.000000	48.073715
1417.000000	48.340850
1416.000000	48.598111
1415.000000	48.915267
1414.000000	49.356441
1413.000000	49.680866
1412.000000	49.963626
1411.000000	50.333948
1410.000000	50.749624
1409.000000	51.214019
1408.000000	51.625029
1407.000000	52.041899
1406.000000	52.427954
1405.000000	52.868803
1404.000000	53.232290
1403.000000	53.613679
1402.000000	53.972391
1401.000000	54.456208
1400.000000	54.980930
1399.000000	55.336278
1398.000000	55.494476
1397.000000	55.835394
1396.000000	56.281777
1395.000000	56.758649
1394.000000	56.992365
1393.000000	57.231398
1392.000000	57.551049
1391.000000	57.903468
1390.000000	58.137184
1389.000000	58.423741
1388.000000	58.840611
1387.000000	59.132377
1386.000000	59.379547
1385.000000	59.644079
1384.000000	59.977835
1383.000000	60.204064
1382.000000	60.487041
1381.000000	60.686362
1380.000000	60.778807
1379.000000	60.928324
1378.000000	61.037370
1377.000000	61.144246
1376.000000	61.258175
1375.000000	61.401073
1374.000000	61.487551
1373.000000	61.627520
1372.000000	61.778231
1371.000000	61.950643
1370.000000	62.071624
1369.000000	62.190435
1368.000000	62.369466
1367.000000	62.472544
1366.000000	62.562710
1365.000000	62.701486
1364.000000	62.842107
1363.000000	62.926197
1362.000000	63.105553
1361.000000	63.190294
1360.000000	63.221434
1359.000000	63.206244
1358.000000	63.306501
1357.000000	63.394606
1356.000000	63.499528
1355.000000	63.646442
1354.000000	63.789666
1353.000000	63.904354
1352.000000	64.039550
1351.000000	64.213372
1350.000000	64.396526
1349.000000	64.591072
1348.000000	64.804498
1347.000000	64.990148
1346.000000	65.158219
1345.000000	65.328027
1344.000000	65.544708
1343.000000	65.720267
1342.000000	65.870110
1341.000000	66.048055
1340.000000	66.185638
1339.000000	66.324413
1338.000000	66.467746
1337.000000	66.613900
1336.000000	66.758210
1335.000000	66.871053
1334.000000	66.980316
1333.000000	67.094787
1332.000000	67.213056
1331.000000	67.320366
1330.000000	67.419104
1329.000000	67.495816
1328.000000	67.581533
1327.000000	67.649131
1326.000000	67.722588
1325.000000	67.797780
1324.000000	67.864076
1323.000000	67.924404
1322.000000	67.990808
1321.000000	68.049183
1320.000000	68.102132
1319.000000	68.153346
1318.000000	68.201087
1317.000000	68.252518
1316.000000	68.296136
1315.000000	68.338561
1314.000000	68.388690
1313.000000	68.422109
1312.000000	68.452164
1311.000000	68.485258
1310.000000	68.519870
1309.000000	68.551662
1308.000000	68.574013
1307.000000	68.599295
1306.000000	68.617740
1305.000000	68.628157
1304.000000	68.647579
1303.000000	68.666024
1302.000000	68.679804
1301.000000	68.698141
1300.000000	68.696188
1299.000000	68.697924
1298.000000	68.701179
1297.000000	68.700745
1296.000000	68.699443
1295.000000	68.691089
1294.000000	68.696948
1293.000000	68.701939
1292.000000	68.692608
1291.000000	68.675790
1290.000000	68.650074
1289.000000	68.624793
1288.000000	68.606239
1287.000000	68.580632
1286.000000	68.560233
1285.000000	68.542439
1284.000000	68.528442
1283.000000	68.501208
1282.000000	68.473214
1281.000000	68.453683
1280.000000	68.446196
1279.000000	68.422868
1278.000000	68.396068
1277.000000	68.385218
1276.000000	68.396936
1275.000000	68.402687
1274.000000	68.398455
1273.000000	68.397695
1272.000000	68.409631
1271.000000	68.420807
1270.000000	68.424279
1269.000000	68.426015
1268.000000	68.428619
1267.000000	68.441314
1266.000000	68.445871
1265.000000	68.454660
1264.000000	68.462689
1263.000000	68.449018
1262.000000	68.446413
1261.000000	68.441965
1260.000000	68.448367
1259.000000	68.443918
1258.000000	68.437299
1257.000000	68.442941
1256.000000	68.424821
1255.000000	68.422651
1254.000000	68.417552
1253.000000	68.416467
1252.000000	68.389341
1251.000000	68.364710
1250.000000	68.326517
1249.000000	68.265104
1248.000000	68.228756
1247.000000	68.196639
1246.000000	68.152912
1245.000000	68.093995
1244.000000	68.047664
1243.000000	67.985817
1242.000000	67.950228
1241.000000	67.913011
1240.000000	67.854311
1239.000000	67.809282
1238.000000	67.766423
1237.000000	67.721177
1236.000000	67.686673
1235.000000	67.637629
1234.000000	67.590539
1233.000000	67.545619
1232.000000	67.491584
1231.000000	67.439936
1230.000000	67.401092
1229.000000	67.341741
1228.000000	67.300184
1227.000000	67.244847
1226.000000	67.169112
1225.000000	67.125168
1224.000000	67.056160
1223.000000	67.008527
1222.000000	66.948525
1221.000000	66.879733
1220.000000	66.821684
1219.000000	66.765371
1218.000000	66.692674
1217.000000	66.621712
1216.000000	66.567895
1215.000000	66.535778
1214.000000	66.478054
1213.000000	66.421090
1212.000000	66.357724
1211.000000	66.304883
1210.000000	66.266255
1209.000000	66.202456
1208.000000	66.132905
1207.000000	66.099269
1206.000000	66.058038
1205.000000	66.009645
1204.000000	65.970801
1203.000000	65.909388
1202.000000	65.868265
1201.000000	65.805984
1200.000000	65.775820
1199.000000	65.708223
1198.000000	65.655816
1197.000000	65.607966
1196.000000	65.536896
1195.000000	65.465501
1194.000000	65.398337
1193.000000	65.325965
1192.000000	65.247192
1191.000000	65.182198
1190.000000	65.135868
1189.000000	65.077710
1188.000000	65.047437
1187.000000	65.015429
1186.000000	65.015754
1185.000000	65.005663
1184.000000	65.025954
1183.000000	65.063930
1182.000000	65.101689
1181.000000	65.141510
1180.000000	65.197280
1179.000000	65.221477
1178.000000	65.273341
1177.000000	65.353634
1176.000000	65.401375
1175.000000	65.452372
1174.000000	65.495990
1173.000000	65.566192
1172.000000	65.622831
1171.000000	65.703557
1170.000000	65.792747
1169.000000	65.885626
1168.000000	65.984364
1167.000000	66.088418
1166.000000	66.235766
1165.000000	66.354035
1164.000000	66.481092
1163.000000	66.602073
1162.000000	66.737594
1161.000000	66.891235
1160.000000	67.026105
1159.000000	67.157936
1158.000000	67.273709
1157.000000	67.412485
1156.000000	67.533466
1155.000000	67.636327
1154.000000	67.760564
1153.000000	67.832501
1152.000000	67.922668
1151.000000	67.998837
1150.000000	68.052655
1149.000000	68.125786
1148.000000	68.197073
1147.000000	68.277148
1146.000000	68.336391
1145.000000	68.419288
1144.000000	68.478096
1143.000000	68.535386
1142.000000	68.588553
1141.000000	68.670690
1140.000000	68.737094
1139.000000	68.836809
1138.000000	68.908204
1137.000000	69.003904
1136.000000	69.097651
1135.000000	69.225902
1134.000000	69.346232
1133.000000	69.374009
1132.000000	69.428911
1131.000000	69.519837
1130.000000	69.561394
1129.000000	69.655683
1128.000000	69.709176
1127.000000	69.736735
1126.000000	69.772650
1125.000000	69.806720
1124.000000	69.827770
1123.000000	69.845456
1122.000000	69.862057
1121.000000	69.837535
1120.000000	69.827227
1119.000000	69.813013
1118.000000	69.782741
1117.000000	69.771348
1116.000000	69.754421
1115.000000	69.731419
1114.000000	69.689970
1113.000000	69.671742
1112.000000	69.641252
1111.000000	69.618250
1110.000000	69.590256
1109.000000	69.565843
1108.000000	69.524937
1107.000000	69.499439
1106.000000	69.453650
1105.000000	69.442691
1104.000000	69.417084
1103.000000	69.365437
1102.000000	69.334730
1101.000000	69.306845
1100.000000	69.274837
1099.000000	69.260514
1098.000000	69.207022
1097.000000	69.162210
1096.000000	69.152879
1095.000000	69.130636
1094.000000	69.100363
1093.000000	69.051971
1092.000000	69.007918
1091.000000	68.991100
1090.000000	68.950954
1089.000000	68.908421
1088.000000	68.846465
1087.000000	68.815433
1086.000000	68.779085
1085.000000	68.739481
1084.000000	68.707473
1083.000000	68.655391
1082.000000	68.606673
1081.000000	68.567829
1080.000000	68.516073
1079.000000	68.467138
1078.000000	68.434912
1077.000000	68.385001
1076.000000	68.321418
1075.000000	68.269227
1074.000000	68.231143
1073.000000	68.188392
1072.000000	68.113417
1071.000000	68.065892
1070.000000	68.016089
1069.000000	67.957063
1068.000000	67.908020
1067.000000	67.871780
1066.000000	67.811777
1065.000000	67.750364
1064.000000	67.695787
1063.000000	67.644465
1062.000000	67.585656
1061.000000	67.513285
1060.000000	67.436247
1059.000000	67.375377
1058.000000	67.318847
1057.000000	67.263510
1056.000000	67.196780
1055.000000	67.141335
1054.000000	67.092400
1053.000000	67.023175
1052.000000	66.964800
1051.000000	66.899047
1050.000000	66.852716
1049.000000	66.801611
1048.000000	66.737160
1047.000000	66.677483
1046.000000	66.613792
1045.000000	66.558672
1044.000000	66.499321
1043.000000	66.432374
1042.000000	66.378665
1041.000000	66.329296
1040.000000	66.272874
1039.000000	66.204734
1038.000000	66.142453
1037.000000	66.095797
1036.000000	66.033733
1035.000000	65.979373
1034.000000	65.934235
1033.000000	65.875101
1032.000000	65.811626
1031.000000	65.748369
1030.000000	65.686739
1029.000000	65.629124
1028.000000	65.572702
1027.000000	65.500330
1026.000000	65.441196
1025.000000	65.379132
1024.000000	65.312511
1023.000000	65.262274
1022.000000	65.209650
1021.000000	65.143571
1020.000000	65.084328
1019.000000	65.005446
1018.000000	64.929277
1017.000000	64.871445
1016.000000	64.808621
1015.000000	64.760554
1014.000000	64.713030
1013.000000	64.644781
1012.000000	64.581849
1011.000000	64.547888
1010.000000	64.507742
1009.000000	64.442423
1008.000000	64.397177
1007.000000	64.362239
1006.000000	64.285310
1005.000000	64.211527
1004.000000	64.170622
1003.000000	64.134382
1002.000000	64.084253
1001.000000	64.032605
1000.000000	63.992676
999.000000	63.932240
998.000000	63.893179
997.000000	63.838601
996.000000	63.798564
995.000000	63.768942
994.000000	63.702213
993.000000	63.656641
992.000000	63.614108
991.000000	63.574070
990.000000	63.507341
989.000000	63.475983
988.000000	63.445819
987.000000	63.385600
986.000000	63.312686
985.000000	63.267548
984.000000	63.242375
983.000000	63.201470
982.000000	63.164470
981.000000	63.120960
980.000000	63.075714
979.000000	63.050758
978.000000	63.016905
977.000000	62.961786
976.000000	62.912091
975.000000	62.895599
974.000000	62.843734
973.000000	62.794474
972.000000	62.750530
971.000000	62.714832
970.000000	62.688466
969.000000	62.644739
968.000000	62.604159
967.000000	62.564772
966.000000	62.547411
965.000000	62.525385
964.000000	62.485999
963.000000	62.441078
962.000000	62.429902
961.000000	62.401366
960.000000	62.384222
959.000000	62.382812
958.000000	62.372179
957.000000	62.332792
956.000000	62.325305
955.000000	62.327258
954.000000	62.323352
953.000000	62.308379
952.000000	62.297745
951.000000	62.266713
950.000000	62.278106
949.000000	62.264001
948.000000	62.264218
947.000000	62.250004
946.000000	62.239913
945.000000	62.272681
944.000000	62.265086
943.000000	62.253910
942.000000	62.254018
941.000000	62.268232
940.000000	62.229063
939.000000	62.245338
938.000000	62.230799
937.000000	62.243060
936.000000	62.260312
935.000000	62.289282
934.000000	62.315648
933.000000	62.308053
932.000000	62.310440
931.000000	62.314780
930.000000	62.308921
929.000000	62.312936
928.000000	62.307076
927.000000	62.325848
926.000000	62.306859
925.000000	62.330947
924.000000	62.327909
923.000000	62.368381
922.000000	62.359050
921.000000	62.344293
920.000000	62.369140
919.000000	62.355577
918.000000	62.393662
917.000000	62.394530
916.000000	62.416773
915.000000	62.460717
914.000000	62.465600
913.000000	62.497934
912.000000	62.508242
911.000000	62.518333
910.000000	62.585713
909.000000	62.598082
908.000000	62.616094
907.000000	62.651466
906.000000	62.666440
905.000000	62.684234
904.000000	62.742392
903.000000	62.765937
902.000000	62.804673
901.000000	62.826048
900.000000	62.869666
899.000000	62.860661
898.000000	62.867930
897.000000	62.869015
896.000000	62.873139
895.000000	62.871619
894.000000	62.869232
893.000000	62.905690
892.000000	62.906558
891.000000	62.912525
890.000000	62.896792
889.000000	62.899939
888.000000	62.830714
887.000000	62.836030
886.000000	62.782104
885.000000	62.748251
884.000000	62.727744
883.000000	62.671648
882.000000	62.618481
881.000000	62.601121
880.000000	62.538623
879.000000	62.462453
878.000000	62.412976
877.000000	62.315865
876.000000	62.232969
875.000000	62.166782
874.000000	62.090829
873.000000	61.950860
872.000000	61.875342
871.000000	61.725824
870.000000	61.691862
869.000000	61.627737
868.000000	61.469756
867.000000	61.365701
866.000000	61.224430
865.000000	61.116903
864.000000	60.906841
863.000000	60.714247
862.000000	60.538146
861.000000	60.283380
860.000000	59.988685
859.000000	59.761262
858.000000	60.519267
857.000000	60.413100
856.000000	60.379800
855.000000	60.764900
854.000000	60.242800
853.000000	60.314000
852.000000	60.660600
851.000000	60.683700
850.000000	60.566600
849.000000	60.585000
848.000000	60.728200
847.000000	60.583500
846.000000	60.894400
845.000000	61.076300
844.000000	60.994400
843.000000	60.953400
842.000000	61.085700
841.000000	61.185200
840.000000	61.067800
839.000000	61.168100
838.000000	61.173600
837.000000	61.274600
836.000000	61.031700
835.000000	61.259700
834.000000	61.025100
833.000000	61.069100
832.000000	61.206000
831.000000	61.237800
830.000000	61.009900
829.000000	61.111700
828.000000	61.180300
827.000000	61.211400
826.000000	61.121800
825.000000	61.225000
824.000000	61.221100
823.000000	61.112000
822.000000	61.122700
821.000000	61.208500
820.000000	61.282600
819.000000	61.201000
818.000000	61.358400
817.000000	61.340000
816.000000	61.466400
815.000000	61.554300
814.000000	61.602700
813.000000	61.681500
812.000000	61.690000
811.000000	61.705400
810.000000	61.893100
809.000000	62.033100
808.000000	62.100600
807.000000	62.194600
806.000000	62.221500
805.000000	62.335200
804.000000	62.617600
803.000000	62.683500
802.000000	62.768300
801.000000	62.815000
800.000000	62.954000
799.000000	63.081100
798.000000	63.238100
797.000000	63.400200
796.000000	63.515500
795.000000	63.651700
794.000000	63.686600
793.000000	63.824100
792.000000	64.014400
791.000000	64.100100
790.000000	64.210000
789.000000	64.326600
788.000000	64.452100
787.000000	64.558600
786.000000	64.724200
785.000000	64.887400
784.000000	64.953300
783.000000	65.110600
782.000000	65.234300
781.000000	65.393100
780.000000	65.550200
779.000000	65.643500
778.000000	65.749800
777.000000	65.910200
776.000000	66.083600
775.000000	66.206300
774.000000	66.382700
773.000000	66.578000
772.000000	66.767800
771.000000	66.940700
770.000000	67.085700
769.000000	67.269600
768.000000	67.333500
767.000000	67.465500
766.000000	67.712700
765.000000	67.827900
764.000000	67.893900
763.000000	68.035600
762.000000	68.242500
761.000000	68.400200
760.000000	68.582900
759.000000	68.785500
758.000000	68.948900
757.000000	69.046500
756.000000	69.172100
755.000000	69.336000
754.000000	69.466600
753.000000	69.642600
752.000000	69.867700
751.000000	70.045200
750.000000	70.193600
749.000000	70.360700
748.000000	70.492300
747.000000	70.568200
746.000000	70.668300
745.000000	70.828700
744.000000	70.946200
743.000000	71.015700
742.000000	71.145100
741.000000	71.305300
740.000000	71.421800
739.000000	71.528400
738.000000	71.666100
737.000000	71.790500
736.000000	71.877600
735.000000	71.915600
734.000000	71.934100
733.000000	72.020200
732.000000	72.134000
731.000000	72.213400
730.000000	72.247100
729.000000	72.298300
728.000000	72.356700
727.000000	72.397700
726.000000	72.403000
725.000000	72.438700
724.000000	72.452600
723.000000	72.529300
722.000000	72.593900
721.000000	72.663300
720.000000	72.677200
719.000000	72.689500
718.000000	72.730500
717.000000	72.733200
716.000000	72.738300
715.000000	72.734700
714.000000	72.793200
713.000000	72.832800
712.000000	72.813200
711.000000	72.772600
710.000000	72.747600
709.000000	72.713900
708.000000	72.666500
707.000000	72.574500
706.000000	72.513400
705.000000	72.446000
704.000000	72.339900
703.000000	72.260100
702.000000	72.225500
701.000000	72.109700
700.000000	71.992700
699.000000	71.873100
698.000000	71.709300
697.000000	71.589400
696.000000	71.432000
695.000000	71.275600
694.000000	71.144500
693.000000	70.993300
692.000000	70.828400
691.000000	70.719600
690.000000	70.501400
689.000000	70.341800
688.000000	70.214200
687.000000	70.093000
686.000000	69.970400
685.000000	69.805400
684.000000	69.669300
683.000000	69.478500
682.000000	69.355600
681.000000	69.244000
680.000000	69.068900
679.000000	68.863000
678.000000	68.636900
677.000000	68.473700
676.000000	68.318400
675.000000	68.126400
674.000000	67.936300
673.000000	67.750400
672.000000	67.583500
671.000000	67.382900
670.000000	67.186900
669.000000	66.961100
668.000000	66.758100
667.000000	66.509000
666.000000	66.326100
665.000000	66.082100
664.000000	65.812600
663.000000	65.610800
662.000000	65.346200
661.000000	65.107100
660.000000	64.815300
659.000000	64.590500
658.000000	64.284900
657.000000	63.979500
656.000000	63.680300
655.000000	63.379300
654.000000	63.091000
653.000000	62.740500
652.000000	62.465400
651.000000	62.123000
650.000000	61.816000
649.000000	61.459000
648.000000	61.105500
647.000000	60.755900
646.000000	60.388200
645.000000	60.021700
644.000000	59.634500
643.000000	59.240400
642.000000	58.810100
641.000000	58.374900
640.000000	57.945600
639.000000	57.538200
638.000000	57.123100
637.000000	56.691200
636.000000	56.224100
635.000000	55.864800
634.000000	55.532400
633.000000	55.137200
632.000000	54.819100
631.000000	54.467700
630.000000	54.188500
629.000000	53.912500
628.000000	53.694600
627.000000	53.491600
626.000000	53.350100
625.000000	53.209100
624.000000	53.096300
623.000000	53.004500
622.000000	53.004200
621.000000	52.955400
620.000000	52.959300
619.000000	52.989900
618.000000	53.052600
617.000000	53.057600
616.000000	53.137100
615.000000	53.269800
614.000000	53.394400
613.000000	53.546200
612.000000	53.736400
611.000000	53.878600
610.000000	54.067400
609.000000	54.250300
608.000000	54.529100
607.000000	54.765800
606.000000	54.969400
605.000000	55.204400
604.000000	55.425300
603.000000	55.711600
602.000000	55.940100
601.000000	56.211200
600.000000	56.452100
599.000000	56.723000
598.000000	56.989600
597.000000	57.289600
596.000000	57.529400
595.000000	57.829900
594.000000	58.058000
593.000000	58.290800
592.000000	58.584500
591.000000	58.904900
590.000000	59.168100
589.000000	59.460100
588.000000	59.689400
587.000000	59.998100
586.000000	60.218100
585.000000	60.469900
584.000000	60.723900
583.000000	60.951300
582.000000	61.177900
581.000000	61.434600
580.000000	61.653500
579.000000	61.894800
578.000000	62.089300
577.000000	62.187400
576.000000	62.352200
575.000000	62.527000
574.000000	62.656600
573.000000	62.795800
572.000000	62.903100
571.000000	63.036700
570.000000	63.183000
569.000000	63.233100
568.000000	63.352500
567.000000	63.401600
566.000000	63.431900
565.000000	63.476800
564.000000	63.538000
563.000000	63.523600
562.000000	63.528900
561.000000	63.533800
560.000000	63.516000
559.000000	63.683500
558.000000	63.546800
557.000000	63.455600
556.000000	63.341000
555.000000	63.165100
554.000000	62.984300
553.000000	62.808300
552.000000	62.590800
551.000000	62.401600
550.000000	62.172900
549.000000	61.997700
548.000000	61.810900
547.000000	61.647900
546.000000	61.447800
545.000000	61.234300
544.000000	61.044600
543.000000	60.815300
542.000000	60.598100
541.000000	60.383200
540.000000	60.153200
539.000000	59.904700
538.000000	59.618600
537.000000	59.330900
536.000000	58.960700
535.000000	58.613500
534.000000	58.232800
533.000000	57.858700
532.000000	57.423200
531.000000	56.983900
530.000000	56.544600
529.000000	56.096600
528.000000	55.677400
527.000000	55.214800
526.000000	54.762000
525.000000	54.273400
524.000000	53.792700
523.000000	53.311600
522.000000	52.830400
521.000000	52.347500
520.000000	51.829400
519.000000	51.302900
518.000000	50.782700
517.000000	50.208000
516.000000	49.621400
515.000000	49.024200
514.000000	48.411900
513.000000	47.746100
512.000000	47.074100
511.000000	46.383100
510.000000	45.747600
509.000000	45.073200
508.000000	44.434000
507.000000	43.801700
506.000000	43.191200
505.000000	42.548700
504.000000	41.946300
503.000000	41.326000
502.000000	40.702400
501.000000	40.065400
500.000000	39.464300
499.000000	38.867800
498.000000	38.240000
497.000000	37.626900
496.000000	37.012000
495.000000	36.414300
494.000000	35.829900
493.000000	35.251200
492.000000	34.707400
491.000000	34.177300
490.000000	33.652800
489.000000	33.123700
488.000000	32.621700
487.000000	32.171500
486.000000	31.722800
485.000000	31.302400
484.000000	30.841000
483.000000	30.386400
482.000000	29.948300
481.000000	29.500400
480.000000	29.053200
479.000000	28.623200
478.000000	28.224100
477.000000	27.826400
476.000000	27.437600
475.000000	27.077200
474.000000	26.700900
473.000000	26.345700
472.000000	26.021200
471.000000	25.720500
470.000000	25.425200
469.000000	25.161100
468.000000	24.904200
467.000000	24.646000
466.000000	24.406400
465.000000	24.194000
464.000000	23.965100
463.000000	23.765200
462.000000	23.559700
461.000000	23.360000
460.000000	23.179000
459.000000	23.013100
458.000000	22.853300
457.000000	22.690700
456.000000	22.564800
455.000000	22.426000
454.000000	22.277800
453.000000	22.134300
452.000000	21.987700
451.000000	21.857700
450.000000	21.728800
449.000000	21.600300
448.000000	21.490600
447.000000	21.375500
446.000000	21.243300
445.000000	21.128300
444.000000	21.024200
443.000000	20.911300
442.000000	20.793300
441.000000	20.675500
440.000000	20.536000
439.000000	20.409800
438.000000	20.301600
437.000000	20.198500
436.000000	20.102000
435.000000	19.996800
434.000000	19.866400
433.000000	19.763000
432.000000	19.664000
431.000000	19.536200
430.000000	19.415600
429.000000	19.297800
428.000000	19.190500
427.000000	19.079900
426.000000	18.944300
425.000000	18.779500
424.000000	18.641900
423.000000	18.502500
422.000000	18.316000
421.000000	18.123000
420.000000	17.941300
419.000000	17.770900
418.000000	17.580100
417.000000	17.376600
416.000000	17.159700
415.000000	16.940000
414.000000	16.716900
413.000000	16.455900
412.000000	16.185600
411.000000	15.945500
410.000000	15.691600
409.000000	15.426100
408.000000	15.152400
407.000000	14.871300
406.000000	14.588500
405.000000	14.274400
404.000000	13.980300
403.000000	13.695600
402.000000	13.395800
401.000000	13.091700
400.000000	12.791200
399.000000	12.474600
398.000000	12.157900
397.000000	11.851300
396.000000	11.562700
395.000000	11.270800
394.000000	10.975900
393.000000	10.681600
392.000000	10.383800
391.000000	10.124500
390.000000	9.853900
389.000000	9.580500
388.000000	9.335700
387.000000	9.088400
386.000000	8.852100
385.000000	8.635400
384.000000	8.414800
383.000000	8.205400
382.000000	8.005500
381.000000	7.799100
380.000000	7.630600
379.000000	7.458800
378.000000	7.300100
377.000000	7.162400
376.000000	7.047800
375.000000	6.686700
374.000000	6.637600
373.000000	6.600100
372.000000	6.458600
371.000000	6.405000
370.000000	6.355300
369.000000	6.290200
368.000000	6.225300
367.000000	6.137000
366.000000	6.109800
365.000000	6.053100
364.000000	6.019300
363.000000	5.978600
362.000000	5.944700
361.000000	5.916500
360.000000	5.855200
359.000000	5.795200
358.000000	5.683100
357.000000	5.646200
356.000000	5.643200
355.000000	5.646500
354.000000	5.563700
353.000000	5.582900
352.000000	5.534500
351.000000	5.522000
350.000000	5.465400
349.000000	5.511000
348.000000	5.460300
347.000000	5.416900
346.000000	5.407500
345.000000	5.313800
344.000000	5.359000
343.000000	5.372500
342.000000	5.390600
341.000000	5.333000
340.000000	5.317700
339.000000	5.304700
338.000000	5.254900
337.000000	5.347900
336.000000	5.371700
335.000000	5.376400
334.000000	5.439400
333.000000	5.286600
332.000000	5.220700
331.000000	5.378500
330.000000	5.361000
329.000000	5.347900
328.000000	5.354000
327.000000	5.192200
326.000000	5.409700
325.000000	5.258600
324.000000	5.278200
323.000000	5.501600
322.000000	5.341000
321.000000	5.269000
320.000000	5.415200
319.000000	5.716100
318.000000	5.682500
317.000000	5.873500
316.000000	5.113600
315.000000	5.067700
314.000000	5.067200
313.000000	5.069200
312.000000	4.986700
311.000000	5.010300
310.000000	5.043000
309.000000	5.041700
308.000000	4.988200
307.000000	5.022800
306.000000	5.035800
305.000000	5.103600
304.000000	5.033900
303.000000	5.049500
302.000000	5.059900
301.000000	5.028500
300.000000	5.049000
299.000000	4.991200
298.000000	4.984900
297.000000	5.031500
296.000000	5.008100
295.000000	5.028000
294.000000	5.018000
293.000000	4.985300
292.000000	4.997200
291.000000	5.010000
290.000000	4.988000
289.000000	4.941500
288.000000	5.009000
287.000000	4.947300
286.000000	4.949500
285.000000	4.973800
284.000000	4.955600
283.000000	4.990500
282.000000	5.023100
281.000000	4.915400
280.000000	5.007200
279.000000	5.005900
278.000000	5.003100
277.000000	4.977700
276.000000	5.046800
275.000000	5.097200
274.000000	5.022000
273.000000	5.059800
272.000000	5.045600
271.000000	5.114600
270.000000	5.130300
269.000000	5.125800
268.000000	5.107500
267.000000	5.157600
266.000000	5.136700
265.000000	5.207100
264.000000	5.216500
263.000000	5.221000
262.000000	5.244500
261.000000	5.304900
260.000000	5.319100
259.000000	5.237500
258.000000	5.370400
257.000000	5.374500
256.000000	5.373700
255.000000	5.311700
254.000000	5.390000
253.000000	5.369200
252.000000	5.432100
251.000000	5.434200
250.000000	5.404500
