PE UV       SUBTECH     SPECTRUM    ASCII       PEDS        4.00        
   -1
CICIMAUCR0244-2.Sample.ASC
24/06/21
14:36:34.00
24/06/21
14:36:34.00
Vinicio Soto Monge
C. cupreomarginata. Ventral. Sex M
250,000000
1
Lambda 1050
1050L1511233
PerkinElmer UV WinLab 6.3.2.0749 / 2.02.05 Lambda 900 UV/VIS/NIR, Aug  7 2015 09:38:08

0
0
3350/servo 860,8/2
0
0
UV/VIS
1
1
1
DoubleDePol,CommonBeamDepol,RBeamAtt,SBeamAtt,60mm sphere, WB InGaAs Detector
0
0
0
0
Program
Program
3350/servo 860,8/2
3350/0,2 860,8/0,2
3350/0,2 860,8/0,2
0
15.00
 
 
 
0
 
860,8
319,2
860,8
Front
100
on
S:100 R:100
0
0
0
0
 
0
 
 
 
0
 
 
0
0
0
0
0
 
 
 
 
0
0


0
0
#HDR
-1
-1
#GR
nm
%R
1.0
0.0
2500,000000
-1,000000
2251
8
56,913700
3,918900
#DATA
2482.000000	4.819468
2481.000000	4.804345
2480.000000	4.818908
2479.000000	4.801880
2478.000000	4.750349
2477.000000	4.834479
2476.000000	4.790342
2475.000000	4.761664
2474.000000	4.819580
2473.000000	4.777123
2472.000000	4.769617
2471.000000	4.776675
2470.000000	4.709125
2469.000000	4.768161
2468.000000	4.730969
2467.000000	4.710357
2466.000000	4.707108
2465.000000	4.731193
2464.000000	4.756623
2463.000000	4.786197
2462.000000	4.745980
2461.000000	4.750797
2460.000000	4.784068
2459.000000	4.754942
2458.000000	4.743628
2457.000000	4.766369
2456.000000	4.784853
2455.000000	4.795159
2454.000000	4.790342
2453.000000	4.820140
2452.000000	4.836943
2451.000000	4.838064
2450.000000	4.837616
2449.000000	4.832350
2448.000000	4.864165
2447.000000	4.870662
2446.000000	4.881417
2445.000000	4.894523
2444.000000	4.904045
2443.000000	4.925666
2442.000000	4.918496
2441.000000	4.925106
2440.000000	4.952776
2439.000000	4.980445
2438.000000	5.010244
2437.000000	5.033544
2436.000000	5.014724
2435.000000	5.015845
2434.000000	5.037801
2433.000000	5.046987
2432.000000	5.058974
2431.000000	5.085635
2430.000000	5.099862
2429.000000	5.096277
2428.000000	5.108936
2427.000000	5.135038
2426.000000	5.144111
2425.000000	5.160131
2424.000000	5.144896
2423.000000	5.156770
2422.000000	5.182199
2421.000000	5.190265
2420.000000	5.194858
2419.000000	5.200683
2418.000000	5.213230
2417.000000	5.210317
2416.000000	5.220287
2415.000000	5.233954
2414.000000	5.251318
2413.000000	5.254118
2412.000000	5.246725
2411.000000	5.248069
2410.000000	5.261512
2409.000000	5.259944
2408.000000	5.269129
2407.000000	5.290078
2406.000000	5.303857
2405.000000	5.319428
2404.000000	5.308114
2403.000000	5.310130
2402.000000	5.321892
2401.000000	5.322901
2400.000000	5.328390
2399.000000	5.335223
2398.000000	5.364685
2397.000000	5.380369
2396.000000	5.399301
2395.000000	5.415208
2394.000000	5.421817
2393.000000	5.420809
2392.000000	5.422153
2391.000000	5.422713
2390.000000	5.437501
2389.000000	5.459569
2388.000000	5.463042
2387.000000	5.470995
2386.000000	5.471892
2385.000000	5.481862
2384.000000	5.486007
2383.000000	5.490712
2382.000000	5.492840
2381.000000	5.497881
2380.000000	5.486343
2379.000000	5.481526
2378.000000	5.488583
2377.000000	5.493736
2376.000000	5.495305
2375.000000	5.492616
2374.000000	5.488023
2373.000000	5.486343
2372.000000	5.484438
2371.000000	5.483990
2370.000000	5.484662
2369.000000	5.475028
2368.000000	5.466066
2367.000000	5.469875
2366.000000	5.460129
2365.000000	5.443102
2364.000000	5.423162
2363.000000	5.429547
2362.000000	5.440077
2361.000000	5.414424
2360.000000	5.388770
2359.000000	5.388994
2358.000000	5.387650
2357.000000	5.382049
2356.000000	5.375776
2355.000000	5.365918
2354.000000	5.365021
2353.000000	5.358972
2352.000000	5.366590
2351.000000	5.376112
2350.000000	5.375664
2349.000000	5.371743
2348.000000	5.373647
2347.000000	5.374095
2346.000000	5.377904
2345.000000	5.391123
2344.000000	5.397396
2343.000000	5.416888
2342.000000	5.423498
2341.000000	5.415656
2340.000000	5.423498
2339.000000	5.437276
2338.000000	5.439853
2337.000000	5.442878
2336.000000	5.461249
2335.000000	5.462594
2334.000000	5.470099
2333.000000	5.480517
2332.000000	5.472676
2331.000000	5.464162
2330.000000	5.454080
2329.000000	5.447807
2328.000000	5.449935
2327.000000	5.430443
2326.000000	5.411847
2325.000000	5.411511
2324.000000	5.407254
2323.000000	5.387202
2322.000000	5.375216
2321.000000	5.351243
2320.000000	5.326149
2319.000000	5.325813
2318.000000	5.297807
2317.000000	5.279772
2316.000000	5.274843
2315.000000	5.240115
2314.000000	5.213454
2313.000000	5.189369
2312.000000	5.187352
2311.000000	5.174582
2310.000000	5.152737
2309.000000	5.135598
2308.000000	5.134813
2307.000000	5.127084
2306.000000	5.116666
2305.000000	5.123947
2304.000000	5.120026
2303.000000	5.125852
2302.000000	5.128092
2301.000000	5.115321
2300.000000	5.136270
2299.000000	5.166628
2298.000000	5.182087
2297.000000	5.184888
2296.000000	5.210541
2295.000000	5.213006
2294.000000	5.244708
2293.000000	5.251542
2292.000000	5.258599
2291.000000	5.269690
2290.000000	5.268905
2289.000000	5.295119
2288.000000	5.307553
2287.000000	5.296799
2286.000000	5.286045
2285.000000	5.304865
2284.000000	5.299040
2283.000000	5.278651
2282.000000	5.286605
2281.000000	5.292654
2280.000000	5.263192
2279.000000	5.272490
2278.000000	5.258935
2277.000000	5.263864
2276.000000	5.253894
2275.000000	5.229697
2274.000000	5.248181
2273.000000	5.225440
2272.000000	5.235410
2271.000000	5.237427
2270.000000	5.246725
2269.000000	5.223424
2268.000000	5.245941
2267.000000	5.249077
2266.000000	5.261960
2265.000000	5.293663
2264.000000	5.310130
2263.000000	5.365694
2262.000000	5.385634
2261.000000	5.414536
2260.000000	5.449375
2259.000000	5.531040
2258.000000	5.578762
2257.000000	5.641719
2256.000000	5.696274
2255.000000	5.736267
2254.000000	5.812891
2253.000000	5.882569
2252.000000	5.936901
2251.000000	5.995153
2250.000000	6.081299
2249.000000	6.156914
2248.000000	6.189625
2247.000000	6.250006
2246.000000	6.306690
2245.000000	6.361469
2244.000000	6.422746
2243.000000	6.467779
2242.000000	6.512140
2241.000000	6.569272
2240.000000	6.605456
2239.000000	6.627300
2238.000000	6.661355
2237.000000	6.691490
2236.000000	6.703812
2235.000000	6.753887
2234.000000	6.769794
2233.000000	6.807994
2232.000000	6.825470
2231.000000	6.806090
2230.000000	6.820653
2229.000000	6.857620
2228.000000	6.860085
2227.000000	6.874984
2226.000000	6.885290
2225.000000	6.865238
2224.000000	6.880249
2223.000000	6.861093
2222.000000	6.883386
2221.000000	6.870727
2220.000000	6.844290
2219.000000	6.841713
2218.000000	6.828046
2217.000000	6.808106
2216.000000	6.793991
2215.000000	6.786037
2214.000000	6.782005
2213.000000	6.812699
2212.000000	6.767329
2211.000000	6.752654
2210.000000	6.726665
2209.000000	6.737083
2208.000000	6.727113
2207.000000	6.718935
2206.000000	6.710086
2205.000000	6.701572
2204.000000	6.695859
2203.000000	6.697091
2202.000000	6.682304
2201.000000	6.683536
2200.000000	6.666172
2199.000000	6.678383
2198.000000	6.652842
2197.000000	6.670653
2196.000000	6.663596
2195.000000	6.670429
2194.000000	6.652618
2193.000000	6.648921
2192.000000	6.667741
2191.000000	6.647577
2190.000000	6.651497
2189.000000	6.642087
2188.000000	6.646456
2187.000000	6.637943
2186.000000	6.642535
2185.000000	6.602879
2184.000000	6.607808
2183.000000	6.606912
2182.000000	6.597166
2181.000000	6.597278
2180.000000	6.593693
2179.000000	6.587868
2178.000000	6.593357
2177.000000	6.599967
2176.000000	6.580363
2175.000000	6.555829
2174.000000	6.591341
2173.000000	6.584283
2172.000000	6.588764
2171.000000	6.587084
2170.000000	6.570392
2169.000000	6.574761
2168.000000	6.597166
2167.000000	6.598622
2166.000000	6.595710
2165.000000	6.595598
2164.000000	6.598958
2163.000000	6.618562
2162.000000	6.635030
2161.000000	6.635926
2160.000000	6.652057
2159.000000	6.655418
2158.000000	6.661916
2157.000000	6.676479
2156.000000	6.705157
2155.000000	6.720840
2154.000000	6.714903
2153.000000	6.737083
2152.000000	6.757247
2151.000000	6.774835
2150.000000	6.796007
2149.000000	6.824573
2148.000000	6.840145
2147.000000	6.834207
2146.000000	6.861429
2145.000000	6.880697
2144.000000	6.892572
2143.000000	6.927635
2142.000000	6.922594
2141.000000	6.940966
2140.000000	6.953848
2139.000000	6.977373
2138.000000	6.988127
2137.000000	6.981406
2136.000000	7.003923
2135.000000	7.020838
2134.000000	7.027672
2133.000000	7.044923
2132.000000	7.060383
2131.000000	7.056910
2130.000000	7.069344
2129.000000	7.082899
2128.000000	7.077858
2127.000000	7.086260
2126.000000	7.087268
2125.000000	7.085924
2124.000000	7.076290
2123.000000	7.089173
2122.000000	7.087156
2121.000000	7.073041
2120.000000	7.080547
2119.000000	7.089060
2118.000000	7.066544
2117.000000	7.061391
2116.000000	7.053213
2115.000000	7.050412
2114.000000	7.036858
2113.000000	7.042571
2112.000000	7.031144
2111.000000	7.039658
2110.000000	7.035513
2109.000000	7.014677
2108.000000	6.994737
2107.000000	6.987791
2106.000000	6.985999
2105.000000	6.981070
2104.000000	6.983871
2103.000000	6.962810
2102.000000	6.943318
2101.000000	6.938949
2100.000000	6.937157
2099.000000	6.934916
2098.000000	6.922594
2097.000000	6.907695
2096.000000	6.898957
2095.000000	6.892235
2094.000000	6.890555
2093.000000	6.876328
2092.000000	6.863558
2091.000000	6.872967
2090.000000	6.871399
2089.000000	6.855940
2088.000000	6.843281
2087.000000	6.821661
2086.000000	6.821997
2085.000000	6.839809
2084.000000	6.822109
2083.000000	6.799480
2082.000000	6.797464
2081.000000	6.776291
2080.000000	6.762961
2079.000000	6.770466
2078.000000	6.757807
2077.000000	6.733386
2076.000000	6.723640
2075.000000	6.714006
2074.000000	6.692274
2073.000000	6.681408
2072.000000	6.672334
2071.000000	6.641191
2070.000000	6.628309
2069.000000	6.627636
2068.000000	6.599407
2067.000000	6.581035
2066.000000	6.561543
2065.000000	6.545635
2064.000000	6.522110
2063.000000	6.497241
2062.000000	6.494777
2061.000000	6.493208
2060.000000	6.477413
2059.000000	6.458369
2058.000000	6.457809
2057.000000	6.442350
2056.000000	6.419609
2055.000000	6.433948
2054.000000	6.452432
2053.000000	6.447727
2052.000000	6.434956
2051.000000	6.458481
2050.000000	6.483798
2049.000000	6.496233
2048.000000	6.519086
2047.000000	6.540930
2046.000000	6.574985
2045.000000	6.598062
2044.000000	6.623716
2043.000000	6.648137
2042.000000	6.674014
2041.000000	6.706389
2040.000000	6.740444
2039.000000	6.775843
2038.000000	6.807210
2037.000000	6.822781
2036.000000	6.845970
2035.000000	6.869383
2034.000000	6.895372
2033.000000	6.900973
2032.000000	6.942534
2031.000000	6.955529
2030.000000	6.952056
2029.000000	6.977821
2028.000000	6.993841
2027.000000	7.012325
2026.000000	7.028792
2025.000000	7.040554
2024.000000	7.045371
2023.000000	7.055117
2022.000000	7.073937
2021.000000	7.080099
2020.000000	7.066432
2019.000000	7.071809
2018.000000	7.071921
2017.000000	7.089285
2016.000000	7.078082
2015.000000	7.081219
2014.000000	7.094886
2013.000000	7.088724
2012.000000	7.082899
2011.000000	7.064863
2010.000000	7.077970
2009.000000	7.075282
2008.000000	7.046828
2007.000000	7.050749
2006.000000	7.044363
2005.000000	7.024311
2004.000000	7.016693
2003.000000	6.989136
2002.000000	6.965387
2001.000000	6.984095
2000.000000	6.934020
1999.000000	6.908927
1998.000000	6.907247
1997.000000	6.892908
1996.000000	6.863782
1995.000000	6.845858
1994.000000	6.816060
1993.000000	6.793207
1992.000000	6.790406
1991.000000	6.762737
1990.000000	6.729578
1989.000000	6.694178
1988.000000	6.651049
1987.000000	6.633686
1986.000000	6.615762
1985.000000	6.591901
1984.000000	6.576554
1983.000000	6.526703
1982.000000	6.511244
1981.000000	6.487831
1980.000000	6.467219
1979.000000	6.431372
1978.000000	6.395636
1977.000000	6.386674
1976.000000	6.362029
1975.000000	6.316660
1974.000000	6.312627
1973.000000	6.293135
1972.000000	6.254375
1971.000000	6.243844
1970.000000	6.210237
1969.000000	6.199147
1968.000000	6.173382
1967.000000	6.168341
1966.000000	6.118154
1965.000000	6.094517
1964.000000	6.074801
1963.000000	6.066960
1962.000000	6.065279
1961.000000	6.052845
1960.000000	6.006579
1959.000000	6.018229
1958.000000	5.983278
1957.000000	5.963002
1956.000000	5.948327
1955.000000	5.925250
1954.000000	5.907102
1953.000000	5.897916
1952.000000	5.879321
1951.000000	5.869462
1950.000000	5.823981
1949.000000	5.846274
1948.000000	5.813115
1947.000000	5.813899
1946.000000	5.803481
1945.000000	5.792502
1944.000000	5.761920
1943.000000	5.741308
1942.000000	5.787237
1941.000000	5.753518
1940.000000	5.740636
1939.000000	5.745005
1938.000000	5.754975
1937.000000	5.747581
1936.000000	5.722264
1935.000000	5.724616
1934.000000	5.757887
1933.000000	5.769202
1932.000000	5.758783
1931.000000	5.771666
1930.000000	5.794295
1929.000000	5.784997
1928.000000	5.799336
1927.000000	5.819948
1926.000000	5.837872
1925.000000	5.853107
1924.000000	5.903966
1923.000000	5.899597
1922.000000	5.927267
1921.000000	5.986863
1920.000000	5.999746
1919.000000	6.043323
1918.000000	6.062255
1917.000000	6.092277
1916.000000	6.136974
1915.000000	6.200940
1914.000000	6.222336
1913.000000	6.297952
1912.000000	6.362925
1911.000000	6.408519
1910.000000	6.465203
1909.000000	6.513709
1908.000000	6.588764
1907.000000	6.636374
1906.000000	6.739884
1905.000000	6.807434
1904.000000	6.898733
1903.000000	6.999554
1902.000000	7.074722
1901.000000	7.176327
1900.000000	7.291375
1899.000000	7.413368
1898.000000	7.541971
1897.000000	7.636294
1896.000000	7.760192
1895.000000	7.888683
1894.000000	8.021543
1893.000000	8.157203
1892.000000	8.293087
1891.000000	8.483079
1890.000000	8.679120
1889.000000	8.858469
1888.000000	9.067056
1887.000000	9.254023
1886.000000	9.480647
1885.000000	9.704245
1884.000000	9.975902
1883.000000	10.273436
1882.000000	10.597071
1881.000000	10.901102
1880.000000	11.218913
1879.000000	11.513198
1878.000000	11.810172
1877.000000	12.121709
1876.000000	12.461475
1875.000000	12.769092
1874.000000	13.099336
1873.000000	13.410089
1872.000000	13.716697
1871.000000	14.005717
1870.000000	14.288016
1869.000000	14.543989
1868.000000	14.792905
1867.000000	14.994659
1866.000000	15.170200
1865.000000	15.310677
1864.000000	15.435471
1863.000000	15.546374
1862.000000	15.648203
1861.000000	15.784648
1860.000000	15.899471
1859.000000	16.005109
1858.000000	16.117917
1857.000000	16.198014
1856.000000	16.264892
1855.000000	16.318887
1854.000000	16.341964
1853.000000	16.383636
1852.000000	16.405481
1851.000000	16.407497
1850.000000	16.396743
1849.000000	16.375683
1848.000000	16.394279
1847.000000	16.401448
1846.000000	16.416795
1845.000000	16.390918
1844.000000	16.349469
1843.000000	16.294802
1842.000000	16.270941
1841.000000	16.278222
1840.000000	16.280575
1839.000000	16.254585
1838.000000	16.245063
1837.000000	16.231061
1836.000000	16.192749
1835.000000	16.160710
1834.000000	16.126207
1833.000000	16.076132
1832.000000	16.003989
1831.000000	15.956491
1830.000000	15.920868
1829.000000	15.862952
1828.000000	15.820719
1827.000000	15.773221
1826.000000	15.729196
1825.000000	15.672288
1824.000000	15.610787
1823.000000	15.564074
1822.000000	15.524865
1821.000000	15.506942
1820.000000	15.500332
1819.000000	15.487562
1818.000000	15.456083
1817.000000	15.420348
1816.000000	15.403768
1815.000000	15.385396
1814.000000	15.366016
1813.000000	15.356606
1812.000000	15.338571
1811.000000	15.317062
1810.000000	15.305412
1809.000000	15.275165
1808.000000	15.233717
1807.000000	15.201566
1806.000000	15.175129
1805.000000	15.130879
1804.000000	15.086518
1803.000000	15.053583
1802.000000	15.028042
1801.000000	14.988274
1800.000000	14.941672
1799.000000	14.899215
1798.000000	14.847684
1797.000000	14.815758
1796.000000	14.778454
1795.000000	14.732300
1794.000000	14.689507
1793.000000	14.653660
1792.000000	14.626886
1791.000000	14.585774
1790.000000	14.540292
1789.000000	14.483273
1788.000000	14.460644
1787.000000	14.427037
1786.000000	14.372593
1785.000000	14.331817
1784.000000	14.276477
1783.000000	14.218337
1782.000000	14.166695
1781.000000	14.109115
1780.000000	14.053999
1779.000000	14.013447
1778.000000	13.961580
1777.000000	13.895598
1776.000000	13.828608
1775.000000	13.763747
1774.000000	13.684098
1773.000000	13.622821
1772.000000	13.553255
1771.000000	13.458483
1770.000000	13.362479
1769.000000	13.287311
1768.000000	13.207551
1767.000000	13.116700
1766.000000	13.040748
1765.000000	12.991122
1764.000000	12.940263
1763.000000	12.884812
1762.000000	12.867000
1761.000000	12.877754
1760.000000	12.887948
1759.000000	12.924020
1758.000000	12.959643
1757.000000	13.005797
1756.000000	13.059008
1755.000000	13.089030
1754.000000	13.133839
1753.000000	13.155124
1752.000000	13.175624
1751.000000	13.179433
1750.000000	13.167222
1749.000000	13.166102
1748.000000	13.131263
1747.000000	13.094407
1746.000000	13.045341
1745.000000	13.002772
1744.000000	12.950345
1743.000000	12.855686
1742.000000	12.753520
1741.000000	12.654716
1740.000000	12.513790
1739.000000	12.376674
1738.000000	12.240341
1737.000000	12.120476
1736.000000	12.001956
1735.000000	11.913345
1734.000000	11.840642
1733.000000	11.785639
1732.000000	11.763010
1731.000000	11.769955
1730.000000	11.807931
1729.000000	11.832240
1728.000000	11.880746
1727.000000	11.920179
1726.000000	11.974622
1725.000000	12.043180
1724.000000	12.086869
1723.000000	12.137504
1722.000000	12.189707
1721.000000	12.210991
1720.000000	12.241014
1719.000000	12.271260
1718.000000	12.298033
1717.000000	12.350460
1716.000000	12.390789
1715.000000	12.443440
1714.000000	12.506397
1713.000000	12.544037
1712.000000	12.614275
1711.000000	12.667150
1710.000000	12.682049
1709.000000	12.709943
1708.000000	12.740414
1707.000000	12.738845
1706.000000	12.724954
1705.000000	12.713080
1704.000000	12.681601
1703.000000	12.649227
1702.000000	12.607666
1701.000000	12.554679
1700.000000	12.481192
1699.000000	12.407928
1698.000000	12.333097
1697.000000	12.245494
1696.000000	12.179625
1695.000000	12.159012
1694.000000	12.118012
1693.000000	12.145346
1692.000000	12.190379
1691.000000	12.266667
1690.000000	12.386420
1689.000000	12.462372
1688.000000	12.563081
1687.000000	12.626374
1686.000000	12.685186
1685.000000	12.755313
1684.000000	12.811100
1683.000000	12.877418
1682.000000	13.006693
1681.000000	13.204974
1680.000000	13.495339
1679.000000	13.797242
1678.000000	14.159973
1677.000000	14.538052
1676.000000	14.934839
1675.000000	15.301715
1674.000000	15.569563
1673.000000	15.873818
1672.000000	16.133040
1671.000000	16.374562
1670.000000	16.559513
1669.000000	16.726764
1668.000000	16.870602
1667.000000	17.041549
1666.000000	17.143491
1665.000000	17.229076
1664.000000	17.327993
1663.000000	17.409546
1662.000000	17.466230
1661.000000	17.549015
1660.000000	17.596961
1659.000000	17.653421
1658.000000	17.703831
1657.000000	17.730045
1656.000000	17.744272
1655.000000	17.760403
1654.000000	17.769701
1653.000000	17.770037
1652.000000	17.747296
1651.000000	17.749201
1650.000000	17.718842
1649.000000	17.709544
1648.000000	17.669552
1647.000000	17.642779
1646.000000	17.592256
1645.000000	17.576461
1644.000000	17.507678
1643.000000	17.458052
1642.000000	17.407418
1641.000000	17.385573
1640.000000	17.351406
1639.000000	17.276126
1638.000000	17.200735
1637.000000	17.177658
1636.000000	17.144835
1635.000000	17.071796
1634.000000	17.018136
1633.000000	16.935463
1632.000000	16.887965
1631.000000	16.820415
1630.000000	16.755218
1629.000000	16.678370
1628.000000	16.607235
1627.000000	16.553464
1626.000000	16.495324
1625.000000	16.419932
1624.000000	16.340843
1623.000000	16.275086
1622.000000	16.223219
1621.000000	16.150628
1620.000000	16.084982
1619.000000	16.026618
1618.000000	15.983265
1617.000000	15.898463
1616.000000	15.833938
1615.000000	15.779719
1614.000000	15.703767
1613.000000	15.668367
1612.000000	15.605074
1611.000000	15.562841
1610.000000	15.486890
1609.000000	15.448466
1608.000000	15.381364
1607.000000	15.323896
1606.000000	15.255897
1605.000000	15.205151
1604.000000	15.151716
1603.000000	15.090327
1602.000000	15.028826
1601.000000	14.988498
1600.000000	14.895742
1599.000000	14.847460
1598.000000	14.796938
1597.000000	14.720762
1596.000000	14.674048
1595.000000	14.622181
1594.000000	14.573339
1593.000000	14.527522
1592.000000	14.465685
1591.000000	14.426253
1590.000000	14.372369
1589.000000	14.325208
1588.000000	14.293617
1587.000000	14.228868
1586.000000	14.195373
1585.000000	14.166919
1584.000000	14.115724
1583.000000	14.097128
1582.000000	14.064529
1581.000000	14.027226
1580.000000	13.999332
1579.000000	13.956315
1578.000000	13.924276
1577.000000	13.910049
1576.000000	13.894366
1575.000000	13.866248
1574.000000	13.850117
1573.000000	13.834994
1572.000000	13.836002
1571.000000	13.812141
1570.000000	13.814381
1569.000000	13.810124
1568.000000	13.783911
1567.000000	13.800154
1566.000000	13.809788
1565.000000	13.807212
1564.000000	13.793881
1563.000000	13.797578
1562.000000	13.818302
1561.000000	13.791304
1560.000000	13.786599
1559.000000	13.783015
1558.000000	13.769572
1557.000000	13.760722
1556.000000	13.746047
1555.000000	13.729804
1554.000000	13.734285
1553.000000	13.719385
1552.000000	13.689251
1551.000000	13.664382
1550.000000	13.652508
1549.000000	13.617892
1548.000000	13.581037
1547.000000	13.567370
1546.000000	13.547430
1545.000000	13.508558
1544.000000	13.476183
1543.000000	13.452770
1542.000000	13.441904
1541.000000	13.430701
1540.000000	13.410313
1539.000000	13.401127
1538.000000	13.374466
1537.000000	13.343323
1536.000000	13.322599
1535.000000	13.311845
1534.000000	13.296385
1533.000000	13.270172
1532.000000	13.246087
1531.000000	13.217409
1530.000000	13.191980
1529.000000	13.163302
1528.000000	13.129134
1527.000000	13.092055
1526.000000	13.078276
1525.000000	13.049038
1524.000000	13.006469
1523.000000	12.966365
1522.000000	12.925812
1521.000000	12.891533
1520.000000	12.853893
1519.000000	12.828912
1518.000000	12.793064
1517.000000	12.740077
1516.000000	12.697957
1515.000000	12.669167
1514.000000	12.643961
1513.000000	12.607890
1512.000000	12.550310
1511.000000	12.502812
1510.000000	12.477943
1509.000000	12.437726
1508.000000	12.395942
1507.000000	12.356846
1506.000000	12.311812
1505.000000	12.282014
1504.000000	12.234180
1503.000000	12.190491
1502.000000	12.159012
1501.000000	12.104905
1500.000000	12.055391
1499.000000	12.030298
1498.000000	12.001060
1497.000000	11.980335
1496.000000	11.952329
1495.000000	11.907184
1494.000000	11.880298
1493.000000	11.864503
1492.000000	11.844115
1491.000000	11.824959
1490.000000	11.803114
1489.000000	11.788103
1488.000000	11.762562
1487.000000	11.735676
1486.000000	11.729739
1485.000000	11.720217
1484.000000	11.689747
1483.000000	11.667790
1482.000000	11.662189
1481.000000	11.661181
1480.000000	11.651771
1479.000000	11.638104
1478.000000	11.619396
1477.000000	11.615587
1476.000000	11.618164
1475.000000	11.613571
1474.000000	11.606737
1473.000000	11.604945
1472.000000	11.610098
1471.000000	11.621300
1470.000000	11.622309
1469.000000	11.619396
1468.000000	11.606177
1467.000000	11.628694
1466.000000	11.642361
1465.000000	11.648074
1464.000000	11.647290
1463.000000	11.669022
1462.000000	11.688626
1461.000000	11.706662
1460.000000	11.709127
1459.000000	11.740829
1458.000000	11.782054
1457.000000	11.810732
1456.000000	11.830112
1455.000000	11.871112
1454.000000	11.926228
1453.000000	11.967116
1452.000000	12.015062
1451.000000	12.079588
1450.000000	12.118908
1449.000000	12.159685
1448.000000	12.222754
1447.000000	12.269804
1446.000000	12.316965
1445.000000	12.391573
1444.000000	12.440863
1443.000000	12.510206
1442.000000	12.566777
1441.000000	12.644410
1440.000000	12.738957
1439.000000	12.806843
1438.000000	12.883019
1437.000000	12.941944
1436.000000	13.025849
1435.000000	13.109530
1434.000000	13.191195
1433.000000	13.276669
1432.000000	13.381635
1431.000000	13.469797
1430.000000	13.573083
1429.000000	13.672448
1428.000000	13.798362
1427.000000	13.933126
1426.000000	14.043021
1425.000000	14.163894
1424.000000	14.328568
1423.000000	14.485065
1422.000000	14.623974
1421.000000	14.805452
1420.000000	14.978864
1419.000000	15.173224
1418.000000	15.385845
1417.000000	15.586814
1416.000000	15.747008
1415.000000	15.977328
1414.000000	16.189724
1413.000000	16.457236
1412.000000	16.687220
1411.000000	16.897823
1410.000000	17.161750
1409.000000	17.478440
1408.000000	17.819999
1407.000000	18.180491
1406.000000	18.527427
1405.000000	18.875371
1404.000000	19.291538
1403.000000	19.648220
1402.000000	20.056769
1401.000000	20.415244
1400.000000	20.853815
1399.000000	21.342797
1398.000000	21.696007
1397.000000	21.944923
1396.000000	22.267662
1395.000000	22.693911
1394.000000	23.096634
1393.000000	23.395513
1392.000000	23.677587
1391.000000	24.076391
1390.000000	24.480907
1389.000000	24.815969
1388.000000	25.223621
1387.000000	25.763350
1386.000000	26.272608
1385.000000	26.847288
1384.000000	27.378726
1383.000000	28.015467
1382.000000	28.681110
1381.000000	29.322331
1380.000000	29.856682
1379.000000	30.237674
1378.000000	30.532407
1377.000000	30.830165
1376.000000	31.056116
1375.000000	31.329565
1374.000000	31.582514
1373.000000	31.876239
1372.000000	32.243452
1371.000000	32.679558
1370.000000	33.134261
1369.000000	33.540794
1368.000000	33.914392
1367.000000	34.304345
1366.000000	34.636830
1365.000000	34.939741
1364.000000	35.219575
1363.000000	35.446535
1362.000000	35.679767
1361.000000	35.922186
1360.000000	36.166173
1359.000000	36.292759
1358.000000	36.428419
1357.000000	36.562063
1356.000000	36.765609
1355.000000	37.036930
1354.000000	37.452088
1353.000000	37.968628
1352.000000	38.460074
1351.000000	39.098383
1350.000000	39.687402
1349.000000	40.255808
1348.000000	40.802258
1347.000000	41.304459
1346.000000	41.769692
1345.000000	42.216105
1344.000000	42.670471
1343.000000	43.120581
1342.000000	43.570803
1341.000000	43.965349
1340.000000	44.380731
1339.000000	44.797234
1338.000000	45.204999
1337.000000	45.602794
1336.000000	46.010783
1335.000000	46.388750
1334.000000	46.777807
1333.000000	47.155213
1332.000000	47.503046
1331.000000	47.869250
1330.000000	48.223356
1329.000000	48.572421
1328.000000	48.915212
1327.000000	49.230222
1326.000000	49.530556
1325.000000	49.838956
1324.000000	50.113301
1323.000000	50.388543
1322.000000	50.647653
1321.000000	50.897353
1320.000000	51.137755
1319.000000	51.375468
1318.000000	51.603660
1317.000000	51.834204
1316.000000	52.035510
1315.000000	52.252611
1314.000000	52.427815
1313.000000	52.623744
1312.000000	52.789651
1311.000000	52.972361
1310.000000	53.150366
1309.000000	53.282890
1308.000000	53.421350
1307.000000	53.560147
1306.000000	53.670154
1305.000000	53.781505
1304.000000	53.871572
1303.000000	53.972169
1302.000000	54.044312
1301.000000	54.099876
1300.000000	54.157792
1299.000000	54.212235
1298.000000	54.267015
1297.000000	54.314064
1296.000000	54.331428
1295.000000	54.366827
1294.000000	54.389792
1293.000000	54.399202
1292.000000	54.420823
1291.000000	54.424071
1290.000000	54.407940
1289.000000	54.399426
1288.000000	54.382063
1287.000000	54.343863
1286.000000	54.301294
1285.000000	54.258725
1284.000000	54.189046
1283.000000	54.111638
1282.000000	54.050810
1281.000000	53.988637
1280.000000	53.911228
1279.000000	53.842222
1278.000000	53.770639
1277.000000	53.691999
1276.000000	53.628033
1275.000000	53.562836
1274.000000	53.502903
1273.000000	53.457198
1272.000000	53.404323
1271.000000	53.350888
1270.000000	53.313472
1269.000000	53.265302
1268.000000	53.230239
1267.000000	53.167842
1266.000000	53.104436
1265.000000	53.052682
1264.000000	53.009441
1263.000000	52.946035
1262.000000	52.881622
1261.000000	52.805110
1260.000000	52.736440
1259.000000	52.652534
1258.000000	52.583752
1257.000000	52.496486
1256.000000	52.406643
1255.000000	52.316240
1254.000000	52.215195
1253.000000	52.104740
1252.000000	52.002911
1251.000000	51.886967
1250.000000	51.760941
1249.000000	51.637043
1248.000000	51.489060
1247.000000	51.345334
1246.000000	51.205417
1245.000000	51.040519
1244.000000	50.871811
1243.000000	50.712850
1242.000000	50.534061
1241.000000	50.328722
1240.000000	50.124728
1239.000000	49.941794
1238.000000	49.747993
1237.000000	49.534365
1236.000000	49.325665
1235.000000	49.118310
1234.000000	48.895944
1233.000000	48.667864
1232.000000	48.430263
1231.000000	48.177314
1230.000000	47.902297
1229.000000	47.639266
1228.000000	47.388782
1227.000000	47.121494
1226.000000	46.835051
1225.000000	46.549839
1224.000000	46.258243
1223.000000	45.959700
1222.000000	45.663511
1221.000000	45.356455
1220.000000	45.058025
1219.000000	44.788160
1218.000000	44.499140
1217.000000	44.230956
1216.000000	43.979464
1215.000000	43.738614
1214.000000	43.498212
1213.000000	43.275621
1212.000000	43.084397
1211.000000	42.876034
1210.000000	42.696237
1209.000000	42.534811
1208.000000	42.392541
1207.000000	42.242766
1206.000000	42.117524
1205.000000	42.042805
1204.000000	41.940639
1203.000000	41.872865
1202.000000	41.829512
1201.000000	41.784591
1200.000000	41.735525
1199.000000	41.676152
1198.000000	41.598408
1197.000000	41.491538
1196.000000	41.358454
1195.000000	41.158828
1194.000000	40.909128
1193.000000	40.602745
1192.000000	40.242478
1191.000000	39.807155
1190.000000	39.329599
1189.000000	38.866607
1188.000000	38.456714
1187.000000	38.124789
1186.000000	37.916985
1185.000000	37.841818
1184.000000	37.902870
1183.000000	38.111122
1182.000000	38.452457
1181.000000	38.924411
1180.000000	39.494834
1179.000000	40.097071
1178.000000	40.714544
1177.000000	41.233884
1176.000000	41.719057
1175.000000	42.164910
1174.000000	42.589702
1173.000000	42.972262
1172.000000	43.357510
1171.000000	43.756089
1170.000000	44.147723
1169.000000	44.526250
1168.000000	44.948354
1167.000000	45.383564
1166.000000	45.818103
1165.000000	46.259475
1164.000000	46.714177
1163.000000	47.218282
1162.000000	47.712865
1161.000000	48.248673
1160.000000	48.735975
1159.000000	49.209273
1158.000000	49.721108
1157.000000	50.212106
1156.000000	50.680139
1155.000000	51.085776
1154.000000	51.445707
1153.000000	51.780769
1152.000000	52.027668
1151.000000	52.237040
1150.000000	52.407539
1149.000000	52.552497
1148.000000	52.705297
1147.000000	52.867619
1146.000000	53.056939
1145.000000	53.313584
1144.000000	53.668810
1143.000000	54.067613
1142.000000	54.525116
1141.000000	55.031686
1140.000000	55.569958
1139.000000	56.111031
1138.000000	56.689519
1137.000000	57.272040
1136.000000	57.884024
1135.000000	58.518300
1134.000000	59.184055
1133.000000	59.817211
1132.000000	60.381584
1131.000000	60.916495
1130.000000	61.385425
1129.000000	61.806297
1128.000000	62.198939
1127.000000	62.524030
1126.000000	62.764544
1125.000000	62.963050
1124.000000	63.124923
1123.000000	63.298448
1122.000000	63.420665
1121.000000	63.503898
1120.000000	63.601583
1119.000000	63.640791
1118.000000	63.698707
1117.000000	63.725705
1116.000000	63.746765
1115.000000	63.756623
1114.000000	63.739932
1113.000000	63.713046
1112.000000	63.710245
1111.000000	63.696691
1110.000000	63.660731
1109.000000	63.636310
1108.000000	63.614353
1107.000000	63.609088
1106.000000	63.572233
1105.000000	63.582763
1104.000000	63.539410
1103.000000	63.544451
1102.000000	63.506587
1101.000000	63.460545
1100.000000	63.446430
1099.000000	63.422009
1098.000000	63.355916
1097.000000	63.334967
1096.000000	63.292062
1095.000000	63.224176
1094.000000	63.174886
1093.000000	63.127276
1092.000000	63.066895
1091.000000	62.985230
1090.000000	62.926754
1089.000000	62.847666
1088.000000	62.761744
1087.000000	62.699235
1086.000000	62.591916
1085.000000	62.532880
1084.000000	62.429147
1083.000000	62.359356
1082.000000	62.251366
1081.000000	62.127468
1080.000000	62.052188
1079.000000	61.977580
1078.000000	61.878216
1077.000000	61.776499
1076.000000	61.691025
1075.000000	61.589420
1074.000000	61.497224
1073.000000	61.400324
1072.000000	61.295246
1071.000000	61.227024
1070.000000	61.100774
1069.000000	61.010595
1068.000000	60.893755
1067.000000	60.805928
1066.000000	60.709476
1065.000000	60.598797
1064.000000	60.486438
1063.000000	60.378335
1062.000000	60.276394
1061.000000	60.134125
1060.000000	60.021877
1059.000000	59.929570
1058.000000	59.802199
1057.000000	59.679198
1056.000000	59.541409
1055.000000	59.447982
1054.000000	59.301567
1053.000000	59.190552
1052.000000	59.064302
1051.000000	58.965497
1050.000000	58.850225
1049.000000	58.738202
1048.000000	58.611952
1047.000000	58.533535
1046.000000	58.423752
1045.000000	58.301535
1044.000000	58.187047
1043.000000	58.099893
1042.000000	57.990334
1041.000000	57.877863
1040.000000	57.788132
1039.000000	57.692352
1038.000000	57.591083
1037.000000	57.470098
1036.000000	57.363227
1035.000000	57.277306
1034.000000	57.144110
1033.000000	57.022677
1032.000000	56.905724
1031.000000	56.787428
1030.000000	56.667787
1029.000000	56.548370
1028.000000	56.418423
1027.000000	56.289372
1026.000000	56.159313
1025.000000	56.009874
1024.000000	55.870629
1023.000000	55.759950
1022.000000	55.628546
1021.000000	55.501064
1020.000000	55.358682
1019.000000	55.215740
1018.000000	55.091394
1017.000000	54.980827
1016.000000	54.866787
1015.000000	54.757341
1014.000000	54.661337
1013.000000	54.541920
1012.000000	54.468545
1011.000000	54.398530
1010.000000	54.324258
1009.000000	54.276649
1008.000000	54.194984
1007.000000	54.138636
1006.000000	54.099764
1005.000000	54.047449
1004.000000	53.990877
1003.000000	53.960519
1002.000000	53.905963
1001.000000	53.835501
1000.000000	53.800661
999.000000	53.755404
998.000000	53.713843
997.000000	53.649542
996.000000	53.585689
995.000000	53.549281
994.000000	53.507832
993.000000	53.455181
992.000000	53.429080
991.000000	53.400290
990.000000	53.364331
989.000000	53.336997
988.000000	53.302942
987.000000	53.257348
986.000000	53.229791
985.000000	53.216684
984.000000	53.192375
983.000000	53.171090
982.000000	53.148350
981.000000	53.127737
980.000000	53.101412
979.000000	53.086065
978.000000	53.081360
977.000000	53.087185
976.000000	53.057499
975.000000	53.027924
974.000000	53.018515
973.000000	53.014370
972.000000	52.987372
971.000000	52.974937
970.000000	52.960598
969.000000	52.958246
968.000000	52.946372
967.000000	52.941779
966.000000	52.942451
965.000000	52.927888
964.000000	52.924415
963.000000	52.924639
962.000000	52.933825
961.000000	52.958358
960.000000	52.973593
959.000000	52.976618
958.000000	52.965864
957.000000	52.997230
956.000000	53.018515
955.000000	53.019299
954.000000	53.027812
953.000000	53.013137
952.000000	53.013361
951.000000	53.022547
950.000000	53.045512
949.000000	53.041591
948.000000	53.024340
947.000000	53.018178
946.000000	53.007424
945.000000	53.007648
944.000000	52.997006
943.000000	52.970008
942.000000	52.949732
941.000000	52.926543
940.000000	52.899434
939.000000	52.854288
938.000000	52.838717
937.000000	52.816200
936.000000	52.778449
935.000000	52.745850
934.000000	52.717620
933.000000	52.700144
932.000000	52.684349
931.000000	52.653879
930.000000	52.619823
929.000000	52.598763
928.000000	52.583192
927.000000	52.541855
926.000000	52.502983
925.000000	52.469264
924.000000	52.426359
923.000000	52.415269
922.000000	52.374380
921.000000	52.318929
920.000000	52.269190
919.000000	52.225165
918.000000	52.185845
917.000000	52.133306
916.000000	52.074606
915.000000	52.006384
914.000000	51.952613
913.000000	51.897161
912.000000	51.873860
911.000000	51.826586
910.000000	51.760044
909.000000	51.677371
908.000000	51.631330
907.000000	51.604668
906.000000	51.582936
905.000000	51.566468
904.000000	51.567812
903.000000	51.566804
902.000000	51.555042
901.000000	51.544624
900.000000	51.564788
899.000000	51.565012
898.000000	51.565236
897.000000	51.576774
896.000000	51.600411
895.000000	51.612062
894.000000	51.599627
893.000000	51.553585
892.000000	51.549665
891.000000	51.526700
890.000000	51.469232
889.000000	51.448059
888.000000	51.429240
887.000000	51.376813
886.000000	51.314864
885.000000	51.275992
884.000000	51.202616
883.000000	51.118151
882.000000	51.053065
881.000000	50.983163
880.000000	50.891416
879.000000	50.796868
878.000000	50.674650
877.000000	50.542239
876.000000	50.405906
875.000000	50.285145
874.000000	50.137274
873.000000	49.939777
872.000000	49.757403
871.000000	49.641347
870.000000	49.634066
869.000000	49.671481
868.000000	49.698031
867.000000	49.724917
866.000000	49.790114
865.000000	49.807814
864.000000	49.825177
863.000000	49.844333
862.000000	49.886454
861.000000	49.918493
860.000000	49.949411
859.000000	49.968567
858.000000	50.003967
857.000000	49.001500
856.000000	50.311000
855.000000	50.699400
854.000000	50.700000
853.000000	50.585300
852.000000	50.809600
851.000000	50.491200
850.000000	50.734700
849.000000	50.494000
848.000000	50.777100
847.000000	50.718800
846.000000	50.674700
845.000000	50.719800
844.000000	50.834000
843.000000	51.062400
842.000000	50.628300
841.000000	50.792900
840.000000	51.018900
839.000000	50.932900
838.000000	51.102800
837.000000	50.850900
836.000000	50.867300
835.000000	50.763800
834.000000	50.838000
833.000000	50.798100
832.000000	50.697900
831.000000	50.582400
830.000000	50.730900
829.000000	50.584400
828.000000	50.504400
827.000000	50.541300
826.000000	50.451100
825.000000	50.383500
824.000000	50.530700
823.000000	50.442800
822.000000	50.405200
821.000000	50.260900
820.000000	50.399300
819.000000	50.356000
818.000000	50.195300
817.000000	50.224300
816.000000	50.331000
815.000000	50.205000
814.000000	50.085100
813.000000	49.995400
812.000000	50.062700
811.000000	49.908000
810.000000	49.967600
809.000000	49.874000
808.000000	49.678500
807.000000	49.730600
806.000000	49.511700
805.000000	49.397700
804.000000	49.417700
803.000000	49.436100
802.000000	49.378800
801.000000	49.259500
800.000000	49.351800
799.000000	49.045100
798.000000	49.067700
797.000000	48.985100
796.000000	48.864300
795.000000	48.863800
794.000000	48.703000
793.000000	48.704000
792.000000	48.478900
791.000000	48.471500
790.000000	48.390600
789.000000	48.181300
788.000000	48.141100
787.000000	48.240600
786.000000	48.032000
785.000000	48.069300
784.000000	47.764300
783.000000	47.773700
782.000000	47.662300
781.000000	47.579400
780.000000	47.484200
779.000000	47.346800
778.000000	47.151600
777.000000	47.140700
776.000000	47.121600
775.000000	46.907400
774.000000	46.824900
773.000000	46.669500
772.000000	46.627700
771.000000	46.467700
770.000000	46.494300
769.000000	46.313700
768.000000	46.117900
767.000000	46.054900
766.000000	45.931900
765.000000	45.866700
764.000000	45.655600
763.000000	45.586100
762.000000	45.442600
761.000000	45.333900
760.000000	45.154000
759.000000	44.971100
758.000000	44.901100
757.000000	44.730400
756.000000	44.649900
755.000000	44.409200
754.000000	44.287700
753.000000	44.029300
752.000000	44.044400
751.000000	43.803200
750.000000	43.721200
749.000000	43.540900
748.000000	43.374000
747.000000	43.286400
746.000000	43.103000
745.000000	42.903500
744.000000	42.763000
743.000000	42.593400
742.000000	42.381600
741.000000	42.227800
740.000000	41.997100
739.000000	41.797900
738.000000	41.581500
737.000000	41.367900
736.000000	41.196300
735.000000	40.986200
734.000000	40.784800
733.000000	40.569000
732.000000	40.360000
731.000000	40.185500
730.000000	39.922600
729.000000	39.680400
728.000000	39.459400
727.000000	39.259100
726.000000	39.008300
725.000000	38.817600
724.000000	38.552300
723.000000	38.297100
722.000000	38.076500
721.000000	37.790000
720.000000	37.564800
719.000000	37.308800
718.000000	37.020200
717.000000	36.771600
716.000000	36.490600
715.000000	36.235900
714.000000	35.976700
713.000000	35.692400
712.000000	35.448500
711.000000	35.198300
710.000000	34.869600
709.000000	34.583800
708.000000	34.361000
707.000000	34.021100
706.000000	33.715700
705.000000	33.446700
704.000000	33.151400
703.000000	32.902100
702.000000	32.597900
701.000000	32.258100
700.000000	31.995500
699.000000	31.748400
698.000000	31.464400
697.000000	31.213100
696.000000	30.964300
695.000000	30.708200
694.000000	30.443500
693.000000	30.213500
692.000000	29.910600
691.000000	29.647300
690.000000	29.417800
689.000000	29.124700
688.000000	28.873400
687.000000	28.621500
686.000000	28.351100
685.000000	28.086600
684.000000	27.846300
683.000000	27.589700
682.000000	27.328300
681.000000	27.078700
680.000000	26.832500
679.000000	26.619400
678.000000	26.411200
677.000000	26.181900
676.000000	25.960200
675.000000	25.754200
674.000000	25.555700
673.000000	25.370300
672.000000	25.214700
671.000000	25.033600
670.000000	24.830300
669.000000	24.664200
668.000000	24.496000
667.000000	24.333600
666.000000	24.179600
665.000000	24.021600
664.000000	23.859000
663.000000	23.727400
662.000000	23.616100
661.000000	23.477500
660.000000	23.352600
659.000000	23.232200
658.000000	23.107700
657.000000	23.006100
656.000000	22.902900
655.000000	22.794200
654.000000	22.694600
653.000000	22.624800
652.000000	22.571800
651.000000	22.523500
650.000000	22.488900
649.000000	22.469400
648.000000	22.434100
647.000000	22.394300
646.000000	22.411600
645.000000	22.429800
644.000000	22.434500
643.000000	22.433700
642.000000	22.440200
641.000000	22.473300
640.000000	22.520900
639.000000	22.563500
638.000000	22.596600
637.000000	22.655700
636.000000	22.712900
635.000000	22.793500
634.000000	22.869200
633.000000	22.942200
632.000000	23.048800
631.000000	23.136200
630.000000	23.216600
629.000000	23.304000
628.000000	23.413200
627.000000	23.525200
626.000000	23.632400
625.000000	23.737600
624.000000	23.841400
623.000000	23.932500
622.000000	24.024000
621.000000	24.148400
620.000000	24.252500
619.000000	24.336100
618.000000	24.433400
617.000000	24.531000
616.000000	24.607200
615.000000	24.671700
614.000000	24.750000
613.000000	24.840800
612.000000	24.950400
611.000000	25.062800
610.000000	25.169300
609.000000	25.251500
608.000000	25.337400
607.000000	25.430800
606.000000	25.506200
605.000000	25.591500
604.000000	25.665500
603.000000	25.734100
602.000000	25.807200
601.000000	25.873200
600.000000	25.937600
599.000000	25.998400
598.000000	26.070800
597.000000	26.129100
596.000000	26.193300
595.000000	26.239200
594.000000	26.295400
593.000000	26.368900
592.000000	26.422000
591.000000	26.463400
590.000000	26.507900
589.000000	26.557900
588.000000	26.591500
587.000000	26.614200
586.000000	26.644900
585.000000	26.684900
584.000000	26.714100
583.000000	26.723400
582.000000	26.768200
581.000000	26.758300
580.000000	26.751800
579.000000	26.745600
578.000000	26.747000
577.000000	26.720500
576.000000	26.689500
575.000000	26.655500
574.000000	26.640800
573.000000	26.603100
572.000000	26.547000
571.000000	26.484200
570.000000	26.415200
569.000000	26.343000
568.000000	26.265700
567.000000	26.175300
566.000000	26.105600
565.000000	26.008600
564.000000	25.900300
563.000000	25.811300
562.000000	25.699400
561.000000	25.595000
560.000000	25.483600
559.000000	25.266800
558.000000	25.141600
557.000000	25.015600
556.000000	24.898100
555.000000	24.783800
554.000000	24.656300
553.000000	24.519100
552.000000	24.377900
551.000000	24.243400
550.000000	24.096600
549.000000	23.940000
548.000000	23.803700
547.000000	23.648900
546.000000	23.508100
545.000000	23.358700
544.000000	23.182700
543.000000	23.021500
542.000000	22.835900
541.000000	22.647300
540.000000	22.453100
539.000000	22.261200
538.000000	22.061100
537.000000	21.872600
536.000000	21.669100
535.000000	21.450000
534.000000	21.241300
533.000000	20.999500
532.000000	20.759800
531.000000	20.514900
530.000000	20.268400
529.000000	20.014000
528.000000	19.750900
527.000000	19.478300
526.000000	19.181500
525.000000	18.901400
524.000000	18.591100
523.000000	18.295200
522.000000	17.986500
521.000000	17.660900
520.000000	17.341500
519.000000	17.024000
518.000000	16.715200
517.000000	16.401100
516.000000	16.074700
515.000000	15.753200
514.000000	15.449900
513.000000	15.152000
512.000000	14.853200
511.000000	14.545400
510.000000	14.285900
509.000000	14.006300
508.000000	13.730800
507.000000	13.464600
506.000000	13.249000
505.000000	13.009300
504.000000	12.762600
503.000000	12.539100
502.000000	12.348400
501.000000	12.141400
500.000000	11.946100
499.000000	11.769100
498.000000	11.609100
497.000000	11.446100
496.000000	11.313000
495.000000	11.195000
494.000000	11.053400
493.000000	10.956200
492.000000	10.821100
491.000000	10.726100
490.000000	10.632200
489.000000	10.562200
488.000000	10.492600
487.000000	10.429800
486.000000	10.374200
485.000000	10.302900
484.000000	10.277500
483.000000	10.204400
482.000000	10.169200
481.000000	10.116200
480.000000	10.044500
479.000000	9.993600
478.000000	9.945600
477.000000	9.881300
476.000000	9.847700
475.000000	9.793700
474.000000	9.769800
473.000000	9.703200
472.000000	9.669300
471.000000	9.651300
470.000000	9.607300
469.000000	9.567300
468.000000	9.529200
467.000000	9.508900
466.000000	9.484800
465.000000	9.429800
464.000000	9.410300
463.000000	9.363100
462.000000	9.317800
461.000000	9.285600
460.000000	9.248500
459.000000	9.211200
458.000000	9.181800
457.000000	9.149300
456.000000	9.077000
455.000000	9.059800
454.000000	8.996100
453.000000	8.942100
452.000000	8.911000
451.000000	8.858400
450.000000	8.812600
449.000000	8.751400
448.000000	8.688200
447.000000	8.621800
446.000000	8.577200
445.000000	8.471800
444.000000	8.433400
443.000000	8.352800
442.000000	8.281400
441.000000	8.190900
440.000000	8.115700
439.000000	8.036900
438.000000	7.952200
437.000000	7.877300
436.000000	7.812700
435.000000	7.725600
434.000000	7.648300
433.000000	7.575100
432.000000	7.479800
431.000000	7.406700
430.000000	7.321500
429.000000	7.237900
428.000000	7.177600
427.000000	7.089300
426.000000	7.034200
425.000000	6.969900
424.000000	6.880100
423.000000	6.796100
422.000000	6.726900
421.000000	6.651000
420.000000	6.582800
419.000000	6.504500
418.000000	6.441500
417.000000	6.360500
416.000000	6.294600
415.000000	6.223400
414.000000	6.132500
413.000000	6.065400
412.000000	5.981300
411.000000	5.934400
410.000000	5.863300
409.000000	5.784900
408.000000	5.708400
407.000000	5.666200
406.000000	5.580900
405.000000	5.506300
404.000000	5.443200
403.000000	5.367300
402.000000	5.308800
401.000000	5.260900
400.000000	5.201500
399.000000	5.131500
398.000000	5.068700
397.000000	5.008300
396.000000	4.962000
395.000000	4.920000
394.000000	4.878100
393.000000	4.806500
392.000000	4.752600
391.000000	4.718100
390.000000	4.687800
389.000000	4.638300
388.000000	4.608100
387.000000	4.575400
386.000000	4.538500
385.000000	4.499400
384.000000	4.454100
383.000000	4.428400
382.000000	4.398300
381.000000	4.368300
380.000000	4.332400
379.000000	4.313900
378.000000	4.302600
377.000000	4.287800
376.000000	4.257000
375.000000	4.230300
374.000000	4.165500
373.000000	4.099000
372.000000	4.151800
371.000000	4.098800
370.000000	4.149000
369.000000	4.103400
368.000000	4.134400
367.000000	4.021100
366.000000	4.087600
365.000000	4.170400
364.000000	4.085800
363.000000	4.043100
362.000000	4.077100
361.000000	4.005800
360.000000	3.962500
359.000000	3.959100
358.000000	4.104000
357.000000	4.091000
356.000000	3.992500
355.000000	3.942500
354.000000	3.938100
353.000000	4.030700
352.000000	4.135800
351.000000	4.060300
350.000000	3.955000
349.000000	4.032400
348.000000	4.064800
347.000000	3.937200
346.000000	3.971400
345.000000	4.036800
344.000000	4.106600
343.000000	4.157800
342.000000	4.020300
341.000000	3.918900
340.000000	4.026100
339.000000	4.109000
338.000000	4.078800
337.000000	4.177500
336.000000	4.170600
335.000000	4.122600
334.000000	4.157600
333.000000	4.181500
332.000000	4.258800
331.000000	4.100600
330.000000	4.055800
329.000000	4.101700
328.000000	4.169600
327.000000	4.207800
326.000000	4.301900
325.000000	4.415100
324.000000	4.656900
323.000000	4.521700
322.000000	4.522300
321.000000	4.502900
320.000000	4.425400
319.000000	4.106200
318.000000	3.965900
317.000000	4.591600
316.000000	4.493000
315.000000	4.122700
314.000000	4.132600
313.000000	4.159600
312.000000	4.154100
311.000000	4.169100
310.000000	4.185900
309.000000	4.141800
308.000000	4.147200
307.000000	4.156100
306.000000	4.139600
305.000000	4.151800
304.000000	4.153600
303.000000	4.161300
302.000000	4.176800
301.000000	4.154600
300.000000	4.148800
299.000000	4.178700
298.000000	4.213200
297.000000	4.219000
296.000000	4.238900
295.000000	4.225400
294.000000	4.210300
293.000000	4.222600
292.000000	4.196800
291.000000	4.222300
290.000000	4.225900
289.000000	4.251500
288.000000	4.253600
287.000000	4.247100
286.000000	4.247800
285.000000	4.253200
284.000000	4.262400
283.000000	4.283400
282.000000	4.300200
281.000000	4.323600
280.000000	4.318100
279.000000	4.322200
278.000000	4.316500
277.000000	4.326600
276.000000	4.326000
275.000000	4.345200
274.000000	4.350500
273.000000	4.365500
272.000000	4.371900
271.000000	4.406700
270.000000	4.405800
269.000000	4.410500
268.000000	4.460800
267.000000	4.436900
266.000000	4.449300
265.000000	4.462200
264.000000	4.484600
263.000000	4.510900
262.000000	4.553400
261.000000	4.557300
260.000000	4.564500
259.000000	4.600000
258.000000	4.602900
257.000000	4.648400
256.000000	4.658000
255.000000	4.660500
254.000000	4.659900
253.000000	4.645400
252.000000	4.646500
251.000000	4.686900
250.000000	4.674400
